time,seconds_elapsed,z,y,x
1763692622173180400,0.176180419921875,0,0,0
1763692622182958600,0.18595849609375,0.04042625427246094,-0.019968032836914062,-0.04167670011520386
1763692622202514400,0.205514404296875,0.08972549438476562,-0.11512279510498047,-0.2237083911895752
1763692622212292400,0.215292236328125,0.09893226623535156,-0.25036144256591797,-0.22407770156860352
1763692622222070300,0.2250703125,0.057953834533691406,-0.28247714042663574,-0.21012148261070251
1763692622231848200,0.23484814453125,-0.09483814239501953,-0.32791829109191895,-0.21086527407169342
1763692622241626000,0.244626220703125,-0.18671512603759766,-0.3845667839050293,-0.18120472133159637
1763692622251404000,0.254404052734375,-0.19362926483154297,-0.34486889839172363,-0.13767428696155548
1763692622261182200,0.26418212890625,-0.22107505798339844,-0.3026878833770752,-0.10912543535232544
1763692622270960000,0.273960205078125,-0.12470722198486328,-0.3846442699432373,0.02914711833000183
1763692622280738000,0.283738037109375,0.05018901824951172,-0.6280200481414795,0.2799258232116699
1763692622290516000,0.293515869140625,0.1611318588256836,-0.6526193618774414,0.6450335383415222
1763692622300294000,0.3032939453125,0.3044309616088867,-0.6641271114349365,0.9236979484558105
1763692622310071600,0.313071533203125,0.37381839752197266,-0.8118734359741211,0.8192122578620911
1763692622319849500,0.322849365234375,0.5451564788818359,-0.8145627975463867,0.2434018850326538
1763692622329627400,0.33262744140625,0.8170967102050781,-0.8341898918151855,-0.6747857928276062
1763692622339401500,0.3424013671875,0.5080413818359375,-0.9691095352172852,-1.6655076742172241
1763692622349179100,0.35217919921875,-0.9169063568115234,-2.1321768760681152,-2.6589789390563965
1763692622358956800,0.361956787109375,-0.7322072982788086,-2.2261569499969482,-3.352809190750122
1763692622368734700,0.371734619140625,0.7248983383178711,-0.8364343643188477,-2.957674026489258
1763692622378512600,0.3815126953125,2.5386791229248047,0.1474623680114746,-1.8927421569824219
1763692622388290600,0.39129052734375,3.8600692749023438,0.5867903232574463,-1.2764272689819336
1763692622398068200,0.401068115234375,3.451547622680664,0.22408556938171387,-1.0475125312805176
1763692622407846100,0.41084619140625,2.77927303314209,-0.19313406944274902,-0.918276309967041
1763692622417624000,0.4206240234375,1.6562471389770508,-0.2846376895904541,-0.23251724243164062
1763692622427402000,0.430402099609375,-2.1205949783325195,-0.33223748207092285,0.7273019552230835
1763692622437180000,0.440179931640625,-6.351955413818359,-0.9359836578369141,1.0102564096450806
1763692622446957600,0.44995751953125,-7.999114036560059,-0.25834226608276367,1.3970898389816284
1763692622456735500,0.459735595703125,-6.0315446853637695,0.8914651870727539,2.089714527130127
1763692622466513400,0.469513427734375,-3.0104074478149414,1.2856345176696777,2.686760663986206
1763692622476291300,0.479291259765625,-2.136861801147461,0.9946169853210449,2.847299814224243
1763692622486069200,0.4890693359375,-3.568202495574951,0.3919343948364258,1.8266241550445557
1763692622495847000,0.498846923828125,-2.9227051734924316,0.025805950164794922,0.3289816379547119
1763692622505624800,0.508624755859375,-1.6632461547851562,-0.04529237747192383,-0.5868432521820068
1763692622515402800,0.51840283203125,-0.9583301544189453,-0.1062459945678711,-0.7958929538726807
1763692622525180700,0.5281806640625,-0.3054695129394531,-0.12057971954345703,-0.8867026567459106
1763692622534958300,0.537958251953125,0.24878597259521484,-0.13218402862548828,-0.992523193359375
1763692622544736300,0.547736328125,0.2509326934814453,-0.05654191970825195,-1.0121877193450928
1763692622554514200,0.55751416015625,-0.130859375,0.060668230056762695,-0.799446702003479
1763692622564292000,0.5672919921875,-0.7783889770507812,-0.037880897521972656,-0.24844861030578613
1763692622574070000,0.577070068359375,-1.4072513580322266,-0.29427504539489746,0.15658283233642578
1763692622583847700,0.58684765625,-1.6825671195983887,-1.3929316997528076,-0.5556355714797974
1763692622593625600,0.59662548828125,-1.1565852165222168,-2.0417237281799316,-0.0819087028503418
1763692622603403500,0.606403564453125,-0.9237232208251953,-1.6957130432128906,0.20351886749267578
1763692622613181400,0.616181396484375,-0.004572868347167969,-0.7459099292755127,0.6254680156707764
1763692622622806000,0.625805908203125,0.2844076156616211,-0.9748256206512451,0.08594489097595215
1763692622632392000,0.635391845703125,1.1461658477783203,-0.39052796363830566,0.8863061666488647
1763692622641979000,0.644978759765625,0.8501901626586914,-0.28806018829345703,0.5734140872955322
1763692622651564800,0.654564697265625,0.384124755859375,-1.6862530708312988,1.0725611448287964
1763692622661150200,0.664150146484375,2.275355339050293,-1.2544963359832764,0.3348287343978882
1763692622670736400,0.673736328125,2.1968259811401367,1.212200403213501,0.5663764476776123
1763692622680323000,0.683322998046875,1.7798137664794922,1.9523978233337402,1.078084111213684
1763692622689909200,0.6929091796875,1.4296283721923828,0.8030478954315186,1.5366344451904297
1763692622699494400,0.702494384765625,1.1563844680786133,-0.7997608184814453,1.4741058349609375
1763692622709080600,0.71208056640625,1.1509637832641602,-1.4840219020843506,1.1013318300247192
1763692622718667500,0.72166748046875,1.3280963897705078,-1.1883516311645508,0.765325665473938
1763692622728253400,0.73125341796875,1.585341453552246,-0.6986417770385742,0.7328109741210938
1763692622737838800,0.7408388671875,1.7509765625,-0.41092944145202637,0.8859989643096924
1763692622747425000,0.750425048828125,1.6353845596313477,-0.10558605194091797,1.178118348121643
1763692622757011700,0.76001171875,-1.1402416229248047,0.3505253791809082,1.1897467374801636
1763692622766598000,0.769597900390625,-2.606109619140625,0.5670366287231445,0.6966323852539062
1763692622776183000,0.77918310546875,-1.9173240661621094,0.8413615226745605,0.16370737552642822
1763692622785769200,0.788769287109375,-1.1927495002746582,0.9430367946624756,0.19230711460113525
1763692622795356200,0.798356201171875,-3.1986331939697266,0.3386819362640381,-0.027749300003051758
1763692622804942000,0.807942138671875,-2.6807379722595215,0.10000967979431152,-0.19910931587219238
1763692622814527500,0.817527587890625,-1.8384718894958496,0.5206191539764404,-0.28178179264068604
1763692622824113400,0.827113525390625,-1.0538568496704102,0.9408724308013916,-0.3445841073989868
1763692622833700400,0.836700439453125,-0.5532407760620117,1.0006818771362305,-0.28260207176208496
1763692622843286500,0.84628662109375,-0.005944252014160156,0.848285436630249,-0.04477846622467041
1763692622852871700,0.85587158203125,0.36849498748779297,0.5777757167816162,0.10310065746307373
1763692622862457900,0.865457763671875,0.14629364013671875,0.4443359375,0.2504703998565674
1763692622872044500,0.87504443359375,-0.13245105743408203,0.41530823707580566,0.21994638442993164
1763692622881630700,0.884630615234375,-0.8230752944946289,0.683645486831665,0.042963266372680664
1763692622891216000,0.8942158203125,-1.293360710144043,0.7123005390167236,-0.34339630603790283
1763692622900802000,0.903802001953125,-0.9960875511169434,0.561669111251831,-0.7835086584091187
1763692622910389000,0.913388916015625,0.01736164093017578,0.4999363422393799,-0.9323385953903198
1763692622919975000,0.922974853515625,1.0373115539550781,0.6053152084350586,-0.6580194234848022
1763692622929560300,0.932560302734375,1.6310014724731445,0.774104118347168,-0.2757680416107178
1763692622939146200,0.942146240234375,1.7345123291015625,0.8148384094238281,-0.2032933235168457
1763692622948733200,0.951733154296875,1.4133062362670898,0.8365476131439209,-0.5076490640640259
1763692622958319400,0.9613193359375,0.8879232406616211,0.8251650333404541,-0.8262721300125122
1763692622967904500,0.970904541015625,0.4976224899291992,0.8069024085998535,-0.9543497562408447
1763692622977490700,0.98049072265625,0.6314306259155273,0.787128210067749,-0.98250412940979
1763692622987077600,0.99007763671875,0.8626909255981445,0.7814311981201172,-0.8991470336914062
1763692622996663600,0.99966357421875,0.8732643127441406,0.8224625587463379,-0.8357036113739014
1763692623006249000,1.0092490234375,0.6133317947387695,0.8129467964172363,-0.8889425992965698
1763692623015835000,1.0188349609375,0.17308425903320312,0.811028003692627,-1.0104321241378784
1763692623025421800,1.028421875,-0.06537532806396484,0.8538413047790527,-1.0719594955444336
1763692623035008000,1.038008056640625,0.03099346160888672,0.8575477600097656,-0.9988358020782471
1763692623044593200,1.04759326171875,0.2736701965332031,0.768024206161499,-0.7276992797851562
1763692623054179300,1.057179443359375,-3.508028984069824,0.9758038520812988,-0.6974400281906128
1763692623063766300,1.066766357421875,1.9263124465942383,0.8772792816162109,-0.3253195285797119
1763692623073352200,1.076352294921875,1.2043914794921875,0.4352586269378662,-0.04812002182006836
1763692623082937600,1.0859375,-0.19834136962890625,0.3482494354248047,-0.03864634037017822
1763692623092523800,1.095523681640625,0.6642217636108398,0.4864225387573242,0.2346951961517334
1763692623102110500,1.1051103515625,0.2778949737548828,0.6483280658721924,0.33232831954956055
1763692623111696600,1.114696533203125,-0.04395008087158203,0.5718722343444824,0.3127252459526062
1763692623121281800,1.12428173828125,-0.13924312591552734,0.35390686988830566,0.22851502895355225
1763692623130868000,1.133867919921875,-0.7605419158935547,0.15737414360046387,-0.06551182270050049
1763692623140455000,1.143454833984375,-0.03605937957763672,0.10308122634887695,-0.034375786781311035
1763692623150040800,1.153040771484375,-0.15048789978027344,-0.011784076690673828,-0.1360456347465515
1763692623159626000,1.1626259765625,0.10102653503417969,-0.07455754280090332,-0.17507970333099365
1763692623169212200,1.172212158203125,0.3897409439086914,0.011851787567138672,-0.07873886823654175
1763692623178799000,1.181799072265625,0.5461111068725586,-0.012054681777954102,-0.059219300746917725
1763692623188385000,1.191385009765625,0.5992422103881836,-0.2991504669189453,-0.3399503827095032
1763692623197970400,1.200970458984375,1.0063352584838867,-0.1400470733642578,-0.12603747844696045
1763692623207556600,1.210556640625,0.5291414260864258,-0.06099510192871094,-0.26487499475479126
1763692623217143300,1.220143310546875,0.7159757614135742,-0.0067882537841796875,-0.17030571401119232
1763692623226729500,1.2297294921875,0.4276752471923828,0.007390499114990234,-0.34528228640556335
1763692623236314600,1.239314697265625,0.02726268768310547,0.13573992252349854,-0.49883559346199036
1763692623245900800,1.24890087890625,-0.3393840789794922,0.26332247257232666,-0.45872217416763306
1763692623255487700,1.25848779296875,-0.4735279083251953,0.2391190528869629,-0.29685306549072266
1763692623265073700,1.26807373046875,-0.16263675689697266,0.01866936683654785,0.05682528018951416
1763692623274659000,1.2776591796875,0.42025184631347656,0.13947606086730957,0.6478594541549683
1763692623284245200,1.287245361328125,0.9445524215698242,0.31119799613952637,1.0088863372802734
1763692623293832000,1.29683203125,1.1090087890625,0.25977635383605957,1.0963284969329834
1763692623303418000,1.306418212890625,0.9378471374511719,0.03818249702453613,0.8913792371749878
1763692623313003300,1.316003173828125,0.6381111145019531,-0.1681201457977295,0.5501577854156494
1763692623322589400,1.32558935546875,0.45850086212158203,-0.1340022087097168,0.33620619773864746
1763692623332176400,1.33517626953125,0.2527809143066406,-0.18753862380981445,-0.09127497673034668
1763692623341762300,1.34476220703125,0.33970165252685547,-0.34667110443115234,-0.6068878769874573
1763692623351347700,1.35434765625,0.7054328918457031,0.5047659873962402,-0.35253220796585083
1763692623360933600,1.36393359375,0.6134195327758789,0.38028383255004883,-0.23165267705917358
1763692623370520600,1.3735205078125,0.5764045715332031,-0.1679692268371582,0.07341122627258301
1763692623380106800,1.383106689453125,0.7760763168334961,-0.2647709846496582,0.45345228910446167
1763692623389692000,1.39269189453125,0.8384771347045898,-0.21912789344787598,0.8422040343284607
1763692623399278000,1.402278076171875,0.7893171310424805,-0.5042526721954346,0.9973168969154358
1763692623408865000,1.411864990234375,0.6909055709838867,-0.41504597663879395,0.4416108727455139
1763692623418451000,1.421450927734375,0.9610462188720703,-0.5294201374053955,0.40511131286621094
1763692623428036400,1.431036376953125,0.8562307357788086,-0.3557732105255127,0.43942683935165405
1763692623437622500,1.44062255859375,-3.806671142578125,0.0049512386322021484,0.5168682336807251
1763692623447209200,1.450209228515625,-0.24832916259765625,-0.34392356872558594,2.2337939739227295
1763692623456795400,1.45979541015625,-0.49622154235839844,-1.1132194995880127,1.285295844078064
1763692623466380500,1.469380615234375,-1.0278396606445312,-0.6048696041107178,1.0655171871185303
1763692623475966700,1.478966796875,-0.31772804260253906,-0.27219247817993164,1.3171601295471191
1763692623485553700,1.4885537109375,-0.12237167358398438,-0.4086427688598633,1.4890233278274536
1763692623495139600,1.4981396484375,0.0463714599609375,-0.5637810230255127,1.598789930343628
1763692623504724700,1.507724853515625,0.02791118621826172,-0.860285758972168,1.2713263034820557
1763692623514311000,1.517310791015625,0.2823295593261719,-1.1163846254348755,1.2511972188949585
1763692623523897900,1.52689794921875,0.24510574340820312,-1.040290117263794,1.3725225925445557
1763692623533483800,1.53648388671875,0.30837345123291016,-1.1036713123321533,1.3634167909622192
1763692623543069200,1.546069091796875,0.5121479034423828,-0.9864754676818848,1.554458498954773
1763692623552655000,1.555655029296875,0.5797624588012695,-0.6602036952972412,1.6030534505844116
1763692623562242000,1.565241943359375,-0.12365436553955078,-0.6766209602355957,2.3273279666900635
1763692623571828200,1.574828125,-0.7702493667602539,-1.4727586507797241,2.277067184448242
1763692623581413400,1.584413330078125,-1.0528688430786133,-2.111588716506958,2.11392879486084
1763692623590999600,1.59399951171875,-1.8070697784423828,-0.7423830032348633,-0.07935571670532227
1763692623600586500,1.60358642578125,0.047393798828125,0.597578763961792,2.4864306449890137
1763692623610172400,1.61317236328125,-0.7704191207885742,-0.3404502868652344,1.2727441787719727
1763692623619757800,1.6227578125,-0.40443992614746094,-0.6498146057128906,-0.43865394592285156
1763692623629344000,1.632343994140625,0.28516387939453125,-1.228973627090454,-1.963184118270874
1763692623638930700,1.6419306640625,1.0165882110595703,-0.35785746574401855,-1.5574426651000977
1763692623648516900,1.651516845703125,-0.4547290802001953,-0.324068546295166,-1.1745429039001465
1763692623658102000,1.66110205078125,-0.8080244064331055,-0.6623597145080566,-0.8044357299804688
1763692623667688200,1.670688232421875,1.674917221069336,0.22166705131530762,0.49185848236083984
1763692623677275100,1.680275146484375,1.9127960205078125,0.3905198574066162,1.0407285690307617
1763692623686861000,1.689861083984375,1.2554426193237305,0.4276106357574463,1.1935718059539795
1763692623696446500,1.699446533203125,1.0566740036010742,0.06146121025085449,1.5518972873687744
1763692623706032400,1.709032470703125,0.4761934280395508,0.23503494262695312,1.7636315822601318
1763692623715619300,1.718619384765625,0.6048240661621094,0.5259923934936523,1.3618597984313965
1763692623725205200,1.728205322265625,1.037144660949707,0.8563826084136963,0.9953703880310059
1763692623734790700,1.737790771484375,1.7822046279907227,0.5973169803619385,0.6946024894714355
1763692623744376800,1.747376953125,2.031587600708008,0.04717361927032471,0.8612403869628906
1763692623753963800,1.7569638671875,3.0973119735717773,-0.8117691278457642,1.3822860717773438
1763692623763549700,1.7665498046875,2.405447483062744,-0.5261703729629517,1.2364344596862793
1763692623773135000,1.776135009765625,2.270542621612549,-0.6602529287338257,0.037695884704589844
1763692623782721000,1.785720947265625,2.32804012298584,-0.23814189434051514,0.26814889907836914
1763692623792308000,1.795307861328125,2.2683472633361816,0.6825910806655884,-0.08852958679199219
1763692623801894100,1.80489404296875,1.317460060119629,1.1382802724838257,-0.36463308334350586
1763692623811479300,1.814479248046875,0.28638410568237305,0.7629234790802002,-0.17977285385131836
1763692623821065500,1.8240654296875,-0.5999083518981934,0.39678215980529785,0.2214221954345703
1763692623830652200,1.833652099609375,-0.8497447967529297,1.02836012840271,0.571019172668457
1763692623840238300,1.84323828125,-1.1684527397155762,1.08207368850708,1.3461318016052246
1763692623849823500,1.852823486328125,-1.1071648597717285,0.618546724319458,1.3247175216674805
1763692623859409700,1.86240966796875,0.15766525268554688,0.4712017774581909,0.696986198425293
1763692623868996600,1.87199658203125,0.05803203582763672,0.6500215530395508,0.8275799751281738
1763692623878582500,1.88158251953125,0.6543445587158203,1.2834255695343018,0.8345732688903809
1763692623888168000,1.89116796875,-0.062039852142333984,1.6345725059509277,0.014734268188476562
1763692623897754000,1.900754150390625,-0.40568065643310547,2.152405023574829,-0.11868095397949219
1763692623907340800,1.9103408203125,-0.5477895736694336,2.293976306915283,0.25223541259765625
1763692623916927000,1.919927001953125,0.4884910583496094,1.863890290260315,0.35672760009765625
1763692623926512000,1.92951220703125,0.6077370643615723,1.2184486389160156,0.2660341262817383
1763692623936098300,1.939098388671875,0.759986400604248,0.7027292251586914,0.36533212661743164
1763692623945685200,1.948685302734375,1.3107147216796875,0.5008411407470703,0.6510233879089355
1763692623955271200,1.958271240234375,0.9131770133972168,0.34185266494750977,1.02626371383667
1763692623964856600,1.967856689453125,0.4127507209777832,0.6862378120422363,1.2585291862487793
1763692623974442500,1.9774423828125,-0.1279463768005371,1.2823960781097412,1.154055118560791
1763692623984029400,1.987029541015625,-0.6603822708129883,1.4620349407196045,0.9541411399841309
1763692623993615600,1.99661572265625,-0.867638111114502,1.2403504848480225,0.6737260818481445
1763692624003200800,2.00620068359375,-0.39318370819091797,0.8232629299163818,0.3111381530761719
1763692624012787000,2.015786865234375,0.29425048828125,0.7904632091522217,0.022790908813476562
1763692624022374000,2.025373779296875,0.937192440032959,1.0074427127838135,-0.2698049545288086
1763692624031959800,2.034959716796875,1.5688228607177734,0.7103946208953857,-0.6297416687011719
1763692624041545200,2.044545166015625,1.550931453704834,0.2649061679840088,-0.8320236206054688
1763692624051131100,2.054131103515625,1.4959559440612793,0.26396894454956055,-0.6427040100097656
1763692624060718000,2.063718017578125,1.5686964988708496,1.0620741844177246,-0.3615875244140625
1763692624070304000,2.073303955078125,1.113990306854248,1.8277080059051514,0.36220550537109375
1763692624079889400,2.082889404296875,1.019920825958252,1.9356718063354492,0.7870440483093262
1763692624089475600,2.0924755859375,1.121981143951416,1.7557942867279053,1.0706119537353516
1763692624099062500,2.1020625,1.418480396270752,1.4254140853881836,1.320690631866455
1763692624108648400,2.1116484375,1.0292038917541504,0.9626498222351074,1.8150062561035156
1763692624118233600,2.121233642578125,0.17366480827331543,0.2826535701751709,0.828279972076416
1763692624127819800,2.13081982421875,0.7313010692596436,-0.869879961013794,-1.6513671875
1763692624137406700,2.14040673828125,0.6233572959899902,-2.7757322788238525,-2.4988832473754883
1763692624146992600,2.14999267578125,0.045556068420410156,-2.1731116771698,-0.7244844436645508
1763692624156578000,2.159578125,-0.313859224319458,-1.5445125102996826,-0.09432029724121094
1763692624166164000,2.1691640625,-0.6421730518341064,-1.1398882865905762,0.5303554534912109
1763692624175751000,2.1787509765625,-0.8337528705596924,-0.562849760055542,0.8671150207519531
1763692624185337000,2.188337158203125,-0.986609935760498,-0.1378166675567627,1.0137324333190918
1763692624194922200,2.197922119140625,-1.2563385963439941,-0.1262071132659912,0.47850704193115234
1763692624204508400,2.20750830078125,-1.3349515199661255,-0.5761022567749023,-0.0963287353515625
1763692624214095400,2.217095458984375,-1.3321239948272705,-1.0141263008117676,-0.5271244049072266
1763692624223681300,2.226681396484375,-1.292460560798645,-1.3491599559783936,-0.8936614990234375
1763692624233266700,2.2362666015625,-1.3751028776168823,-1.5729846954345703,-1.02679443359375
1763692624242852900,2.245852783203125,-1.5124332904815674,-1.6044893264770508,-0.9271507263183594
1763692624252439600,2.255439453125,-1.598301649093628,-1.6345546245574951,-0.5658054351806641
1763692624262025700,2.265025634765625,-1.7460907697677612,-1.5066308975219727,-0.09929561614990234
1763692624271611000,2.27461083984375,-1.9143269062042236,-1.3109009265899658,0.26630401611328125
1763692624281197000,2.284197021484375,-2.0114171504974365,-1.0990490913391113,0.51885986328125
1763692624290784000,2.293783935546875,-2.124352216720581,-0.8766961097717285,0.576446533203125
1763692624300370000,2.303369873046875,-2.188392162322998,-0.7221033573150635,0.4136362075805664
1763692624309955300,2.312955322265625,-2.0778756141662598,-0.6644408702850342,0.12415599822998047
1763692624319541200,2.322541259765625,-1.8357089757919312,-0.6425416469573975,-0.30812931060791016
1763692624329128200,2.332128173828125,-1.5290738344192505,-0.6108882427215576,-0.6081247329711914
1763692624338714000,2.341714111328125,-1.2408685684204102,-0.5839409828186035,-0.7064990997314453
1763692624348299500,2.351299560546875,-0.9786695241928101,-0.5425515174865723,-0.6717290878295898
1763692624357885700,2.3608857421875,-0.7945196628570557,-0.4693334102630615,-0.579218864440918
1763692624367472400,2.370472412109375,-0.7316939830780029,-0.37999987602233887,-0.36586761474609375
1763692624377058600,2.38005859375,-0.6156730651855469,-0.32889580726623535,-0.11177825927734375
1763692624386644000,2.38964404296875,-0.46785926818847656,-0.35529494285583496,0.057358741760253906
1763692624396230000,2.39922998046875,-0.3718090057373047,-0.37278056144714355,0.06836795806884766
1763692624405816800,2.40881689453125,-0.2899441719055176,-0.37912917137145996,0.07912158966064453
1763692624415402800,2.41840283203125,-0.19623637199401855,-0.3742375373840332,0.07067298889160156
1763692624424988200,2.42798828125,-0.051817893981933594,-0.32306647300720215,-0.004475593566894531
1763692624434574300,2.43757421875,0.0346217155456543,-0.26558995246887207,-0.1319427490234375
1763692624444161000,2.4471611328125,0.1417405605316162,-0.22266626358032227,-0.26612377166748047
1763692624453747200,2.456747314453125,0.2575061321258545,-0.2437882423400879,-0.36394309997558594
1763692624463332400,2.466332275390625,0.23731088638305664,-0.2374591827392578,-0.35682201385498047
1763692624472918500,2.47591845703125,0.17702317237854004,-0.26166510581970215,-0.3074769973754883
1763692624482505500,2.48550537109375,0.13069748878479004,-0.27311110496520996,-0.14959239959716797
1763692624492091400,2.49509130859375,0.06728911399841309,-0.28785252571105957,0.034664154052734375
1763692624501676800,2.5046767578125,-0.02319192886352539,-0.29126787185668945,0.14400196075439453
1763692624511263000,2.514262939453125,-0.050263166427612305,-0.2687842845916748,0.23027420043945312
1763692624520849700,2.523849609375,-0.05912017822265625,-0.27445387840270996,0.30033016204833984
1763692624530435800,2.533435791015625,-0.0626680850982666,-0.20685362815856934,0.3639230728149414
1763692624540021000,2.54302099609375,-0.0631556510925293,-0.10422539710998535,0.39020538330078125
1763692624549607200,2.552607177734375,-0.08146309852600098,0.023163795471191406,0.35064125061035156
1763692624568780000,2.571780029296875,-0.09296989440917969,0.20616555213928223,0.2339944839477539
1763692624578365400,2.581365478515625,-0.09326529502868652,0.22601819038391113,0.1677389144897461
1763692624587951400,2.590951416015625,-0.06496596336364746,0.18729782104492188,0.07239151000976562
1763692624597538300,2.600538330078125,-0.06562018394470215,0.16323423385620117,-0.018983840942382812
1763692624607124500,2.61012451171875,-0.06442999839782715,0.15042686462402344,-0.07825374603271484
1763692624616709600,2.619709716796875,-0.0761868953704834,0.1363201141357422,-0.10829639434814453
1763692624626295800,2.6292958984375,-0.09891128540039062,0.13245320320129395,-0.12380313873291016
1763692624635882500,2.638882568359375,-0.07640552520751953,0.16993236541748047,-0.13226318359375
1763692624645468700,2.64846875,-0.045110225677490234,0.22067570686340332,-0.1216421127319336
1763692624655054000,2.65805419921875,-0.019756793975830078,0.280775785446167,-0.07268619537353516
1763692624664640000,2.667639892578125,-0.04645276069641113,0.3436610698699951,-0.030882835388183594
1763692624674227000,2.67722705078125,-0.015410423278808594,0.3672475814819336,-0.036446571350097656
1763692624683812900,2.686812744140625,0.030992507934570312,0.3908371925354004,-0.014616012573242188
1763692624693398300,2.696398193359375,0.04641318321228027,0.3889467716217041,-0.017179489135742188
1763692624702984400,2.705984375,0.0388178825378418,0.3886580467224121,-0.05067729949951172
1763692624712571100,2.715571044921875,-0.0121002197265625,0.3541259765625,-0.11464691162109375
1763692624722157300,2.7251572265625,-0.05752110481262207,0.29216551780700684,-0.20404911041259766
1763692624731742500,2.734742431640625,-0.07527399063110352,0.22370362281799316,-0.29492855072021484
1763692624741328600,2.74432861328125,-0.010478734970092773,0.15299010276794434,-0.44945335388183594
1763692624750915600,2.75391552734375,0.09414029121398926,0.09652161598205566,-0.5885696411132812
1763692624760501500,2.76350146484375,0.17537784576416016,0.05144357681274414,-0.6905384063720703
1763692624770087000,2.7730869140625,0.1590719223022461,0.029532909393310547,-0.6936264038085938
1763692624779672800,2.7826728515625,0.09936308860778809,0.023604393005371094,-0.689204216003418
1763692624789259800,2.792259765625,0.09124279022216797,-0.0021173954010009766,-0.6226186752319336
1763692624798846000,2.801845947265625,0.0305023193359375,-0.041818857192993164,-0.5302314758300781
1763692624808431000,2.81143115234375,-0.06087183952331543,-0.034035682678222656,-0.43280982971191406
1763692624818017300,2.821017333984375,-0.12018656730651855,-0.03816652297973633,-0.38498592376708984
1763692624827604200,2.830604248046875,-0.14837265014648438,-0.07041096687316895,-0.35308361053466797
1763692624837190100,2.840190185546875,-0.10014176368713379,-0.137831449508667,-0.3860588073730469
1763692624846775600,2.849775634765625,-0.06210041046142578,-0.18674683570861816,-0.4307889938354492
1763692624856361700,2.85936181640625,-0.06570291519165039,-0.19003582000732422,-0.430389404296875
1763692624865948400,2.868948486328125,-0.10048174858093262,-0.155778169631958,-0.3902778625488281
1763692624875534600,2.87853466796875,-0.13109302520751953,-0.09599137306213379,-0.31350040435791016
1763692624885119700,2.88811962890625,-0.14442181587219238,-0.0811004638671875,-0.15369510650634766
1763692624894706000,2.897705810546875,-0.13702678680419922,-0.09566593170166016,-0.004207611083984375
1763692624904292900,2.90729296875,-0.11238598823547363,-0.12459802627563477,0.08088111877441406
1763692624913878800,2.916878662109375,-0.051018714904785156,-0.12068057060241699,0.14060306549072266
1763692624923464200,2.926464111328125,-0.0018825531005859375,-0.11267328262329102,0.19932937622070312
1763692624933050000,2.936050048828125,-0.03280305862426758,-0.09822630882263184,0.18420696258544922
1763692624942637000,2.945636962890625,-0.03786420822143555,-0.0629873275756836,0.1934671401977539
1763692624952223000,2.955222900390625,-0.06597566604614258,-0.009287357330322266,0.24602031707763672
1763692624961808400,2.964808349609375,-0.10956072807312012,0.020981788635253906,0.32028770446777344
1763692624971394600,2.97439453125,-0.14139533042907715,0.031134366989135742,0.35444068908691406
1763692624980981200,2.983981201171875,-0.17000365257263184,0.017552852630615234,0.35602855682373047
1763692624990567400,2.9935673828125,-0.12547516822814941,0.0230560302734375,0.31595802307128906
1763692625000152600,3.003152587890625,-0.12515759468078613,-0.021303415298461914,0.26747608184814453
1763692625009738800,3.01273876953125,-0.1646566390991211,-0.05663466453552246,0.1912250518798828
1763692625019325700,3.02232568359375,-0.17894506454467773,-0.051344871520996094,0.06784248352050781
1763692625028911600,3.03191162109375,-0.09392476081848145,-0.0712127685546875,-0.11214351654052734
1763692625038497000,3.0414970703125,0.02028203010559082,-0.07478475570678711,-0.27065563201904297
1763692625048083200,3.051083251953125,0.13045263290405273,-0.07268977165222168,-0.38713836669921875
1763692625057670000,3.060669921875,0.20059967041015625,-0.06766295433044434,-0.4265298843383789
1763692625067256000,3.070256103515625,0.2040727138519287,-0.05218386650085449,-0.47437286376953125
1763692625076841200,3.07984130859375,0.19172906875610352,-0.07104754447937012,-0.5092144012451172
1763692625086427400,3.089427490234375,0.2703726291656494,-0.09766387939453125,-0.5569305419921875
1763692625096014300,3.099014404296875,0.3424065113067627,-0.12251114845275879,-0.5394954681396484
1763692625105600300,3.108600341796875,0.42422914505004883,-0.17150378227233887,-0.5098876953125
1763692625115185700,3.118185546875,0.48736071586608887,-0.2579691410064697,-0.4541053771972656
1763692625124771800,3.127771728515625,0.46115946769714355,-0.29107069969177246,-0.41719627380371094
1763692625134358500,3.137358642578125,0.42783117294311523,-0.251370906829834,-0.33684444427490234
1763692625143944700,3.14694482421875,0.4147791862487793,-0.13849639892578125,-0.21264076232910156
1763692625153529900,3.15652978515625,0.42517757415771484,-0.020053386688232422,-0.0747222900390625
1763692625163116000,3.166115966796875,0.4018974304199219,0.04704117774963379,0.07271289825439453
1763692625172703000,3.175702880859375,0.4043922424316406,0.12374758720397949,0.1923999786376953
1763692625182289000,3.185288818359375,0.40479230880737305,0.18182611465454102,0.3229246139526367
1763692625191874300,3.194874267578125,0.3438990116119385,0.2708628177642822,0.44745826721191406
1763692625201460200,3.204460205078125,0.2952573299407959,0.3378598690032959,0.5303640365600586
1763692625211047200,3.214047119140625,0.2775087356567383,0.38858628273010254,0.5246191024780273
1763692625220633000,3.223633056640625,0.3333878517150879,0.43561840057373047,0.4760875701904297
1763692625230218500,3.233218505859375,0.3638019561767578,0.4608900547027588,0.444122314453125
1763692625239804700,3.2428046875,0.29640746116638184,0.48961806297302246,0.4281339645385742
1763692625249391400,3.252391357421875,0.18873357772827148,0.5049638748168945,0.44632530212402344
1763692625258977500,3.2619775390625,0.05392003059387207,0.49094128608703613,0.5116615295410156
1763692625268563000,3.27156298828125,-0.07924985885620117,0.4677722454071045,0.5780248641967773
1763692625278148900,3.28114892578125,-0.130218505859375,0.408205509185791,0.6284923553466797
1763692625287735800,3.29073583984375,-0.14607882499694824,0.34357476234436035,0.5523157119750977
1763692625297321700,3.30032177734375,-0.13004446029663086,0.3160367012023926,0.43846702575683594
1763692625306907100,3.3099072265625,-0.1225435733795166,0.3081963062286377,0.2827939987182617
1763692625316493300,3.319493408203125,-0.13225102424621582,0.3213958740234375,0.12362957000732422
1763692625326080000,3.329080078125,-0.07317090034484863,0.3356049060821533,-0.005946159362792969
1763692625335666200,3.338666259765625,-0.027749300003051758,0.3785531520843506,-0.10146141052246094
1763692625345251300,3.348251220703125,0.014471054077148438,0.44031190872192383,-0.13490009307861328
1763692625354837500,3.35783740234375,0.053620338439941406,0.5066308975219727,-0.133087158203125
1763692625364424400,3.367424560546875,0.1271805763244629,0.5232830047607422,-0.13909244537353516
1763692625374010400,3.37701025390625,0.21601057052612305,0.5049278736114502,-0.1480855941772461
1763692625383595800,3.386595703125,0.21885228157043457,0.4941868782043457,-0.17653942108154297
1763692625393181700,3.396181640625,0.18688082695007324,0.516721248626709,-0.19579601287841797
1763692625402768600,3.4057685546875,0.19928717613220215,0.492412805557251,-0.19599246978759766
1763692625412354800,3.415354736328125,0.1712806224822998,0.4747436046600342,-0.1390981674194336
1763692625421940000,3.42493994140625,0.12262296676635742,0.4600508213043213,-0.09138774871826172
1763692625431526100,3.434526123046875,0.05863189697265625,0.4538440704345703,-0.035744667053222656
1763692625441113000,3.444113037109375,0.03136014938354492,0.41236042976379395,0.03758525848388672
1763692625450699000,3.453698974609375,0.002651214599609375,0.39081501960754395,0.09090805053710938
1763692625460284400,3.463284423828125,-0.03726005554199219,0.3491361141204834,0.1315746307373047
1763692625469870600,3.47287060546875,-0.09124135971069336,0.3249368667602539,0.17580127716064453
1763692625479457300,3.482457275390625,-0.10790371894836426,0.2821669578552246,0.19480037689208984
1763692625489043500,3.49204345703125,-0.15449953079223633,0.24124670028686523,0.17645263671875
1763692625498628600,3.501628662109375,-0.18421363830566406,0.2197573184967041,0.1629047393798828
1763692625508214800,3.51121484375,-0.21403741836547852,0.20208334922790527,0.16762065887451172
1763692625517801700,3.5208017578125,-0.24657106399536133,0.16365957260131836,0.17567157745361328
1763692625527387600,3.5303876953125,-0.2703704833984375,0.09498381614685059,0.18430709838867188
1763692625536972800,3.539972900390625,-0.2529165744781494,0.03883528709411621,0.1792278289794922
1763692625546559000,3.54955908203125,-0.2750990390777588,0.002340078353881836,0.18424320220947266
1763692625556146000,3.55914599609375,-0.3105025291442871,-0.028495311737060547,0.2063741683959961
1763692625565731800,3.56873193359375,-0.34015822410583496,-0.0696413516998291,0.23612594604492188
1763692625575317200,3.578317138671875,-0.37833213806152344,-0.06837701797485352,0.2501192092895508
1763692625584903400,3.5879033203125,-0.42329907417297363,-0.04836916923522949,0.2602825164794922
1763692625594490000,3.597489990234375,-0.44257426261901855,-0.06387639045715332,0.24766159057617188
1763692625604076300,3.607076171875,-0.36606621742248535,-0.11497783660888672,0.13460540771484375
1763692625613661400,3.616661376953125,-0.29181957244873047,-0.13356423377990723,0.00016880035400390625
1763692625623247600,3.62624755859375,-0.26237988471984863,-0.13516497611999512,-0.12753009796142578
1763692625632834600,3.63583447265625,-0.24587297439575195,-0.15372514724731445,-0.22516727447509766
1763692625642420500,3.64542041015625,-0.15854454040527344,-0.21284723281860352,-0.3258781433105469
1763692625652006000,3.655005859375,-0.08538818359375,-0.2945554256439209,-0.3205757141113281
1763692625661592000,3.664592041015625,-0.0913991928100586,-0.312546968460083,-0.30675697326660156
1763692625671178800,3.6741787109375,-0.07986664772033691,-0.27411866188049316,-0.26480960845947266
1763692625680765000,3.683764892578125,-0.12773442268371582,-0.19812798500061035,-0.19195079803466797
1763692625690350000,3.69335009765625,-0.17016935348510742,-0.1096501350402832,-0.11614608764648438
1763692625699936300,3.702936279296875,-0.21195411682128906,-0.04732847213745117,0.04098987579345703
1763692625709523200,3.712523193359375,-0.22344303131103516,-0.02797722816467285,0.18187618255615234
1763692625719109000,3.722109130859375,-0.22034287452697754,-0.014525175094604492,0.25967979431152344
1763692625728694500,3.731694580078125,-0.1922452449798584,0.004534721374511719,0.23945140838623047
1763692625738280700,3.74128076171875,-0.15865850448608398,0.05349874496459961,0.0820016860961914
1763692625747867400,3.750867431640625,-0.09735631942749023,0.10865640640258789,-0.060074806213378906
1763692625757453600,3.76045361328125,-0.10411739349365234,0.11580729484558105,-0.19923686981201172
1763692625767038700,3.770038818359375,-0.1153864860534668,0.06292390823364258,-0.3094940185546875
1763692625776625000,3.779625,-0.0639195442199707,-0.00959467887878418,-0.4309806823730469
1763692625786211800,3.7892119140625,-0.05562782287597656,-0.06111335754394531,-0.45688629150390625
1763692625795797800,3.7987978515625,-0.08263349533081055,-0.04624152183532715,-0.411834716796875
1763692625805383200,3.808383056640625,-0.10724163055419922,-0.016571760177612305,-0.29906177520751953
1763692625814969000,3.817968994140625,-0.1846761703491211,0.00589442253112793,-0.1429738998413086
1763692625824556000,3.82755615234375,-0.2922797203063965,0.02969527244567871,0.0083160400390625
1763692625834142200,3.83714208984375,-0.35753464698791504,0.054956674575805664,0.09559345245361328
1763692625843727400,3.846727294921875,-0.40215396881103516,0.07857990264892578,0.15027618408203125
1763692625853313500,3.8563134765625,-0.4506847858428955,0.10669469833374023,0.11799049377441406
1763692625862900500,3.865900390625,-0.4611821174621582,0.14945745468139648,0.10284805297851562
1763692625872486400,3.875486328125,-0.4464290142059326,0.17912960052490234,0.06838226318359375
1763692625882071600,3.885071533203125,-0.4472239017486572,0.241180419921875,0.09167098999023438
1763692625891657700,3.89465771484375,-0.4642801284790039,0.30109405517578125,0.11909008026123047
1763692625901244700,3.90424462890625,-0.49128222465515137,0.3605790138244629,0.15453433990478516
1763692625910830600,3.91383056640625,-0.5032634735107422,0.407672643661499,0.2066965103149414
1763692625920416000,3.923416015625,-0.46823763847351074,0.4170193672180176,0.28215789794921875
1763692625930002200,3.933002197265625,-0.41578149795532227,0.43867945671081543,0.2766561508178711
1763692625939588900,3.9425888671875,-0.4070725440979004,0.49608659744262695,0.25525474548339844
1763692625949175000,3.952175048828125,-0.3720865249633789,0.6008992195129395,0.25652599334716797
1763692625958760200,3.96176025390625,-0.354480504989624,0.7155814170837402,0.27880382537841797
1763692625968346400,3.971346435546875,-0.3366830348968506,0.7682838439941406,0.3108677864074707
1763692625977933300,3.980933349609375,-0.27295923233032227,0.7471916675567627,0.2711782455444336
1763692625987519200,3.990519287109375,-0.17280960083007812,0.7278232574462891,0.19480228424072266
1763692625997104600,4.000104736328125,-0.11604499816894531,0.7388918399810791,0.0759439468383789
1763692626006690800,4.00969091796875,-0.06797409057617188,0.7582550048828125,-0.08669281005859375
1763692626016277500,4.019277587890625,-0.03033304214477539,0.7637302875518799,-0.23127079010009766
1763692626025863700,4.02886376953125,0.013981819152832031,0.7432026863098145,-0.3486642837524414
1763692626035448800,4.03844873046875,0.022634029388427734,0.7248666286468506,-0.430023193359375
1763692626045035000,4.048034912109375,0.022461891174316406,0.7012274265289307,-0.48769092559814453
1763692626054622000,4.0576220703125,-0.03730297088623047,0.7239158153533936,-0.47695446014404297
1763692626064208000,4.067207763671875,-0.14788579940795898,0.7897675037384033,-0.37267112731933594
1763692626073793300,4.076793212890625,-0.30907773971557617,0.8235011100769043,-0.18343353271484375
1763692626083379500,4.08637939453125,-0.45375776290893555,0.789567232131958,-0.04987621307373047
1763692626092966100,4.095966064453125,-0.47067975997924805,0.6952555179595947,0.0005826950073242188
1763692626102552300,4.10555224609375,-0.447878360748291,0.5964760780334473,-0.080352783203125
1763692626112137500,4.115137451171875,-0.41680431365966797,0.57584547996521,-0.2269449234008789
1763692626121723600,4.1247236328125,-0.37954044342041016,0.5917458534240723,-0.3815116882324219
1763692626131310600,4.134310546875,-0.3713827133178711,0.5819566249847412,-0.5581722259521484
1763692626140896500,4.143896484375,-0.25184059143066406,0.5294063091278076,-0.7588090896606445
1763692626150482000,4.15348193359375,-0.12445354461669922,0.4969980716705322,-0.9450044631958008
1763692626160068000,4.163068115234375,-0.01124715805053711,0.4763484001159668,-1.0553951263427734
1763692626169654800,4.17265478515625,0.09113693237304688,0.47356557846069336,-1.1147575378417969
1763692626179241000,4.182240966796875,0.19784116744995117,0.49489665031433105,-1.0955257415771484
1763692626188826000,4.191826171875,0.26647472381591797,0.459719181060791,-0.9873342514038086
1763692626198412300,4.201412353515625,0.26991796493530273,0.37839388847351074,-0.8609504699707031
1763692626207999200,4.210999267578125,0.22097492218017578,0.27301716804504395,-0.6990528106689453
1763692626217585200,4.220585205078125,0.17050600051879883,0.16751885414123535,-0.5502519607543945
1763692626227170300,4.23017041015625,0.11048603057861328,0.04702496528625488,-0.4269437789916992
1763692626236756500,4.239756591796875,0.07064008712768555,-0.06735610961914062,-0.31524085998535156
1763692626246343400,4.249343505859375,0.041080474853515625,-0.19210195541381836,-0.16315269470214844
1763692626255929300,4.258929443359375,0.007309913635253906,-0.25890135765075684,-0.03741741180419922
1763692626265514800,4.2685146484375,-0.020005226135253906,-0.23569107055664062,0.05245399475097656
1763692626275101000,4.278100830078125,-0.03298616409301758,-0.22713375091552734,0.11832809448242188
1763692626284687600,4.2876875,0.07662773132324219,-0.26392221450805664,0.1393566131591797
1763692626294273800,4.297273681640625,0.2678537368774414,-0.3321671485900879,0.13986682891845703
1763692626303859200,4.306859130859375,0.40564441680908203,-0.3543422222137451,0.14126300811767578
1763692626313445000,4.316445068359375,0.5221481323242188,-0.3646113872528076,0.20713233947753906
1763692626323032000,4.326031982421875,0.6226601600646973,-0.3513970375061035,0.28227710723876953
1763692626332618000,4.335617919921875,0.7141413688659668,-0.3545706272125244,0.3429694175720215
1763692626342203400,4.345203369140625,0.8557925224304199,-0.39467430114746094,0.4178609848022461
1763692626351789600,4.35478955078125,1.0023689270019531,-0.48468708992004395,0.41991424560546875
1763692626361376300,4.364376220703125,1.216322898864746,-0.6073093414306641,0.4447321891784668
1763692626370962400,4.37396240234375,1.4168391227722168,-0.7026798725128174,0.42818641662597656
1763692626380547600,4.383547607421875,1.5533223152160645,-0.7711470127105713,0.40119171142578125
1763692626390133800,4.3931337890625,1.686166763305664,-0.8330769538879395,0.39234161376953125
1763692626399720700,4.402720703125,1.6603031158447266,-0.857043981552124,0.39375877380371094
1763692626409306600,4.412306640625,1.5525188446044922,-0.9006369113922119,0.4544944763183594
1763692626418892000,4.42189208984375,1.4148507118225098,-0.9659576416015625,0.6519684791564941
1763692626428478000,4.43147802734375,1.2564163208007812,-1.0641160011291504,0.8953027725219727
1763692626438065000,4.44106494140625,1.116724967956543,-1.169990062713623,1.167708396911621
1763692626447651000,4.450651123046875,0.9270634651184082,-1.2419919967651367,1.4423856735229492
1763692626457236200,4.460236328125,0.6457524299621582,-1.2698020935058594,1.6533689498901367
1763692626466822400,4.469822509765625,0.4085350036621094,-1.2488160133361816,1.7561750411987305
1763692626476409300,4.479409423828125,0.23457622528076172,-1.2277214527130127,1.7924203872680664
1763692626485995300,4.488995361328125,0.09354162216186523,-1.2296226024627686,1.7462449073791504
1763692626495580700,4.49858056640625,0.005540370941162109,-1.1754379272460938,1.594498634338379
1763692626505166800,4.508166748046875,-0.01325082778930664,-1.0883257389068604,1.4725542068481445
1763692626514753500,4.51775341796875,-0.0790872573852539,-0.9858534336090088,1.4031381607055664
1763692626524339700,4.527339599609375,-0.09783577919006348,-0.8517715930938721,1.3255105018615723
1763692626533924900,4.5369248046875,-0.02990865707397461,-0.7793760299682617,1.2058396339416504
1763692626543511000,4.546510986328125,0.06439566612243652,-0.7831428050994873,1.0295886993408203
1763692626553098000,4.556097900390625,0.14168381690979004,-0.7346522808074951,0.8202199935913086
1763692626562684000,4.565683837890625,0.2069239616394043,-0.6898682117462158,0.6060237884521484
1763692626572269300,4.575269287109375,0.3084530830383301,-0.6544291973114014,0.3795804977416992
1763692626581855200,4.584855224609375,0.425443172454834,-0.6316268444061279,0.10249519348144531
1763692626591442200,4.594442138671875,0.5803537368774414,-0.5908501148223877,-0.18198776245117188
1763692626601028000,4.604028076171875,0.8011436462402344,-0.4536936283111572,-0.3992319107055664
1763692626610613500,4.613613525390625,1.0471854209899902,-0.26584482192993164,-0.5100555419921875
1763692626620199700,4.62319970703125,1.2342333793640137,-0.07534503936767578,-0.5760335922241211
1763692626629786600,4.63278662109375,1.385798454284668,0.07251453399658203,-0.5222454071044922
1763692626639372500,4.64237255859375,1.4917573928833008,0.2075214385986328,-0.32601165771484375
1763692626648957700,4.651957763671875,1.5492534637451172,0.3383007049560547,-0.11005687713623047
1763692626658543900,4.6615439453125,1.5718703269958496,0.4470987319946289,0.14635610580444336
1763692626677716700,4.680716796875,1.335451602935791,0.6040310859680176,0.7509193420410156
1763692626687302100,4.69030224609375,1.2026124000549316,0.6226820945739746,0.9777011871337891
1763692626696888000,4.69988818359375,1.1068949699401855,0.5697870254516602,1.1034913063049316
1763692626706475000,4.70947509765625,0.976015567779541,0.45681285858154297,1.1876282691955566
1763692626716061200,4.719061279296875,0.8033785820007324,0.37402868270874023,1.197737693786621
1763692626725646300,4.728646240234375,0.7122864723205566,0.3021383285522461,1.1405391693115234
1763692626735232500,4.738232421875,0.6787519454956055,0.26970863342285156,1.0759363174438477
1763692626744819500,4.7478193359375,0.5947070121765137,0.2671494483947754,0.958338737487793
1763692626754405400,4.7574052734375,0.5055370330810547,0.2799415588378906,0.8283448219299316
1763692626763990800,4.76699072265625,0.4401569366455078,0.26475048065185547,0.683570384979248
1763692626773577000,4.776576904296875,0.3794546127319336,0.21897125244140625,0.5860133171081543
1763692626783163600,4.78616357421875,0.315399169921875,0.1498122215270996,0.5063667297363281
1763692626792749800,4.795749755859375,0.2655959129333496,0.07402753829956055,0.4365091323852539
1763692626802335000,4.8053349609375,0.24554681777954102,0.02480173110961914,0.3875117301940918
1763692626811921200,4.814921142578125,0.25464582443237305,0.008779525756835938,0.3110041618347168
1763692626821508000,4.824508056640625,0.2177138328552246,0.027700424194335938,0.28253793716430664
1763692626831094000,4.834093994140625,0.20845699310302734,0.023101806640625,0.24623775482177734
1763692626840679400,4.843679443359375,0.2869076728820801,-0.0057506561279296875,0.18521595001220703
1763692626850265300,4.853265380859375,0.351259708404541,-0.007027149200439453,0.09737920761108398
1763692626859852300,4.862852294921875,0.3906092643737793,-0.0029458999633789062,0.03795433044433594
1763692626869438500,4.8724384765625,0.41776275634765625,0.0015478134155273438,-0.02379465103149414
1763692626879023600,4.882023681640625,0.40906810760498047,0.013980388641357422,-0.032642364501953125
1763692626888609800,4.89160986328125,0.42437124252319336,0.04687213897705078,-0.05525922775268555
1763692626898196700,4.90119677734375,0.4805107116699219,0.06998538970947266,-0.031354427337646484
1763692626907782700,4.91078271484375,0.5443649291992188,0.06476736068725586,-0.0035109519958496094
1763692626917368000,4.9203681640625,0.5303459167480469,0.07295513153076172,0.10550737380981445
1763692626926954200,4.929954345703125,0.4338693618774414,0.104888916015625,0.2649059295654297
1763692626936541000,4.939541015625,0.3439216613769531,0.11826372146606445,0.43225669860839844
1763692626946127000,4.949127197265625,0.2423858642578125,0.13788843154907227,0.5943551063537598
1763692626955712300,4.958712158203125,0.1945486068725586,0.15519189834594727,0.7714009284973145
1763692626965298400,4.96829833984375,0.09533166885375977,0.2021493911743164,0.8899688720703125
1763692626974885400,4.977885498046875,0.01679706573486328,0.2502455711364746,0.9696450233459473
1763692626984471300,4.98747119140625,-0.06696748733520508,0.3282608985900879,1.0156373977661133
1763692626994056700,4.997056640625,-0.17813634872436523,0.3611483573913574,0.9888401031494141
1763692627003642600,5.006642578125,-0.28365564346313477,0.330873966217041,0.9169735908508301
1763692627013229600,5.0162294921875,-0.36675071716308594,0.2892007827758789,0.8545570373535156
1763692627022815700,5.025815673828125,-0.4759249687194824,0.23855304718017578,0.8488845825195312
1763692627032401000,5.03540087890625,-0.624122142791748,0.21747922897338867,0.8252830505371094
1763692627041987000,5.044987060546875,-0.6975164413452148,0.2049098014831543,0.7930741310119629
1763692627051574000,5.054573974609375,-0.7787470817565918,0.21810102462768555,0.7852644920349121
1763692627061160000,5.064159912109375,-0.7927660942077637,0.25517988204956055,0.7726397514343262
1763692627070745300,5.073745361328125,-0.7519888877868652,0.3161149024963379,0.7407293319702148
1763692627080331300,5.083331298828125,-0.7183971405029297,0.39783382415771484,0.6583409309387207
1763692627089918200,5.092918212890625,-0.6675896644592285,0.48294878005981445,0.5494394302368164
1763692627099504000,5.102504150390625,-0.6160893440246582,0.5467538833618164,0.45676612854003906
1763692627109089500,5.112089599609375,-0.534945011138916,0.5717072486877441,0.3895273208618164
1763692627118675500,5.121675537109375,-0.4891386032104492,0.5238680839538574,0.3064894676208496
1763692627128262400,5.131262451171875,-0.40712499618530273,0.4507126808166504,0.14763975143432617
1763692627137848600,5.1408486328125,-0.32686328887939453,0.37804174423217773,0.018166065216064453
1763692627147434000,5.15043408203125,-0.24601125717163086,0.3060126304626465,-0.08909940719604492
1763692627157020000,5.16002001953125,-0.22656774520874023,0.28993654251098633,-0.1739363670349121
1763692627166606800,5.16960693359375,-0.18277406692504883,0.31858015060424805,-0.25046825408935547
1763692627176192800,5.17919287109375,-0.11208724975585938,0.3589334487915039,-0.3015780448913574
1763692627185778200,5.188778076171875,-0.031499385833740234,0.3751659393310547,-0.3178868293762207
1763692627195364400,5.1983642578125,0.08309221267700195,0.3645920753479004,-0.3496894836425781
1763692627204951000,5.207950927734375,0.16989517211914062,0.36709165573120117,-0.3685011863708496
1763692627214537200,5.217537109375,0.24412012100219727,0.33640146255493164,-0.3839116096496582
1763692627224122400,5.227122314453125,0.265836238861084,0.27707862854003906,-0.39573144912719727
1763692627233708500,5.23670849609375,0.3033614158630371,0.21310758590698242,-0.4222993850708008
1763692627243295500,5.24629541015625,0.32433176040649414,0.14043617248535156,-0.41239023208618164
1763692627252881400,5.25588134765625,0.3313422203063965,0.08647775650024414,-0.41075611114501953
1763692627262466800,5.265466796875,0.34102869033813477,0.04735708236694336,-0.4169149398803711
1763692627272053000,5.275052978515625,0.3771853446960449,0.0023779869079589844,-0.44237470626831055
1763692627281639700,5.2846396484375,0.3706068992614746,-0.0049190521240234375,-0.43895626068115234
1763692627291225900,5.294225830078125,0.36874914169311523,-0.015174388885498047,-0.46187782287597656
1763692627300811000,5.30381103515625,0.376251220703125,-0.050113677978515625,-0.4420351982116699
1763692627310397200,5.313397216796875,0.36155223846435547,-0.09815692901611328,-0.41588926315307617
1763692627319984000,5.322984130859375,0.33042192459106445,-0.15775299072265625,-0.41582250595092773
1763692627329570000,5.332570068359375,0.370485782623291,-0.1990041732788086,-0.416597843170166
1763692627339155500,5.342155517578125,0.3781423568725586,-0.2539501190185547,-0.4286990165710449
1763692627348741600,5.35174169921875,0.391632080078125,-0.29019927978515625,-0.44554901123046875
1763692627358328300,5.361328369140625,0.45727968215942383,-0.36333656311035156,-0.435884952545166
1763692627367914500,5.37091455078125,0.4553494453430176,-0.41843605041503906,-0.4309878349304199
1763692627377499600,5.380499755859375,0.4097895622253418,-0.40703487396240234,-0.4042344093322754
1763692627387085800,5.3900859375,0.4397850036621094,-0.4333930015563965,-0.34099817276000977
1763692627396672800,5.3996728515625,0.47570085525512695,-0.47029638290405273,-0.3365340232849121
1763692627406258700,5.4092587890625,0.5276861190795898,-0.5189387798309326,-0.29178667068481445
1763692627415844000,5.418843994140625,0.5394954681396484,-0.5327932834625244,-0.1960434913635254
1763692627425430300,5.42843017578125,0.5265402793884277,-0.5593900680541992,-0.19675922393798828
1763692627435017000,5.438016845703125,0.5500698089599609,-0.5939257144927979,-0.25226545333862305
1763692627444603100,5.44760302734375,0.5683603286743164,-0.6342360973358154,-0.24958229064941406
1763692627454188300,5.457188232421875,0.555877685546875,-0.6544833183288574,-0.2364978790283203
1763692627463774500,5.4667744140625,0.5391035079956055,-0.686164140701294,-0.19652318954467773
1763692627473361400,5.476361328125,0.49108123779296875,-0.7365295886993408,-0.11590147018432617
1763692627482947300,5.485947265625,0.41300535202026367,-0.7987504005432129,-0.019580841064453125
1763692627492532700,5.49553271484375,0.30773210525512695,-0.849419355392456,0.06473064422607422
1763692627502118700,5.50511865234375,0.23823881149291992,-0.9053053855895996,0.11232280731201172
1763692627511705600,5.51470556640625,0.1793680191040039,-0.9162158966064453,0.15134716033935547
1763692627521291800,5.524291748046875,0.1424083709716797,-0.9193782806396484,0.1433429718017578
1763692627530877000,5.533876953125,0.15040159225463867,-0.9231979846954346,0.12646818161010742
1763692627540463000,5.543463134765625,0.1337904930114746,-0.9274294376373291,0.15020275115966797
1763692627550050000,5.553050048828125,0.11355066299438477,-0.8751401901245117,0.16439151763916016
1763692627559636000,5.562635986328125,0.13240718841552734,-0.8141624927520752,0.20244121551513672
1763692627569221400,5.572221435546875,0.1478266716003418,-0.7776796817779541,0.24063491821289062
1763692627578807300,5.581807373046875,0.12955284118652344,-0.7677662372589111,0.27199602127075195
1763692627588394200,5.591394287109375,0.1990947723388672,-0.7864136695861816,0.2829151153564453
1763692627597980200,5.600980224609375,0.20300912857055664,-0.7930188179016113,0.3049306869506836
1763692627607565600,5.610565673828125,0.1396322250366211,-0.7639119625091553,0.3378453254699707
1763692627617151700,5.62015185546875,0.13457155227661133,-0.7298319339752197,0.3274564743041992
1763692627626738400,5.629738525390625,0.15874099731445312,-0.7259426116943359,0.2911701202392578
1763692627636324600,5.63932470703125,0.17427778244018555,-0.7138419151306152,0.20851850509643555
1763692627645910000,5.648909912109375,0.20051813125610352,-0.6728484630584717,0.07788705825805664
1763692627655496000,5.658495849609375,0.2595992088317871,-0.6225132942199707,-0.012387275695800781
1763692627665083000,5.668082763671875,0.2951831817626953,-0.5893054008483887,-0.060506343841552734
1763692627674668800,5.677668701171875,0.33168458938598633,-0.5710940361022949,-0.1260843276977539
1763692627684254200,5.687254150390625,0.3880763053894043,-0.5279841423034668,-0.1736588478088379
1763692627693840400,5.69684033203125,0.3949265480041504,-0.48642873764038086,-0.18049240112304688
1763692627703427000,5.706427001953125,0.39127111434936523,-0.44820737838745117,-0.11725282669067383
1763692627713013200,5.71601318359375,0.3779916763305664,-0.4291863441467285,-0.07742595672607422
1763692627722598400,5.725598388671875,0.3992147445678711,-0.39631032943725586,-0.10822248458862305
1763692627732184600,5.7351845703125,0.45962953567504883,-0.40478086471557617,-0.17571735382080078
1763692627741771500,5.744771484375,0.5414371490478516,-0.4498872756958008,-0.27886104583740234
1763692627751357400,5.754357421875,0.5588622093200684,-0.47774171829223633,-0.3390359878540039
1763692627760942800,5.76394287109375,0.5142793655395508,-0.5123128890991211,-0.3799271583557129
1763692627770529000,5.773529052734375,0.45205068588256836,-0.5034632682800293,-0.3280458450317383
1763692627780116000,5.783115966796875,0.3686232566833496,-0.5002150535583496,-0.20972204208374023
1763692627789702000,5.792701904296875,0.2360854148864746,-0.4983835220336914,-0.04857587814331055
1763692627799287000,5.802287109375,0.09768438339233398,-0.4683198928833008,0.11786079406738281
1763692627808873200,5.811873291015625,-0.04204607009887695,-0.43506574630737305,0.2595491409301758
1763692627818460200,5.821460205078125,-0.1700727939605713,-0.42858314514160156,0.34378576278686523
1763692627828046000,5.831046142578125,-0.3259732723236084,-0.40594959259033203,0.3707122802734375
1763692627837631500,5.840631591796875,-0.42149782180786133,-0.36258602142333984,0.3664107322692871
1763692627847217700,5.8502177734375,-0.5009901523590088,-0.30672264099121094,0.3374910354614258
1763692627856804400,5.859804443359375,-0.5226860046386719,-0.24451303482055664,0.2858095169067383
1763692627866390500,5.869390625,-0.5134987831115723,-0.2013392448425293,0.19656705856323242
1763692627875975700,5.8789755859375,-0.47106122970581055,-0.20179367065429688,0.1145772933959961
1763692627885561900,5.888561767578125,-0.45717597007751465,-0.21286678314208984,0.0675663948059082
1763692627895148800,5.898148681640625,-0.4596230983734131,-0.24858999252319336,0.047842979431152344
1763692627904734700,5.907734619140625,-0.4687380790710449,-0.27300596237182617,-0.006118297576904297
1763692627914320100,5.917320068359375,-0.47893476486206055,-0.23379278182983398,-0.05527448654174805
1763692627923906000,5.926906005859375,-0.4735994338989258,-0.2019209861755371,-0.11099576950073242
1763692627933493000,5.936492919921875,-0.41964221000671387,-0.1462249755859375,-0.21509885787963867
1763692627943079200,5.9460791015625,-0.38181209564208984,-0.11388301849365234,-0.38561201095581055
1763692627952664300,5.955664306640625,-0.28878235816955566,-0.0763235092163086,-0.4776597023010254
1763692627962250500,5.96525048828125,-0.20224928855895996,-0.03871965408325195,-0.5867352485656738
1763692627971837400,5.97483740234375,-0.11714363098144531,0.01239776611328125,-0.6633815765380859
1763692627981423400,5.98442333984375,-0.09993743896484375,0.045690059661865234,-0.6380825042724609
1763692627991008800,5.9940087890625,-0.10087823867797852,0.09410381317138672,-0.5954923629760742
1763692628000595000,6.003594970703125,-0.07569074630737305,0.12689971923828125,-0.4914541244506836
1763692628010181600,6.013181640625,-0.04656267166137695,0.16574478149414062,-0.4024667739868164
1763692628019767800,6.022767822265625,0.00011992454528808594,0.21730709075927734,-0.35691165924072266
1763692628029353000,6.03235302734375,0.0481257438659668,0.25480031967163086,-0.3612785339355469
1763692628038939100,6.041939208984375,0.13827204704284668,0.24971532821655273,-0.39345645904541016
1763692628048526000,6.051526123046875,0.25676417350769043,0.24947786331176758,-0.48333072662353516
1763692628058112000,6.061112060546875,0.3456535339355469,0.26781463623046875,-0.5611991882324219
1763692628067697400,6.070697509765625,0.41652894020080566,0.3068561553955078,-0.5063495635986328
1763692628077283600,6.08028369140625,0.4387953281402588,0.34580230712890625,-0.3619365692138672
1763692628086870300,6.089870361328125,0.38303256034851074,0.3694171905517578,-0.14501094818115234
1763692628106041600,6.10904150390625,0.21320486068725586,0.3308572769165039,0.26500558853149414
1763692628115627800,6.118627685546875,0.16103768348693848,0.28632402420043945,0.45649290084838867
1763692628125214700,6.128214599609375,0.1418323516845703,0.2653985023498535,0.5655083656311035
1763692628134800600,6.137800537109375,0.10050559043884277,0.23462486267089844,0.6143674850463867
1763692628144386000,6.147385986328125,0.004074573516845703,0.2052459716796875,0.6128816604614258
1763692628153972000,6.156971923828125,-0.11844348907470703,0.20286083221435547,0.6369771957397461
1763692628163559000,6.166558837890625,-0.23860931396484375,0.1887655258178711,0.6363072395324707
1763692628173145000,6.17614501953125,-0.3352646827697754,0.16243219375610352,0.6296777725219727
1763692628182730200,6.185730224609375,-0.3831167221069336,0.14956283569335938,0.6333184242248535
1763692628192316400,6.19531640625,-0.3950507640838623,0.11158943176269531,0.5735273361206055
1763692628201903400,6.2049033203125,-0.40253663063049316,0.1023550033569336,0.46258020401000977
1763692628211489300,6.2144892578125,-0.41574668884277344,0.09783124923706055,0.39987707138061523
1763692628221074700,6.22407470703125,-0.4164083003997803,0.06519365310668945,0.3561873435974121
1763692628230660600,6.23366064453125,-0.43157076835632324,0.023851871490478516,0.23194360733032227
1763692628240247600,6.24324755859375,-0.4142591953277588,0.03983163833618164,0.13895845413208008
1763692628249833700,6.252833740234375,-0.3911449909210205,0.07183837890625,0.057591915130615234
1763692628259419000,6.2624189453125,-0.3670775890350342,0.11464691162109375,-0.01485443115234375
1763692628269005000,6.272005126953125,-0.322437047958374,0.14702463150024414,-0.06865978240966797
1763692628278592000,6.281592041015625,-0.28731775283813477,0.16028404235839844,-0.07517337799072266
1763692628288178000,6.291177978515625,-0.2800028324127197,0.17168807983398438,-0.10772228240966797
1763692628297763300,6.300763427734375,-0.23845362663269043,0.2168564796447754,-0.1420125961303711
1763692628307349500,6.310349609375,-0.16947579383850098,0.25530052185058594,-0.194061279296875
1763692628316936200,6.319936279296875,-0.0828406810760498,0.2749052047729492,-0.2755613327026367
1763692628326522400,6.3295224609375,-0.02404642105102539,0.28453826904296875,-0.33258056640625
1763692628336107500,6.339107421875,0.10671877861022949,0.3017845153808594,-0.3990468978881836
1763692628345693700,6.348693603515625,0.1834399700164795,0.33004283905029297,-0.4519233703613281
1763692628355280600,6.35828076171875,0.24040675163269043,0.36313676834106445,-0.44719600677490234
1763692628364866600,6.367866455078125,0.2545146942138672,0.3744983673095703,-0.3696002960205078
1763692628374452000,6.377451904296875,0.23598909378051758,0.3625617027282715,-0.26715087890625
1763692628384038100,6.3870380859375,0.1881694793701172,0.39705371856689453,-0.15359020233154297
1763692628393624800,6.396624755859375,0.09307074546813965,0.426882266998291,-0.06814384460449219
1763692628403211000,6.4062109375,-0.010848045349121094,0.46758031845092773,-0.009603500366210938
1763692628412796200,6.415796142578125,-0.11242055892944336,0.466341495513916,0.055922508239746094
1763692628422382300,6.42538232421875,-0.17929887771606445,0.4532642364501953,0.08631372451782227
1763692628431969300,6.43496923828125,-0.22889995574951172,0.4762277603149414,0.07996654510498047
1763692628441555200,6.44455517578125,-0.25258731842041016,0.46062231063842773,-0.019815444946289062
1763692628451140600,6.454140625,-0.17018532752990723,0.3954458236694336,-0.19361209869384766
1763692628460726800,6.463726806640625,-0.06527400016784668,0.29813528060913086,-0.41289806365966797
1763692628470313500,6.4733134765625,0.0043332576751708984,0.2120041847229004,-0.5643157958984375
1763692628479899600,6.482899658203125,0.0185701847076416,0.1999197006225586,-0.5901718139648438
1763692628489484800,6.49248486328125,-0.03870081901550293,0.1862940788269043,-0.46405982971191406
1763692628499071000,6.502071044921875,-0.10354399681091309,0.17500066757202148,-0.3222799301147461
1763692628508658000,6.511657958984375,-0.15688538551330566,0.13679933547973633,-0.19131088256835938
1763692628518243800,6.521243896484375,-0.19142937660217285,0.09656667709350586,-0.1773681640625
1763692628527829200,6.530829345703125,-0.18403124809265137,0.061350345611572266,-0.2103137969970703
1763692628537415400,6.54041552734375,-0.22037744522094727,0.009412288665771484,-0.2591676712036133
1763692628547002000,6.550002197265625,-0.23298954963684082,-0.06916522979736328,-0.35904502868652344
1763692628556588300,6.55958837890625,-0.28228020668029785,-0.14363574981689453,-0.4333763122558594
1763692628566173400,6.56917333984375,-0.3238718509674072,-0.16474580764770508,-0.40900087356567383
1763692628575759600,6.578759521484375,-0.3952670097351074,-0.177490234375,-0.3812413215637207
1763692628585346600,6.5883466796875,-0.4723777770996094,-0.20179319381713867,-0.2739725112915039
1763692628594932500,6.597932373046875,-0.4789905548095703,-0.15330076217651367,-0.0611567497253418
1763692628604518000,6.607517822265625,-0.5353693962097168,-0.06619405746459961,0.19496536254882812
1763692628614103800,6.617103759765625,-0.576972484588623,-0.040705204010009766,0.32170772552490234
1763692628623690800,6.626690673828125,-0.6344504356384277,-0.04520606994628906,0.32248640060424805
1763692628633277000,6.63627685546875,-0.618433952331543,-0.04949045181274414,0.24809503555297852
1763692628642862000,6.645862060546875,-0.5657522678375244,-0.048009395599365234,0.20584583282470703
1763692628652448300,6.6554482421875,-0.5288090705871582,-0.0381622314453125,0.1716451644897461
1763692628662035200,6.66503515625,-0.5254809856414795,-0.0805206298828125,0.11414432525634766
1763692628671621000,6.67462109375,-0.5097365379333496,-0.1985492706298828,-0.018150806427001953
1763692628681206500,6.68420654296875,-0.46095800399780273,-0.2472681999206543,-0.04861593246459961
1763692628690792400,6.69379248046875,-0.43680477142333984,-0.21254968643188477,0.04630327224731445
1763692628700379400,6.70337939453125,-0.5048823356628418,-0.1259164810180664,0.12520694732666016
1763692628709965600,6.712965576171875,-0.6842255592346191,-0.028375625610351562,0.3206624984741211
1763692628719550700,6.72255078125,-0.7854263782501221,0.03845024108886719,0.4825725555419922
1763692628729137000,6.732136962890625,-0.85245680809021,0.060523033142089844,0.5569109916687012
1763692628738723800,6.741723876953125,-0.7641434669494629,0.05301952362060547,0.46944332122802734
1763692628748309800,6.751309814453125,-0.6694507598876953,0.049640655517578125,0.36622190475463867
1763692628757895200,6.760895263671875,-0.6486058235168457,0.04459953308105469,0.24681663513183594
1763692628767481000,6.770481201171875,-0.6968021392822266,0.06569337844848633,0.20235586166381836
1763692628777068000,6.780068115234375,-0.7311868667602539,0.12693071365356445,0.18663692474365234
1763692628786654200,6.789654296875,-0.7533564567565918,0.240234375,0.2802000045776367
1763692628796239400,6.7992392578125,-0.7260692119598389,0.5107407569885254,0.41877269744873047
1763692628805825500,6.808825439453125,-0.7671358585357666,0.7290234565734863,0.46059322357177734
1763692628815412500,6.81841259765625,-0.6157045364379883,0.822354793548584,0.5072469711303711
1763692628824998400,6.827998291015625,-0.31225061416625977,0.8619041442871094,0.37096118927001953
1763692628834583800,6.837583740234375,-0.04544401168823242,0.7965202331542969,0.10749292373657227
1763692628844169700,6.847169677734375,0.13826680183410645,0.7073125839233398,-0.2238602638244629
1763692628853756700,6.856756591796875,0.26413726806640625,0.6580181121826172,-0.585665225982666
1763692628863342800,6.8663427734375,0.3295919895172119,0.7100310325622559,-0.7566385269165039
1763692628872928000,6.875927978515625,0.36756396293640137,0.7017502784729004,-0.802027702331543
1763692628882514200,6.88551416015625,0.343886137008667,0.6518068313598633,-0.8811883926391602
1763692628892101000,6.89510107421875,0.3674907684326172,0.5685310363769531,-0.9774789810180664
1763692628901687000,6.90468701171875,0.31085944175720215,0.45761585235595703,-1.1081924438476562
1763692628911272400,6.9142724609375,0.22773098945617676,0.3804926872253418,-1.2467565536499023
1763692628920858600,6.923858642578125,0.006185054779052734,0.36290979385375977,-1.3481464385986328
1763692628930445300,6.9334453125,-0.18334460258483887,0.35892534255981445,-1.4349098205566406
1763692628940031500,6.943031494140625,-0.38976287841796875,0.161468505859375,-1.424799919128418
1763692628949616600,6.95261669921875,-0.40559816360473633,0.32152557373046875,-1.4220771789550781
1763692628959202800,6.962202880859375,-0.3578805923461914,0.3444859981536865,-1.7581100463867188
1763692628968789800,6.971789794921875,-0.6350580453872681,0.2098219394683838,-1.7818059921264648
1763692628978375700,6.981375732421875,-0.35175418853759766,0.05873823165893555,-1.6548223495483398
1763692628987961000,6.990961181640625,-0.24721896648406982,0.028414249420166016,-1.4406633377075195
1763692628997547300,7.00054736328125,-0.2540888786315918,-0.007166147232055664,-1.063364028930664
1763692629007134000,7.010134033203125,-0.26856744289398193,0.00403141975402832,-0.7561397552490234
1763692629016720100,7.01972021484375,-0.32387006282806396,-0.11555838584899902,-0.5300302505493164
1763692629026305300,7.02930517578125,-0.25309646129608154,-0.4017970561981201,-0.36696720123291016
1763692629035891500,7.038891357421875,-0.268337607383728,-0.6523749828338623,-0.3632040023803711
1763692629045478400,7.048478515625,-0.34121692180633545,-0.7255358695983887,-0.32333850860595703
1763692629055064300,7.058064208984375,-0.37659788131713867,-0.6948347091674805,-0.3030815124511719
1763692629064649700,7.067649658203125,0.03751027584075928,-0.6586141586303711,-0.3684577941894531
1763692629074236000,7.07723583984375,-0.25884079933166504,-0.38459205627441406,-0.02823352813720703
1763692629083822600,7.086822509765625,-0.3134061098098755,-0.1206212043762207,0.3042716979980469
1763692629093408800,7.09640869140625,0.01903212070465088,-0.031710147857666016,0.29549407958984375
1763692629102994000,7.105993896484375,0.1690424382686615,-0.13456010818481445,0.21005821228027344
1763692629112580000,7.115580078125,0.06202422082424164,-0.4982624053955078,0.26932525634765625
1763692629122167000,7.1251669921875,-0.383022278547287,-0.8487675189971924,0.5330286026000977
1763692629131753000,7.1347529296875,-0.5400564670562744,-0.9624049663543701,0.4310445785522461
1763692629141338400,7.14433837890625,-0.3759244978427887,-0.7927565574645996,0.12302780151367188
1763692629150924500,7.153924560546875,-0.2197313904762268,-0.5450582504272461,-0.008564949035644531
1763692629160511200,7.16351123046875,-0.03778660297393799,-0.34111523628234863,-0.09998893737792969
1763692629170097400,7.173097412109375,0.19345539808273315,-0.23828649520874023,-0.17517852783203125
1763692629179682600,7.1826826171875,0.43737584352493286,-0.15682220458984375,-0.2228679656982422
1763692629189268700,7.192268798828125,0.6423767805099487,0.31038737297058105,-0.1638936996459961
1763692629198855700,7.201855712890625,1.044851541519165,0.36457157135009766,0.1286458969116211
1763692629208441600,7.211441650390625,1.2823480367660522,0.30123209953308105,0.3742694854736328
1763692629218027000,7.221027099609375,1.1804693937301636,0.4268200397491455,0.6527929306030273
1763692629227613200,7.23061328125,1.10957670211792,0.6878616809844971,0.7997255325317383
1763692629237200000,7.240199951171875,1.0382176637649536,0.9175741672515869,0.8439359664916992
1763692629246786000,7.2497861328125,1.2525699138641357,0.9679501056671143,0.7836761474609375
1763692629256371200,7.25937109375,1.594165325164795,1.0083329677581787,0.6717567443847656
1763692629265957400,7.268957275390625,1.8965952396392822,1.071455478668213,0.5755987167358398
1763692629275544300,7.27854443359375,1.9258174896240234,1.1434240341186523,0.2485513687133789
1763692629285130200,7.288130126953125,1.6953222751617432,1.140951156616211,-0.11468219757080078
1763692629294715600,7.297715576171875,1.4799703359603882,0.9724197387695312,-0.3238496780395508
1763692629304301800,7.3073017578125,1.3119564056396484,0.659855842590332,-0.38103389739990234
1763692629313888500,7.316888427734375,1.426154613494873,0.005909442901611328,-0.16207599639892578
1763692629323474700,7.326474609375,1.5410287380218506,-1.2987313270568848,-0.45539283752441406
1763692629333059800,7.336059814453125,1.4489437341690063,-1.9901421070098877,-0.7880392074584961
1763692629342646000,7.34564599609375,1.6666010618209839,-2.888211488723755,-1.6421051025390625
1763692629352233000,7.35523291015625,0.5789788961410522,-2.7371768951416016,-1.7875595092773438
1763692629361819000,7.36481884765625,0.3880290985107422,-2.3100061416625977,-0.7743616104125977
1763692629371404300,7.374404296875,0.2380307912826538,-1.8134644031524658,0.3258247375488281
1763692629380990500,7.383990478515625,0.20497286319732666,-1.724848747253418,0.5200738906860352
1763692629390577200,7.3935771484375,0.23707962036132812,-1.7814605236053467,0.4509267807006836
1763692629400163300,7.403163330078125,0.3510630130767822,-1.9551787376403809,0.28741455078125
1763692629409748500,7.41274853515625,0.21994400024414062,-1.7749650478363037,0.05787181854248047
1763692629419334700,7.422334716796875,0.2137613296508789,-1.3820695877075195,0.03548145294189453
1763692629428921600,7.431921630859375,0.5418905019760132,-1.1943507194519043,0.29846954345703125
1763692629438507500,7.441507568359375,1.012251377105713,-1.0089993476867676,0.5291223526000977
1763692629448093000,7.451093017578125,1.3513720035552979,-0.7624828815460205,0.5747489929199219
1763692629457678800,7.460678955078125,1.4600958824157715,-0.543219804763794,0.32900333404541016
1763692629467265800,7.470265869140625,1.7282334566116333,-0.21897554397583008,-0.049941062927246094
1763692629476852000,7.47985205078125,1.7207887172698975,0.19704389572143555,-0.5286083221435547
1763692629486437400,7.489437255859375,1.4883778095245361,0.4954361915588379,-0.8735580444335938
1763692629496023300,7.499023193359375,1.5916528701782227,0.47591495513916016,-0.8001194000244141
1763692629505610200,7.5086103515625,1.4800336360931396,0.21783065795898438,-0.6840047836303711
1763692629515196200,7.518196044921875,1.3606140613555908,0.06752634048461914,-0.9187412261962891
1763692629524781600,7.527781494140625,1.5440483093261719,0.1348881721496582,-1.3181285858154297
1763692629534367500,7.537367431640625,3.305309772491455,0.7940254211425781,-1.5729942321777344
1763692629543954400,7.546954345703125,3.0669641494750977,0.31905221939086914,-0.5200538635253906
1763692629553540600,7.55654052734375,1.8047831058502197,-0.8089888095855713,0.5403671264648438
1763692629563126000,7.5661259765625,0.9831456542015076,-1.0389480590820312,0.16166400909423828
1763692629572712000,7.5757119140625,0.6488701105117798,-0.8989756107330322,-0.0011320114135742188
1763692629582299000,7.585298828125,0.1729387640953064,-0.6227917671203613,-0.2241649627685547
1763692629591884800,7.594884765625,-0.16074126958847046,-0.5946645736694336,-0.5503635406494141
1763692629601470200,7.60447021484375,-0.09943640232086182,-0.5008230209350586,-0.7923259735107422
1763692629611056400,7.614056396484375,0.8059146404266357,-0.3198051452636719,-0.7118291854858398
1763692629620643000,7.62364306640625,1.064346194267273,-0.30841684341430664,-0.4669065475463867
1763692629630229200,7.633229248046875,1.0132052898406982,-0.2269277572631836,-0.24031543731689453
1763692629639814700,7.642814697265625,1.4153425693511963,-0.21204566955566406,-0.2920970916748047
1763692629649400600,7.652400634765625,1.796607494354248,-0.30595874786376953,-0.8463516235351562
1763692629658987500,7.661987548828125,1.8029030561447144,-0.46289491653442383,-1.2739076614379883
1763692629668573400,7.671573486328125,1.7968239784240723,-0.6271271705627441,-1.3623781204223633
1763692629678158800,7.681158935546875,1.5639840364456177,-0.7011017799377441,-1.1400423049926758
1763692629687745000,7.6907451171875,1.3364392518997192,-0.503502368927002,-0.5068025588989258
1763692629697331700,7.700331787109375,1.1583081483840942,-0.23492002487182617,0.2651519775390625
1763692629706918000,7.70991796875,0.8866883516311646,-0.012295246124267578,0.9926481246948242
1763692629716503300,7.71950341796875,0.5831253528594971,0.13463687896728516,1.6067609786987305
1763692629726089200,7.729089111328125,0.5078030824661255,0.0927591323852539,1.8962068557739258
1763692629735676200,7.73867626953125,0.5646559000015259,0.020979881286621094,2.1704440116882324
1763692629745262000,7.748261962890625,0.5830245018005371,-0.25357866287231445,2.022958278656006
1763692629754847500,7.757847412109375,0.7685261368751526,-0.5565805435180664,1.7109084129333496
1763692629764433700,7.76743359375,0.9752513766288757,-0.7721319198608398,1.2149357795715332
1763692629774020400,7.777020263671875,1.0937458276748657,-1.0008049011230469,0.7075061798095703
1763692629783606500,7.7866064453125,1.1353551149368286,-1.178110122680664,0.4752206802368164
1763692629793192000,7.79619189453125,1.0369651317596436,-1.1605052947998047,0.30020809173583984
1763692629802777900,7.80577783203125,0.9441017508506775,-1.0173239707946777,0.29787349700927734
1763692629812364800,7.81536474609375,0.8017362356185913,-0.7802333831787109,0.4061555862426758
1763692629821950700,7.82495068359375,0.6112393140792847,-0.5620322227478027,0.4547595977783203
1763692629831536000,7.8345361328125,0.32038772106170654,-0.17266321182250977,0.3559246063232422
1763692629841122300,7.844122314453125,0.5924045443534851,-0.05864524841308594,0.6399078369140625
1763692629850709200,7.853709228515625,0.7738664150238037,-0.03849029541015625,0.37883567810058594
1763692629860295200,7.863295166015625,1.1702473163604736,-0.2543768882751465,0.20976829528808594
1763692629869880600,7.872880615234375,1.3293352127075195,-0.14467239379882812,-0.08678340911865234
1763692629879466500,7.882466552734375,1.4990664720535278,0.09282350540161133,-0.17944908142089844
1763692629889053400,7.892053466796875,1.2452704906463623,0.34705305099487305,-0.2911415100097656
1763692629898639600,7.9016396484375,0.7193374633789062,0.3214592933654785,-0.001399993896484375
1763692629908224800,7.911224853515625,0.4969005584716797,0.21413850784301758,0.15875720977783203
1763692629917811000,7.92081103515625,0.7498259544372559,-0.05699729919433594,-0.24182510375976562
1763692629927398000,7.93039794921875,0.7832973003387451,-0.2472085952758789,-0.4777202606201172
1763692629936983800,7.93998388671875,0.5788267850875854,-0.049053192138671875,-0.29756736755371094
1763692629946569200,7.9495693359375,0.2264929711818695,0.30310773849487305,-0.11637687683105469
1763692629956155400,7.9591552734375,-0.26016953587532043,0.4626607894897461,0.21735095977783203
1763692629965742000,7.9687421875,-0.3870042562484741,0.472078800201416,0.5117902755737305
1763692629975328300,7.978328369140625,-0.3518717586994171,0.2457866668701172,0.7113561630249023
1763692629984913400,7.987913330078125,-0.3864288032054901,0.3483715057373047,0.8703241348266602
1763692629994499600,7.99749951171875,-0.49987679719924927,0.699162483215332,1.0334596633911133
1763692630004086500,8.00708642578125,-0.6177699565887451,0.8322892189025879,1.3572001457214355
1763692630013672400,8.01667236328125,-0.8821321725845337,0.8209409713745117,1.7600126266479492
1763692630023257900,8.0262578125,-1.29279363155365,0.7109794616699219,2.145409107208252
1763692630032843800,8.03584375,-1.5508794784545898,0.6323299407958984,2.388550281524658
1763692630042430700,8.0454306640625,-1.4514899253845215,0.47513437271118164,2.4209136962890625
1763692630052017000,8.055016845703125,-1.1197916269302368,0.18150806427001953,1.9870266914367676
1763692630061602000,8.06460205078125,-0.8786997199058533,0.09321355819702148,1.3701462745666504
1763692630071188200,8.074188232421875,-0.8534775376319885,0.07159090042114258,0.9434394836425781
1763692630080775200,8.083775146484374,-0.5847193598747253,0.2956385612487793,0.2461233139038086
1763692630090361000,8.093361083984375,-0.31864917278289795,0.5855069160461426,-0.2086324691772461
1763692630099946500,8.102946533203125,-0.33149635791778564,0.7812461853027344,-0.3470029830932617
1763692630109532700,8.11253271484375,-0.5756977796554565,0.6509661674499512,-0.01935291290283203
1763692630119119400,8.122119384765625,-0.9362598061561584,0.5295398235321045,0.39478492736816406
1763692630128705500,8.13170556640625,-1.1929664611816406,0.2908618450164795,0.8100376129150391
1763692630138290700,8.141290771484375,-1.4699411392211914,-0.08548378944396973,1.0196075439453125
1763692630147876900,8.150876953125,-1.7174639701843262,-0.31134462356567383,1.2237472534179688
1763692630157463800,8.1604638671875,-1.695584774017334,-0.23522138595581055,1.2500419616699219
1763692630167049700,8.1700498046875,-1.1098263263702393,-0.31105566024780273,0.6888370513916016
1763692630176635100,8.17963525390625,-0.406735897064209,-0.25617504119873047,-0.49976062774658203
1763692630186221300,8.18922119140625,-0.011146068572998047,-0.029242753982543945,-1.5322370529174805
1763692630195808300,8.198808349609376,0.18526935577392578,0.08728909492492676,-1.8711862564086914
1763692630205394200,8.208394287109375,0.2376871109008789,0.06514859199523926,-1.564408302307129
1763692630214979300,8.217979248046875,0.330578088760376,-0.15655803680419922,-1.0007152557373047
1763692630224565500,8.2275654296875,0.44848084449768066,-0.3538060188293457,-0.6749153137207031
1763692630234152400,8.23715234375,0.6255309581756592,-0.3485124111175537,-0.8623991012573242
1763692630243738600,8.246738525390626,0.5235342979431152,-0.2337207794189453,-1.0689573287963867
1763692630253323800,8.25632373046875,0.3439822196960449,-0.16300678253173828,-0.8859767913818359
1763692630262910000,8.265909912109375,0.35147690773010254,-0.1576075553894043,-0.6604270935058594
1763692630272497000,8.275496826171874,0.5571498870849609,-0.27041149139404297,-0.5811777114868164
1763692630282082800,8.285082763671875,0.9923348426818848,-0.38665151596069336,-0.7372369766235352
1763692630291668200,8.294668212890626,0.9434628486633301,-0.31766605377197266,-1.172750473022461
1763692630301254100,8.304254150390625,0.42434048652648926,-0.07721686363220215,-1.4891376495361328
1763692630310841000,8.313841064453126,0.03770589828491211,0.02069830894470215,-1.2447834014892578
1763692630320427300,8.32342724609375,-0.20867061614990234,-0.08788490295410156,-0.7002182006835938
1763692630330012400,8.333012451171875,-0.33272480964660645,-0.26912617683410645,-0.4212455749511719
1763692630339598600,8.3425986328125,-0.45278167724609375,-0.41762304306030273,-0.5483598709106445
1763692630349185500,8.352185546875,-0.5474882125854492,-0.5622763633728027,-0.6936922073364258
1763692630358771500,8.361771484375,-0.5490901470184326,-0.685248613357544,-0.7521448135375977
1763692630368356900,8.37135693359375,-0.5478935241699219,-0.6497433185577393,-0.8102331161499023
1763692630377943000,8.380943115234375,-0.562629222869873,-0.5677549839019775,-0.8336448669433594
1763692630387529700,8.39052978515625,-0.41652989387512207,-0.5042514801025391,-1.3356809616088867
1763692630397116000,8.400115966796875,0.051287174224853516,-0.5851399898529053,-1.6018381118774414
1763692630406701000,8.409701171875,0.21464037895202637,-0.7654569149017334,-1.826812744140625
1763692630416287200,8.419287353515625,0.1374208927154541,-0.9732437133789062,-1.9018363952636719
1763692630425874200,8.428874267578125,-0.0577540397644043,-1.0483975410461426,-1.926553726196289
1763692630435460000,8.438460205078124,-0.21187853813171387,-0.9806139469146729,-1.9480524063110352
1763692630445045500,8.44804541015625,-0.19080400466918945,-0.8414506912231445,-1.8718595504760742
1763692630454631700,8.457631591796876,-0.004396200180053711,-0.7363038063049316,-1.7057218551635742
1763692630464218400,8.46721826171875,0.20929169654846191,-0.6616098880767822,-1.4311552047729492
1763692630473804500,8.476804443359375,0.3844184875488281,-0.5825498104095459,-1.210951805114746
1763692630483389700,8.4863896484375,0.5366306304931641,-0.5802385807037354,-1.0455036163330078
1763692630492975900,8.495975830078125,0.649683952331543,-0.6833395957946777,-1.0131187438964844
1763692630502562800,8.505562744140626,0.49396419525146484,-0.7325396537780762,-0.9537458419799805
1763692630512148700,8.515148681640625,0.36767148971557617,-0.7285325527191162,-0.6457605361938477
1763692630521734100,8.524734130859375,0.2627396583557129,-0.7173318862915039,-0.22142696380615234
1763692630531320000,8.534320068359374,0.15641403198242188,-0.7024562358856201,0.17593955993652344
1763692630540907000,8.543906982421875,-0.04979991912841797,-0.6979799270629883,0.5284156799316406
1763692630550493200,8.5534931640625,-0.40672802925109863,-0.7727601528167725,0.7809176445007324
1763692630560078300,8.563078369140625,-0.626101016998291,-0.9252684116363525,0.8178291320800781
1763692630569664500,8.57266455078125,-0.8419897556304932,-1.0603790283203125,0.7311515808105469
1763692630579251500,8.58225146484375,-0.9666035175323486,-1.1859045028686523,0.5789499282836914
1763692630588837400,8.59183740234375,-0.9342806339263916,-1.223322868347168,0.5229072570800781
1763692630598422800,8.6014228515625,-0.8680334091186523,-1.1459496021270752,0.6148858070373535
1763692630608009000,8.611009033203125,-0.8727121353149414,-0.9274921417236328,0.7052960395812988
1763692630617595600,8.620595703125,-0.9304733276367188,-0.6949522495269775,0.6095271110534668
1763692630627181800,8.630181884765625,-0.7417869567871094,-0.6348726749420166,0.34932422637939453
1763692630636767000,8.63976708984375,-0.22065997123718262,-0.388735294342041,0.3569374084472656
1763692630646353200,8.649353271484374,-0.047751426696777344,-0.2247018814086914,0.1192159652709961
1763692630655940000,8.658940185546875,0.3632187843322754,-0.2909848690032959,-0.2518949508666992
1763692630665526000,8.668526123046876,0.9310803413391113,-0.5864918231964111,-0.6411046981811523
1763692630675111400,8.678111328125,0.7625575065612793,-0.443239688873291,-0.7270603179931641
1763692630684697600,8.687697509765625,0.05178546905517578,-0.25670409202575684,-0.9837169647216797
1763692630694284500,8.697284423828124,-0.3935883045196533,-0.0012154579162597656,-1.3088226318359375
1763692630703870500,8.706870361328125,-0.5402193069458008,0.03509044647216797,-1.313608169555664
1763692630713455600,8.71645556640625,-0.30736446380615234,-0.17148160934448242,-1.2487554550170898
1763692630723041800,8.726041748046875,-0.41643333435058594,-0.5360085964202881,-1.2889108657836914
1763692630732628700,8.735628662109375,-0.43744659423828125,-0.6023988723754883,-1.4192676544189453
1763692630742215000,8.74521484375,-0.6032068729400635,-0.6711146831512451,-1.301137924194336
1763692630751800000,8.754800048828125,-0.44660091400146484,-0.6958944797515869,-1.070185661315918
1763692630761386200,8.76438623046875,-0.30698132514953613,-0.5694794654846191,-0.6008825302124023
1763692630770973200,8.77397314453125,-0.2231431007385254,-0.5050680637359619,-0.12066268920898438
1763692630780559000,8.78355908203125,-0.24755382537841797,-0.50901198387146,0.0004367828369140625
1763692630790144500,8.79314453125,-0.30159568786621094,-0.5091004371643066,-0.03132915496826172
1763692630799730700,8.802730712890625,-0.3984344005584717,-0.43520164489746094,0.060599327087402344
1763692630809317400,8.8123173828125,-0.5349502563476562,-0.37418627738952637,0.4009742736816406
1763692630818903600,8.821903564453125,-0.5077085494995117,-0.34774255752563477,0.6936721801757812
1763692630828488700,8.83148876953125,-0.47344136238098145,-0.3182828426361084,0.7690858840942383
1763692630838075000,8.841074951171874,-0.6316065788269043,-0.3701355457305908,0.4311532974243164
1763692630847661800,8.850661865234375,-0.842536449432373,-0.479633092880249,0.7213134765625
1763692630857247700,8.860247802734374,-0.7142336368560791,-0.735720157623291,1.3068103790283203
1763692630866833200,8.869833251953125,-0.2805209159851074,-1.9808611869812012,0.750697135925293
1763692630876419300,8.87941943359375,0.41060972213745117,-4.156028747558594,-0.5692510604858398
1763692630886006000,8.889006103515625,0.23452043533325195,-1.4607782363891602,0.4228248596191406
1763692630895592200,8.89859228515625,-0.22066259384155273,0.4886038303375244,1.7019500732421875
1763692630905177300,8.90817724609375,-0.4253678321838379,0.7787783145904541,1.6229124069213867
1763692630914763500,8.917763427734375,-0.3870527744293213,0.686206579208374,0.5895872116088867
1763692630924350500,8.9273505859375,-0.12209606170654297,1.1303589344024658,0.3315391540527344
1763692630933936400,8.936936279296875,-0.09993982315063477,1.5869290828704834,0.48833274841308594
1763692630943521800,8.946521728515625,-0.5321347713470459,1.9492530822753906,0.5745487213134766
1763692630953107700,8.956107666015624,-0.3529679775238037,2.1156740188598633,0.5558490753173828
1763692630962694700,8.965694580078125,0.25991392135620117,1.7829930782318115,0.4971151351928711
1763692630972280800,8.97528076171875,0.3296799659729004,0.9342741966247559,0.23289775848388672
1763692630981866000,8.984865966796875,-0.4020044803619385,0.21390008926391602,0.3019113540649414
1763692630991452200,8.9944521484375,-0.1280503273010254,-0.27362751960754395,0.35222721099853516
1763692631001039000,9.0040390625,-0.5948154926300049,-0.4853811264038086,0.15485191345214844
1763692631010625000,9.013625,-0.6072375774383545,-0.22355341911315918,-0.00534820556640625
1763692631020210400,9.02321044921875,-0.5456924438476562,0.193955659866333,-0.16811656951904297
1763692631029796600,9.032796630859375,-0.32082271575927734,0.5000002384185791,-0.31671142578125
1763692631039383600,9.042383544921876,-0.24776029586791992,0.7922506332397461,-0.15696334838867188
1763692631048969500,9.051969482421875,-0.1290574073791504,0.6343636512756348,-0.19225215911865234
1763692631058554600,9.0615546875,-0.0012516975402832031,0.4077877998352051,-0.1738605499267578
1763692631068140800,9.071140869140624,-0.10252857208251953,0.21384572982788086,0.006939888000488281
1763692631077727700,9.080727783203125,-0.034718990325927734,0.5917091369628906,0.31611156463623047
1763692631087314000,9.09031396484375,-0.01945781707763672,0.8574507236480713,0.5673704147338867
1763692631096899000,9.099899169921875,-0.364398717880249,1.272803544998169,0.3814830780029297
1763692631106485200,9.1094853515625,-0.2369060516357422,1.5973155498504639,0.33493900299072266
1763692631116072200,9.119072265625,0.1314401626586914,1.9801924228668213,0.4722747802734375
1763692631125658000,9.128658203125,0.16145610809326172,2.212118625640869,0.0982351303100586
1763692631135243500,9.138243408203126,0.35173797607421875,1.9832563400268555,-0.05197620391845703
1763692631144829700,9.14782958984375,-0.07631921768188477,0.9204871654510498,0.9382472038269043
1763692631154416400,9.15741650390625,-0.0944070816040039,-2.640502452850342,1.0808968544006348
1763692631164002600,9.16700244140625,0.9063830375671387,-0.6086001396179199,-0.9898395538330078
1763692631173587700,9.176587646484375,0.6940789222717285,0.3937227725982666,-0.39826297760009766
1763692631183174000,9.186173828125,0.23540925979614258,0.32923460006713867,-0.14157772064208984
1763692631192760800,9.1957607421875,0.10295963287353516,0.6100442409515381,-0.0071620941162109375
1763692631202346800,9.2053466796875,0.284543514251709,0.6795663833618164,0.07609272003173828
1763692631211932200,9.21493212890625,0.2782602310180664,0.7052123546600342,-0.24020004272460938
1763692631221518300,9.224518310546875,0.5111274719238281,1.1811189651489258,-0.4634580612182617
1763692631231105000,9.23410498046875,0.7565135955810547,1.240501880645752,-0.5387420654296875
1763692631240691200,9.243691162109375,0.8306279182434082,0.6894383430480957,-0.5764875411987305
1763692631250276400,9.2532763671875,0.8159670829772949,0.409743070602417,-0.8525056838989258
1763692631259862500,9.262862548828124,0.6856942176818848,0.6929028034210205,-0.7838525772094727
1763692631269449500,9.272449462890625,0.5014204978942871,0.7379717826843262,-0.9392595291137695
1763692631279035400,9.282035400390624,0.3919692039489746,0.6980369091033936,-1.2126035690307617
1763692631288620800,9.291620849609375,0.1691913604736328,0.26090097427368164,-1.8515996932983398
1763692631298207000,9.30120703125,0.04911661148071289,-0.4398343563079834,-2.7454328536987305
1763692631307793700,9.310793701171875,0.668126106262207,-1.1876952648162842,-2.5173635482788086
1763692631317379800,9.3203798828125,0.5619301795959473,-1.7068030834197998,-1.7595443725585938
1763692631326965000,9.329965087890624,0.08528518676757812,-1.5971825122833252,-1.1147956848144531
1763692631336551200,9.33955126953125,-0.3153238296508789,-1.5802593231201172,-0.8392782211303711
1763692631346138000,9.34913818359375,-0.47836875915527344,-1.6588728427886963,-0.6961765289306641
1763692631355724000,9.35872412109375,-0.2784719467163086,-1.727837085723877,-0.508514404296875
1763692631365309400,9.368309326171875,-0.5018677711486816,-1.7629153728485107,-0.4681253433227539
1763692631374895600,9.3778955078125,-0.6145076751708984,-1.9093949794769287,-0.1967172622680664
1763692631394068500,9.397068359375,-0.8246495723724365,-1.8180334568023682,0.7158255577087402
1763692631403654000,9.40665380859375,-0.9270718097686768,-1.7268402576446533,1.1532635688781738
1763692631413239800,9.41623974609375,-0.8514482975006104,-1.6893424987792969,1.6023063659667969
1763692631422826800,9.42582666015625,-0.6778645515441895,-1.4951937198638916,1.9738245010375977
1763692631432413000,9.435412841796875,-0.40665769577026367,-1.2674410343170166,2.027301788330078
1763692631441998000,9.444998046875,-0.301055908203125,-1.0662891864776611,1.9733691215515137
1763692631451584300,9.454584228515625,-0.2519659996032715,-0.9306833744049072,1.931006908416748
1763692631461171200,9.464171142578126,-0.18387126922607422,-1.0110673904418945,1.8365955352783203
1763692631470757000,9.473757080078125,-0.002765655517578125,-1.254364252090454,1.593973159790039
1763692631480342500,9.483342529296875,0.32706737518310547,-1.4331345558166504,0.9730033874511719
1763692631489928700,9.4929287109375,0.6178684234619141,-1.4406867027282715,0.21951675415039062
1763692631499515400,9.502515380859375,0.8232049942016602,-1.1733875274658203,-0.42634010314941406
1763692631509101600,9.5121015625,0.9540514945983887,-0.7790946960449219,-0.847076416015625
1763692631518686700,9.521686767578124,1.1001911163330078,-0.468428373336792,-1.0258617401123047
1763692631528273000,9.53127294921875,1.052851676940918,-0.4536449909210205,-1.080245018005371
1763692631537859800,9.54085986328125,0.8656153678894043,-0.6613750457763672,-0.6942558288574219
1763692631547445800,9.55044580078125,0.9019341468811035,-0.9525978565216064,-0.8376636505126953
1763692631557031200,9.56003125,0.5575656890869141,-1.0928442478179932,-0.2259359359741211
1763692631566617300,9.569617431640625,0.25342750549316406,-1.081106185913086,0.23249053955078125
1763692631576204000,9.5792041015625,-0.1054682731628418,-1.0045950412750244,0.5895886421203613
1763692631585790200,9.588790283203124,0.022075653076171875,-1.0552709102630615,1.138427734375
1763692631595375400,9.598375244140625,0.22371149063110352,-1.123830795288086,1.6694893836975098
1763692631604961500,9.60796142578125,0.05030679702758789,-0.9641304016113281,1.4886541366577148
1763692631614548500,9.617548583984375,0.15184640884399414,-0.9079916477203369,1.3451647758483887
1763692631624134400,9.627134521484376,0.13491344451904297,-0.7666926383972168,1.4812626838684082
1763692631633719800,9.6367197265625,-0.09571123123168945,-0.5398852825164795,1.4241046905517578
1763692631643306000,9.646305908203125,-0.30717039108276367,-0.41652369499206543,1.3551054000854492
1763692631652893000,9.655892822265624,-0.3227729797363281,-0.35940051078796387,1.4643731117248535
1763692631662478800,9.665478759765625,-0.3710184097290039,-0.19249820709228516,1.6186647415161133
1763692631672064300,9.675064208984375,-0.49753808975219727,-0.11816859245300293,1.7484512329101562
1763692631681650200,9.684650146484374,-0.6861038208007812,-0.2559065818786621,1.826714038848877
1763692631691237000,9.694237060546875,-0.818263053894043,-0.5262503623962402,1.7360782623291016
1763692631700823300,9.7038232421875,-0.914893388748169,-0.800239086151123,1.529775619506836
1763692631710408400,9.713408447265625,-0.9839978218078613,-0.8695096969604492,1.2854719161987305
1763692631719994600,9.72299462890625,-1.0182030200958252,-0.7631435394287109,0.9719257354736328
1763692631729581600,9.73258154296875,-0.8625121116638184,-0.5327074527740479,0.6589155197143555
1763692631739167500,9.74216748046875,-0.5858993530273438,-0.27666378021240234,0.42490577697753906
1763692631748753000,9.7517529296875,-0.7852029800415039,-0.21553659439086914,-0.28877925872802734
1763692631758339000,9.761339111328125,-0.5641369819641113,0.2493886947631836,0.16848039627075195
1763692631767925800,9.77092578125,-0.18585443496704102,0.4049715995788574,-0.047276973724365234
1763692631777512000,9.780511962890625,-0.11116933822631836,0.5555422306060791,-0.036753177642822266
1763692631787097000,9.79009716796875,0.09964132308959961,0.6827294826507568,-0.2034926414489746
1763692631796683300,9.799683349609374,0.22091197967529297,0.7132542133331299,-0.28405046463012695
1763692631806270200,9.809270263671875,0.3455348014831543,0.7628812789916992,-0.35918760299682617
1763692631815856000,9.818856201171876,0.35996294021606445,0.8753325939178467,-0.2750887870788574
1763692631825441500,9.828441650390625,0.2478199005126953,0.9905688762664795,-0.16510009765625
1763692631835027700,9.83802783203125,0.10000848770141602,1.073448657989502,-0.12629127502441406
1763692631844614400,9.847614501953124,0.041234493255615234,1.1342484951019287,-0.14529657363891602
1763692631854200600,9.85720068359375,0.05776166915893555,1.1404387950897217,-0.2443065643310547
1763692631863785700,9.86678564453125,0.15353059768676758,1.0874519348144531,-0.45468568801879883
1763692631873372000,9.876371826171875,0.3053555488586426,1.0489909648895264,-0.6396512985229492
1763692631882958800,9.885958740234376,0.4326057434082031,0.9936130046844482,-0.7989668846130371
1763692631892545000,9.895544921875,0.517390251159668,0.9618756771087646,-0.9247703552246094
1763692631902130200,9.905130126953125,0.5825772285461426,0.9967951774597168,-1.0137991905212402
1763692631911716400,9.91471630859375,0.5549821853637695,1.0424003601074219,-1.0936164855957031
1763692631921303300,9.92430322265625,0.5027508735656738,1.12617826461792,-1.0793418884277344
1763692631930889200,9.93388916015625,0.37711000442504883,1.2632026672363281,-0.9864993095397949
1763692631940474600,9.943474609375,0.2968168258666992,1.3872668743133545,-0.956913948059082
1763692631950060800,9.953060791015625,0.23424768447875977,1.4077959060668945,-0.9869284629821777
1763692631959647500,9.9626474609375,0.23361539840698242,1.3559858798980713,-1.013167381286621
1763692631969233700,9.972233642578125,0.2936873435974121,1.4510250091552734,-1.2711338996887207
1763692631978818800,9.98181884765625,0.3526039123535156,1.461017370223999,-1.5099620819091797
1763692631988405000,9.991405029296875,0.3906984329223633,1.544468641281128,-1.7689886093139648
1763692631997992000,10.000991943359375,0.36901092529296875,1.6202590465545654,-2.0435304641723633
1763692632007577900,10.010577880859374,0.3461179733276367,1.6041207313537598,-2.2690749168395996
1763692632017163300,10.020163330078125,0.39507246017456055,1.5638244152069092,-2.5155553817749023
1763692632026749200,10.029749267578126,0.5175657272338867,1.5866334438323975,-2.7316665649414062
1763692632036336000,10.039336181640625,0.5635781288146973,1.4446074962615967,-2.7510910034179688
1763692632045922300,10.04892236328125,0.600100040435791,1.3801167011260986,-2.8544297218322754
1763692632055507500,10.058507568359374,0.6847629547119141,1.1545143127441406,-2.9751944541931152
1763692632065093600,10.06809375,0.7111620903015137,0.8641607761383057,-3.0148677825927734
1763692632074680600,10.0776806640625,0.8423500061035156,0.5319275856018066,-2.9857583045959473
1763692632084266500,10.0872666015625,0.8911385536193848,0.17231535911560059,-2.898733139038086
1763692632093852000,10.096851806640625,0.809607982635498,0.02030014991760254,-2.6184606552124023
1763692632103438000,10.10643798828125,0.522953987121582,-0.009628534317016602,-2.199213981628418
1763692632113025000,10.11602490234375,0.015175819396972656,-0.023873090744018555,-1.5473394393920898
1763692632122611000,10.12561083984375,-0.35201549530029297,-0.08432316780090332,-0.826444149017334
1763692632132196400,10.1351962890625,-0.7565922737121582,-0.27735137939453125,-0.2119307518005371
1763692632141782300,10.1447822265625,-1.149766445159912,-0.6308789253234863,0.1632061004638672
1763692632151369200,10.154369140625,-1.4385766983032227,-1.5153543949127197,0.4853086471557617
1763692632160955400,10.163955322265625,-1.4859199523925781,-1.1082496643066406,0.23973560333251953
1763692632170540500,10.17354052734375,-2.0069704055786133,-0.6793770790100098,0.036324501037597656
1763692632180126700,10.183126708984375,-1.8465614318847656,-0.735797643661499,0.13687515258789062
1763692632189713700,10.192713623046876,-1.652902603149414,-0.7112715244293213,0.19097661972045898
1763692632199299600,10.202299560546875,-1.9564542770385742,-0.6872129440307617,-0.04996299743652344
1763692632208885000,10.211885009765625,-1.8387651443481445,-0.8321359157562256,-0.22889184951782227
1763692632218471200,10.22147119140625,-1.4554443359375,-0.9702978134155273,-0.17019939422607422
1763692632228057900,10.231057861328125,-1.2788639068603516,-0.9159157276153564,-0.08911275863647461
1763692632237644000,10.24064404296875,-1.2717432975769043,-0.8262341022491455,-0.04420661926269531
1763692632247229200,10.250229248046875,-1.1677827835083008,-0.8413424491882324,-0.08745145797729492
1763692632256815400,10.2598154296875,-0.8953447341918945,-0.9490716457366943,-0.332155704498291
1763692632266402300,10.26940234375,-0.6780862808227539,-1.020911693572998,-0.6899013519287109
1763692632275988200,10.27898828125,-0.5296993255615234,-0.9859428405761719,-1.1230669021606445
1763692632285573600,10.28857373046875,-0.4344320297241211,-0.9437587261199951,-1.9550971984863281
1763692632295159800,10.298159912109375,-0.38625526428222656,-0.8741347789764404,-2.138838768005371
1763692632304746500,10.30774658203125,-0.4063606262207031,-0.7483944892883301,-1.0656886100769043
1763692632314332700,10.317332763671875,-0.6516475677490234,-0.7052249908447266,-1.0566258430480957
1763692632323918000,10.32691796875,-0.7930140495300293,-0.684506893157959,-0.6623783111572266
1763692632333504000,10.33650390625,-0.8358397483825684,-0.6695430278778076,-0.23519134521484375
1763692632343091000,10.346091064453125,-1.0166916847229004,-0.6629989147186279,0.11032676696777344
1763692632352676900,10.3556767578125,-1.1966123580932617,-0.7443208694458008,0.4267458915710449
1763692632362262300,10.36526220703125,-1.2671761512756348,-0.9073171615600586,0.6786112785339355
1763692632371848400,10.374848388671875,-1.3382277488708496,-1.0426619052886963,0.8110909461975098
1763692632381435400,10.384435302734374,-1.3969841003417969,-1.1534554958343506,0.8632197380065918
1763692632391021300,10.394021240234375,-1.4512429237365723,-1.2305505275726318,0.8941135406494141
1763692632400606700,10.403606689453126,-1.5111565589904785,-1.2956287860870361,0.9796152114868164
1763692632410193000,10.41319287109375,-1.579690933227539,-1.3629236221313477,0.9662580490112305
1763692632419779600,10.422779541015625,-1.5255589485168457,-1.422276496887207,0.9405426979064941
1763692632429365800,10.43236572265625,-1.4729242324829102,-1.4900448322296143,0.9388394355773926
1763692632438951000,10.441950927734375,-1.482738971710205,-1.5201900005340576,1.1010355949401855
1763692632448537000,10.451537109375,-1.5752902030944824,-1.4831688404083252,1.3184494972229004
1763692632458124000,10.4611240234375,-1.6526689529418945,-1.4060893058776855,1.5130577087402344
1763692632467710000,10.4707099609375,-1.6474418640136719,-1.352311134338379,1.6862950325012207
1763692632477295400,10.48029541015625,-1.6118006706237793,-1.221055030822754,1.822317123413086
1763692632486881500,10.489881591796875,-1.5293736457824707,-1.0360419750213623,2.000039577484131
1763692632496468200,10.49946826171875,-1.4050650596618652,-0.841162919998169,2.165511131286621
1763692632506054400,10.509054443359375,-1.349271297454834,-0.7410745620727539,2.2488508224487305
1763692632515639600,10.5186396484375,-1.2360763549804688,-0.813751220703125,2.280414581298828
1763692632525225700,10.528225830078124,-1.1904573440551758,-1.3342652320861816,2.262807846069336
1763692632534812700,10.537812744140625,-1.0126738548278809,-1.3255894184112549,1.647101879119873
1763692632544398600,10.547398681640624,-0.725494384765625,-1.277883529663086,1.381908893585205
1763692632553984000,10.55698388671875,-0.28682851791381836,-1.2885656356811523,0.8639678955078125
1763692632563570200,10.566570068359376,-0.05311870574951172,-0.6437466144561768,0.3643646240234375
1763692632573156900,10.576156982421875,0.6165003776550293,-0.2519690990447998,-0.14014053344726562
1763692632582743000,10.585742919921875,1.0778346061706543,-0.09840202331542969,-0.6307792663574219
1763692632592328400,10.595328369140624,1.5005927085876465,-0.11480140686035156,-1.09773588180542
1763692632601914400,10.604914306640625,1.7653074264526367,-0.14197850227355957,-1.291365623474121
1763692632611501300,10.614501220703126,1.861623764038086,-0.28486084938049316,-1.263381004333496
1763692632621087500,10.62408740234375,1.768002986907959,-0.5156707763671875,-1.0860261917114258
1763692632630672600,10.633672607421875,1.7829957008361816,-0.5894856452941895,-0.9307365417480469
1763692632640258800,10.6432587890625,1.7821812629699707,-0.7170538902282715,-0.8136768341064453
1763692632649845800,10.652845703125,1.5284910202026367,-0.8975093364715576,-0.7820839881896973
1763692632659431700,10.662431640625,1.5681328773498535,-0.8943557739257812,-0.8718976974487305
1763692632669017000,10.67201708984375,1.540328025817871,-0.6736645698547363,-1.1167211532592773
1763692632678603300,10.681603271484375,1.634047508239746,-0.4959073066711426,-1.4029531478881836
1763692632688190000,10.69118994140625,1.8673529624938965,-0.4415435791015625,-1.8414316177368164
1763692632697776000,10.700776123046875,1.723371982574463,-0.687180757522583,-2.573777198791504
1763692632707361500,10.710361572265626,1.5002245903015137,-0.9933145046234131,-2.35727596282959
1763692632716947500,10.719947509765625,2.087817668914795,-0.786304235458374,-2.449206829071045
1763692632726534400,10.729534423828126,1.8566522598266602,-0.8060667514801025,-2.352586269378662
1763692632736120300,10.739120361328125,1.7171063423156738,-0.6111199855804443,-2.15847110748291
1763692632745705700,10.748705810546875,1.6589980125427246,-0.5903112888336182,-1.894482135772705
1763692632755292000,10.7582919921875,1.5831046104431152,-0.6515634059906006,-1.658961296081543
1763692632764878800,10.76787890625,1.3618602752685547,-0.7620456218719482,-1.296370506286621
1763692632774464800,10.77746484375,1.1619553565979004,-0.8663420677185059,-0.882298469543457
1763692632784050200,10.78705029296875,0.9783377647399902,-0.8342752456665039,-0.4564938545227051
1763692632793636000,10.796635986328125,0.825920581817627,-0.8986096382141113,0.13823366165161133
1763692632803223000,10.80622314453125,0.6189122200012207,-0.7072274684906006,0.5793695449829102
1763692632812809200,10.815809326171875,0.2691488265991211,-0.47464418411254883,0.8931717872619629
1763692632822394400,10.825394287109376,0.07930469512939453,-0.4272911548614502,1.0966215133666992
1763692632831980500,10.83498046875,0.0012197494506835938,-0.4201784133911133,1.0806398391723633
1763692632841567500,10.8445673828125,-0.20849609375,-0.3897101879119873,0.9888105392456055
1763692632851153400,10.8541533203125,-0.08101129531860352,-0.33353734016418457,0.8733210563659668
1763692632860738800,10.86373876953125,-0.0018157958984375,-0.28899240493774414,0.6606159210205078
1763692632870325000,10.873324951171876,0.13700389862060547,-0.268735408782959,0.4370255470275879
1763692632879911700,10.88291162109375,0.3153815269470215,-0.2584707736968994,0.2797527313232422
1763692632889497900,10.892497802734376,0.37847900390625,-0.06949472427368164,0.11168289184570312
1763692632899083000,10.9020830078125,0.29557037353515625,0.08176374435424805,-0.01861715316772461
1763692632908669200,10.911669189453125,0.22562122344970703,0.14554452896118164,-0.03806018829345703
1763692632918256000,10.921256103515624,0.09767866134643555,0.1146857738494873,0.042192935943603516
1763692632927842000,10.930842041015625,-0.01869821548461914,-0.019565582275390625,0.13907575607299805
1763692632937427500,10.940427490234375,-0.19513511657714844,-0.13138198852539062,0.1949625015258789
1763692632947013600,10.950013671875,-0.44054555892944336,-0.14261412620544434,0.32614803314208984
1763692632956600600,10.9596005859375,-0.6846752166748047,-0.12245512008666992,0.5133471488952637
1763692632966186500,10.9691865234375,-0.944732666015625,-0.13721871376037598,0.757237434387207
1763692632975772000,10.97877197265625,-1.1902470588684082,-0.16038775444030762,0.969733715057373
1763692632985358000,10.988358154296876,-1.4054474830627441,-0.11773681640625,1.18438720703125
1763692632994944800,10.99794482421875,-1.608504295349121,0.002338409423828125,1.4219536781311035
1763692633004531000,11.007531005859375,-1.755734920501709,0.1367816925048828,1.618896484375
1763692633014116000,11.0171162109375,-1.8278627395629883,0.21742820739746094,1.7564468383789062
1763692633023702300,11.026702392578125,-1.8407564163208008,0.3434305191040039,1.8621902465820312
1763692633033289200,11.036289306640626,-1.7351055145263672,0.508080244064331,1.8262887001037598
1763692633042875100,11.045875244140625,-1.5534958839416504,0.6851828098297119,1.6762890815734863
1763692633052460500,11.05546044921875,-1.3545165061950684,0.8320865631103516,1.4728155136108398
1763692633062046700,11.065046630859374,-1.2265605926513672,0.9883434772491455,1.3432531356811523
1763692633071633400,11.07463330078125,-1.036959171295166,1.1986374855041504,1.3464698791503906
1763692633081219600,11.084219482421876,-0.7376260757446289,1.3716773986816406,1.2832860946655273
1763692633090804700,11.0938046875,-0.42087554931640625,1.3954455852508545,1.106553554534912
1763692633100391000,11.103390869140625,-0.10426616668701172,1.360980749130249,0.7602496147155762
1763692633109977900,11.112977783203124,0.1711893081665039,1.3865361213684082,0.4522132873535156
1763692633119564000,11.12256396484375,0.1495060920715332,1.5227150917053223,0.34538698196411133
1763692633129149200,11.132149169921876,0.10431718826293945,1.706782341003418,0.34178733825683594
1763692633138735400,11.1417353515625,-0.011780261993408203,1.7255430221557617,0.2752203941345215
1763692633148322300,11.151322265625,-0.0722203254699707,1.7011277675628662,0.1885547637939453
1763692633157908200,11.160908203125,0.015160560607910156,1.6011016368865967,0.07469654083251953
1763692633167493600,11.17049365234375,0.06195640563964844,0.9662303924560547,0.04914093017578125
1763692633177079800,11.180079833984376,0.19888734817504883,1.5067620277404785,-0.3082137107849121
1763692633186666500,11.18966650390625,-0.06862545013427734,1.6566731929779053,-0.26899051666259766
1763692633196252700,11.199252685546876,0.228973388671875,1.373049020767212,-0.17930173873901367
1763692633205837800,11.208837890625,0.26848697662353516,1.0541810989379883,-0.3146672248840332
1763692633215424000,11.218424072265625,0.2476353645324707,0.8641278743743896,-0.4848041534423828
1763692633225011000,11.228010986328124,0.34200334548950195,0.8690898418426514,-0.5660667419433594
1763692633234596900,11.237596923828125,0.47089481353759766,1.0386784076690674,-0.6268792152404785
1763692633244182300,11.247182373046876,0.5986590385437012,1.2119886875152588,-0.6889996528625488
1763692633253768400,11.2567685546875,0.7218523025512695,1.2703487873077393,-0.8115172386169434
1763692633263355400,11.26635546875,0.9363327026367188,1.2512240409851074,-1.0228471755981445
1763692633272941300,11.27594140625,1.1050500869750977,1.1924536228179932,-1.3113822937011719
1763692633282526700,11.285526611328125,1.2872281074523926,1.1541695594787598,-1.6977624893188477
1763692633292112600,11.295112548828126,1.5100798606872559,1.0449445247650146,-3.3561153411865234
1763692633301699600,11.304699462890625,1.7346458435058594,1.3683736324310303,-2.84625244140625
1763692633311285800,11.31428564453125,1.8690919876098633,1.430290937423706,-2.6332292556762695
1763692633320871000,11.323870849609374,1.8031439781188965,1.6662306785583496,-3.0715441703796387
1763692633330457000,11.33345703125,1.8690009117126465,1.7570433616638184,-2.9831490516662598
1763692633340044000,11.3430439453125,1.871077060699463,1.6857120990753174,-2.9067578315734863
1763692633349630000,11.3526298828125,2.0131239891052246,1.4365720748901367,-2.887938976287842
1763692633359215400,11.36221533203125,2.3074378967285156,1.1944236755371094,-2.9409990310668945
1763692633368801300,11.37180126953125,2.3200550079345703,0.9266669750213623,-3.1158690452575684
1763692633378388200,11.38138818359375,2.199369430541992,0.6962246894836426,-3.169255256652832
1763692633387974400,11.390974365234374,2.077664852142334,0.4356706142425537,-3.0169925689697266
1763692633397559600,11.4005595703125,1.8406691551208496,0.34584975242614746,-2.7375192642211914
1763692633407145700,11.410145751953126,1.4884238243103027,0.30160951614379883,-2.247591018676758
1763692633416732700,11.419732666015625,1.0293083190917969,0.1721668243408203,-1.7762565612792969
1763692633426318600,11.429318603515625,0.5760607719421387,0.045127153396606445,-1.3778076171875
1763692633435904000,11.438904052734374,0.1283278465270996,-0.12496352195739746,-1.0704078674316406
1763692633445490200,11.448490234375,-0.21079349517822266,-0.289564847946167,-0.8278212547302246
1763692633455076900,11.458076904296876,-0.3778080940246582,-0.4769923686981201,-0.6537485122680664
1763692633464663000,11.4676630859375,-0.43302154541015625,-0.587059497833252,-0.5443997383117676
1763692633474248400,11.47724853515625,-0.45287370681762695,-0.5591092109680176,-0.35286426544189453
1763692633483834400,11.48683447265625,-0.5287442207336426,-0.48531150817871094,-0.28309106826782227
1763692633493421300,11.49642138671875,-0.6161155700683594,-0.4262728691101074,-0.32026147842407227
1763692633503007500,11.506007568359376,-0.6853427886962891,-0.4841163158416748,-0.2856936454772949
1763692633512592600,11.515592529296875,-0.7286205291748047,-0.6768128871917725,-0.19220399856567383
1763692633522178800,11.5251787109375,-0.7353973388671875,-0.978635311126709,-0.0017900466918945312
1763692633531765800,11.534765869140625,-0.9164667129516602,-1.1971197128295898,0.20633935928344727
1763692633541351700,11.5443515625,-1.215329647064209,-1.2484662532806396,0.28673410415649414
1763692633550937000,11.55393701171875,-1.4497959613800049,-1.2239439487457275,0.37349987030029297
1763692633560523300,11.563523193359375,-1.5668308734893799,-1.301856279373169,0.48819875717163086
1763692633570110000,11.57310986328125,-1.3209278583526611,-1.4829397201538086,0.6937084197998047
1763692633579696000,11.582696044921875,-1.117009162902832,-1.6244568824768066,0.8379073143005371
1763692633589281500,11.592281494140625,-1.0090627670288086,-1.7762782573699951,0.9250407218933105
1763692633598867500,11.601867431640626,-1.1409988403320312,-1.864710807800293,0.7623567581176758
1763692633608454400,11.611454345703125,-1.5257153511047363,-1.8700528144836426,0.8614053726196289
1763692633618040300,11.621040283203126,-1.7478387355804443,-1.9214091300964355,1.4406499862670898
1763692633627625700,11.630625732421874,-1.8933234214782715,-1.8853981494903564,2.099510669708252
1763692633637212000,11.6402119140625,-1.861344575881958,-1.8718509674072266,2.6031875610351562
1763692633646798800,11.649798828125,-1.2902493476867676,-1.9576382637023926,3.0777339935302734
1763692633656384800,11.659384765625,-0.7181320190429688,-2.3524277210235596,2.6695680618286133
1763692633665970200,11.66897021484375,-0.48108577728271484,-2.836106061935425,2.023494243621826
1763692633675556400,11.678556396484375,-0.5722506046295166,-3.0503785610198975,2.302307605743408
1763692633685143000,11.68814306640625,-0.7212848663330078,-2.834693670272827,2.7830638885498047
1763692633694729200,11.697729248046874,-0.9902193546295166,-2.439866304397583,3.331446647644043
1763692633704314400,11.707314453125,-0.9755358695983887,-1.9584441184997559,3.4063096046447754
1763692633713900500,11.716900634765626,-0.1750319004058838,-1.5484592914581299,2.927978515625
1763692633723487500,11.726487548828125,0.4568326473236084,-1.4776828289031982,2.3149280548095703
1763692633733073400,11.736073486328126,0.5877420902252197,-1.660248041152954,1.907702922821045
1763692633742658800,11.745658935546874,-0.19834351539611816,-2.0232608318328857,1.0661859512329102
1763692633752245000,11.755244873046875,-0.3210103511810303,-2.0715208053588867,1.4890108108520508
1763692633761832000,11.76483203125,0.23919391632080078,-2.62093186378479,1.899965763092041
1763692633771417900,11.77441796875,0.9117965698242188,-3.4099817276000977,1.703463077545166
1763692633781003300,11.784003173828125,1.6092860698699951,-3.5027711391448975,0.8662896156311035
1763692633790589400,11.79358935546875,1.3525444269180298,-2.719567060470581,0.5414295196533203
1763692633800176000,11.803176025390625,0.7631303071975708,-1.691584587097168,0.378753662109375
1763692633809762300,11.81276220703125,0.28488969802856445,-0.6731071472167969,0.7451705932617188
1763692633819347500,11.822347412109375,-0.21266847848892212,-0.38529348373413086,1.0408058166503906
1763692633828933600,11.83193359375,-0.6090250611305237,-0.00022172927856445312,0.6906328201293945
1763692633838520600,11.8415205078125,0.04737262427806854,-0.1264185905456543,0.27081775665283203
1763692633848106500,11.8511064453125,1.0968468189239502,-0.6500575542449951,-0.5440044403076172
1763692633857692000,11.86069189453125,1.2314735651016235,-0.8380160331726074,-1.1816883087158203
1763692633867277800,11.87027783203125,0.9207791090011597,-0.5644516944885254,-1.4832839965820312
1763692633876864800,11.87986474609375,0.4261169731616974,-0.25913238525390625,-1.6916837692260742
1763692633886451000,11.889450927734375,0.020267248153686523,-0.6269025802612305,-1.7957696914672852
1763692633896036000,11.8990361328125,0.19516706466674805,-0.26306772232055664,-1.6530084609985352
1763692633905622300,11.908622314453124,0.5578080415725708,-0.21646714210510254,-1.2239665985107422
1763692633915209200,11.918209228515625,-0.5602071285247803,-0.4721846580505371,-1.4760847091674805
1763692633924795400,11.92779541015625,-0.8514866828918457,0.06883406639099121,-2.3407602310180664
1763692633934380500,11.937380615234375,-0.8886653184890747,0.5431520938873291,-3.10845947265625
1763692633943966700,11.946966796875,-0.756140947341919,1.118778944015503,-3.2507781982421875
1763692633953553700,11.9565537109375,-0.8202133178710938,1.1932594776153564,-3.1828250885009766
1763692633963139600,11.9661396484375,-0.8176755905151367,0.6834502220153809,-3.599154472351074
1763692633972725000,11.97572509765625,-0.5313420295715332,0.46393728256225586,-3.9674129486083984
1763692633982311200,11.985311279296875,-0.18677020072937012,0.408937931060791,-4.228377342224121
1763692633991897900,11.99489794921875,0.28664445877075195,0.08325624465942383,-4.322247505187988
1763692634001484000,12.004484130859375,0.594939112663269,-0.43413496017456055,-3.8917837142944336
1763692634011069200,12.014069091796875,0.4264802932739258,-0.7317668199539185,-3.201869010925293
1763692634020655400,12.0236552734375,0.20768237113952637,-1.1043624877929688,-2.637911796569824
1763692634030242300,12.0332421875,0.662569522857666,-1.9497122764587402,-2.5005264282226562
1763692634039828200,12.042828125,0.956235408782959,-1.9756908416748047,-2.1607494354248047
1763692634049413600,12.05241357421875,-0.12570691108703613,-1.3544292449951172,-0.9550457000732422
1763692634059001300,12.06200146484375,-2.7022705078125,-0.792275071144104,-0.4087028503417969
1763692634068588000,12.071588134765625,-1.4662866592407227,-0.5173896551132202,-0.2061300277709961
1763692634078174200,12.08117431640625,-0.28337812423706055,-0.3278782367706299,-0.21888065338134766
1763692634087759400,12.09075927734375,-0.7067081928253174,-0.3288590908050537,-0.8134679794311523
1763692634097345500,12.100345458984375,-0.4221653938293457,-0.7972660064697266,-1.689352035522461
1763692634106932500,12.109932373046876,-0.14848589897155762,-1.376861333847046,-2.1032257080078125
1763692634116518700,12.1195185546875,0.286236047744751,-1.8461692333221436,-2.3319854736328125
1763692634126103800,12.129103759765625,0.5584746599197388,-1.8265323638916016,-2.1732683181762695
