time,seconds_elapsed,z,y,x
1763692622173180400,0.176180419921875,8.871492385864258,4.097753047943115,0.8218495845794678
1763692622182958600,0.18595849609375,8.886343955993652,4.077720642089844,0.7585981488227844
1763692622202514400,0.205514404296875,8.920310020446777,4.033653736114502,0.572799563407898
1763692622212292400,0.215292236328125,8.950116157531738,3.977151870727539,0.4980652630329132
1763692622222070300,0.2250703125,8.977849006652832,3.921194553375244,0.4391500949859619
1763692622231848200,0.23484814453125,9.002829551696777,3.8682990074157715,0.39461058378219604
1763692622241626000,0.244626220703125,9.028332710266113,3.81099796295166,0.3686445653438568
1763692622251404000,0.254404052734375,9.053248405456543,3.7522027492523193,0.3606411814689636
1763692622261182200,0.26418212890625,9.078723907470703,3.689328670501709,0.3688179850578308
1763692622270960000,0.273960205078125,9.10962963104248,3.6085565090179443,0.4041872024536133
1763692622280738000,0.283738037109375,9.147651672363281,3.5021064281463623,0.47551658749580383
1763692622290516000,0.293515869140625,9.181527137756348,3.3951659202575684,0.585484504699707
1763692622300294000,0.3032939453125,9.209498405456543,3.292026996612549,0.7197782397270203
1763692622310071600,0.313071533203125,9.233675003051758,3.1907143592834473,0.8538005948066711
1763692622319849500,0.322849365234375,9.254314422607422,3.099592924118042,0.9594618082046509
1763692622329627400,0.33262744140625,9.275775909423828,3.015348434448242,1.0188449621200562
1763692622339401500,0.3424013671875,9.296135902404785,2.9418723583221436,1.047674298286438
1763692622349179100,0.35217919921875,9.316834449768066,2.8565404415130615,1.098711609840393
1763692622358956800,0.361956787109375,9.323375701904297,2.800602436065674,1.1839282512664795
1763692622368734700,0.371734619140625,9.299960136413574,2.8266043663024902,1.3005516529083252
1763692622378512600,0.3815126953125,9.258520126342773,2.9075677394866943,1.412886142730713
1763692622388290600,0.39129052734375,9.212432861328125,3.0286028385162354,1.4591220617294312
1763692622398068200,0.401068115234375,9.164109230041504,3.1849517822265625,1.4302371740341187
1763692622407846100,0.41084619140625,9.113818168640137,3.3701860904693604,1.3230875730514526
1763692622417624000,0.4206240234375,9.06031322479248,3.5662424564361572,1.1674834489822388
1763692622427402000,0.430402099609375,8.997258186340332,3.7557101249694824,1.055633306503296
1763692622437180000,0.440179931640625,8.921918869018555,3.9234824180603027,1.0844528675079346
1763692622446957600,0.44995751953125,8.816324234008789,4.094369888305664,1.2957409620285034
1763692622456735500,0.459735595703125,8.689074516296387,4.249603271484375,1.6159336566925049
1763692622466513400,0.469513427734375,8.582322120666504,4.3357014656066895,1.9276468753814697
1763692622476291300,0.479291259765625,8.518017768859863,4.341187477111816,2.1835415363311768
1763692622486069200,0.4890693359375,8.480247497558594,4.305933952331543,2.3905513286590576
1763692622495847000,0.498846923828125,8.477937698364258,4.230804443359375,2.5288825035095215
1763692622505624800,0.508624755859375,8.506956100463867,4.123745918273926,2.607067584991455
1763692622515402800,0.51840283203125,8.549936294555664,4.001166343688965,2.6570000648498535
1763692622525180700,0.5281806640625,8.597943305969238,3.8776183128356934,2.685112714767456
1763692622534958300,0.537958251953125,8.647330284118652,3.7652955055236816,2.686373710632324
1763692622544736300,0.547736328125,8.692643165588379,3.6779932975769043,2.6609604358673096
1763692622554514200,0.55751416015625,8.732128143310547,3.618455410003662,2.612875461578369
1763692622564292000,0.5672919921875,8.762703895568848,3.5753743648529053,2.5694539546966553
1763692622574070000,0.577070068359375,8.786312103271484,3.5391108989715576,2.538856267929077
1763692622583847700,0.58684765625,8.82563304901123,3.4821982383728027,2.480498790740967
1763692622593625600,0.59662548828125,8.874141693115234,3.401843547821045,2.4181525707244873
1763692622603403500,0.606403564453125,8.921955108642578,3.3257710933685303,2.346989393234253
1763692622613181400,0.616181396484375,8.966114044189453,3.2659592628479004,2.261124849319458
1763692622622806000,0.625805908203125,9.01671028137207,3.206432342529297,2.141986608505249
1763692622632392000,0.635391845703125,9.063081741333008,3.1616628170013428,2.0086889266967773
1763692622641979000,0.644978759765625,9.107409477233887,3.1248674392700195,1.8602919578552246
1763692622651564800,0.654564697265625,9.157561302185059,3.053942918777466,1.7271053791046143
1763692622661150200,0.664150146484375,9.218276977539062,2.9735233783721924,1.5335912704467773
1763692622670736400,0.673736328125,9.258087158203125,2.9551968574523926,1.3133987188339233
1763692622680323000,0.683322998046875,9.274971008300781,2.9889883995056152,1.100564956665039
1763692622689909200,0.6929091796875,9.275632858276367,3.0487663745880127,0.9154441356658936
1763692622699494400,0.702494384765625,9.264110565185547,3.125972270965576,0.7582472562789917
1763692622709080600,0.71208056640625,9.239019393920898,3.2294442653656006,0.6177273988723755
1763692622718667500,0.72166748046875,9.19809341430664,3.366572141647339,0.4813048541545868
1763692622728253400,0.73125341796875,9.143125534057617,3.5295112133026123,0.3408779501914978
1763692622737838800,0.7408388671875,9.085702896118164,3.6865034103393555,0.17348124086856842
1763692622747425000,0.750425048828125,9.04464054107666,3.7899107933044434,-0.03821608051657677
1763692622757011700,0.76001171875,9.012314796447754,3.8588833808898926,-0.23998817801475525
1763692622766598000,0.769597900390625,8.983860969543457,3.9124889373779297,-0.3912360668182373
1763692622776183000,0.77918310546875,8.962552070617676,3.9465527534484863,-0.5174586772918701
1763692622785769200,0.788769287109375,8.949922561645508,3.957224130630493,-0.6400343179702759
1763692622795356200,0.798356201171875,8.941268920898438,3.9590418338775635,-0.7416788935661316
1763692622804942000,0.807942138671875,8.940475463867188,3.944287061691284,-0.8251615762710571
1763692622814527500,0.817527587890625,8.944157600402832,3.917649745941162,-0.9079917669296265
1763692622824113400,0.827113525390625,8.950042724609375,3.8809571266174316,-1.002639651298523
1763692622833700400,0.836700439453125,8.955756187438965,3.837897300720215,-1.1114732027053833
1763692622843286500,0.84628662109375,8.959593772888184,3.791614294052124,-1.2327700853347778
1763692622852871700,0.85587158203125,8.96114444732666,3.742610216140747,-1.3642455339431763
1763692622862457900,0.865457763671875,8.95969295501709,3.694613218307495,-1.4980382919311523
1763692622872044500,0.87504443359375,8.95593547821045,3.6489951610565186,-1.626785159111023
1763692622881630700,0.884630615234375,8.951394081115723,3.6102817058563232,-1.7345860004425049
1763692622891216000,0.8942158203125,8.951054573059082,3.573500156402588,-1.8108327388763428
1763692622900802000,0.903802001953125,8.957547187805176,3.5324223041534424,-1.8586949110031128
1763692622910389000,0.913388916015625,8.969221115112305,3.4865026473999023,-1.8888518810272217
1763692622919975000,0.922974853515625,8.982694625854492,3.4393250942230225,-1.9111840724945068
1763692622929560300,0.932560302734375,8.995001792907715,3.3936800956726074,-1.9347500801086426
1763692622939146200,0.942146240234375,9.005817413330078,3.349121332168579,-1.9618955850601196
1763692622948733200,0.951733154296875,9.015641212463379,3.3081212043762207,-1.9861854314804077
1763692622958319400,0.9613193359375,9.026368141174316,3.273498773574829,-1.994809865951538
1763692622967904500,0.970904541015625,9.040077209472656,3.2449190616607666,-1.9793654680252075
1763692622977490700,0.98049072265625,9.057552337646484,3.2174930572509766,-1.9439334869384766
1763692622987077600,0.99007763671875,9.078508377075195,3.187346935272217,-1.8952275514602661
1763692622996663600,0.99966357421875,9.10231876373291,3.1537058353424072,-1.836389183998108
1763692623006249000,1.0092490234375,9.128795623779297,3.1166129112243652,-1.766974925994873
1763692623015835000,1.0188349609375,9.157975196838379,3.0759103298187256,-1.6854252815246582
1763692623025421800,1.028421875,9.188755989074707,3.032022714614868,-1.5949829816818237
1763692623035008000,1.038008056640625,9.219206809997559,2.986380100250244,-1.5027127265930176
1763692623044593200,1.04759326171875,9.250228881835938,2.9354119300842285,-1.409613013267517
1763692623054179300,1.057179443359375,9.284430503845215,2.869255542755127,-1.3179981708526611
1763692623063766300,1.066766357421875,9.317716598510742,2.796300172805786,-1.2374366521835327
1763692623073352200,1.076352294921875,9.344090461730957,2.739272356033325,-1.1639336347579956
1763692623082937600,1.0859375,9.366169929504395,2.692831516265869,-1.0926629304885864
1763692623092523800,1.095523681640625,9.386575698852539,2.6486470699310303,-1.0233594179153442
1763692623102110500,1.1051103515625,9.404788970947266,2.6080563068389893,-0.9583265781402588
1763692623111696600,1.114696533203125,9.42165470123291,2.5673484802246094,-0.9008509516716003
1763692623121281800,1.12428173828125,9.438411712646484,2.5225276947021484,-0.8506610989570618
1763692623130868000,1.133867919921875,9.455765724182129,2.47227144241333,-0.8042075634002686
1763692623140455000,1.143454833984375,9.47337532043457,2.4192779064178467,-0.7567299008369446
1763692623150040800,1.153040771484375,9.49083137512207,2.3649346828460693,-0.7082236409187317
1763692623159626000,1.1626259765625,9.508829116821289,2.305868625640869,-0.6599382162094116
1763692623169212200,1.172212158203125,9.52755355834961,2.2406764030456543,-0.6127800345420837
1763692623178799000,1.181799072265625,9.54560661315918,2.177791118621826,-0.5558799505233765
1763692623188385000,1.191385009765625,9.56157112121582,2.1242997646331787,-0.48383113741874695
1763692623197970400,1.200970458984375,9.576445579528809,2.07389235496521,-0.4012907147407532
1763692623207556600,1.210556640625,9.589151382446289,2.030214548110962,-0.31112340092658997
1763692623217143300,1.220143310546875,9.599332809448242,1.9942296743392944,-0.21507082879543304
1763692623226729500,1.2297294921875,9.606024742126465,1.969973087310791,-0.11778546124696732
1763692623236314600,1.239314697265625,9.608502388000488,1.9613330364227295,-0.015730058774352074
1763692623245900800,1.24890087890625,9.606595993041992,1.9682509899139404,0.09842532128095627
1763692623255487700,1.25848779296875,9.600850105285645,1.985828161239624,0.22484074532985687
1763692623265073700,1.26807373046875,9.59303092956543,2.005229949951172,0.35098862648010254
1763692623274659000,1.2776591796875,9.585573196411133,2.019874334335327,0.45527327060699463
1763692623284245200,1.287245361328125,9.58158016204834,2.0234084129333496,0.5191715955734253
1763692623293832000,1.29683203125,9.581801414489746,2.0153512954711914,0.5457373261451721
1763692623303418000,1.306418212890625,9.584383964538574,2.0008225440979004,0.5537902116775513
1763692623313003300,1.316003173828125,9.586856842041016,1.9860162734985352,0.564172625541687
1763692623322589400,1.32558935546875,9.588055610656738,1.9752542972564697,0.5813307166099548
1763692623332176400,1.33517626953125,9.588607788085938,1.9686981439590454,0.5943295359611511
1763692623341762300,1.34476220703125,9.588451385498047,1.9670779705047607,0.6021571755409241
1763692623351347700,1.35434765625,9.585301399230957,1.9761043787002563,0.6224036812782288
1763692623360933600,1.36393359375,9.581159591674805,1.9844460487365723,0.6585803627967834
1763692623370520600,1.3735205078125,9.578108787536621,1.9859468936920166,0.6973037123680115
1763692623380106800,1.383106689453125,9.576207160949707,1.985792636871338,0.7233705520629883
1763692623389692000,1.39269189453125,9.574386596679688,1.9890198707580566,0.7384498119354248
1763692623399278000,1.402278076171875,9.572382926940918,1.9951244592666626,0.7479066252708435
1763692623408865000,1.411864990234375,9.57032299041748,2.007627248764038,0.7407697439193726
1763692623418451000,1.421450927734375,9.569038391113281,2.022184371948242,0.7173924446105957
1763692623428036400,1.431036376953125,9.56973934173584,2.0337767601013184,0.6739699244499207
1763692623437622500,1.44062255859375,9.579510688781738,2.044991970062256,0.47049278020858765
1763692623447209200,1.450209228515625,9.585314750671387,2.0494277477264404,0.3032556474208832
1763692623456795400,1.45979541015625,9.586938858032227,2.0583436489105225,0.15560400485992432
1763692623466380500,1.469380615234375,9.583412170410156,2.0804946422576904,0.011610696092247963
1763692623475966700,1.478966796875,9.575334548950195,2.1118228435516357,-0.1535414457321167
1763692623485553700,1.4885537109375,9.5616455078125,2.1499176025390625,-0.35098254680633545
1763692623495139600,1.4981396484375,9.540533065795898,2.1944963932037354,-0.5768895745277405
1763692623504724700,1.507724853515625,9.51113224029541,2.2440762519836426,-0.8202873468399048
1763692623514311000,1.517310791015625,9.473652839660645,2.2960689067840576,-1.0716135501861572
1763692623523897900,1.52689794921875,9.42915153503418,2.3487703800201416,-1.320896029472351
1763692623533483800,1.53648388671875,9.379929542541504,2.397366762161255,-1.5620357990264893
1763692623543069200,1.546069091796875,9.325727462768555,2.4399986267089844,-1.8021091222763062
1763692623552655000,1.555655029296875,9.263569831848145,2.4746267795562744,-2.0573976039886475
1763692623562242000,1.565241943359375,9.197769165039062,2.499328851699829,-2.307551860809326
1763692623571828200,1.574828125,9.130778312683105,2.5177059173583984,-2.5417375564575195
1763692623581413400,1.584413330078125,9.077930450439453,2.5044169425964355,-2.736689567565918
1763692623590999600,1.59399951171875,9.025428771972656,2.481722593307495,-2.9245645999908447
1763692623600586500,1.60358642578125,8.959033012390137,2.455042600631714,-3.143069267272949
1763692623610172400,1.61317236328125,8.889598846435547,2.4044508934020996,-3.371058940887451
1763692623619757800,1.6227578125,8.813785552978516,2.3438832759857178,-3.6046900749206543
1763692623629344000,1.632343994140625,8.7263765335083,2.287994623184204,-3.8452324867248535
1763692623638930700,1.6419306640625,8.629085540771484,2.255322217941284,-4.077104568481445
1763692623648516900,1.651516845703125,8.542563438415527,2.2526278495788574,-4.256837844848633
1763692623658102000,1.66110205078125,8.473224639892578,2.2682840824127197,-4.3851728439331055
1763692623667688200,1.670688232421875,8.402111053466797,2.2776639461517334,-4.515214920043945
1763692623677275100,1.680275146484375,8.32605266571045,2.2675249576568604,-4.65892219543457
1763692623686861000,1.689861083984375,8.251076698303223,2.2347967624664307,-4.8058085441589355
1763692623696446500,1.699446533203125,8.1867036819458,2.184840440750122,-4.937079906463623
1763692623706032400,1.709032470703125,8.138164520263672,2.1275367736816406,-5.041256904602051
1763692623715619300,1.718619384765625,8.106207847595215,2.0720179080963135,-5.115323066711426
1763692623725205200,1.728205322265625,8.081000328063965,2.021707057952881,-5.174988746643066
1763692623734790700,1.737790771484375,8.053165435791016,1.9757928848266602,-5.235758304595947
1763692623744376800,1.747376953125,8.004322052001953,1.9407875537872314,-5.32302188873291
1763692623753963800,1.7569638671875,7.930211067199707,1.9147979021072388,-5.44202995300293
1763692623763549700,1.7665498046875,7.82818603515625,1.8963146209716797,-5.594093322753906
1763692623773135000,1.776135009765625,7.703551292419434,1.8850373029708862,-5.768216609954834
1763692623782721000,1.785720947265625,7.557399749755859,1.891918420791626,-5.956235885620117
1763692623792308000,1.795307861328125,7.393613338470459,1.921301245689392,-6.149265766143799
1763692623801894100,1.80489404296875,7.225770950317383,1.9611358642578125,-6.3334479331970215
1763692623811479300,1.814479248046875,7.06571102142334,1.9952806234359741,-6.501150608062744
1763692623821065500,1.8240654296875,6.920304775238037,2.014484405517578,-6.6499342918396
1763692623830652200,1.833652099609375,6.78566837310791,2.0158441066741943,-6.786859512329102
1763692623840238300,1.84323828125,6.6696953773498535,1.9930884838104248,-6.907470703125
1763692623849823500,1.852823486328125,6.570770263671875,1.9539737701416016,-7.0126566886901855
1763692623859409700,1.86240966796875,6.477067470550537,1.906182050704956,-7.112275123596191
1763692623868996600,1.87199658203125,6.369536876678467,1.8579610586166382,-7.221313953399658
1763692623878582500,1.88158251953125,6.275071620941162,1.8306912183761597,-7.310433387756348
1763692623888168000,1.89116796875,6.182927131652832,1.8217881917953491,-7.3907294273376465
1763692623897754000,1.900754150390625,6.103352069854736,1.8326164484024048,-7.453925132751465
1763692623907340800,1.9103408203125,6.0292158126831055,1.8559359312057495,-7.508292198181152
1763692623916927000,1.919927001953125,5.948309421539307,1.8876506090164185,-7.564706325531006
1763692623926512000,1.92951220703125,5.860424995422363,1.930987000465393,-7.622145175933838
1763692623936098300,1.939098388671875,5.771029949188232,1.9857337474822998,-7.676096439361572
1763692623945685200,1.948685302734375,5.673434257507324,2.049619197845459,-7.7318549156188965
1763692623955271200,1.958271240234375,5.566051006317139,2.119032144546509,-7.790966033935547
1763692623964856600,1.967856689453125,5.455057144165039,2.1883316040039062,-7.85009241104126
1763692623974442500,1.9774423828125,5.348496437072754,2.2503254413604736,-7.905694007873535
1763692623984029400,1.987029541015625,5.252781391143799,2.293571710586548,-7.957273006439209
1763692623993615600,1.99661572265625,5.161900520324707,2.3099796772003174,-8.01181411743164
1763692624003200800,2.00620068359375,5.065623760223389,2.301387310028076,-8.075485229492188
1763692624012787000,2.015786865234375,4.953765392303467,2.279104471206665,-8.150846481323242
1763692624022374000,2.025373779296875,4.82295560836792,2.2623989582061768,-8.233531951904297
1763692624031959800,2.034959716796875,4.680941581726074,2.2679340839385986,-8.313581466674805
1763692624041545200,2.044545166015625,4.537412643432617,2.3016319274902344,-8.383601188659668
1763692624051131100,2.054131103515625,4.407473087310791,2.366804599761963,-8.43461799621582
1763692624060718000,2.063718017578125,4.291045665740967,2.4606757164001465,-8.46772575378418
1763692624070304000,2.073303955078125,4.195606231689453,2.572990655899048,-8.482157707214355
1763692624079889400,2.082889404296875,4.125306606292725,2.692075729370117,-8.479679107666016
1763692624089475600,2.0924755859375,4.072116374969482,2.8119993209838867,-8.466458320617676
1763692624099062500,2.1020625,4.0164313316345215,2.9271657466888428,-8.454014778137207
1763692624108648400,2.1116484375,3.9444186687469482,3.030045509338379,-8.451672554016113
1763692624118233600,2.121233642578125,3.8594508171081543,3.1131410598754883,-8.46069622039795
1763692624127819800,2.13081982421875,3.756019353866577,3.1705708503723145,-8.485881805419922
1763692624137406700,2.14040673828125,3.6338882446289062,3.2035717964172363,-8.526568412780762
1763692624146992600,2.14999267578125,3.4988021850585938,3.2207658290863037,-8.576447486877441
1763692624156578000,2.159578125,3.359265089035034,3.217933416366577,-8.633112907409668
1763692624166164000,2.1691640625,3.225177526473999,3.198428153991699,-8.691298484802246
1763692624175751000,2.1787509765625,3.0979714393615723,3.16502046585083,-8.749606132507324
1763692624185337000,2.188337158203125,2.9772965908050537,3.121025800704956,-8.80711555480957
1763692624194922200,2.197922119140625,2.8648746013641357,3.073268413543701,-8.861032485961914
1763692624204508400,2.20750830078125,2.7663826942443848,3.0290894508361816,-8.907419204711914
1763692624214095400,2.217095458984375,2.6839187145233154,2.996356725692749,-8.943646430969238
1763692624223681300,2.226681396484375,2.6143240928649902,2.982025146484375,-8.969014167785645
1763692624233266700,2.2362666015625,2.554293632507324,2.9900894165039062,-8.983614921569824
1763692624242852900,2.245852783203125,2.5034589767456055,3.0210721492767334,-8.987558364868164
1763692624252439600,2.255439453125,2.463629961013794,3.069969415664673,-8.981992721557617
1763692624262025700,2.265025634765625,2.4380578994750977,3.1289303302764893,-8.96861457824707
1763692624271611000,2.27461083984375,2.430565595626831,3.189995288848877,-8.949115753173828
1763692624281197000,2.284197021484375,2.4427802562713623,3.2473204135894775,-8.925140380859375
1763692624290784000,2.293783935546875,2.4729743003845215,3.2991080284118652,-8.897790908813477
1763692624300370000,2.303369873046875,2.518510580062866,3.3466882705688477,-8.867196083068848
1763692624309955300,2.312955322265625,2.5757508277893066,3.392648458480835,-8.833222389221191
1763692624319541200,2.322541259765625,2.6396079063415527,3.440164566040039,-8.795915603637695
1763692624329128200,2.332128173828125,2.7055959701538086,3.491697072982788,-8.75546646118164
1763692624338714000,2.341714111328125,2.7706761360168457,3.547614097595215,-8.712530136108398
1763692624348299500,2.351299560546875,2.8330116271972656,3.6057376861572266,-8.668510437011719
1763692624357885700,2.3608857421875,2.8920559883117676,3.663180112838745,-8.6248197555542
1763692624367472400,2.370472412109375,2.948159694671631,3.716769218444824,-8.582795143127441
1763692624377058600,2.38005859375,3.0016167163848877,3.7634940147399902,-8.543815612792969
1763692624386644000,2.38964404296875,3.052217483520508,3.801859140396118,-8.508831024169922
1763692624396230000,2.39922998046875,3.0995631217956543,3.8314287662506104,-8.478398323059082
1763692624405816800,2.40881689453125,3.14436674118042,3.8523643016815186,-8.452375411987305
1763692624415402800,2.41840283203125,3.186892509460449,3.8645174503326416,-8.430871963500977
1763692624424988200,2.42798828125,3.2264556884765625,3.8685901165008545,-8.413939476013184
1763692624434574300,2.43757421875,3.2615902423858643,3.866178512573242,-8.401494026184082
1763692624444161000,2.4471611328125,3.2902626991271973,3.8589563369750977,-8.393630027770996
1763692624453747200,2.456747314453125,3.3102457523345947,3.8486006259918213,-8.390525817871094
1763692624463332400,2.466332275390625,3.320303440093994,3.8371665477752686,-8.391789436340332
1763692624472918500,2.47591845703125,3.3204240798950195,3.825272560119629,-8.397170066833496
1763692624482505500,2.48550537109375,3.3117191791534424,3.8128511905670166,-8.406251907348633
1763692624492091400,2.49509130859375,3.2965097427368164,3.79925274848938,-8.418377876281738
1763692624501676800,2.5046767578125,3.2774763107299805,3.7841246128082275,-8.432611465454102
1763692624511263000,2.514262939453125,3.2573912143707275,3.7671773433685303,-8.447968482971191
1763692624520849700,2.523849609375,3.238311290740967,3.747396469116211,-8.464086532592773
1763692624530435800,2.533435791015625,3.2211105823516846,3.7238640785217285,-8.48101806640625
1763692624540021000,2.54302099609375,3.2055857181549072,3.696446418762207,-8.498876571655273
1763692624549607200,2.552607177734375,3.191002368927002,3.665733814239502,-8.517644882202148
1763692624568780000,2.571780029296875,3.160325527191162,3.5991196632385254,-8.557398796081543
1763692624578365400,2.581365478515625,3.1442019939422607,3.5654947757720947,-8.577390670776367
1763692624587951400,2.590951416015625,3.1281113624572754,3.5328562259674072,-8.596756935119629
1763692624597538300,2.600538330078125,3.112154006958008,3.502192497253418,-8.61507511138916
1763692624607124500,2.61012451171875,3.0966813564300537,3.474531412124634,-8.6318359375
1763692624616709600,2.619709716796875,3.0821521282196045,3.450493097305298,-8.646665573120117
1763692624626295800,2.6292958984375,3.068991184234619,3.4305195808410645,-8.659284591674805
1763692624635882500,2.638882568359375,3.0584142208099365,3.414597511291504,-8.669313430786133
1763692624645468700,2.64846875,3.0509564876556396,3.4021012783050537,-8.676851272583008
1763692624655054000,2.65805419921875,3.0470173358917236,3.3922054767608643,-8.682107925415039
1763692624664640000,2.667639892578125,3.04721736907959,3.3843185901641846,-8.685115814208984
1763692624674227000,2.67722705078125,3.0518383979797363,3.37738299369812,-8.686193466186523
1763692624683812900,2.686812744140625,3.060195207595825,3.3704421520233154,-8.685948371887207
1763692624693398300,2.696398193359375,3.0707664489746094,3.362651824951172,-8.685237884521484
1763692624702984400,2.705984375,3.082754611968994,3.3532497882843018,-8.684626579284668
1763692624712571100,2.715571044921875,3.094933271408081,3.3421685695648193,-8.684565544128418
1763692624722157300,2.7251572265625,3.1063618659973145,3.3297536373138428,-8.68525505065918
1763692624731742500,2.734742431640625,3.1164143085479736,3.3166069984436035,-8.68668270111084
1763692624741328600,2.74432861328125,3.1251769065856934,3.3031585216522217,-8.68865966796875
1763692624750915600,2.75391552734375,3.1322805881500244,3.2896645069122314,-8.691221237182617
1763692624760501500,2.76350146484375,3.13635516166687,3.276625871658325,-8.69467544555664
1763692624770087000,2.7730869140625,3.1374781131744385,3.264371156692505,-8.69887924194336
1763692624779672800,2.7826728515625,3.136579751968384,3.252919912338257,-8.703492164611816
1763692624789259800,2.792259765625,3.1344735622406006,3.2421905994415283,-8.708252906799316
1763692624798846000,2.801845947265625,3.130502700805664,3.229214668273926,-8.714500427246094
1763692624808431000,2.81143115234375,3.1266567707061768,3.2172658443450928,-8.720297813415527
1763692624818017300,2.821017333984375,3.124579906463623,3.2056171894073486,-8.72533130645752
1763692624827604200,2.830604248046875,3.12510347366333,3.193633794784546,-8.729537010192871
1763692624837190100,2.840190185546875,3.128045082092285,3.1808135509490967,-8.733163833618164
1763692624846775600,2.849775634765625,3.131392478942871,3.168444871902466,-8.736459732055664
1763692624856361700,2.85936181640625,3.133326768875122,3.158313035964966,-8.739433288574219
1763692624865948400,2.868948486328125,3.133153200149536,3.151472330093384,-8.741965293884277
1763692624875534600,2.87853466796875,3.131553888320923,3.1480867862701416,-8.743757247924805
1763692624885119700,2.88811962890625,3.130195140838623,3.1472249031066895,-8.74455451965332
1763692624894706000,2.897705810546875,3.130361557006836,3.147798776626587,-8.74428939819336
1763692624904292900,2.90729296875,3.1328067779541016,3.148786783218384,-8.743057250976562
1763692624913878800,2.916878662109375,3.1369740962982178,3.1506030559539795,-8.740907669067383
1763692624923464200,2.926464111328125,3.141580820083618,3.153287887573242,-8.738285064697266
1763692624933050000,2.936050048828125,3.144829750061035,3.156658887863159,-8.735898971557617
1763692624942637000,2.945636962890625,3.1461899280548096,3.1607654094696045,-8.73392391204834
1763692624952223000,2.955222900390625,3.144531488418579,3.1657605171203613,-8.732712745666504
1763692624961808400,2.964808349609375,3.139631748199463,3.1706371307373047,-8.732707023620605
1763692624971394600,2.97439453125,3.1327884197235107,3.17431378364563,-8.7338285446167
1763692624980981200,2.983981201171875,3.125197172164917,3.1755168437957764,-8.736109733581543
1763692624990567400,2.9935673828125,3.1183855533599854,3.1741528511047363,-8.739039421081543
1763692625000152600,3.003152587890625,3.112513780593872,3.1698665618896484,-8.742688179016113
1763692625009738800,3.01273876953125,3.1078920364379883,3.1635212898254395,-8.746630668640137
1763692625019325700,3.02232568359375,3.106165885925293,3.1566710472106934,-8.749716758728027
1763692625028911600,3.03191162109375,3.109423875808716,3.1500449180603027,-8.750946998596191
1763692625038497000,3.0414970703125,3.118368625640869,3.1452887058258057,-8.74947452545166
1763692625048083200,3.051083251953125,3.132892608642578,3.1436376571655273,-8.744877815246582
1763692625057670000,3.060669921875,3.1511266231536865,3.1458537578582764,-8.737527847290039
1763692625067256000,3.070256103515625,3.1710703372955322,3.1516506671905518,-8.728219032287598
1763692625076841200,3.07984130859375,3.192296028137207,3.1604883670806885,-8.717278480529785
1763692625086427400,3.089427490234375,3.215501308441162,3.171901226043701,-8.704595565795898
1763692625096014300,3.099014404296875,3.240447759628296,3.1862521171569824,-8.690091133117676
1763692625105600300,3.108600341796875,3.2675681114196777,3.203202486038208,-8.673688888549805
1763692625115185700,3.118185546875,3.296844482421875,3.221956968307495,-8.655645370483398
1763692625124771800,3.127771728515625,3.327101707458496,3.2426300048828125,-8.636326789855957
1763692625134358500,3.137358642578125,3.3576512336730957,3.26503586769104,-8.61603832244873
1763692625143944700,3.14694482421875,3.387498378753662,3.288851499557495,-8.595272064208984
1763692625153529900,3.15652978515625,3.415900230407715,3.312309741973877,-8.57499885559082
1763692625163116000,3.166115966796875,3.4427592754364014,3.33276104927063,-8.556313514709473
1763692625172703000,3.175702880859375,3.468264102935791,3.3489272594451904,-8.539684295654297
1763692625182289000,3.185288818359375,3.4916815757751465,3.360429048538208,-8.525612831115723
1763692625191874300,3.194874267578125,3.5124170780181885,3.367976665496826,-8.514108657836914
1763692625201460200,3.204460205078125,3.5309407711029053,3.371704339981079,-8.504965782165527
1763692625211047200,3.214047119140625,3.5472633838653564,3.3725228309631348,-8.497846603393555
1763692625220633000,3.223633056640625,3.5613582134246826,3.371821641921997,-8.492227554321289
1763692625230218500,3.233218505859375,3.5719780921936035,3.3710553646087646,-8.488069534301758
1763692625239804700,3.2428046875,3.5775821208953857,3.371593952178955,-8.485495567321777
1763692625249391400,3.252391357421875,3.5783934593200684,3.3737967014312744,-8.484278678894043
1763692625258977500,3.2619775390625,3.575974941253662,3.3772552013397217,-8.483922004699707
1763692625268563000,3.27156298828125,3.5726332664489746,3.380946636199951,-8.48386001586914
1763692625278148900,3.28114892578125,3.5713462829589844,3.383246660232544,-8.483484268188477
1763692625287735800,3.29073583984375,3.572962760925293,3.3832554817199707,-8.482800483703613
1763692625297321700,3.30032177734375,3.5779480934143066,3.381561517715454,-8.48137378692627
1763692625306907100,3.3099072265625,3.5857956409454346,3.3785598278045654,-8.479256629943848
1763692625316493300,3.319493408203125,3.595595598220825,3.375261068344116,-8.476420402526855
1763692625326080000,3.329080078125,3.6075284481048584,3.3725287914276123,-8.47243595123291
1763692625335666200,3.338666259765625,3.620415687561035,3.371485710144043,-8.467352867126465
1763692625345251300,3.348251220703125,3.6336796283721924,3.372750997543335,-8.461164474487305
1763692625354837500,3.35783740234375,3.647374391555786,3.3763797283172607,-8.453822135925293
1763692625364424400,3.367424560546875,3.6622848510742188,3.3815321922302246,-8.4453125
1763692625374010400,3.37701025390625,3.6784162521362305,3.387934923171997,-8.435729026794434
1763692625383595800,3.386595703125,3.6941921710968018,3.396120309829712,-8.425538063049316
1763692625393181700,3.396181640625,3.708791494369507,3.4067957401275635,-8.41480827331543
1763692625402768600,3.4057685546875,3.7221343517303467,3.418797492980957,-8.404043197631836
1763692625412354800,3.415354736328125,3.7332510948181152,3.431687116622925,-8.393851280212402
1763692625421940000,3.42493994140625,3.7415478229522705,3.444364309310913,-8.384960174560547
1763692625431526100,3.434526123046875,3.746577262878418,3.4561872482299805,-8.377846717834473
1763692625441113000,3.444113037109375,3.749032974243164,3.4655585289001465,-8.372876167297363
1763692625450699000,3.453698974609375,3.7486233711242676,3.4721994400024414,-8.370307922363281
1763692625460284400,3.463284423828125,3.7455384731292725,3.4755051136016846,-8.370316505432129
1763692625469870600,3.47287060546875,3.7402539253234863,3.476165771484375,-8.372404098510742
1763692625479457300,3.482457275390625,3.7338335514068604,3.4741451740264893,-8.376108169555664
1763692625489043500,3.49204345703125,3.7263548374176025,3.4704172611236572,-8.380983352661133
1763692625498628600,3.501628662109375,3.718798875808716,3.466459274291992,-8.385974884033203
1763692625508214800,3.51121484375,3.7114815711975098,3.4635748863220215,-8.39040756225586
1763692625517801700,3.5208017578125,3.7046730518341064,3.4624383449554443,-8.393884658813477
1763692625527387600,3.5303876953125,3.6989355087280273,3.4630253314971924,-8.396172523498535
1763692625536972800,3.539972900390625,3.6950464248657227,3.4654593467712402,-8.396881103515625
1763692625546559000,3.54955908203125,3.6926138401031494,3.469895362854004,-8.396119117736816
1763692625556146000,3.55914599609375,3.691671133041382,3.4760775566101074,-8.393976211547852
1763692625565731800,3.56873193359375,3.692450761795044,3.483285665512085,-8.390644073486328
1763692625575317200,3.578317138671875,3.6947011947631836,3.4913253784179688,-8.386311531066895
1763692625584903400,3.5879033203125,3.699035882949829,3.4998865127563477,-8.380830764770508
1763692625594490000,3.597489990234375,3.706368923187256,3.5080840587615967,-8.374160766601562
1763692625604076300,3.607076171875,3.717716932296753,3.5153443813323975,-8.366080284118652
1763692625613661400,3.616661376953125,3.7327873706817627,3.5227859020233154,-8.356234550476074
1763692625623247600,3.62624755859375,3.7511417865753174,3.531647205352783,-8.344266891479492
1763692625632834600,3.63583447265625,3.772270679473877,3.5425660610198975,-8.33010196685791
1763692625642420500,3.64542041015625,3.7961063385009766,3.555114984512329,-8.313911437988281
1763692625652006000,3.655005859375,3.8221352100372314,3.5687196254730225,-8.296138763427734
1763692625661592000,3.664592041015625,3.8484549522399902,3.583357095718384,-8.277640342712402
1763692625671178800,3.6741787109375,3.8741133213043213,3.5991170406341553,-8.25881290435791
1763692625680765000,3.683764892578125,3.8973259925842285,3.6159279346466064,-8.240528106689453
1763692625690350000,3.69335009765625,3.9178788661956787,3.632528781890869,-8.22346305847168
1763692625699936300,3.702936279296875,3.9362874031066895,3.647385358810425,-8.208081245422363
1763692625709523200,3.712523193359375,3.953941583633423,3.6581475734710693,-8.194796562194824
1763692625719109000,3.722109130859375,3.971787214279175,3.663325548171997,-8.183845520019531
1763692625728694500,3.731694580078125,3.990727186203003,3.662783145904541,-8.174870491027832
1763692625738280700,3.74128076171875,4.0102386474609375,3.6577210426330566,-8.167586326599121
1763692625747867400,3.750867431640625,4.029633522033691,3.650261878967285,-8.16137409210205
1763692625757453600,3.76045361328125,4.046891689300537,3.642214298248291,-8.156429290771484
1763692625767038700,3.770038818359375,4.06105375289917,3.6339356899261475,-8.153080940246582
1763692625776625000,3.779625,4.071717739105225,3.6255509853363037,-8.151495933532715
1763692625786211800,3.7892119140625,4.077713489532471,3.617676019668579,-8.151997566223145
1763692625795797800,3.7987978515625,4.078707695007324,3.6107044219970703,-8.154590606689453
1763692625805383200,3.808383056640625,4.075647830963135,3.603881597518921,-8.159136772155762
1763692625814969000,3.817968994140625,4.0691118240356445,3.5956742763519287,-8.166016578674316
1763692625824556000,3.82755615234375,4.060409069061279,3.5847973823547363,-8.175127029418945
1763692625834142200,3.83714208984375,4.05070686340332,3.570686101913452,-8.186107635498047
1763692625843727400,3.846727294921875,4.039923667907715,3.553809881210327,-8.198770523071289
1763692625853313500,3.8563134765625,4.0281524658203125,3.534757375717163,-8.212786674499512
1763692625862900500,3.865900390625,4.016476154327393,3.5152688026428223,-8.226858139038086
1763692625872486400,3.875486328125,4.005545139312744,3.496593952178955,-8.240135192871094
1763692625882071600,3.885071533203125,3.9957549571990967,3.4813642501831055,-8.251328468322754
1763692625891657700,3.89465771484375,3.987881898880005,3.470627784729004,-8.259657859802246
1763692625901244700,3.90424462890625,3.9828526973724365,3.4651265144348145,-8.264391899108887
1763692625910830600,3.91383056640625,3.9820990562438965,3.464930772781372,-8.264836311340332
1763692625920416000,3.923416015625,3.98722505569458,3.469165086746216,-8.260587692260742
1763692625930002200,3.933002197265625,3.9985313415527344,3.47757625579834,-8.251581192016602
1763692625939588900,3.9425888671875,4.0149149894714355,3.490619421005249,-8.238107681274414
1763692625949175000,3.952175048828125,4.035728454589844,3.508547306060791,-8.220303535461426
1763692625958760200,3.96176025390625,4.0593085289001465,3.5307254791259766,-8.199169158935547
1763692625968346400,3.971346435546875,4.08505916595459,3.554999828338623,-8.175857543945312
1763692625977933300,3.980933349609375,4.112370491027832,3.5785417556762695,-8.151860237121582
1763692625987519200,3.990519287109375,4.140834331512451,3.5997774600982666,-8.128067970275879
1763692625997104600,4.000104736328125,4.168674468994141,3.618541955947876,-8.105472564697266
1763692626006690800,4.00969091796875,4.1944684982299805,3.635193109512329,-8.084689140319824
1763692626016277500,4.019277587890625,4.217729091644287,3.650501251220703,-8.065667152404785
1763692626025863700,4.02886376953125,4.238319396972656,3.664783239364624,-8.048378944396973
1763692626035448800,4.03844873046875,4.2558135986328125,3.6788361072540283,-8.032721519470215
1763692626045035000,4.048034912109375,4.269906997680664,3.693122148513794,-8.018672943115234
1763692626054622000,4.0576220703125,4.279212474822998,3.7090587615966797,-8.00634765625
1763692626064208000,4.067207763671875,4.282782554626465,3.727912187576294,-7.995676040649414
1763692626073793300,4.076793212890625,4.2811737060546875,3.749035358428955,-7.986656188964844
1763692626083379500,4.08637939453125,4.27645206451416,3.7695798873901367,-7.979511737823486
1763692626092966100,4.095966064453125,4.271481513977051,3.7864809036254883,-7.974170684814453
1763692626102552300,4.10555224609375,4.26718807220459,3.7981386184692383,-7.970924377441406
1763692626112137500,4.115137451171875,4.26326847076416,3.8051469326019287,-7.969679355621338
1763692626121723600,4.1247236328125,4.259254455566406,3.808253288269043,-7.970341205596924
1763692626131310600,4.134310546875,4.25458288192749,3.807469606399536,-7.973209857940674
1763692626140896500,4.143896484375,4.2496337890625,3.802781820297241,-7.978084564208984
1763692626150482000,4.15348193359375,4.2426629066467285,3.795900821685791,-7.985069751739502
1763692626160068000,4.163068115234375,4.23227596282959,3.7884104251861572,-7.994133949279785
1763692626169654800,4.17265478515625,4.21783971786499,3.781606912612915,-8.00497817993164
1763692626179241000,4.182240966796875,4.199003219604492,3.7767298221588135,-8.017173767089844
1763692626188826000,4.191826171875,4.175893783569336,3.773719549179077,-8.03065013885498
1763692626198412300,4.201412353515625,4.149702548980713,3.772190570831299,-8.04493236541748
1763692626207999200,4.210999267578125,4.122346878051758,3.7719876766204834,-8.05907917022705
1763692626217585200,4.220585205078125,4.095476150512695,3.7730538845062256,-8.07226848602295
1763692626227170300,4.23017041015625,4.069800853729248,3.7758071422576904,-8.083958625793457
1763692626236756500,4.239756591796875,4.046504020690918,3.780541181564331,-8.093435287475586
1763692626246343400,4.249343505859375,4.026087284088135,3.787196397781372,-8.100502967834473
1763692626255929300,4.258929443359375,4.0083770751953125,3.796586036682129,-8.104889869689941
1763692626265514800,4.2685146484375,3.994169235229492,3.8096914291381836,-8.105753898620605
1763692626275101000,4.278100830078125,3.9849610328674316,3.8257408142089844,-8.102725982666016
1763692626284687600,4.2876875,3.9820940494537354,3.8438878059387207,-8.095544815063477
1763692626294273800,4.297273681640625,3.985595941543579,3.864347219467163,-8.08407211303711
1763692626303859200,4.306859130859375,3.99413800239563,3.888566493988037,-8.068227767944336
1763692626313445000,4.316445068359375,4.007111072540283,3.917532444000244,-8.047757148742676
1763692626323032000,4.326031982421875,4.024056434631348,3.9516520500183105,-8.022581100463867
1763692626332618000,4.335617919921875,4.045173645019531,3.9901175498962402,-7.992866516113281
1763692626342203400,4.345203369140625,4.071126937866211,4.0320000648498535,-7.958597183227539
1763692626351789600,4.35478955078125,4.101405143737793,4.07568883895874,-7.920708656311035
1763692626361376300,4.364376220703125,4.1191020011901855,4.127005100250244,-7.884871959686279
1763692626370962400,4.37396240234375,4.138153553009033,4.177381992340088,-7.848282814025879
1763692626380547600,4.383547607421875,4.15656852722168,4.224855422973633,-7.813061714172363
1763692626390133800,4.3931337890625,4.171534061431885,4.2683000564575195,-7.781407833099365
1763692626399720700,4.402720703125,4.1802802085876465,4.30748987197876,-7.755074501037598
1763692626409306600,4.412306640625,4.180426597595215,4.342647075653076,-7.735363006591797
1763692626418892000,4.42189208984375,4.170413494110107,4.373636722564697,-7.723298072814941
1763692626428478000,4.43147802734375,4.1507391929626465,4.399699687957764,-7.719093322753906
1763692626438065000,4.44106494140625,4.122560977935791,4.419721603393555,-7.722754001617432
1763692626447651000,4.450651123046875,4.087491989135742,4.432857513427734,-7.733859062194824
1763692626457236200,4.460236328125,4.048735618591309,4.438351631164551,-7.751075267791748
1763692626466822400,4.469822509765625,4.009157657623291,4.436233043670654,-7.772830009460449
1763692626476409300,4.479409423828125,3.970970630645752,4.427181243896484,-7.797553539276123
1763692626485995300,4.488995361328125,3.935654640197754,4.412613391876221,-7.823672771453857
1763692626495580700,4.49858056640625,3.9044747352600098,4.394615650177002,-7.8493828773498535
1763692626505166800,4.508166748046875,3.8779828548431396,4.374721050262451,-7.873592376708984
1763692626514753500,4.51775341796875,3.8575308322906494,4.353767395019531,-7.895223617553711
1763692626524339700,4.527339599609375,3.844665765762329,4.332204341888428,-7.913339614868164
1763692626533924900,4.5369248046875,3.840435266494751,4.309919357299805,-7.927550315856934
1763692626543511000,4.546510986328125,3.8452553749084473,4.286994934082031,-7.937635898590088
1763692626553098000,4.556097900390625,3.8593828678131104,4.264223098754883,-7.943044185638428
1763692626562684000,4.565683837890625,3.8826491832733154,4.24247932434082,-7.943347930908203
1763692626572269300,4.575269287109375,3.9145946502685547,4.222570419311523,-7.938276290893555
1763692626581855200,4.584855224609375,3.9544785022735596,4.205322742462158,-7.927657604217529
1763692626591442200,4.594442138671875,4.001381874084473,4.191206932067871,-7.911580562591553
1763692626601028000,4.604028076171875,4.053706169128418,4.180792808532715,-7.8904266357421875
1763692626610613500,4.613613525390625,4.109103202819824,4.1743268966674805,-7.86515474319458
1763692626620199700,4.62319970703125,4.165741920471191,4.172021865844727,-7.836531162261963
1763692626629786600,4.63278662109375,4.221844673156738,4.173818111419678,-7.8054890632629395
1763692626639372500,4.64237255859375,4.275765419006348,4.178827285766602,-7.773391246795654
1763692626648957700,4.651957763671875,4.325682163238525,4.185693740844727,-7.7420172691345215
1763692626658543900,4.6615439453125,4.370099067687988,4.193119525909424,-7.713000297546387
1763692626677716700,4.680716796875,4.440340995788574,4.204864025115967,-7.666346549987793
1763692626687302100,4.69030224609375,4.466857433319092,4.207608222961426,-7.649418830871582
1763692626696888000,4.69988818359375,4.487754821777344,4.2079386711120605,-7.636995315551758
1763692626706475000,4.70947509765625,4.5034918785095215,4.206352710723877,-7.628600597381592
1763692626716061200,4.719061279296875,4.515760898590088,4.203479766845703,-7.622929573059082
1763692626725646300,4.728646240234375,4.525609016418457,4.199361324310303,-7.619358539581299
1763692626735232500,4.738232421875,4.533022880554199,4.194102764129639,-7.617846965789795
1763692626744819500,4.7478193359375,4.538293838500977,4.187686920166016,-7.61823844909668
1763692626754405400,4.7574052734375,4.541502952575684,4.180248260498047,-7.620410442352295
1763692626763990800,4.76699072265625,4.542459487915039,4.172009468078613,-7.624353885650635
1763692626773577000,4.776576904296875,4.5411763191223145,4.163224220275879,-7.629918575286865
1763692626783163600,4.78616357421875,4.5385026931762695,4.153892993927002,-7.636592864990234
1763692626792749800,4.795749755859375,4.535938739776611,4.144023895263672,-7.643474578857422
1763692626802335000,4.8053349609375,4.534690856933594,4.133929252624512,-7.649679183959961
1763692626811921200,4.814921142578125,4.535288333892822,4.12407922744751,-7.654639720916748
1763692626821508000,4.824508056640625,4.538712501525879,4.115151882171631,-7.657415390014648
1763692626831094000,4.834093994140625,4.545446872711182,4.108109474182129,-7.657201766967773
1763692626840679400,4.843679443359375,4.555260181427002,4.103611946105957,-7.653781414031982
1763692626850265300,4.853265380859375,4.567021369934082,4.102444171905518,-7.64739465713501
1763692626859852300,4.862852294921875,4.579733371734619,4.105290412902832,-7.638260841369629
1763692626869438500,4.8724384765625,4.59259033203125,4.112302780151367,-7.6267595291137695
1763692626879023600,4.882023681640625,4.60537576675415,4.123205661773682,-7.613152503967285
1763692626888609800,4.89160986328125,4.6180596351623535,4.13743257522583,-7.597733974456787
1763692626898196700,4.90119677734375,4.630588531494141,4.154150009155273,-7.580967903137207
1763692626907782700,4.91078271484375,4.6425933837890625,4.172788143157959,-7.563368797302246
1763692626917368000,4.9203681640625,4.653600215911865,4.192439079284668,-7.545716762542725
1763692626926954200,4.929954345703125,4.663492202758789,4.212436676025391,-7.528453350067139
1763692626936541000,4.939541015625,4.671891212463379,4.23203182220459,-7.512238502502441
1763692626946127000,4.949127197265625,4.677793502807617,4.25038480758667,-7.498190402984619
1763692626955712300,4.958712158203125,4.680561065673828,4.266513824462891,-7.487296104431152
1763692626965298400,4.96829833984375,4.679900646209717,4.279560089111328,-7.480259895324707
1763692626974885400,4.977885498046875,4.675533294677734,4.289272785186768,-7.4774274826049805
1763692626984471300,4.98747119140625,4.667006969451904,4.295565605163574,-7.479140281677246
1763692626994056700,4.997056640625,4.654901504516602,4.299215316772461,-7.484586238861084
1763692627003642600,5.006642578125,4.639649868011475,4.301444053649902,-7.492770195007324
1763692627013229600,5.0162294921875,4.621239185333252,4.303131103515625,-7.503171920776367
1763692627022815700,5.025815673828125,4.600335121154785,4.304308891296387,-7.5153326988220215
1763692627032401000,5.03540087890625,4.577868938446045,4.30473518371582,-7.5287957191467285
1763692627041987000,5.044987060546875,4.554841995239258,4.303895473480225,-7.5432281494140625
1763692627051574000,5.054573974609375,4.532467365264893,4.301320552825928,-7.558159828186035
1763692627061160000,5.064159912109375,4.512208938598633,4.296454429626465,-7.573032855987549
1763692627070745300,5.073745361328125,4.494443893432617,4.2892746925354,-7.587652683258057
1763692627080331300,5.083331298828125,4.4788689613342285,4.280389308929443,-7.601866722106934
1763692627089918200,5.092918212890625,4.465006351470947,4.2703776359558105,-7.615640640258789
1763692627099504000,5.102504150390625,4.452654838562012,4.260003089904785,-7.628671169281006
1763692627109089500,5.112089599609375,4.441625118255615,4.250051975250244,-7.640642166137695
1763692627118675500,5.121675537109375,4.432287216186523,4.240971088409424,-7.6511030197143555
1763692627128262400,5.131262451171875,4.4248433113098145,4.233087539672852,-7.6597723960876465
1763692627137848600,5.1408486328125,4.418980598449707,4.2269439697265625,-7.6665472984313965
1763692627147434000,5.15043408203125,4.414769172668457,4.222405433654785,-7.67147159576416
1763692627157020000,5.16002001953125,4.411992073059082,4.21925687789917,-7.674801349639893
1763692627166606800,5.16960693359375,4.41103982925415,4.216756343841553,-7.676723003387451
1763692627176192800,5.17919287109375,4.411769866943359,4.21441650390625,-7.677587985992432
1763692627185778200,5.188778076171875,4.414444446563721,4.212192058563232,-7.677271842956543
1763692627195364400,5.1983642578125,4.418889045715332,4.21035099029541,-7.675724506378174
1763692627204951000,5.207950927734375,4.424681663513184,4.209704399108887,-7.6727423667907715
1763692627214537200,5.217537109375,4.43102502822876,4.211026191711426,-7.6683549880981445
1763692627224122400,5.227122314453125,4.4372172355651855,4.2145795822143555,-7.6628193855285645
1763692627233708500,5.23670849609375,4.44199800491333,4.220305442810059,-7.656896591186523
1763692627243295500,5.24629541015625,4.444293022155762,4.227530479431152,-7.651576995849609
1763692627252881400,5.25588134765625,4.4439005851745605,4.235202312469482,-7.647561550140381
1763692627262466800,5.265466796875,4.440925598144531,4.242422580718994,-7.645287036895752
1763692627272053000,5.275052978515625,4.435485363006592,4.248342037200928,-7.645158290863037
1763692627281639700,5.2846396484375,4.4273905754089355,4.252554893493652,-7.647507667541504
1763692627291225900,5.294225830078125,4.417032718658447,4.2549824714660645,-7.652145862579346
1763692627300811000,5.30381103515625,4.404599189758301,4.255839824676514,-7.65883207321167
1763692627310397200,5.313397216796875,4.390538215637207,4.255528926849365,-7.667075157165527
1763692627319984000,5.322984130859375,4.376205921173096,4.254854202270508,-7.675637722015381
1763692627329570000,5.332570068359375,4.362484455108643,4.25496244430542,-7.683384895324707
1763692627339155500,5.342155517578125,4.350020885467529,4.256749629974365,-7.689459323883057
1763692627348741600,5.35174169921875,4.338860988616943,4.261290550231934,-7.693248271942139
1763692627358328300,5.361328369140625,4.328210830688477,4.269103050231934,-7.694916248321533
1763692627367914500,5.37091455078125,4.318119525909424,4.280339241027832,-7.694344520568848
1763692627377499600,5.380499755859375,4.308587551116943,4.2944440841674805,-7.691827774047852
1763692627387085800,5.3900859375,4.300130367279053,4.310385704040527,-7.6876420974731445
1763692627396672800,5.3996728515625,4.292900085449219,4.327269077301025,-7.682196140289307
1763692627406258700,5.4092587890625,4.286375522613525,4.343963146209717,-7.676415920257568
1763692627415844000,5.418843994140625,4.279426097869873,4.359510898590088,-7.671477794647217
1763692627425430300,5.42843017578125,4.27097749710083,4.373507976531982,-7.668217658996582
1763692627435017000,5.438016845703125,4.259621620178223,4.385880947113037,-7.66746711730957
1763692627444603100,5.44760302734375,4.2440900802612305,4.396907806396484,-7.669764995574951
1763692627454188300,5.457188232421875,4.223618030548096,4.4070820808410645,-7.675223350524902
1763692627463774500,5.4667744140625,4.198095798492432,4.416796684265137,-7.683638095855713
1763692627473361400,5.476361328125,4.168178558349609,4.42617654800415,-7.694519996643066
1763692627482947300,5.485947265625,4.135053634643555,4.4355974197387695,-7.706957817077637
1763692627492532700,5.49553271484375,4.100582122802734,4.445572853088379,-7.71961784362793
1763692627502118700,5.50511865234375,4.066327095031738,4.45606803894043,-7.731677055358887
1763692627511705600,5.51470556640625,4.033430576324463,4.467129230499268,-7.742517948150635
1763692627521291800,5.524291748046875,4.007526397705078,4.46910285949707,-7.754821300506592
1763692627530877000,5.533876953125,3.984323024749756,4.471610069274902,-7.765324592590332
1763692627540463000,5.543463134765625,3.9642350673675537,4.474730968475342,-7.773802757263184
1763692627550050000,5.553050048828125,3.9476096630096436,4.478738784790039,-7.779953479766846
1763692627559636000,5.562635986328125,3.9348068237304688,4.483579635620117,-7.78364896774292
1763692627569221400,5.572221435546875,3.9253761768341064,4.489027500152588,-7.785270690917969
1763692627578807300,5.581807373046875,3.9186155796051025,4.494925022125244,-7.785274028778076
1763692627588394200,5.591394287109375,3.9148526191711426,4.5005927085876465,-7.783891677856445
1763692627597980200,5.600980224609375,3.912172555923462,4.506347179412842,-7.781909942626953
1763692627607565600,5.610565673828125,3.9099912643432617,4.512598991394043,-7.779384136199951
1763692627617151700,5.62015185546875,3.9091625213623047,4.51851749420166,-7.776364326477051
1763692627626738400,5.629738525390625,3.9099183082580566,4.523230075836182,-7.7732439041137695
1763692627636324600,5.63932470703125,3.911583423614502,4.526355266571045,-7.770586013793945
1763692627645910000,5.648909912109375,3.913611650466919,4.5283074378967285,-7.768428325653076
1763692627655496000,5.658495849609375,3.915520429611206,4.529584884643555,-7.766720294952393
1763692627665083000,5.668082763671875,3.916548490524292,4.53070592880249,-7.765548229217529
1763692627674668800,5.677668701171875,3.9161829948425293,4.531872272491455,-7.765051364898682
1763692627684254200,5.687254150390625,3.9145665168762207,4.53383207321167,-7.76472282409668
1763692627693840400,5.69684033203125,3.9120516777038574,4.537103652954102,-7.764078140258789
1763692627703427000,5.706427001953125,3.9106733798980713,4.5415568351745605,-7.762170314788818
1763692627713013200,5.71601318359375,3.9118690490722656,4.546271324157715,-7.758806228637695
1763692627722598400,5.725598388671875,3.9164679050445557,4.551115989685059,-7.753645420074463
1763692627732184600,5.7351845703125,3.924394130706787,4.556024551391602,-7.746751308441162
1763692627741771500,5.744771484375,3.934187889099121,4.5609211921691895,-7.738897800445557
1763692627751357400,5.754357421875,3.9434471130371094,4.567352294921875,-7.73038911819458
1763692627760942800,5.76394287109375,3.9501402378082275,4.575677871704102,-7.722043037414551
1763692627770529000,5.773529052734375,3.9534354209899902,4.586496829986572,-7.71393346786499
1763692627780116000,5.783115966796875,3.95255446434021,4.5990800857543945,-7.70689058303833
1763692627789702000,5.792701904296875,3.9470605850219727,4.612104892730713,-7.701920986175537
1763692627799287000,5.802287109375,3.936749219894409,4.624631404876709,-7.699687480926514
1763692627808873200,5.811873291015625,3.9217143058776855,4.63524055480957,-7.700978755950928
1763692627818460200,5.821460205078125,3.9029905796051025,4.642507076263428,-7.706113815307617
1763692627828046000,5.831046142578125,3.881523847579956,4.6462602615356445,-7.714688777923584
1763692627837631500,5.840631591796875,3.8595874309539795,4.646233081817627,-7.725704193115234
1763692627847217700,5.8502177734375,3.838195323944092,4.643188953399658,-7.738180637359619
1763692627856804400,5.859804443359375,3.818373680114746,4.638114929199219,-7.751019477844238
1763692627866390500,5.869390625,3.800490379333496,4.632166385650635,-7.7633562088012695
1763692627875975700,5.8789755859375,3.784670829772949,4.626090049743652,-7.7746992111206055
1763692627885561900,5.888561767578125,3.770770311355591,4.620733261108398,-7.784633159637451
1763692627895148800,5.898148681640625,3.758800983428955,4.616079330444336,-7.793177127838135
1763692627904734700,5.907734619140625,3.7484893798828125,4.611851215362549,-7.800643444061279
1763692627914320100,5.917320068359375,3.7388875484466553,4.608189582824707,-7.807412624359131
1763692627923906000,5.926906005859375,3.7300944328308105,4.604196548461914,-7.813971519470215
1763692627933493000,5.936492919921875,3.7221007347106934,4.599294662475586,-7.820667743682861
1763692627943079200,5.9460791015625,3.714792251586914,4.592512130737305,-7.828124523162842
1763692627952664300,5.955664306640625,3.7089104652404785,4.584318161010742,-7.835712909698486
1763692627962250500,5.96525048828125,3.7038471698760986,4.575010776519775,-7.8435444831848145
1763692627971837400,5.97483740234375,3.6994524002075195,4.565637588500977,-7.851076126098633
1763692627981423400,5.98442333984375,3.6959023475646973,4.557311058044434,-7.857583522796631
1763692627991008800,5.9940087890625,3.6937949657440186,4.5506978034973145,-7.862404823303223
1763692628000595000,6.003594970703125,3.694612503051758,4.545778274536133,-7.864866733551025
1763692628010181600,6.013181640625,3.698875665664673,4.542304515838623,-7.864870071411133
1763692628019767800,6.022767822265625,3.7070178985595703,4.540414333343506,-7.862127780914307
1763692628029353000,6.03235302734375,3.718299627304077,4.540283203125,-7.856873989105225
1763692628038939100,6.041939208984375,3.7324793338775635,4.541548728942871,-7.849414825439453
1763692628048526000,6.051526123046875,3.748612642288208,4.544198513031006,-7.840188503265381
1763692628058112000,6.061112060546875,3.764899253845215,4.548941612243652,-7.829626083374023
1763692628067697400,6.070697509765625,3.7800257205963135,4.556818008422852,-7.817749500274658
1763692628077283600,6.08028369140625,3.7917191982269287,4.567779064178467,-7.805679798126221
1763692628086870300,6.089870361328125,3.798943519592285,4.581066608428955,-7.79437255859375
1763692628096456400,6.09945654296875,3.8019630908966064,4.594749927520752,-7.784840106964111
1763692628106041600,6.10904150390625,3.8017711639404297,4.607254505157471,-7.77754020690918
1763692628115627800,6.118627685546875,3.8000054359436035,4.616929054260254,-7.7726640701293945
1763692628125214700,6.128214599609375,3.7971084117889404,4.623075485229492,-7.7704267501831055
1763692628134800600,6.137800537109375,3.792877435684204,4.625363826751709,-7.771130561828613
1763692628144386000,6.147385986328125,3.786665678024292,4.624350547790527,-7.774762153625488
1763692628153972000,6.156971923828125,3.7783000469207764,4.620884895324707,-7.780890464782715
1763692628163559000,6.166558837890625,3.767958879470825,4.615232944488525,-7.789255619049072
1763692628173145000,6.17614501953125,3.7559633255004883,4.6078386306762695,-7.799420356750488
1763692628182730200,6.185730224609375,3.743218183517456,4.599184036254883,-7.810647487640381
1763692628192316400,6.19531640625,3.730283498764038,4.589110374450684,-7.822750568389893
1763692628201903400,6.2049033203125,3.717146396636963,4.578379154205322,-7.835281848907471
1763692628211489300,6.2144892578125,3.7046377658843994,4.567374229431152,-7.847619533538818
1763692628221074700,6.22407470703125,3.6937716007232666,4.55559778213501,-7.859577178955078
1763692628230660600,6.23366064453125,3.6849095821380615,4.5423712730407715,-7.8713836669921875
1763692628240247600,6.24324755859375,3.678863048553467,4.528582572937012,-7.882149696350098
1763692628249833700,6.252833740234375,3.675968885421753,4.5148210525512695,-7.891389846801758
1763692628259419000,6.2624189453125,3.6763007640838623,4.501535415649414,-7.898820877075195
1763692628269005000,6.272005126953125,3.6794793605804443,4.488518714904785,-7.904747486114502
1763692628278592000,6.281592041015625,3.6848065853118896,4.475282669067383,-7.909768104553223
1763692628288178000,6.291177978515625,3.6913652420043945,4.461261749267578,-7.914628982543945
1763692628297763300,6.300763427734375,3.6991734504699707,4.446521759033203,-7.919276237487793
1763692628307349500,6.310349609375,3.7077207565307617,4.430698394775391,-7.92414665222168
1763692628316936200,6.319936279296875,3.7170562744140625,4.4137749671936035,-7.929216384887695
1763692628326522400,6.3295224609375,3.7274017333984375,4.3967180252075195,-7.933835029602051
1763692628336107500,6.339107421875,3.7392325401306152,4.380784511566162,-7.9370808601379395
1763692628345693700,6.348693603515625,3.7518529891967773,4.367537975311279,-7.938425064086914
1763692628355280600,6.35828076171875,3.7648305892944336,4.358717918395996,-7.937129020690918
1763692628364866600,6.367866455078125,3.777883768081665,4.35516357421875,-7.9328765869140625
1763692628374452000,6.377451904296875,3.790658950805664,4.356366157531738,-7.926120281219482
1763692628384038100,6.3870380859375,3.802234411239624,4.3620195388793945,-7.917461395263672
1763692628393624800,6.396624755859375,3.8114640712738037,4.370559215545654,-7.9083075523376465
1763692628403211000,6.4062109375,3.81805682182312,4.380675792694092,-7.8995256423950195
1763692628412796200,6.415796142578125,3.822951555252075,4.390340805053711,-7.891788959503174
1763692628422382300,6.42538232421875,3.8270585536956787,4.397953510284424,-7.885557174682617
1763692628431969300,6.43496923828125,3.830683708190918,4.403132915496826,-7.880905628204346
1763692628441555200,6.44455517578125,3.8343045711517334,4.405757427215576,-7.877676486968994
1763692628451140600,6.454140625,3.8386070728302,4.4066362380981445,-7.875090599060059
1763692628460726800,6.463726806640625,3.8431777954101562,4.407211780548096,-7.872538089752197
1763692628470313500,6.4733134765625,3.8464388847351074,4.410069465637207,-7.869344234466553
1763692628479899600,6.482899658203125,3.847529888153076,4.417588233947754,-7.864592552185059
1763692628489484800,6.49248486328125,3.8468260765075684,4.429879665374756,-7.858020305633545
1763692628499071000,6.502071044921875,3.8451077938079834,4.445611000061035,-7.849972248077393
1763692628508658000,6.511657958984375,3.8447682857513428,4.462954044342041,-7.840291976928711
1763692628518243800,6.521243896484375,3.84737491607666,4.480258941650391,-7.829136371612549
1763692628527829200,6.530829345703125,3.8533377647399902,4.497239589691162,-7.816457748413086
1763692628537415400,6.54041552734375,3.8622498512268066,4.514175891876221,-7.802283763885498
1763692628547002000,6.550002197265625,3.8734381198883057,4.531116008758545,-7.786901950836182
1763692628556588300,6.55958837890625,3.8853399753570557,4.548679351806641,-7.770717144012451
1763692628566173400,6.56917333984375,3.897040605545044,4.568243980407715,-7.753361701965332
1763692628575759600,6.578759521484375,3.907837152481079,4.589418888092041,-7.7354021072387695
1763692628585346600,6.5883466796875,3.91805100440979,4.611179828643799,-7.71727180480957
1763692628594932500,6.597932373046875,3.928205966949463,4.633153915405273,-7.6989264488220215
1763692628604518000,6.607517822265625,3.9390807151794434,4.6539483070373535,-7.680807113647461
1763692628614103800,6.617103759765625,3.9525864124298096,4.670327186584473,-7.663908004760742
1763692628623690800,6.626690673828125,3.970088005065918,4.681188583374023,-7.648220539093018
1763692628633277000,6.63627685546875,3.9925684928894043,4.686715602874756,-7.633117198944092
1763692628642862000,6.645862060546875,4.018649101257324,4.688545227050781,-7.618293762207031
1763692628652448300,6.6554482421875,4.045795917510986,4.688867568969727,-7.60371208190918
1763692628662035200,6.66503515625,4.072904586791992,4.688544273376465,-7.589427471160889
1763692628671621000,6.67462109375,4.09925651550293,4.686898708343506,-7.5762434005737305
1763692628681206500,6.68420654296875,4.123635768890381,4.685214519500732,-7.564045429229736
1763692628690792400,6.69379248046875,4.144361972808838,4.684250354766846,-7.55330753326416
1763692628700379400,6.70337939453125,4.159665107727051,4.682069778442383,-7.546243190765381
1763692628709965600,6.712965576171875,4.170352458953857,4.67767333984375,-7.543071269989014
1763692628719550700,6.72255078125,4.178183078765869,4.669262409210205,-7.543949604034424
1763692628729137000,6.732136962890625,4.183585166931152,4.656019687652588,-7.549138069152832
1763692628738723800,6.741723876953125,4.18620491027832,4.638082504272461,-7.55872106552124
1763692628748309800,6.751309814453125,4.184078216552734,4.617481231689453,-7.572499752044678
1763692628757895200,6.760895263671875,4.176177501678467,4.595351696014404,-7.590301513671875
1763692628767481000,6.770481201171875,4.1630048751831055,4.573198318481445,-7.610889434814453
1763692628777068000,6.780068115234375,4.145456314086914,4.551353454589844,-7.633528709411621
1763692628786654200,6.789654296875,4.123133182525635,4.530298709869385,-7.658102512359619
1763692628796239400,6.7992392578125,4.094311237335205,4.512154579162598,-7.684235095977783
1763692628805825500,6.808825439453125,4.0593180656433105,4.4978790283203125,-7.711122512817383
1763692628815412500,6.81841259765625,4.022855281829834,4.485874652862549,-7.737179279327393
1763692628824998400,6.827998291015625,3.985846519470215,4.473054885864258,-7.763711452484131
1763692628834583800,6.837583740234375,3.945272207260132,4.457655429840088,-7.7932353019714355
1763692628844169700,6.847169677734375,3.89736270904541,4.439918041229248,-7.827393054962158
1763692628853756700,6.856756591796875,3.8384294509887695,4.4206109046936035,-7.867340564727783
1763692628863342800,6.8663427734375,3.7649245262145996,4.401579856872559,-7.913395404815674
1763692628872928000,6.875927978515625,3.676086664199829,4.380354404449463,-7.966761112213135
1763692628882514200,6.88551416015625,3.5727427005767822,4.352878570556641,-8.028595924377441
1763692628892101000,6.89510107421875,3.4583935737609863,4.315605640411377,-8.098484992980957
1763692628901687000,6.90468701171875,3.3361363410949707,4.2654571533203125,-8.175969123840332
1763692628911272400,6.9142724609375,3.210832357406616,4.20396089553833,-8.25758171081543
1763692628920858600,6.923858642578125,3.082838773727417,4.131138801574707,-8.342673301696777
1763692628930445300,6.9334453125,2.9563703536987305,4.049763202667236,-8.427910804748535
1763692628940031500,6.943031494140625,2.832537889480591,3.9611501693725586,-8.51213264465332
1763692628949616600,6.95261669921875,2.7073209285736084,3.871748685836792,-8.593624114990234
1763692628959202800,6.962202880859375,2.5806984901428223,3.7850341796875,-8.67086410522461
1763692628968789800,6.971789794921875,2.451218366622925,3.70041823387146,-8.744645118713379
1763692628978375700,6.981375732421875,2.3146491050720215,3.617936849594116,-8.816082954406738
1763692628987961000,6.990961181640625,2.165872097015381,3.536959409713745,-8.886466979980469
1763692628997547300,7.00054736328125,2.004650592803955,3.456782579421997,-8.95557975769043
1763692629007134000,7.010134033203125,1.8324165344238281,3.3779408931732178,-9.022314071655273
1763692629016720100,7.01972021484375,1.6534879207611084,3.300790786743164,-9.085216522216797
1763692629026305300,7.02930517578125,1.4731402397155762,3.225250005722046,-9.143194198608398
1763692629035891500,7.038891357421875,1.294988989830017,3.1523425579071045,-9.195440292358398
1763692629045478400,7.048478515625,1.1240094900131226,3.0838851928710938,-9.2410306930542
1763692629055064300,7.058064208984375,0.9607898592948914,3.0238378047943115,-9.279206275939941
1763692629064649700,7.067649658203125,0.7958096861839294,2.974616765975952,-9.310678482055664
1763692629074236000,7.07723583984375,0.6326355934143066,2.9317963123321533,-9.33674144744873
1763692629083822600,7.086822509765625,0.48112019896507263,2.8919284343719482,-9.358186721801758
1763692629093408800,7.09640869140625,0.33736464381217957,2.8546249866485596,-9.375909805297852
1763692629102994000,7.105993896484375,0.19637300074100494,2.8175039291381836,-9.391139030456543
1763692629112580000,7.115580078125,0.05620208755135536,2.775739908218384,-9.405449867248535
1763692629122167000,7.1251669921875,-0.07658062875270844,2.7283599376678467,-9.419159889221191
1763692629131753000,7.1347529296875,-0.19847968220710754,2.6810545921325684,-9.430956840515137
1763692629141338400,7.14433837890625,-0.3137603998184204,2.639723777770996,-9.43947982788086
1763692629150924500,7.153924560546875,-0.42365196347236633,2.606168746948242,-9.444511413574219
1763692629160511200,7.16351123046875,-0.5283137559890747,2.5801455974578857,-9.446381568908691
1763692629170097400,7.173097412109375,-0.6296846866607666,2.561591863632202,-9.44521713256836
1763692629179682600,7.1826826171875,-0.7317302227020264,2.552135944366455,-9.440422058105469
1763692629189268700,7.192268798828125,-0.8378147482872009,2.5586466789245605,-9.42983341217041
1763692629198855700,7.201855712890625,-0.9497391581535339,2.585167407989502,-9.411975860595703
1763692629208441600,7.211441650390625,-1.0642811059951782,2.6330177783966064,-9.386421203613281
1763692629218027000,7.221027099609375,-1.172505259513855,2.70216965675354,-9.3538179397583
1763692629227613200,7.23061328125,-1.2666889429092407,2.786328077316284,-9.3167724609375
1763692629237200000,7.240199951171875,-1.3418227434158325,2.873018741607666,-9.279852867126465
1763692629246786000,7.2497861328125,-1.3968080282211304,2.954834222793579,-9.245986938476562
1763692629256371200,7.25937109375,-1.438162922859192,3.030041456222534,-9.215254783630371
1763692629265957400,7.268957275390625,-1.474012017250061,3.094745635986328,-9.188047409057617
1763692629275544300,7.27854443359375,-1.5071468353271484,3.143622636795044,-9.166053771972656
1763692629285130200,7.288130126953125,-1.5366907119750977,3.1761293411254883,-9.149927139282227
1763692629294715600,7.297715576171875,-1.5622657537460327,3.195369243621826,-9.138891220092773
1763692629304301800,7.3073017578125,-1.5849889516830444,3.205690622329712,-9.13136100769043
1763692629313888500,7.316888427734375,-1.6075999736785889,3.2107582092285156,-9.125625610351562
1763692629323474700,7.326474609375,-1.6332690715789795,3.206169366836548,-9.1226806640625
1763692629333059800,7.336059814453125,-1.6741620302200317,3.203502655029297,-9.116202354431152
1763692629342646000,7.34564599609375,-1.7227298021316528,3.217519998550415,-9.102206230163574
1763692629352233000,7.35523291015625,-1.7729781866073608,3.251718759536743,-9.080377578735352
1763692629361819000,7.36481884765625,-1.8108407258987427,3.2997140884399414,-9.055558204650879
1763692629371404300,7.374404296875,-1.83070707321167,3.3554434776306152,-9.031052589416504
1763692629380990500,7.383990478515625,-1.8293336629867554,3.4168906211853027,-9.008261680603027
1763692629390577200,7.3935771484375,-1.8098223209381104,3.4868757724761963,-8.985356330871582
1763692629400163300,7.403163330078125,-1.7767611742019653,3.570634126663208,-8.959022521972656
1763692629409748500,7.41274853515625,-1.7310280799865723,3.6685452461242676,-8.928364753723145
1763692629419334700,7.422334716796875,-1.676321029663086,3.7760541439056396,-8.893916130065918
1763692629428921600,7.431921630859375,-1.6091951131820679,3.8877835273742676,-8.85810375213623
1763692629438507500,7.441507568359375,-1.5337501764297485,3.999746799468994,-8.821565628051758
1763692629448093000,7.451093017578125,-1.4516886472702026,4.1058125495910645,-8.786653518676758
1763692629457678800,7.460678955078125,-1.3596001863479614,4.200843334197998,-8.756414413452148
1763692629467265800,7.470265869140625,-1.2617026567459106,4.284106254577637,-8.730688095092773
1763692629476852000,7.47985205078125,-1.1586902141571045,4.356587886810303,-8.709074020385742
1763692629486437400,7.489437255859375,-1.0533130168914795,4.419501304626465,-8.690738677978516
1763692629496023300,7.499023193359375,-0.9601545333862305,4.472648620605469,-8.674324035644531
1763692629505610200,7.5086103515625,-0.881623387336731,4.515847206115723,-8.660268783569336
1763692629515196200,7.518196044921875,-0.8141373991966248,4.54948616027832,-8.649262428283691
1763692629524781600,7.527781494140625,-0.7594241499900818,4.5758843421936035,-8.640308380126953
1763692629534367500,7.537367431640625,-0.7350689768791199,4.5967254638671875,-8.631348609924316
1763692629543954400,7.546954345703125,-0.7430245280265808,4.606532096862793,-8.625436782836914
1763692629553540600,7.55654052734375,-0.7660311460494995,4.603423118591309,-8.625083923339844
1763692629563126000,7.5661259765625,-0.7913516163825989,4.592705249786377,-8.628511428833008
1763692629572712000,7.5757119140625,-0.8132954835891724,4.5781755447387695,-8.634190559387207
1763692629582299000,7.585298828125,-0.8231214284896851,4.563472747802734,-8.641039848327637
1763692629591884800,7.594884765625,-0.8105462193489075,4.554483890533447,-8.646968841552734
1763692629601470200,7.60447021484375,-0.7769089341163635,4.5581488609313965,-8.648125648498535
1763692629611056400,7.614056396484375,-0.735257625579834,4.577225685119629,-8.641688346862793
1763692629620643000,7.62364306640625,-0.688494861125946,4.610194683074951,-8.628005027770996
1763692629630229200,7.633229248046875,-0.6340569853782654,4.65433406829834,-8.608457565307617
1763692629639814700,7.642814697265625,-0.578057587146759,4.707337856292725,-8.583541870117188
1763692629649400600,7.652400634765625,-0.5273212194442749,4.767861843109131,-8.553351402282715
1763692629658987500,7.661987548828125,-0.48442956805229187,4.835758209228516,-8.51769733428955
1763692629668573400,7.671573486328125,-0.4504772126674652,4.9107346534729,-8.476563453674316
1763692629678158800,7.681158935546875,-0.4218781590461731,4.9913153648376465,-8.430846214294434
1763692629687745000,7.6907451171875,-0.39382287859916687,5.073741436004639,-8.382865905761719
1763692629697331700,7.700331787109375,-0.3626481592655182,5.152976989746094,-8.335808753967285
1763692629706918000,7.70991796875,-0.32440441846847534,5.223998069763184,-8.293069839477539
1763692629716503300,7.71950341796875,-0.276056706905365,5.283060073852539,-8.25732707977295
1763692629726089200,7.729089111328125,-0.21914930641651154,5.328201770782471,-8.22998332977295
1763692629735676200,7.73867626953125,-0.15803159773349762,5.358548164367676,-8.211660385131836
1763692629745262000,7.748261962890625,-0.09668507426977158,5.374253273010254,-8.202343940734863
1763692629754847500,7.757847412109375,-0.03950691595673561,5.377892971038818,-8.200431823730469
1763692629764433700,7.76743359375,0.011030631139874458,5.37056303024292,-8.205322265625
1763692629774020400,7.777020263671875,0.05425126850605011,5.352264881134033,-8.217098236083984
1763692629783606500,7.7866064453125,0.09075329452753067,5.323408126831055,-8.23550033569336
1763692629793192000,7.79619189453125,0.12370998412370682,5.284011363983154,-8.260405540466309
1763692629802777900,7.80577783203125,0.15595681965351105,5.236417770385742,-8.290115356445312
1763692629812364800,7.81536474609375,0.1897960603237152,5.183553218841553,-8.3225679397583
1763692629821950700,7.82495068359375,0.22856281697750092,5.125642776489258,-8.357388496398926
1763692629831536000,7.8345361328125,0.2764827609062195,5.061520099639893,-8.394937515258789
1763692629841122300,7.844122314453125,0.32885342836380005,4.99529504776001,-8.432631492614746
1763692629850709200,7.853709228515625,0.38080453872680664,4.9268951416015625,-8.470601081848145
1763692629860295200,7.863295166015625,0.4262785017490387,4.859798431396484,-8.50711727142334
1763692629869880600,7.872880615234375,0.4579596519470215,4.794651031494141,-8.542365074157715
1763692629879466500,7.882466552734375,0.465187668800354,4.730717182159424,-8.577547073364258
1763692629889053400,7.892053466796875,0.44878607988357544,4.66424036026001,-8.61474609375
1763692629898639600,7.9016396484375,0.4199582040309906,4.597837448120117,-8.651814460754395
1763692629908224800,7.911224853515625,0.3893563151359558,4.534331321716309,-8.68669319152832
1763692629917811000,7.92081103515625,0.35743311047554016,4.471549987792969,-8.720542907714844
1763692629927398000,7.93039794921875,0.3223814368247986,4.413778781890869,-8.751286506652832
1763692629936983800,7.93998388671875,0.28590819239616394,4.36494255065918,-8.777010917663574
1763692629946569200,7.9495693359375,0.25122079253196716,4.322380065917969,-8.799108505249023
1763692629956155400,7.9591552734375,0.22849099338054657,4.283473968505859,-8.818731307983398
1763692629965742000,7.9687421875,0.22144204378128052,4.2488484382629395,-8.83564567565918
1763692629975328300,7.978328369140625,0.22457073628902435,4.2249250411987305,-8.847031593322754
1763692629984913400,7.987913330078125,0.23497551679611206,4.209589958190918,-8.8540678024292
1763692629994499600,7.99749951171875,0.25228822231292725,4.195015907287598,-8.860506057739258
1763692630004086500,8.00708642578125,0.27864453196525574,4.178155899047852,-8.867679595947266
1763692630013672400,8.01667236328125,0.3218406140804291,4.157818794250488,-8.875772476196289
1763692630023257900,8.0262578125,0.3934475779533386,4.1336669921875,-8.884164810180664
1763692630032843800,8.03584375,0.4985700249671936,4.104918479919434,-8.892213821411133
1763692630042430700,8.0454306640625,0.6335384845733643,4.073463439941406,-8.89808464050293
1763692630052017000,8.055016845703125,0.7872709631919861,4.044010639190674,-8.89924430847168
1763692630061602000,8.06460205078125,0.9500377774238586,4.0215840339660645,-8.893519401550293
1763692630071188200,8.074188232421875,1.1178911924362183,4.006166458129883,-8.880953788757324
1763692630080775200,8.083775146484374,1.2838858366012573,3.9932491779327393,-8.864309310913086
1763692630090361000,8.093361083984375,1.4382529258728027,3.9786176681518555,-8.847169876098633
1763692630099946500,8.102946533203125,1.5749282836914062,3.9598491191864014,-8.832304000854492
1763692630109532700,8.11253271484375,1.6968073844909668,3.9371979236602783,-8.819847106933594
1763692630119119400,8.122119384765625,1.8109345436096191,3.9110524654388428,-8.808777809143066
1763692630128705500,8.13170556640625,1.9220980405807495,3.8830137252807617,-8.79762077331543
1763692630138290700,8.141290771484375,2.039302349090576,3.856536626815796,-8.782866477966309
1763692630147876900,8.150876953125,2.1724894046783447,3.8330557346343994,-8.761184692382812
1763692630157463800,8.1604638671875,2.3233375549316406,3.811594009399414,-8.731794357299805
1763692630167049700,8.1700498046875,2.4844417572021484,3.793006658554077,-8.695460319519043
1763692630176635100,8.17963525390625,2.642432689666748,3.781221389770508,-8.653918266296387
1763692630186221300,8.18922119140625,2.7889292240142822,3.7804579734802246,-8.608158111572266
1763692630195808300,8.198808349609376,2.923759937286377,3.7913262844085693,-8.558496475219727
1763692630205394200,8.208394287109375,3.049638032913208,3.809295415878296,-8.506430625915527
1763692630214979300,8.217979248046875,3.169044017791748,3.8286147117614746,-8.453948974609375
1763692630224565500,8.2275654296875,3.280574083328247,3.8453800678253174,-8.403647422790527
1763692630234152400,8.23715234375,3.3808460235595703,3.8558263778686523,-8.35899829864502
1763692630243738600,8.246738525390626,3.4658093452453613,3.857328414916992,-8.32343578338623
1763692630253323800,8.25632373046875,3.5330722332000732,3.848256826400757,-8.29931926727295
1763692630262910000,8.265909912109375,3.583770513534546,3.828310012817383,-8.286797523498535
1763692630272497000,8.275496826171874,3.6186015605926514,3.797558069229126,-8.285811424255371
1763692630282082800,8.285082763671875,3.6324234008789062,3.758228302001953,-8.297686576843262
1763692630291668200,8.294668212890626,3.6229135990142822,3.7153584957122803,-8.321117401123047
1763692630301254100,8.304254150390625,3.5978522300720215,3.6732494831085205,-8.350634574890137
1763692630310841000,8.313841064453126,3.5676090717315674,3.6327033042907715,-8.3812894821167
1763692630320427300,8.32342724609375,3.541217803955078,3.5933034420013428,-8.409420013427734
1763692630330012400,8.333012451171875,3.521939516067505,3.5550377368927,-8.433744430541992
1763692630339598600,8.3425986328125,3.5081021785736084,3.5198566913604736,-8.454242706298828
1763692630349185500,8.352185546875,3.497530698776245,3.490243911743164,-8.4708833694458
1763692630358771500,8.361771484375,3.489551067352295,3.4675140380859375,-8.483499526977539
1763692630368356900,8.37135693359375,3.48580002784729,3.451293706893921,-8.491652488708496
1763692630377943000,8.380943115234375,3.4928996562957764,3.4387428760528564,-8.493825912475586
1763692630387529700,8.39052978515625,3.517845869064331,3.4274468421936035,-8.4880952835083
1763692630397116000,8.400115966796875,3.5555973052978516,3.418907642364502,-8.475800514221191
1763692630406701000,8.409701171875,3.5982353687286377,3.416128158569336,-8.45890998840332
1763692630416287200,8.419287353515625,3.642014980316162,3.4191651344299316,-8.438922882080078
1763692630425874200,8.428874267578125,3.686469078063965,3.4260075092315674,-8.416815757751465
1763692630435460000,8.438460205078124,3.73291015625,3.43355655670166,-8.39323902130127
1763692630445045500,8.44804541015625,3.7812507152557373,3.4392104148864746,-8.369251251220703
1763692630454631700,8.457631591796876,3.8294596672058105,3.440711736679077,-8.346683502197266
1763692630464218400,8.46721826171875,3.8745079040527344,3.4370007514953613,-8.327401161193848
1763692630473804500,8.476804443359375,3.9128713607788086,3.42678165435791,-8.313663482666016
1763692630483389700,8.4863896484375,3.9409632682800293,3.409770965576172,-8.30738639831543
1763692630492975900,8.495975830078125,3.955899953842163,3.388187885284424,-8.309117317199707
1763692630502562800,8.505562744140626,3.95991849899292,3.365522861480713,-8.316411018371582
1763692630512148700,8.515148681640625,3.9565670490264893,3.34493088722229,-8.32630729675293
1763692630521734100,8.524734130859375,3.949127674102783,3.3293232917785645,-8.336089134216309
1763692630531320000,8.534320068359374,3.941082000732422,3.319770336151123,-8.343703269958496
1763692630540907000,8.543906982421875,3.935093641281128,3.3159947395324707,-8.348030090332031
1763692630550493200,8.5534931640625,3.9316985607147217,3.3174426555633545,-8.349054336547852
1763692630560078300,8.563078369140625,3.9297385215759277,3.322453498840332,-8.347984313964844
1763692630569664500,8.57266455078125,3.929105758666992,3.3292272090911865,-8.345582962036133
1763692630579251500,8.58225146484375,3.9304797649383545,3.3359670639038086,-8.342244148254395
1763692630588837400,8.59183740234375,3.9328560829162598,3.3407998085021973,-8.339190483093262
1763692630598422800,8.6014228515625,3.934861660003662,3.34110689163208,-8.338120460510254
1763692630608009000,8.611009033203125,3.9359965324401855,3.3345720767974854,-8.340200424194336
1763692630617595600,8.620595703125,3.9373996257781982,3.3211827278137207,-8.344879150390625
1763692630627181800,8.630181884765625,3.945645332336426,3.305269718170166,-8.347302436828613
1763692630636767000,8.63976708984375,3.96329402923584,3.2921180725097656,-8.344138145446777
1763692630646353200,8.649353271484374,3.9793331623077393,3.279383420944214,-8.34151840209961
1763692630655940000,8.658940185546875,3.9938924312591553,3.269080877304077,-8.338603973388672
1763692630665526000,8.668526123046876,3.997390031814575,3.2601444721221924,-8.340426445007324
1763692630675111400,8.678111328125,3.990513324737549,3.2482080459594727,-8.348373413085938
1763692630684697600,8.687697509765625,3.9731178283691406,3.226750373840332,-8.364974975585938
1763692630694284500,8.697284423828124,3.9535484313964844,3.1939380168914795,-8.386812210083008
1763692630703870500,8.706870361328125,3.9345335960388184,3.148446798324585,-8.412914276123047
1763692630713455600,8.71645556640625,3.9143617153167725,3.0900323390960693,-8.443924903869629
1763692630723041800,8.726041748046875,3.893888473510742,3.0223388671875,-8.477822303771973
1763692630732628700,8.735628662109375,3.878514051437378,2.9510321617126465,-8.509930610656738
1763692630742215000,8.74521484375,3.8737263679504395,2.877485513687134,-8.537254333496094
1763692630751800000,8.754800048828125,3.876889705657959,2.8032405376434326,-8.5604887008667
1763692630761386200,8.76438623046875,3.8829092979431152,2.7312047481536865,-8.581021308898926
1763692630770973200,8.77397314453125,3.8899805545806885,2.663849115371704,-8.598973274230957
1763692630780559000,8.78355908203125,3.899998903274536,2.6048505306243896,-8.612500190734863
1763692630790144500,8.79314453125,3.9155547618865967,2.558415174484253,-8.61935806274414
1763692630799730700,8.802730712890625,3.9379220008850098,2.5262627601623535,-8.61865234375
1763692630809317400,8.8123173828125,3.9666316509246826,2.5068750381469727,-8.611143112182617
1763692630818903600,8.821903564453125,3.9969897270202637,2.4979960918426514,-8.599679946899414
1763692630828488700,8.83148876953125,4.025224208831787,2.4978742599487305,-8.58653450012207
1763692630838075000,8.841074951171874,4.051799774169922,2.5068745613098145,-8.571398735046387
1763692630847661800,8.850661865234375,4.07651948928833,2.520965576171875,-8.555530548095703
1763692630857247700,8.860247802734374,4.097825050354004,2.5335941314697266,-8.541609764099121
1763692630866833200,8.869833251953125,4.110457897186279,2.553314685821533,-8.529659271240234
1763692630876419300,8.87941943359375,4.116324424743652,2.589956283569336,-8.515772819519043
1763692630886006000,8.889006103515625,4.113616466522217,2.639984607696533,-8.501708030700684
1763692630895592200,8.89859228515625,4.101349353790283,2.6918206214904785,-8.491373062133789
1763692630905177300,8.90817724609375,4.085205554962158,2.743741750717163,-8.48253345489502
1763692630914763500,8.917763427734375,4.0692973136901855,2.797114849090576,-8.472742080688477
1763692630924350500,8.9273505859375,4.056034564971924,2.8497326374053955,-8.461560249328613
1763692630933936400,8.936936279296875,4.046072006225586,2.8948824405670166,-8.450997352600098
1763692630943521800,8.946521728515625,4.045093536376953,2.9292876720428467,-8.43960189819336
1763692630953107700,8.956107666015624,4.052484035491943,2.951481580734253,-8.428316116333008
1763692630962694700,8.965694580078125,4.063971519470215,2.960585832595825,-8.419588088989258
1763692630972280800,8.97528076171875,4.08213996887207,2.959264039993286,-8.411258697509766
1763692630981866000,8.984865966796875,4.107365608215332,2.9499270915985107,-8.402254104614258
1763692630991452200,8.9944521484375,4.1348981857299805,2.935356616973877,-8.393848419189453
1763692631001039000,9.0040390625,4.156431198120117,2.9180660247802734,-8.389241218566895
1763692631010625000,9.013625,4.166568756103516,2.9010589122772217,-8.39011001586914
1763692631020210400,9.02321044921875,4.162604808807373,2.8861191272735596,-8.39722728729248
1763692631029796600,9.032796630859375,4.148436069488525,2.8746016025543213,-8.408182144165039
1763692631039383600,9.042383544921876,4.130566596984863,2.869565010070801,-8.418693542480469
1763692631048969500,9.051969482421875,4.1148552894592285,2.8715720176696777,-8.425700187683105
1763692631058554600,9.0615546875,4.097297668457031,2.879897356033325,-8.431412696838379
1763692631068140800,9.071140869140624,4.076927185058594,2.891608953475952,-8.437277793884277
1763692631077727700,9.080727783203125,4.062240123748779,2.90378737449646,-8.440178871154785
1763692631087314000,9.09031396484375,4.054586887359619,2.9133288860321045,-8.440569877624512
1763692631096899000,9.099899169921875,4.059556007385254,2.916936159133911,-8.436934471130371
1763692631106485200,9.1094853515625,4.077601432800293,2.915592670440674,-8.428694725036621
1763692631116072200,9.119072265625,4.105782508850098,2.9155938625335693,-8.41500186920166
1763692631125658000,9.128658203125,4.141307830810547,2.9247806072235107,-8.394380569458008
1763692631135243500,9.138243408203126,4.176805019378662,2.94431209564209,-8.369930267333984
1763692631144829700,9.14782958984375,4.204987525939941,2.9632344245910645,-8.349114418029785
1763692631154416400,9.15741650390625,4.226867198944092,2.977187395095825,-8.333086967468262
1763692631164002600,9.16700244140625,4.237411022186279,3.0004873275756836,-8.319363594055176
1763692631173587700,9.176587646484375,4.242873668670654,3.0287845134735107,-8.306315422058105
1763692631183174000,9.186173828125,4.24623441696167,3.0564684867858887,-8.294448852539062
1763692631192760800,9.1957607421875,4.251413822174072,3.08133602142334,-8.282586097717285
1763692631202346800,9.2053466796875,4.253821849822998,3.099750280380249,-8.27447509765625
1763692631211932200,9.21493212890625,4.252363204956055,3.111696720123291,-8.270739555358887
1763692631221518300,9.224518310546875,4.25536584854126,3.1207900047302246,-8.265768051147461
1763692631231105000,9.23410498046875,4.264644622802734,3.129683017730713,-8.257619857788086
1763692631240691200,9.243691162109375,4.277633190155029,3.140946865081787,-8.246617317199707
1763692631250276400,9.2532763671875,4.290656566619873,3.1559553146362305,-8.234111785888672
1763692631259862500,9.262862548828124,4.302038669586182,3.173072099685669,-8.221585273742676
1763692631269449500,9.272449462890625,4.309972286224365,3.1865057945251465,-8.212228775024414
1763692631279035400,9.282035400390624,4.3124613761901855,3.1916401386260986,-8.208927154541016
1763692631288620800,9.291620849609375,4.306081295013428,3.18465518951416,-8.214987754821777
1763692631298207000,9.30120703125,4.2971062660217285,3.168215751647949,-8.226036071777344
1763692631307793700,9.310793701171875,4.2913126945495605,3.1488497257232666,-8.236490249633789
1763692631317379800,9.3203798828125,4.28855562210083,3.131213426589966,-8.244645118713379
1763692631326965000,9.329965087890624,4.292932510375977,3.119694232940674,-8.246733665466309
1763692631336551200,9.33955126953125,4.305286407470703,3.114824056625366,-8.242133140563965
1763692631346138000,9.34913818359375,4.322000980377197,3.1168923377990723,-8.232598304748535
1763692631355724000,9.35872412109375,4.342085838317871,3.128284454345703,-8.217696189880371
1763692631365309400,9.368309326171875,4.364215850830078,3.151088237762451,-8.197234153747559
1763692631374895600,9.3778955078125,4.386102199554443,3.1870524883270264,-8.171609878540039
1763692631394068500,9.397068359375,4.4282546043396,3.296168327331543,-8.105320930480957
1763692631403654000,9.40665380859375,4.446242332458496,3.3605737686157227,-8.068943977355957
1763692631413239800,9.41623974609375,4.461418151855469,3.426323413848877,-8.032835006713867
1763692631422826800,9.42582666015625,4.474647521972656,3.4889419078826904,-7.998448848724365
1763692631432413000,9.435412841796875,4.485898971557617,3.542060613632202,-7.96874475479126
1763692631441998000,9.444998046875,4.495042324066162,3.581317663192749,-7.946013927459717
1763692631451584300,9.454584228515625,4.500810146331787,3.6050240993499756,-7.9320173263549805
1763692631461171200,9.464171142578126,4.501957893371582,3.6128041744232178,-7.927824974060059
1763692631470757000,9.473757080078125,4.500072956085205,3.6041362285614014,-7.9328389167785645
1763692631480342500,9.483342529296875,4.497235298156738,3.5786406993865967,-7.945979595184326
1763692631489928700,9.4929287109375,4.494266986846924,3.537196159362793,-7.966190338134766
1763692631499515400,9.502515380859375,4.492122173309326,3.481513261795044,-7.991888046264648
1763692631509101600,9.5121015625,4.491970062255859,3.413551092147827,-8.021239280700684
1763692631518686700,9.521686767578124,4.492881774902344,3.3381540775299072,-8.052398681640625
1763692631528273000,9.53127294921875,4.493319988250732,3.2618091106414795,-8.083381652832031
1763692631537859800,9.54085986328125,4.499978542327881,3.1904287338256836,-8.10812759399414
1763692631547445800,9.55044580078125,4.515056610107422,3.1304445266723633,-8.123112678527832
1763692631557031200,9.56003125,4.540311336517334,3.0849199295043945,-8.126452445983887
1763692631566617300,9.569617431640625,4.5736284255981445,3.055039644241333,-8.119053840637207
1763692631576204000,9.5792041015625,4.611838340759277,3.0417397022247314,-8.1024169921875
1763692631585790200,9.588790283203124,4.645425319671631,3.0384016036987305,-8.08446216583252
1763692631595375400,9.598375244140625,4.670207500457764,3.0364363193511963,-8.070911407470703
1763692631604961500,9.60796142578125,4.691712379455566,3.035919666290283,-8.058623313903809
1763692631614548500,9.617548583984375,4.704007625579834,3.0405538082122803,-8.049702644348145
1763692631624134400,9.627134521484376,4.701125144958496,3.050945281982422,-8.047455787658691
1763692631633719800,9.6367197265625,4.687108039855957,3.0643508434295654,-8.050538063049316
1763692631643306000,9.646305908203125,4.668383598327637,3.0782601833343506,-8.056109428405762
1763692631652893000,9.655892822265624,4.6478424072265625,3.091460943222046,-8.062929153442383
1763692631662478800,9.665478759765625,4.628890514373779,3.1027414798736572,-8.06949520111084
1763692631672064300,9.675064208984375,4.616419792175293,3.111010789871216,-8.073454856872559
1763692631681650200,9.684650146484374,4.615721702575684,3.1161022186279297,-8.071889877319336
1763692631691237000,9.694237060546875,4.630250930786133,3.1198174953460693,-8.062128067016602
1763692631700823300,9.7038232421875,4.6615986824035645,3.12473726272583,-8.042133331298828
1763692631710408400,9.713408447265625,4.710467338562012,3.133057117462158,-8.010358810424805
1763692631719994600,9.72299462890625,4.77653694152832,3.1450273990631104,-7.966421604156494
1763692631729581600,9.73258154296875,4.855554103851318,3.1594619750976562,-7.912760257720947
1763692631739167500,9.74216748046875,4.935270309448242,3.171940565109253,-7.858262538909912
1763692631748753000,9.7517529296875,5.006836414337158,3.1755902767181396,-7.811376571655273
1763692631758339000,9.761339111328125,5.0795207023620605,3.168334484100342,-7.767271995544434
1763692631767925800,9.77092578125,5.145392417907715,3.1494619846343994,-7.731508255004883
1763692631777512000,9.780511962890625,5.203645706176758,3.1213250160217285,-7.70388126373291
1763692631787097000,9.79009716796875,5.254787921905518,3.0877110958099365,-7.68268346786499
1763692631796683300,9.799683349609374,5.299615383148193,3.0525288581848145,-7.665933609008789
1763692631806270200,9.809270263671875,5.338588714599609,3.019655227661133,-7.651898384094238
1763692631815856000,9.818856201171876,5.372936248779297,2.990952968597412,-7.6391191482543945
1763692631825441500,9.828441650390625,5.404763221740723,2.966670274734497,-7.626126289367676
1763692631835027700,9.83802783203125,5.436462879180908,2.946026086807251,-7.611582279205322
1763692631844614400,9.847614501953124,5.470062732696533,2.9282665252685547,-7.594344139099121
1763692631854200600,9.85720068359375,5.507177352905273,2.9123549461364746,-7.573609828948975
1763692631863785700,9.86678564453125,5.5484795570373535,2.897993326187134,-7.548933029174805
1763692631873372000,9.876371826171875,5.593194484710693,2.8856751918792725,-7.520601272583008
1763692631882958800,9.885958740234376,5.640610694885254,2.8757426738739014,-7.488924980163574
1763692631892545000,9.895544921875,5.6895432472229,2.8683652877807617,-7.454660415649414
1763692631902130200,9.905130126953125,5.738715648651123,2.8636324405670166,-7.418702125549316
1763692631911716400,9.91471630859375,5.787196159362793,2.8601229190826416,-7.3823065757751465
1763692631921303300,9.92430322265625,5.834002494812012,2.8567605018615723,-7.346682071685791
1763692631930889200,9.93388916015625,5.8777923583984375,2.8529109954833984,-7.313196659088135
1763692631940474600,9.943474609375,5.917050838470459,2.8477139472961426,-7.283503532409668
1763692631950060800,9.953060791015625,5.9506635665893555,2.840759038925171,-7.258792877197266
1763692631959647500,9.9626474609375,5.977519512176514,2.831968069076538,-7.240139007568359
1763692631969233700,9.972233642578125,5.996110916137695,2.8222126960754395,-7.228564739227295
1763692631978818800,9.98181884765625,6.006124019622803,2.8135411739349365,-7.223630428314209
1763692631988405000,9.991405029296875,6.008035182952881,2.8077950477600098,-7.224277496337891
1763692631997992000,10.000991943359375,6.004876136779785,2.804715871810913,-7.228099346160889
1763692632007577900,10.010577880859374,6.000336647033691,2.8024678230285645,-7.232738018035889
1763692632017163300,10.020163330078125,5.995479106903076,2.8002939224243164,-7.237607955932617
1763692632026749200,10.029749267578126,5.988590717315674,2.799452543258667,-7.243634223937988
1763692632036336000,10.039336181640625,5.979244232177734,2.8029308319091797,-7.250007152557373
1763692632045922300,10.04892236328125,5.967370510101318,2.812445878982544,-7.256102561950684
1763692632055507500,10.058507568359374,5.952812671661377,2.829575300216675,-7.2613983154296875
1763692632065093600,10.06809375,5.9367852210998535,2.856132984161377,-7.264122009277344
1763692632074680600,10.0776806640625,5.919044494628906,2.8931400775909424,-7.263955116271973
1763692632084266500,10.0872666015625,5.897857189178467,2.9405195713043213,-7.262162208557129
1763692632093852000,10.096851806640625,5.871175289154053,2.9980318546295166,-7.260267734527588
1763692632103438000,10.10643798828125,5.837521553039551,3.065157413482666,-7.25937557220459
1763692632113025000,10.11602490234375,5.79890775680542,3.140845537185669,-7.257971286773682
1763692632122611000,10.12561083984375,5.757413864135742,3.222447395324707,-7.255232810974121
1763692632132196400,10.1351962890625,5.716104984283447,3.3055286407470703,-7.250517845153809
1763692632141782300,10.1447822265625,5.678544998168945,3.3822717666625977,-7.244636535644531
1763692632151369200,10.154369140625,5.64523983001709,3.438213586807251,-7.244332790374756
1763692632160955400,10.163955322265625,5.614145755767822,3.476536750793457,-7.250203609466553
1763692632170540500,10.17354052734375,5.594339370727539,3.507686138153076,-7.250509738922119
1763692632180126700,10.183126708984375,5.582340240478516,3.5358431339263916,-7.246079921722412
1763692632189713700,10.192713623046876,5.572812557220459,3.5620627403259277,-7.240570545196533
1763692632199299600,10.202299560546875,5.574165344238281,3.586414098739624,-7.227496147155762
1763692632208885000,10.211885009765625,5.5917510986328125,3.609683036804199,-7.2022833824157715
1763692632218471200,10.22147119140625,5.623277187347412,3.6332714557647705,-7.165785789489746
1763692632228057900,10.231057861328125,5.667223930358887,3.6581640243530273,-7.11834192276001
1763692632237644000,10.24064404296875,5.724682807922363,3.6836695671081543,-7.058963775634766
1763692632247229200,10.250229248046875,5.795006275177002,3.708583116531372,-6.98818302154541
1763692632256815400,10.2598154296875,5.873413562774658,3.732516050338745,-6.909538745880127
1763692632266402300,10.26940234375,5.953786373138428,3.756159543991089,-6.827450752258301
1763692632275988200,10.27898828125,6.028378486633301,3.7803421020507812,-6.7481889724731445
1763692632285573600,10.28857373046875,6.086123943328857,3.8038957118988037,-6.682803153991699
1763692632295159800,10.298159912109375,6.126500606536865,3.8262054920196533,-6.632987976074219
1763692632304746500,10.30774658203125,6.155152320861816,3.8481478691101074,-6.59365177154541
1763692632314332700,10.317332763671875,6.172506332397461,3.8690412044525146,-6.565141201019287
1763692632323918000,10.32691796875,6.180119037628174,3.888820171356201,-6.546265602111816
1763692632333504000,10.33650390625,6.178504943847656,3.907510280609131,-6.5366530418396
1763692632343091000,10.346091064453125,6.169608116149902,3.9254138469696045,-6.534328460693359
1763692632352676900,10.3556767578125,6.155679225921631,3.942978620529175,-6.536889553070068
1763692632362262300,10.36526220703125,6.138248920440674,3.961097240447998,-6.542324066162109
1763692632371848400,10.374848388671875,6.119231224060059,3.9804675579071045,-6.548379898071289
1763692632381435400,10.384435302734374,6.1000566482543945,4.001712799072266,-6.553318500518799
1763692632391021300,10.394021240234375,6.0812788009643555,4.02522611618042,-6.556369304656982
1763692632400606700,10.403606689453126,6.06351375579834,4.0511794090271,-6.556838512420654
1763692632410193000,10.41319287109375,6.047229766845703,4.079391002655029,-6.554386138916016
1763692632419779600,10.422779541015625,6.03267765045166,4.1092071533203125,-6.549168586730957
1763692632429365800,10.43236572265625,6.019570827484131,4.1402587890625,-6.541667461395264
1763692632438951000,10.441950927734375,6.00684118270874,4.172146797180176,-6.533102989196777
1763692632448537000,10.451537109375,5.993343830108643,4.2041401863098145,-6.524984836578369
1763692632458124000,10.4611240234375,5.979253768920898,4.234607696533203,-6.518206596374512
1763692632467710000,10.4707099609375,5.964095592498779,4.262234687805176,-6.51408576965332
1763692632477295400,10.48029541015625,5.947279453277588,4.286710739135742,-6.51339864730835
1763692632486881500,10.489881591796875,5.9291462898254395,4.307785987854004,-6.516025066375732
1763692632496468200,10.49946826171875,5.909752368927002,4.323843479156494,-6.52300500869751
1763692632506054400,10.509054443359375,5.891754627227783,4.331875801086426,-6.533947467803955
1763692632515639600,10.5186396484375,5.878483772277832,4.32850456237793,-6.54811954498291
1763692632525225700,10.528225830078124,5.875443458557129,4.308967113494873,-6.563714027404785
1763692632534812700,10.537812744140625,5.8853020668029785,4.272225379943848,-6.578883647918701
1763692632544398600,10.547398681640624,5.90714168548584,4.217801094055176,-6.5944085121154785
1763692632553984000,10.55698388671875,5.934518337249756,4.147064685821533,-6.614660263061523
1763692632563570200,10.566570068359376,5.964578628540039,4.066534042358398,-6.637581825256348
1763692632573156900,10.576156982421875,5.993082523345947,3.9772515296936035,-6.665944576263428
1763692632582743000,10.585742919921875,6.0181803703308105,3.881411552429199,-6.699740886688232
1763692632592328400,10.595328369140624,6.037928581237793,3.7850544452667236,-6.737000942230225
1763692632601914400,10.604914306640625,6.052524566650391,3.694404363632202,-6.774120807647705
1763692632611501300,10.614501220703126,6.063198566436768,3.6140553951263428,-6.807834625244141
1763692632621087500,10.62408740234375,6.075047016143799,3.5451533794403076,-6.8334527015686035
1763692632630672600,10.633672607421875,6.090911388397217,3.486834764480591,-6.849318981170654
1763692632640258800,10.6432587890625,6.113076686859131,3.439150810241699,-6.853677749633789
1763692632649845800,10.652845703125,6.146478176116943,3.4013335704803467,-6.8426690101623535
1763692632659431700,10.662431640625,6.190248012542725,3.3712425231933594,-6.818060398101807
1763692632669017000,10.67201708984375,6.24343729019165,3.345998764038086,-6.781899452209473
1763692632678603300,10.681603271484375,6.303695201873779,3.322700262069702,-6.737468719482422
1763692632688190000,10.69118994140625,6.364775657653809,3.3003017902374268,-6.690890789031982
1763692632697776000,10.700776123046875,6.419604301452637,3.2736902236938477,-6.651467800140381
1763692632707361500,10.710361572265626,6.477498531341553,3.236326217651367,-6.613515377044678
1763692632716947500,10.719947509765625,6.535308837890625,3.1884100437164307,-6.579829216003418
1763692632726534400,10.729534423828126,6.593374252319336,3.128356695175171,-6.550662994384766
1763692632736120300,10.739120361328125,6.650987148284912,3.057525634765625,-6.525816917419434
1763692632745705700,10.748705810546875,6.706485271453857,2.98162841796875,-6.5041022300720215
1763692632755292000,10.7582919921875,6.75861120223999,2.908959150314331,-6.483017921447754
1763692632764878800,10.76787890625,6.810720443725586,2.847332715988159,-6.455785751342773
1763692632774464800,10.77746484375,6.863735675811768,2.8034024238586426,-6.418757915496826
1763692632784050200,10.78705029296875,6.915523052215576,2.7809109687805176,-6.372791290283203
1763692632793636000,10.796635986328125,6.96342134475708,2.7827820777893066,-6.3195953369140625
1763692632803223000,10.80622314453125,7.006826400756836,2.8040592670440674,-6.2619500160217285
1763692632812809200,10.815809326171875,7.047691822052002,2.8344693183898926,-6.202113151550293
1763692632822394400,10.825394287109376,7.087138652801514,2.8659276962280273,-6.142419338226318
1763692632831980500,10.83498046875,7.125074863433838,2.8922982215881348,-6.085909843444824
1763692632841567500,10.8445673828125,7.1631317138671875,2.9099514484405518,-6.03258752822876
1763692632851153400,10.8541533203125,7.201231956481934,2.916391372680664,-5.983921051025391
1763692632860738800,10.86373876953125,7.239373683929443,2.910646438598633,-5.94053840637207
1763692632870325000,10.873324951171876,7.277299880981445,2.8933563232421875,-5.902523994445801
1763692632879911700,10.88291162109375,7.313579559326172,2.8669397830963135,-5.870484828948975
1763692632889497900,10.892497802734376,7.347498893737793,2.8341832160949707,-5.8439764976501465
1763692632899083000,10.9020830078125,7.37893009185791,2.7984719276428223,-5.821540355682373
1763692632908669200,10.911669189453125,7.407092094421387,2.7640421390533447,-5.802192211151123
1763692632918256000,10.921256103515624,7.43137788772583,2.735642910003662,-5.784571170806885
1763692632927842000,10.930842041015625,7.451716899871826,2.7171664237976074,-5.767088890075684
1763692632937427500,10.940427490234375,7.4679484367370605,2.7096571922302246,-5.749598503112793
1763692632947013600,10.950013671875,7.479553699493408,2.7116599082946777,-5.733546733856201
1763692632956600600,10.9596005859375,7.4857707023620605,2.7206218242645264,-5.721174240112305
1763692632966186500,10.9691865234375,7.487138271331787,2.7335398197174072,-5.713222980499268
1763692632975772000,10.97877197265625,7.4842400550842285,2.747880458831787,-5.710139274597168
1763692632985358000,10.988358154296876,7.477962017059326,2.761268377304077,-5.711905002593994
1763692632994944800,10.99794482421875,7.469647407531738,2.7717065811157227,-5.717726707458496
1763692633004531000,11.007531005859375,7.460930347442627,2.777590274810791,-5.726245403289795
1763692633014116000,11.0171162109375,7.453894138336182,2.777620553970337,-5.735388278961182
1763692633023702300,11.026702392578125,7.4498748779296875,2.7707576751708984,-5.743923664093018
1763692633033289200,11.036289306640626,7.449068069458008,2.7563979625701904,-5.751873016357422
1763692633042875100,11.045875244140625,7.450744152069092,2.734304666519165,-5.760241508483887
1763692633052460500,11.05546044921875,7.4535980224609375,2.7063655853271484,-5.769735336303711
1763692633062046700,11.065046630859374,7.457625389099121,2.676126480102539,-5.778629302978516
1763692633071633400,11.07463330078125,7.464236259460449,2.6467461585998535,-5.783623218536377
1763692633081219600,11.084219482421876,7.473020076751709,2.6208202838897705,-5.78408670425415
1763692633090804700,11.0938046875,7.482858180999756,2.600189447402954,-5.780677795410156
1763692633100391000,11.103390869140625,7.492018699645996,2.587099075317383,-5.774683475494385
1763692633109977900,11.112977783203124,7.4985198974609375,2.583005428314209,-5.768073081970215
1763692633119564000,11.12256396484375,7.502775192260742,2.585437774658203,-5.761446952819824
1763692633129149200,11.132149169921876,7.504214286804199,2.590207099914551,-5.7574286460876465
1763692633138735400,11.1417353515625,7.502481460571289,2.59511661529541,-5.757474899291992
1763692633148322300,11.151322265625,7.497814178466797,2.600106716156006,-5.761302947998047
1763692633157908200,11.160908203125,7.488837242126465,2.604041576385498,-5.771193027496338
1763692633167493600,11.17049365234375,7.4729084968566895,2.601935863494873,-5.792749404907227
1763692633177079800,11.180079833984376,7.447534561157227,2.599628210067749,-5.826366901397705
1763692633186666500,11.18966650390625,7.417651653289795,2.6001720428466797,-5.864123344421387
1763692633196252700,11.199252685546876,7.382789134979248,2.6032052040100098,-5.906618118286133
1763692633205837800,11.208837890625,7.345064640045166,2.607916831970215,-5.951402187347412
1763692633215424000,11.218424072265625,7.307785511016846,2.6130588054656982,-5.994880199432373
1763692633225011000,11.228010986328124,7.272348880767822,2.617044687271118,-6.0360918045043945
1763692633234596900,11.237596923828125,7.240317344665527,2.6191155910491943,-6.07358455657959
1763692633244182300,11.247182373046876,7.2137837409973145,2.6197640895843506,-6.10479736328125
1763692633253768400,11.2567685546875,7.193771839141846,2.6203248500823975,-6.12812614440918
1763692633263355400,11.26635546875,7.180003643035889,2.6215548515319824,-6.143727779388428
1763692633272941300,11.27594140625,7.170690536499023,2.623908042907715,-6.153592109680176
1763692633282526700,11.285526611328125,7.1592698097229,2.627056837081909,-6.165534019470215
1763692633292112600,11.295112548828126,7.136398792266846,2.6285617351531982,-6.191354274749756
1763692633301699600,11.304699462890625,7.109668254852295,2.630770444869995,-6.221097469329834
1763692633311285800,11.31428564453125,7.077497482299805,2.6358697414398193,-6.255526065826416
1763692633320871000,11.323870849609374,7.039480209350586,2.6461665630340576,-6.293957710266113
1763692633330457000,11.33345703125,6.9966959953308105,2.662545919418335,-6.334625244140625
1763692633340044000,11.3430439453125,6.950923919677734,2.685298204421997,-6.375281810760498
1763692633349630000,11.3526298828125,6.901774883270264,2.715613842010498,-6.415709972381592
1763692633359215400,11.36221533203125,6.8463521003723145,2.755253791809082,-6.4580512046813965
1763692633368801300,11.37180126953125,6.783182144165039,2.805708885192871,-6.502831935882568
1763692633378388200,11.38138818359375,6.712601661682129,2.866405487060547,-6.549434661865234
1763692633387974400,11.390974365234374,6.634280204772949,2.9354848861694336,-6.598458290100098
1763692633397559600,11.4005595703125,6.547781944274902,3.0109541416168213,-6.6506452560424805
1763692633407145700,11.410145751953126,6.453395843505859,3.0912961959838867,-6.705813884735107
1763692633416732700,11.419732666015625,6.352385997772217,3.17573881149292,-6.762563705444336
1763692633426318600,11.429318603515625,6.246730804443359,3.2628986835479736,-6.819254398345947
1763692633435904000,11.438904052734374,6.138965129852295,3.350416660308838,-6.874460697174072
1763692633445490200,11.448490234375,6.031039714813232,3.435274600982666,-6.927903175354004
1763692633455076900,11.458076904296876,5.923813819885254,3.514655351638794,-6.98040246963501
1763692633464663000,11.4676630859375,5.817502021789551,3.586488723754883,-7.03307580947876
1763692633474248400,11.47724853515625,5.711909770965576,3.649993419647217,-7.086750030517578
1763692633483834400,11.48683447265625,5.6073174476623535,3.7062628269195557,-7.140868663787842
1763692633493421300,11.49642138671875,5.504565715789795,3.7582826614379883,-7.193432331085205
1763692633503007500,11.506007568359376,5.405200958251953,3.8099703788757324,-7.24143123626709
1763692633512592600,11.515592529296875,5.3110432624816895,3.8648998737335205,-7.281878471374512
1763692633522178800,11.5251787109375,5.223585605621338,3.926083564758301,-7.312346458435059
1763692633531765800,11.534765869140625,5.145340919494629,3.9950244426727295,-7.3304595947265625
1763692633541351700,11.5443515625,5.0794196128845215,4.071638584136963,-7.334278106689453
1763692633550937000,11.55393701171875,5.027835369110107,4.153848648071289,-7.323715686798096
1763692633560523300,11.563523193359375,4.990248680114746,4.238138675689697,-7.301095008850098
1763692633570110000,11.57310986328125,4.960672855377197,4.322840213775635,-7.271530628204346
1763692633579696000,11.582696044921875,4.930083751678467,4.408799648284912,-7.240658760070801
1763692633589281500,11.592281494140625,4.890475749969482,4.4979705810546875,-7.212620258331299
1763692633598867500,11.601867431640626,4.839653491973877,4.590767860412598,-7.188392162322998
1763692633608454400,11.611454345703125,4.783483028411865,4.684657096862793,-7.165379047393799
1763692633618040300,11.621040283203126,4.728108882904053,4.775172710418701,-7.142344951629639
1763692633627625700,11.630625732421874,4.675581455230713,4.858320713043213,-7.120818614959717
1763692633637212000,11.6402119140625,4.623067855834961,4.931257724761963,-7.104950904846191
1763692633646798800,11.649798828125,4.558486461639404,4.99395227432251,-7.102889060974121
1763692633656384800,11.659384765625,4.466682434082031,5.049474716186523,-7.121933460235596
1763692633665970200,11.66897021484375,4.341530799865723,5.100318908691406,-7.1629767417907715
1763692633675556400,11.678556396484375,4.186354637145996,5.143463611602783,-7.224237442016602
1763692633685143000,11.68814306640625,4.0105390548706055,5.171657562255859,-7.3034186363220215
1763692633694729200,11.697729248046874,3.8301949501037598,5.177275657653809,-7.395662307739258
1763692633704314400,11.707314453125,3.6575984954833984,5.158776760101318,-7.495290756225586
1763692633713900500,11.716900634765626,3.488060712814331,5.122305393218994,-7.600381374359131
1763692633723487500,11.726487548828125,3.3092925548553467,5.079428195953369,-7.708332538604736
1763692633733073400,11.736073486328126,3.116574764251709,5.040469646453857,-7.813514709472656
1763692633742658800,11.745658935546874,2.9141111373901367,5.00675630569458,-7.912694454193115
1763692633752245000,11.755244873046875,2.706763505935669,4.974762439727783,-8.005970001220703
1763692633761832000,11.76483203125,2.487138032913208,4.944091796875,-8.095707893371582
1763692633771417900,11.77441796875,2.2414286136627197,4.916078567504883,-8.184041976928711
1763692633781003300,11.784003173828125,1.9586386680603027,4.889857292175293,-8.271845817565918
1763692633790589400,11.79358935546875,1.643603801727295,4.858423709869385,-8.358509063720703
1763692633800176000,11.803176025390625,1.313864827156067,4.81157922744751,-8.443509101867676
1763692633809762300,11.81276220703125,0.9899789690971375,4.743247985839844,-8.525956153869629
1763692633819347500,11.822347412109375,0.6944844126701355,4.651908874511719,-8.60510540008545
1763692633828933600,11.83193359375,0.44067463278770447,4.539594650268555,-8.681489944458008
1763692633838520600,11.8415205078125,0.21104243397712708,4.413990497589111,-8.754571914672852
1763692633848106500,11.8511064453125,-0.019060568884015083,4.2831196784973145,-8.821842193603516
1763692633857692000,11.86069189453125,-0.25826361775398254,4.151261806488037,-8.880918502807617
1763692633867277800,11.87027783203125,-0.504403829574585,4.014859676361084,-8.93290901184082
1763692633876864800,11.87986474609375,-0.7507191896438599,3.8704898357391357,-8.979204177856445
1763692633886451000,11.889450927734375,-0.990005373954773,3.7194864749908447,-9.019739151000977
1763692633896036000,11.8990361328125,-1.2163218259811401,3.555410623550415,-9.058145523071289
1763692633905622300,11.908622314453124,-1.4318244457244873,3.378857135772705,-9.094151496887207
1763692633915209200,11.918209228515625,-1.6271286010742188,3.20041561126709,-9.125797271728516
1763692633924795400,11.92779541015625,-1.794297695159912,3.028855323791504,-9.152973175048828
1763692633934380500,11.937380615234375,-1.9376039505004883,2.863602638244629,-9.176918983459473
1763692633943966700,11.946966796875,-2.059083938598633,2.69769024848938,-9.200708389282227
1763692633953553700,11.9565537109375,-2.156582832336426,2.528155565261841,-9.226482391357422
1763692633963139600,11.9661396484375,-2.232206106185913,2.3588883876800537,-9.253284454345703
1763692633972725000,11.97572509765625,-2.292393445968628,2.1915578842163086,-9.27967643737793
1763692633982311200,11.985311279296875,-2.3414111137390137,2.0251450538635254,-9.305212020874023
1763692633991897900,11.99489794921875,-2.3876068592071533,1.8592619895935059,-9.328068733215332
1763692634001484000,12.004484130859375,-2.4411463737487793,1.6964737176895142,-9.345221519470215
1763692634011069200,12.014069091796875,-2.5040318965911865,1.5417193174362183,-9.355389595031738
1763692634020655400,12.0236552734375,-2.574113607406616,1.402113437652588,-9.358333587646484
1763692634030242300,12.0332421875,-2.654611587524414,1.2872236967086792,-9.352351188659668
1763692634039828200,12.042828125,-2.7461819648742676,1.2046715021133423,-9.336896896362305
1763692634049413600,12.05241357421875,-2.8158528804779053,1.1542606353759766,-9.322502136230469
1763692634059001300,12.06200146484375,-2.8472626209259033,1.1310627460479736,-9.315801620483398
1763692634068588000,12.071588134765625,-2.838146209716797,1.1336629390716553,-9.318267822265625
1763692634087759400,12.09075927734375,-2.700331211090088,1.196893334388733,-9.351259231567383
1763692634097345500,12.100345458984375,-2.586982250213623,1.2538821697235107,-9.37580394744873
1763692634106932500,12.109932373046876,-2.4536795616149902,1.3234293460845947,-9.402040481567383
1763692634116518700,12.1195185546875,-2.3117802143096924,1.4020601511001587,-9.426573753356934
1763692634126103800,12.129103759765625,-2.172766923904419,1.487147569656372,-9.446578979492188
1763692634135690000,12.13868994140625,-2.0398643016815186,1.573643445968628,-9.462186813354492
1763692634145277000,12.14827685546875,-1.9133769273757935,1.6575902700424194,-9.474268913269043
1763692634154862800,12.15786279296875,-1.7921581268310547,1.737003207206726,-9.483741760253906
1763692634164448300,12.1674482421875,-1.6705231666564941,1.8091678619384766,-9.492452621459961
1763692634174034400,12.177034423828125,-1.5394753217697144,1.8716877698898315,-9.502483367919922
1763692634183621000,12.18662109375,-1.3895766735076904,1.9229878187179565,-9.515335083007812
1763692634193207300,12.196207275390625,-1.214062213897705,1.9637982845306396,-9.530999183654785
1763692634202792400,12.20579248046875,-1.0165575742721558,1.999657154083252,-9.54664134979248
1763692634212378600,12.215378662109375,-0.8049534559249878,2.04022479057312,-9.55823802947998
1763692634221965600,12.224965576171876,-0.5838958621025085,2.0942647457122803,-9.562609672546387
1763692634231551700,12.2345517578125,-0.35933855175971985,2.1678695678710938,-9.557279586791992
1763692634241137000,12.244136962890625,-0.13751523196697235,2.2623143196105957,-9.541142463684082
1763692634250723000,12.25372314453125,0.07954564690589905,2.3723087310791016,-9.51505184173584
1763692634260310000,12.26331005859375,0.29422906041145325,2.489292621612549,-9.480888366699219
1763692634269896000,12.27289599609375,0.5098143815994263,2.604710817337036,-9.440654754638672
1763692634279481300,12.2824814453125,0.7279028296470642,2.7117419242858887,-9.396116256713867
1763692634289067500,12.292067626953125,0.9485224485397339,2.805784225463867,-9.34870433807373
1763692634298654200,12.301654296875,1.173470139503479,2.8835835456848145,-9.299370765686035
1763692634308240400,12.311240478515625,1.4041731357574463,2.9423718452453613,-9.248845100402832
1763692634317825500,12.320825439453126,1.6382815837860107,2.9830775260925293,-9.197154998779297
1763692634327411700,12.33041162109375,1.870076298713684,3.0105137825012207,-9.143851280212402
1763692634336998700,12.33999853515625,2.094261407852173,3.0311381816864014,-9.088271141052246
1763692634346584600,12.34958447265625,2.308603525161743,3.050516366958618,-9.029678344726562
1763692634356170000,12.359169921875,2.5135583877563477,3.0715270042419434,-8.967616081237793
1763692634365756200,12.368756103515626,2.7097971439361572,3.0944089889526367,-8.902359962463379
1763692634375342800,12.3783427734375,2.895655632019043,3.116856813430786,-8.835766792297363
1763692634384929000,12.387928955078126,3.071204423904419,3.1355841159820557,-8.769618034362793
1763692634394514400,12.397514404296874,3.235044002532959,3.1471242904663086,-8.70634651184082
1763692634404100400,12.407100341796875,3.3855338096618652,3.1494333744049072,-8.648098945617676
1763692634413687300,12.416687255859374,3.523947238922119,3.1414566040039062,-8.595547676086426
1763692634423273500,12.4262734375,3.655087471008301,3.125322103500366,-8.546525001525879
1763692634432858600,12.435858642578125,3.7790098190307617,3.0970544815063477,-8.5028076171875
1763692634442444800,12.44544482421875,3.8937487602233887,3.050389051437378,-8.467835426330566
1763692634452031700,12.45503173828125,4.000999927520752,2.9966702461242676,-8.436963081359863
1763692634461617700,12.46461767578125,4.093603610992432,2.947604179382324,-8.409781455993652
1763692634471203000,12.474203125,4.164360523223877,2.9058728218078613,-8.389540672302246
1763692634480789200,12.483789306640626,4.212197780609131,2.8727526664733887,-8.377055168151855
1763692634490376000,12.4933759765625,4.237069606781006,2.852090358734131,-8.371570587158203
1763692634499962000,12.502962158203125,4.241838455200195,2.844503402709961,-8.37173843383789
1763692634509547500,12.512547607421874,4.234470844268799,2.8463704586029053,-8.374833106994629
1763692634519133400,12.522133544921875,4.225648880004883,2.8526272773742676,-8.377159118652344
1763692634528720400,12.531720458984376,4.227955341339111,2.8593575954437256,-8.373699188232422
1763692634538306600,12.541306640625,4.25466251373291,2.8662021160125732,-8.357817649841309
1763692634547891700,12.5508916015625,4.311967849731445,2.876675844192505,-8.324785232543945
1763692634557478000,12.560477783203124,4.386965751647949,2.895128011703491,-8.279078483581543
1763692634576650800,12.579650634765626,4.564878463745117,2.963900566101074,-8.157669067382812
1763692634586236200,12.589236083984375,4.649245262145996,3.014509677886963,-8.091207504272461
1763692634595822000,12.598822021484375,4.7263569831848145,3.0766491889953613,-8.022852897644043
