time,seconds_elapsed,z,y,x
1763692622192736500,0.195736572265625,-0.037108972668647766,0.2777827978134155,0.0853659063577652
1763692622202514400,0.205514404296875,-0.0016798300202935934,0.2924431264400482,0.06337540596723557
1763692622212292400,0.215292236328125,0.08994726091623306,0.32909396290779114,-0.00015271181473508477
1763692622222070300,0.2250703125,0.19623468816280365,0.3449759781360626,-0.08689302206039429
1763692622231848200,0.23484814453125,0.30374380946159363,0.3071034550666809,-0.1638597846031189
1763692622241626000,0.244626220703125,0.4027010500431061,0.23502348363399506,-0.2420482337474823
1763692622251404000,0.254404052734375,0.46012070775032043,0.13973131775856018,-0.3471139669418335
1763692622261182200,0.26418212890625,0.462564080953598,0.0065666078589856625,-0.47417017817497253
1763692622270960000,0.273960205078125,0.4161396920681,-0.1656923145055771,-0.5804576277732849
1763692622280738000,0.283738037109375,0.3171824514865875,-0.3758237659931183,-0.6281036734580994
1763692622290516000,0.293515869140625,0.10338589549064636,-0.5969504714012146,-0.6232169270515442
1763692622300294000,0.3032939453125,-0.20814619958400726,-0.8083036541938782,-0.5865660905838013
1763692622310071600,0.313071533203125,-0.43415969610214233,-1.0159916877746582,-0.5108210444450378
1763692622319849500,0.322849365234375,-0.4659237563610077,-1.1577082872390747,-0.42163732647895813
1763692622329627400,0.33262744140625,-0.293664813041687,-1.2016892433166504,-0.32756683230400085
1763692622339401500,0.3424013671875,-0.02489202655851841,-1.3201936483383179,-0.2176143378019333
1763692622349179100,0.35217919921875,0.4039227366447449,-1.8247535228729248,0.03649812191724777
1763692622358956800,0.361956787109375,0.8376243114471436,-2.3818461894989014,0.44454410672187805
1763692622368734700,0.371734619140625,1.1344960927963257,-2.475916624069214,0.896723747253418
1763692622378512600,0.3815126953125,1.371504783630371,-1.9004985094070435,1.3548592329025269
1763692622388290600,0.39129052734375,1.634169101715088,-0.8290724158287048,1.8618624210357666
1763692622398068200,0.401068115234375,1.93104088306427,0.3205420970916748,2.418955087661743
1763692622407846100,0.41084619140625,2.1277337074279785,1.4579397439956665,2.844104766845703
1763692622417624000,0.4206240234375,2.122846841812134,2.4255218505859375,2.8331096172332764
1763692622427402000,0.430402099609375,1.8369704484939575,2.4047529697418213,2.201493501663208
1763692622437180000,0.440179931640625,1.4521366357803345,0.9594883322715759,1.5100144147872925
1763692622446957600,0.44995751953125,0.9707890152931213,-1.0770764350891113,1.0482138395309448
1763692622456735500,0.459735595703125,0.4271349310874939,-2.407501697540283,0.7623373866081238
1763692622466513400,0.469513427734375,0.04718795046210289,-2.488133668899536,0.27350685000419617
1763692622476291300,0.479291259765625,-0.06887302547693253,-1.9261541366577148,-0.4534013867378235
1763692622486069200,0.4890693359375,-0.10796725004911423,-1.6219521760940552,-0.9909469485282898
1763692622495847000,0.498846923828125,-0.1519482582807541,-1.3739482164382935,-1.330578088760376
1763692622505624800,0.508624755859375,-0.14217470586299896,-1.042868971824646,-1.5492613315582275
1763692622515402800,0.51840283203125,-0.018783552572131157,-0.755770742893219,-1.5859122276306152
1763692622525180700,0.5281806640625,0.2047865390777588,-0.462564080953598,-1.4368654489517212
1763692622534958300,0.537958251953125,0.46134239435195923,-0.0984991192817688,-1.1522105932235718
1763692622544736300,0.547736328125,0.6800256967544556,0.3046600818634033,-0.8040276765823364
1763692622554514200,0.55751416015625,0.8400676846504211,0.7212579250335693,-0.4900522232055664
1763692622564292000,0.5672919921875,0.9268079996109009,0.8971819281578064,-0.2945810854434967
1763692622574070000,0.577070068359375,0.9170344471931458,0.8935168385505676,-0.2029540091753006
1763692622583847700,0.58684765625,0.8645015954971313,1.042563557624817,-0.23227466642856598
1763692622593625600,0.59662548828125,0.7973083853721619,1.1525160074234009,-0.31290650367736816
1763692622603403500,0.606403564453125,0.6897992491722107,1.2441431283950806,-0.35566580295562744
1763692622613181400,0.616181396484375,0.5786250829696655,1.3870813846588135,-0.3446705639362335
1763692622622806000,0.625805908203125,0.5419742465019226,1.6192033290863037,-0.30191126465797424
1763692622632392000,0.635391845703125,0.511431872844696,1.9063016176223755,-0.20539739727973938
1763692622641979000,0.644978759765625,0.4784461259841919,1.9942635297775269,-0.18218518793582916
1763692622651564800,0.654564697265625,0.3965925872325897,1.9331789016723633,-0.32512345910072327
1763692622661150200,0.664150146484375,0.16691401600837708,2.2874703407287598,-0.46073153614997864
1763692622670736400,0.673736328125,-0.21791976690292358,2.4890499114990234,-0.337340384721756
1763692622680323000,0.683322998046875,-0.5428904891014099,2.4194133281707764,0.04749337583780289
1763692622689909200,0.6929091796875,-0.6161921620368958,2.19584321975708,0.5544965863227844
1763692622699494400,0.702494384765625,-0.4549284875392914,1.9319571256637573,1.0628741979599
1763692622709080600,0.71208056640625,-0.20570281147956848,1.7535897493362427,1.5051276683807373
1763692622718667500,0.72166748046875,0.009315420873463154,1.7157171964645386,1.8569756746292114
1763692622728253400,0.73125341796875,0.14492350816726685,1.8122310638427734,2.0927627086639404
1763692622737838800,0.7408388671875,0.18646112084388733,2.1824045181274414,1.9962488412857056
1763692622747425000,0.750425048828125,0.15958385169506073,2.7555320262908936,1.3243168592453003
1763692622757011700,0.76001171875,0.06551336497068405,2.603889226913452,0.660936713218689
1763692622766598000,0.769597900390625,-0.09575030952692032,1.8488819599151611,0.35536038875579834
1763692622776183000,0.77918310546875,-0.31443363428115845,1.3687559366226196,0.1501157134771347
1763692622785769200,0.788769287109375,-0.506239652633667,1.2539167404174805,-0.06856760382652283
1763692622795356200,0.798356201171875,-0.5331169366836548,0.9289459586143494,-0.2017323076725006
1763692622804942000,0.807942138671875,-0.402395635843277,0.746913492679596,-0.32634514570236206
1763692622814527500,0.817527587890625,-0.22647161781787872,0.8153283596038818,-0.48272204399108887
1763692622824113400,0.827113525390625,-0.05421269312500954,1.0315682888031006,-0.6244385838508606
1763692622833700400,0.836700439453125,0.09605573117733002,1.2807940244674683,-0.6904101371765137
1763692622843286500,0.84628662109375,0.2170034945011139,1.5263545513153076,-0.6891884207725525
1763692622852871700,0.85587158203125,0.28664007782936096,1.7035002708435059,-0.673306405544281
1763692622862457900,0.865457763671875,0.27320143580436707,1.74137282371521,-0.6586460471153259
1763692622872044500,0.87504443359375,0.1779092699289322,1.63019859790802,-0.6293253898620605
1763692622881630700,0.884630615234375,0.03130592033267021,1.283237338066101,-0.5963396430015564
1763692622891216000,0.8942158203125,-0.10308047384023666,0.7896727919578552,-0.5706840753555298
1763692622900802000,0.903802001953125,-0.16905197501182556,0.3730749487876892,-0.5633538961410522
1763692622910389000,0.913388916015625,-0.1495048701763153,0.18126893043518066,-0.5596888065338135
1763692622919975000,0.922974853515625,-0.08353336155414581,0.18737739324569702,-0.5535803437232971
1763692622929560300,0.932560302734375,-0.034665580838918686,0.2948864996433258,-0.543806791305542
1763692622939146200,0.942146240234375,-0.02244863659143448,0.35474956035614014,-0.5352548956871033
1763692622948733200,0.951733154296875,-0.03955236077308655,0.26434415578842163,-0.5047125220298767
1763692622958319400,0.9613193359375,-0.06520794332027435,0.016340164467692375,-0.44362783432006836
1763692622967904500,0.970904541015625,-0.07742489129304886,-0.2927485406398773,-0.3837648034095764
1763692622977490700,0.98049072265625,-0.07498150318861008,-0.5212054252624512,-0.3617742955684662
1763692622987077600,0.99007763671875,-0.06520794332027435,-0.6519267559051514,-0.3849864900112152
1763692622996663600,0.99966357421875,-0.05665608495473862,-0.7545490860939026,-0.43141087889671326
1763692623006249000,1.0092490234375,-0.04321744292974472,-0.881605327129364,-0.4815003573894501
1763692623015835000,1.0188349609375,-0.021226942539215088,-1.034317135810852,-0.5413633584976196
1763692623025421800,1.028421875,0.005650337319821119,-1.1344960927963257,-0.5938962697982788
1763692623035008000,1.038008056640625,0.03374931216239929,-1.130831003189087,-0.6134433746337891
1763692623044593200,1.04759326171875,0.06551336497068405,-1.089293360710144,-0.6586460471153259
1763692623054179300,1.057179443359375,0.07650861889123917,-1.1198357343673706,-0.9799517393112183
1763692623063766300,1.066766357421875,0.056961506605148315,-0.8718317747116089,-0.857782244682312
1763692623073352200,1.076352294921875,0.04352286830544472,-0.775317907333374,-0.6513158679008484
1763692623082937600,1.0859375,0.03497100621461868,-0.7692093849182129,-0.5645755529403687
1763692623092523800,1.095523681640625,0.04107947647571564,-0.7020162343978882,-0.5279247164726257
1763692623102110500,1.1051103515625,0.04474456235766411,-0.645818293094635,-0.515707790851593
1763692623111696600,1.114696533203125,0.02641914412379265,-0.5725166201591492,-0.5144860744476318
1763692623121281800,1.12428173828125,-0.0029015245381742716,-0.5102101564407349,-0.5352548956871033
1763692623130868000,1.133867919921875,-0.03588727489113808,-0.5150969624519348,-0.5865660905838013
1763692623140455000,1.143454833984375,-0.0859767496585846,-0.5285356044769287,-0.5865660905838013
1763692623150040800,1.153040771484375,-0.12018419802188873,-0.5590779781341553,-0.5890094637870789
1763692623159626000,1.1626259765625,-0.13240113854408264,-0.5602996349334717,-0.626882016658783
1763692623169212200,1.172212158203125,-0.1360662281513214,-0.5346440672874451,-0.6952968835830688
1763692623178799000,1.181799072265625,-0.16050012409687042,-0.6421532034873962,-0.6623111367225647
1763692623188385000,1.191385009765625,-0.18371231853961945,-0.8400676846504211,-0.5291464328765869
1763692623197970400,1.200970458984375,-0.21914145350456238,-0.936581552028656,-0.5022691488265991
1763692623207556600,1.210556640625,-0.27533939480781555,-1.0453124046325684,-0.44607120752334595
1763692623217143300,1.220143310546875,-0.3071034550666809,-1.1039537191390991,-0.36543938517570496
1763692623226729500,1.2297294921875,-0.293664813041687,-1.130831003189087,-0.24815669655799866
1763692623236314600,1.239314697265625,-0.24601873755455017,-1.1870288848876953,-0.10155335813760757
1763692623245900800,1.24890087890625,-0.18249061703681946,-1.3006465435028076,0.0462716780602932
1763692623255487700,1.25848779296875,-0.10552386194467545,-1.4020471572875977,0.16111096739768982
1763692623265073700,1.26807373046875,-0.021226942539215088,-1.349514365196228,0.20875705778598785
1763692623274659000,1.2776591796875,0.03008422814309597,-1.0489774942398071,0.15988926589488983
1763692623284245200,1.287245361328125,0.023975754156708717,-0.5810684561729431,0.03405473381280899
1763692623293832000,1.29683203125,-0.0029015245381742716,-0.17424418032169342,-0.0856713280081749
1763692623303418000,1.306418212890625,-0.012675080448389053,0.0065666078589856625,-0.14064757525920868
1763692623313003300,1.316003173828125,0.0007635590736754239,-0.0459662564098835,-0.13087402284145355
1763692623322589400,1.32558935546875,0.02886253222823143,-0.13270656764507294,-0.09177979826927185
1763692623332176400,1.33517626953125,0.072843536734581,-0.11560284346342087,-0.04291202127933502
1763692623341762300,1.34476220703125,0.11682453751564026,-0.09605573117733002,0.027946261689066887
1763692623351347700,1.35434765625,0.08994726091623306,-0.2170034945011139,0.07681404054164886
1763692623360933600,1.36393359375,0.07650861889123917,-0.38193225860595703,0.07803573459386826
1763692623370520600,1.3735205078125,0.10338589549064636,-0.37704548239707947,0.05115845799446106
1763692623380106800,1.383106689453125,0.10216420143842697,-0.20845162868499756,0.04504998400807381
1763692623389692000,1.39269189453125,0.04840964451432228,-0.06795676052570343,0.07559234648942947
1763692623399278000,1.402278076171875,-0.04443913698196411,-0.012980503961443901,0.12201674282550812
1763692623408865000,1.411864990234375,-0.1385096162557602,0.10185877978801727,0.17454960942268372
1763692623418451000,1.421450927734375,-0.20814619958400726,0.25945737957954407,0.20509196817874908
1763692623428036400,1.431036376953125,-0.24479703605175018,0.47325390577316284,0.15500248968601227
1763692623437622500,1.44062255859375,-0.16538690030574799,2.2581496238708496,0.05238015204668045
1763692623447209200,1.450209228515625,-0.11285403370857239,1.9979286193847656,0.07070557028055191
1763692623456795400,1.45979541015625,-0.19715094566345215,1.6888399124145508,0.17332790791988373
1763692623466380500,1.469380615234375,-0.2582356929779053,1.616760015487671,0.2710634768009186
1763692623475966700,1.478966796875,-0.3315373361110687,1.8501036167144775,0.3614688515663147
1763692623485553700,1.4885537109375,-0.3755183517932892,2.2056167125701904,0.455539345741272
1763692623495139600,1.4981396484375,-0.41827765107154846,2.517148733139038,0.5508314967155457
1763692623504724700,1.507724853515625,-0.4928010404109955,2.6686389446258545,0.6438329815864563
1763692623514311000,1.517310791015625,-0.49524441361427307,2.760418653488159,0.707361102104187
1763692623523897900,1.52689794921875,-0.48669254779815674,2.75675368309021,0.7220214605331421
1763692623533483800,1.53648388671875,-0.4671454429626465,2.6808559894561768,0.6939224600791931
1763692623543069200,1.546069091796875,-0.4891359508037567,2.6920039653778076,0.6401679515838623
1763692623552655000,1.555655029296875,-0.5685460567474365,2.860597610473633,0.5593833923339844
1763692623562242000,1.565241943359375,-0.6687250137329102,2.832498788833618,0.47386476397514343
1763692623571828200,1.574828125,-0.8360971808433533,2.600224018096924,0.5117372870445251
1763692623581413400,1.584413330078125,-0.8373188972473145,2.1420886516571045,0.21242213249206543
1763692623590999600,1.59399951171875,-0.8788564801216125,1.8953063488006592,0.03405473381280899
1763692623600586500,1.60358642578125,-1.1366339921951294,2.421856641769409,0.01572931744158268
1763692623610172400,1.61317236328125,-1.2355912923812866,2.415748119354248,-0.1382041871547699
1763692623619757800,1.6227578125,-1.1012048721313477,2.4340736865997314,-0.23838314414024353
1763692623629344000,1.632343994140625,-0.7945595979690552,2.540360927581787,-0.22127941250801086
1763692623638930700,1.6419306640625,-0.5392253994941711,2.59167218208313,-0.09544488787651062
1763692623648516900,1.651516845703125,-0.32665055990219116,2.027249336242676,0.14889401197433472
1763692623658102000,1.66110205078125,-0.19959434866905212,1.4603830575942993,0.3333698809146881
1763692623667688200,1.670688232421875,-0.2411319613456726,1.6485240459442139,0.24540787935256958
1763692623677275100,1.680275146484375,-0.35474956035614014,1.8452168703079224,0.05604523420333862
1763692623686861000,1.689861083984375,-0.6015318632125854,1.8232263326644897,-0.09544488787651062
1763692623696446500,1.699446533203125,-0.7383615970611572,1.616760015487671,-0.2029540091753006
1763692623706032400,1.709032470703125,-0.7860077023506165,1.2661336660385132,-0.282364159822464
1763692623715619300,1.718619384765625,-0.8055548071861267,0.867861270904541,-0.256708562374115
1763692623725205200,1.728205322265625,-0.8067765235900879,0.6858287453651428,-0.19928891956806183
1763692623734790700,1.737790771484375,-0.816550076007843,0.710262656211853,-0.09910997003316879
1763692623744376800,1.747376953125,-0.7872294187545776,1.0816577672958374,0.07314895838499069
1763692623753963800,1.7569638671875,-0.8874083757400513,1.542236566543579,0.34314343333244324
1763692623763549700,1.7665498046875,-1.070662498474121,1.9234052896499634,0.5593833923339844
1763692623773135000,1.776135009765625,-1.1464076042175293,2.160413980484009,0.7598940134048462
1763692623782721000,1.785720947265625,-1.047450304031372,2.4316301345825195,0.9370396733283997
1763692623792308000,1.795307861328125,-0.8935168385505676,2.577011823654175,1.1019684076309204
1763692623801894100,1.80489404296875,-0.7798992395401001,2.4890499114990234,1.156944751739502
1763692623811479300,1.814479248046875,-0.6858287453651428,2.291135311126709,1.0506572723388672
1763692623821065500,1.8240654296875,-0.6369609832763672,2.048018217086792,0.8344173431396484
1763692623830652200,1.833652099609375,-0.6662816405296326,1.912410020828247,0.561826765537262
1763692623840238300,1.84323828125,-0.8141067028045654,1.6729578971862793,0.3443651497364044
1763692623849823500,1.852823486328125,-0.9130639433860779,1.4249539375305176,0.2515163719654083
1763692623859409700,1.86240966796875,-0.9900307059288025,1.3638691902160645,0.25029465556144714
1763692623868996600,1.87199658203125,-0.9863656163215637,1.5483450889587402,0.24052110314369202
1763692623878582500,1.88158251953125,-0.9374978542327881,1.2978976964950562,0.5007420182228088
1763692623888168000,1.89116796875,-0.8654178380966187,1.1317472457885742,0.7146912813186646
1763692623897754000,1.900754150390625,-0.7456917762756348,0.8788564801216125,0.8771766424179077
1763692623907340800,1.9103408203125,-0.6320741772651672,0.7811209559440613,0.9517000317573547
1763692623916927000,1.919927001953125,-0.5050179958343506,0.9081771373748779,1.0066763162612915
1763692623926512000,1.92951220703125,-0.3706315755844116,0.9717052578926086,1.1215155124664307
1763692623936098300,1.939098388671875,-0.2838912606239319,0.9521581530570984,1.281557559967041
1763692623945685200,1.948685302734375,-0.24846212565898895,1.0413419008255005,1.4452645778656006
1763692623955271200,1.958271240234375,-0.23624517023563385,1.1158652305603027,1.563768982887268
1763692623964856600,1.967856689453125,-0.2826695740222931,1.1073133945465088,1.6175235509872437
1763692623974442500,1.9774423828125,-0.39140036702156067,0.9949174523353577,1.6077499389648438
1763692623984029400,1.987029541015625,-0.557550847530365,0.8312104344367981,1.5014625787734985
1763692623993615600,1.99661572265625,-0.7249229550361633,0.8043331503868103,1.2778924703598022
1763692624003200800,2.00620068359375,-0.8336538076400757,0.9558232426643372,1.0262234210968018
1763692624012787000,2.015786865234375,-0.8580876588821411,1.2307045459747314,0.8319739699363708
1763692624022374000,2.025373779296875,-0.718814492225647,1.5092508792877197,0.7440119385719299
1763692624031959800,2.034959716796875,-0.4268295168876648,1.644858956336975,0.8050966858863831
1763692624041545200,2.044545166015625,-0.11896250396966934,1.6008780002593994,0.9700254201889038
1763692624051131100,2.054131103515625,0.15591876208782196,1.3504306077957153,1.2143644094467163
1763692624060718000,2.063718017578125,0.34039464592933655,1.095096468925476,1.4819154739379883
1763692624070304000,2.073303955078125,0.40636613965034485,0.7322531342506409,1.7274760007858276
1763692624079889400,2.082889404296875,0.39170581102371216,0.33764582872390747,1.9376075267791748
1763692624089475600,2.0924755859375,0.3489464819431305,0.06154286116361618,2.0927627086639404
1763692624099062500,2.1020625,0.2915268540382385,0.06398624926805496,2.15506911277771
1763692624108648400,2.1116484375,0.20722992718219757,0.2582356929779053,2.0781023502349854
1763692624118233600,2.121233642578125,0.10827267915010452,0.3987305462360382,1.9046217203140259
1763692624127819800,2.13081982421875,-0.010231691412627697,0.6540647149085999,1.7482448816299438
1763692624137406700,2.14040673828125,-0.1250709742307663,0.9057337641716003,1.637070655822754
1763692624146992600,2.14999267578125,-0.3217637836933136,1.0877662897109985,1.549108624458313
1763692624156578000,2.159578125,-0.5465555787086487,1.1574028730392456,1.456259846687317
1763692624166164000,2.1691640625,-0.7175928354263306,1.112200140953064,1.3609676361083984
1763692624175751000,2.1787509765625,-0.848314106464386,1.0645540952682495,1.2339115142822266
1763692624185337000,2.188337158203125,-0.9191724061965942,1.0352333784103394,1.0714260339736938
1763692624194922200,2.197922119140625,-0.8776348233222961,0.977813720703125,0.8918370008468628
1763692624204508400,2.20750830078125,-0.7371399402618408,0.8593093752861023,0.7281299233436584
1763692624214095400,2.217095458984375,-0.5233433842658997,0.7127060294151306,0.5935907959938049
1763692624223681300,2.226681396484375,-0.24846212565898895,0.5966450572013855,0.48608171939849854
1763692624233266700,2.2362666015625,0.05207473039627075,0.5074613690376282,0.4030064642429352
1763692624242852900,2.245852783203125,0.3379512429237366,0.4158342778682709,0.3382566571235657
1763692624252439600,2.255439453125,0.5590779781341553,0.3071034550666809,0.2796153426170349
1763692624262025700,2.265025634765625,0.6800256967544556,0.15927842259407043,0.21853061020374298
1763692624271611000,2.27461083984375,0.7105680704116821,-0.03008422814309597,0.14278554916381836
1763692624281197000,2.284197021484375,0.6812474131584167,-0.22677704691886902,0.041384901851415634
1763692624290784000,2.293783935546875,0.6409314870834351,-0.3965925872325897,-0.0856713280081749
1763692624300370000,2.303369873046875,0.6274928450584412,-0.5309789776802063,-0.22372281551361084
1763692624309955300,2.312955322265625,0.6507050395011902,-0.6189410090446472,-0.3507790267467499
1763692624319541200,2.322541259765625,0.7105680704116821,-0.6519267559051514,-0.4509579837322235
1763692624329128200,2.332128173828125,0.7887565493583679,-0.6409314870834351,-0.5144860744476318
1763692624338714000,2.341714111328125,0.858393132686615,-0.6067240238189697,-0.5401417016983032
1763692624348299500,2.351299560546875,0.8926005363464355,-0.5590779781341553,-0.5425850749015808
1763692624357885700,2.3608857421875,0.8852704167366028,-0.5126535892486572,-0.5328115224838257
1763692624367472400,2.370472412109375,0.8364025950431824,-0.47355934977531433,-0.5254813432693481
1763692624377058600,2.38005859375,0.7496622800827026,-0.4369085133075714,-0.5132644176483154
1763692624386644000,2.38964404296875,0.645818293094635,-0.4002576768398285,-0.4937172830104828
1763692624396230000,2.39922998046875,0.5370874404907227,-0.36360684037208557,-0.47417017817497253
1763692624405816800,2.40881689453125,0.4283566474914551,-0.3367295563220978,-0.4546230733394623
1763692624415402800,2.41840283203125,0.3184041380882263,-0.3110739588737488,-0.4399627447128296
1763692624424988200,2.42798828125,0.2170034945011139,-0.27442312240600586,-0.4289674758911133
1763692624434574300,2.43757421875,0.13392825424671173,-0.22433365881443024,-0.4155288338661194
1763692624444161000,2.4471611328125,0.07040014863014221,-0.1498102843761444,-0.3984251320362091
1763692624453747200,2.456747314453125,0.02641914412379265,-0.04963133856654167,-0.3739912211894989
1763692624463332400,2.466332275390625,-0.0004581354442052543,0.05665608495473862,-0.33978378772735596
1763692624472918500,2.47591845703125,-0.021226942539215088,0.16050012409687042,-0.30191126465797424
1763692624482505500,2.48550537109375,-0.04688252881169319,0.25090551376342773,-0.26037365198135376
1763692624492091400,2.49509130859375,-0.08108997344970703,0.31199023127555847,-0.21883602440357208
1763692624501676800,2.5046767578125,-0.11651911586523056,0.34008920192718506,-0.18340688943862915
1763692624511263000,2.514262939453125,-0.15316994488239288,0.33886751532554626,-0.15408621728420258
1763692624520849700,2.523849609375,-0.19715094566345215,0.31687700748443604,-0.13331741094589233
1763692624530435800,2.533435791015625,-0.25090551376342773,0.28877803683280945,-0.12354385852813721
1763692624540021000,2.54302099609375,-0.30221667885780334,0.2680092453956604,-0.125987246632576
1763692624549607200,2.552607177734375,-0.34375429153442383,0.2570139765739441,-0.13453911244869232
1763692624568780000,2.571780029296875,-0.376740038394928,0.27656111121177673,-0.16019469499588013
1763692624578365400,2.581365478515625,-0.3706315755844116,0.2826695740222931,-0.16874656081199646
1763692624587951400,2.590951416015625,-0.35352784395217896,0.2826695740222931,-0.17241163551807404
1763692624597538300,2.600538330078125,-0.32542887330055237,0.2802261710166931,-0.1760767251253128
1763692624607124500,2.61012451171875,-0.2838912606239319,0.27656111121177673,-0.18585027754306793
1763692624616709600,2.619709716796875,-0.23380178213119507,0.2692309319972992,-0.20051060616970062
1763692624626295800,2.6292958984375,-0.17882554233074188,0.2570139765739441,-0.2163926362991333
1763692624635882500,2.638882568359375,-0.12751436233520508,0.2301367074251175,-0.22738789021968842
1763692624645468700,2.64846875,-0.08719844371080399,0.19470755755901337,-0.23105297982692719
1763692624655054000,2.65805419921875,-0.06032116711139679,0.1519482582807541,-0.22738789021968842
1763692624664640000,2.667639892578125,-0.04199574887752533,0.0981936976313591,-0.22005772590637207
1763692624674227000,2.67722705078125,-0.03588727489113808,0.04077405482530594,-0.20661908388137817
1763692624683812900,2.686812744140625,-0.04321744292974472,-0.009315420873463154,-0.1882936656475067
1763692624693398300,2.696398193359375,-0.06032116711139679,-0.04352286830544472,-0.16752485930919647
1763692624702984400,2.705984375,-0.08719844371080399,-0.07040014863014221,-0.14431266486644745
1763692624712571100,2.715571044921875,-0.111632339656353,-0.08261708915233612,-0.125987246632576
1763692624722157300,2.7251572265625,-0.12751436233520508,-0.08017370104789734,-0.11621369421482086
1763692624731742500,2.734742431640625,-0.13362284004688263,-0.06673506647348404,-0.11254860460758209
1763692624741328600,2.74432861328125,-0.13240113854408264,-0.05085303261876106,-0.1113269105553627
1763692624750915600,2.75391552734375,-0.12873606383800507,-0.02886253222823143,-0.11010521650314331
1763692624760501500,2.76350146484375,-0.12018419802188873,0.009009997360408306,-0.10888352245092392
1763692624770087000,2.7730869140625,-0.1104106456041336,0.04321744292974472,-0.10766182839870453
1763692624779672800,2.7826728515625,-0.10308047384023666,0.06276455521583557,-0.10155335813760757
1763692624789259800,2.792259765625,-0.09697200357913971,0.07498150318861008,-0.09422318637371063
1763692624798846000,2.801845947265625,-0.09452861547470093,0.07620319724082947,-0.09055810421705246
1763692624808431000,2.81143115234375,-0.09086353331804276,0.06398624926805496,-0.09177979826927185
1763692624818017300,2.821017333984375,-0.08842013776302338,0.037108972668647766,-0.0978882759809494
1763692624827604200,2.830604248046875,-0.0847550556063652,0.007788302376866341,-0.11010521650314331
1763692624837190100,2.840190185546875,-0.07375980913639069,-0.0068720318377017975,-0.12720894813537598
1763692624846775600,2.849775634765625,-0.04932591691613197,0.0004581354442052543,-0.14675605297088623
1763692624856361700,2.85936181640625,-0.01511846948415041,0.02367033064365387,-0.16630317270755768
1763692624865948400,2.868948486328125,0.020310672000050545,0.04932591691613197,-0.18096350133419037
1763692624875534600,2.87853466796875,0.04718795046210289,0.06520794332027435,-0.18462859094142914
1763692624885119700,2.88811962890625,0.06306997686624527,0.06642963737249374,-0.1785201132297516
1763692624894706000,2.897705810546875,0.06917845457792282,0.052990999072790146,-0.1638597846031189
1763692624904292900,2.90729296875,0.06795676052570343,0.028557108715176582,-0.14431266486644745
1763692624913878800,2.916878662109375,0.06673506647348404,0.013896775431931019,-0.12110047042369843
1763692624923464200,2.926464111328125,0.06551336497068405,0.012675080448389053,-0.09910997003316879
1763692624933050000,2.936050048828125,0.06306997686624527,0.013896775431931019,-0.07589777559041977
1763692624942637000,2.945636962890625,0.055739812552928925,0.0261137206107378,-0.05024218559265137
1763692624952223000,2.955222900390625,0.04352286830544472,0.04932591691613197,-0.023364907130599022
1763692624961808400,2.964808349609375,0.022754060104489326,0.07498150318861008,0.0010689827613532543
1763692624971394600,2.97439453125,-0.0065666078589856625,0.08353336155414581,0.030389651656150818
1763692624980981200,2.983981201171875,-0.04443913698196411,0.07742489129304886,0.0584886260330677
1763692624990567400,2.9935673828125,-0.08108997344970703,0.06520794332027435,0.08170082420110703
1763692625000152600,3.003152587890625,-0.1104106456041336,0.04688252881169319,0.09636115282773972
1763692625009738800,3.01273876953125,-0.12629267573356628,0.020005248486995697,0.10002623498439789
1763692625019325700,3.02232568359375,-0.1250709742307663,-0.022754060104489326,0.09636115282773972
1763692625028911600,3.03191162109375,-0.10552386194467545,-0.07528692483901978,0.09269607067108154
1763692625038497000,3.0414970703125,-0.0713164210319519,-0.13148486614227295,0.09269607067108154
1763692625048083200,3.051083251953125,-0.028557108715176582,-0.18768282234668732,0.10002623498439789
1763692625057670000,3.060669921875,0.016645587980747223,-0.22555534541606903,0.10979979485273361
1763692625067256000,3.070256103515625,0.055739812552928925,-0.252432644367218,0.11957334727048874
1763692625076841200,3.07984130859375,0.09483403712511063,-0.27442312240600586,0.1256818175315857
1763692625086427400,3.089427490234375,0.13514995574951172,-0.28664007782936096,0.1244601309299469
1763692625096014300,3.099014404296875,0.1766875684261322,-0.2927485406398773,0.12079504877328873
1763692625105600300,3.108600341796875,0.21822518110275269,-0.30130040645599365,0.11712995916604996
1763692625115185700,3.118185546875,0.2560977041721344,-0.30985227227211,0.111021488904953
1763692625124771800,3.127771728515625,0.28786176443099976,-0.3196258246898651,0.0975828468799591
1763692625134358500,3.137358642578125,0.3061871826648712,-0.3171824514865875,0.07314895838499069
1763692625143944700,3.14694482421875,0.3086305856704712,-0.2951919436454773,0.041384901851415634
1763692625153529900,3.15652978515625,0.28908345103263855,-0.2585411071777344,0.008399149402976036
1763692625163116000,3.166115966796875,0.2426590770483017,-0.22677704691886902,-0.01847812905907631
1763692625172703000,3.175702880859375,0.17913095653057098,-0.19623468816280365,-0.04046862944960594
1763692625182289000,3.185288818359375,0.1119377613067627,-0.15714046359062195,-0.0587940476834774
1763692625191874300,3.194874267578125,0.04352286830544472,-0.1253764033317566,-0.06978929787874222
1763692625201460200,3.204460205078125,-0.021226942539215088,-0.10338589549064636,-0.06978929787874222
1763692625211047200,3.214047119140625,-0.0725381150841713,-0.08750387281179428,-0.05390727147459984
1763692625220633000,3.223633056640625,-0.10796725004911423,-0.06673506647348404,-0.023364907130599022
1763692625230218500,3.233218505859375,-0.12751436233520508,-0.037414394319057465,0.01695101149380207
1763692625239804700,3.2428046875,-0.1385096162557602,-0.009315420873463154,0.06704048812389374
1763692625249391400,3.252391357421875,-0.14583978056907654,0.011453386396169662,0.11712995916604996
1763692625258977500,3.2619775390625,-0.15439164638519287,0.013896775431931019,0.1623326539993286
1763692625268563000,3.27156298828125,-0.17027367651462555,-0.008093725889921188,0.19898349046707153
1763692625278148900,3.28114892578125,-0.1898207813501358,-0.0459662564098835,0.21975229680538177
1763692625287735800,3.29073583984375,-0.2032594233751297,-0.08872556686401367,0.22219568490982056
1763692625297321700,3.30032177734375,-0.20692451298236847,-0.12904147803783417,0.20997874438762665
1763692625306907100,3.3099072265625,-0.20081603527069092,-0.1620272397994995,0.18310146033763885
1763692625316493300,3.319493408203125,-0.18371231853961945,-0.18523943424224854,0.1501157134771347
1763692625326080000,3.329080078125,-0.15561333298683167,-0.19623468816280365,0.11590826511383057
1763692625335666200,3.338666259765625,-0.1238492801785469,-0.19623468816280365,0.08780929446220398
1763692625345251300,3.348251220703125,-0.09575030952692032,-0.1901262104511261,0.06948387622833252
1763692625354837500,3.35783740234375,-0.07620319724082947,-0.1889045089483261,0.06581879407167435
1763692625364424400,3.367424560546875,-0.06398624926805496,-0.19745637476444244,0.07925742864608765
1763692625374010400,3.37701025390625,-0.052990999072790146,-0.20722992718219757,0.10369132459163666
1763692625383595800,3.386595703125,-0.03955236077308655,-0.2157817929983139,0.13179029524326324
1763692625393181700,3.396181640625,-0.02489202655851841,-0.22066856920719147,0.15988926589488983
1763692625402768600,3.4057685546875,-0.01511846948415041,-0.21333840489387512,0.18554484844207764
1763692625412354800,3.415354736328125,-0.013896775431931019,-0.19501298666000366,0.20509196817874908
1763692625421940000,3.42493994140625,-0.02367033064365387,-0.17057909071445465,0.217308908700943
1763692625431526100,3.434526123046875,-0.03955236077308655,-0.1388150453567505,0.21975229680538177
1763692625441113000,3.444113037109375,-0.06520794332027435,-0.10338589549064636,0.21364383399486542
1763692625450699000,3.453698974609375,-0.09452861547470093,-0.06429167091846466,0.2026485800743103
1763692625460284400,3.463284423828125,-0.1250709742307663,-0.02764083817601204,0.18676654994487762
1763692625469870600,3.47287060546875,-0.1507265567779541,0.0004581354442052543,0.17088451981544495
1763692625479457300,3.482457275390625,-0.17027367651462555,0.021226942539215088,0.15378080308437347
1763692625489043500,3.49204345703125,-0.1776038408279419,0.032222192734479904,0.1391204595565796
1763692625498628600,3.501628662109375,-0.17149536311626434,0.032222192734479904,0.12812520563602448
1763692625508214800,3.51121484375,-0.15316994488239288,0.02733541466295719,0.12201674282550812
1763692625517801700,3.5208017578125,-0.12629267573356628,0.016340164467692375,0.12323843687772751
1763692625527387600,3.5303876953125,-0.09575030952692032,-0.0007635590736754239,0.12812520563602448
1763692625536972800,3.539972900390625,-0.06398624926805496,-0.021532366052269936,0.13301199674606323
1763692625546559000,3.54955908203125,-0.033443886786699295,-0.04230117425322533,0.13301199674606323
1763692625556146000,3.55914599609375,-0.005344913341104984,-0.06184828653931618,0.1256818175315857
1763692625565731800,3.56873193359375,0.019088976085186005,-0.07895200699567795,0.10979979485273361
1763692625575317200,3.578317138671875,0.037414394319057465,-0.09361234307289124,0.08658760040998459
1763692625584903400,3.5879033203125,0.04963133856654167,-0.11682453751564026,0.060932014137506485
1763692625594490000,3.597489990234375,0.0594048947095871,-0.14736689627170563,0.03527642786502838
1763692625604076300,3.607076171875,0.07650861889123917,-0.18035265803337097,0.012064233422279358
1763692625613661400,3.616661376953125,0.10094250738620758,-0.2145601063966751,-0.006261184345930815
1763692625623247600,3.62624755859375,0.13514995574951172,-0.252432644367218,-0.02214321307837963
1763692625632834600,3.63583447265625,0.1766875684261322,-0.28541839122772217,-0.03436015918850899
1763692625642420500,3.64542041015625,0.21944688260555267,-0.30740886926651,-0.03924693539738655
1763692625652006000,3.655005859375,0.24876753985881805,-0.3208475112915039,-0.03680354729294777
1763692625661592000,3.664592041015625,0.26342788338661194,-0.32573428750038147,-0.03436015918850899
1763692625671178800,3.6741787109375,0.2683146595954895,-0.31473904848098755,-0.0331384651362896
1763692625680765000,3.683764892578125,0.26342788338661194,-0.28908345103263855,-0.03558185324072838
1763692625690350000,3.69335009765625,0.24021568894386292,-0.25976279377937317,-0.03802524134516716
1763692625699936300,3.702936279296875,0.19501298666000366,-0.23166382312774658,-0.03680354729294777
1763692625709523200,3.712523193359375,0.12659808993339539,-0.21822518110275269,-0.029473381116986275
1763692625719109000,3.722109130859375,0.04230117425322533,-0.22066856920719147,-0.01725643500685692
1763692625728694500,3.731694580078125,-0.03955236077308655,-0.23899398744106293,-0.001374406274408102
1763692625738280700,3.74128076171875,-0.10430216789245605,-0.26220619678497314,0.01817270554602146
1763692625747867400,3.750867431640625,-0.14461809396743774,-0.27197974920272827,0.04016320779919624
1763692625757453600,3.76045361328125,-0.15927842259407043,-0.2695363461971283,0.06948387622833252
1763692625767038700,3.770038818359375,-0.1629435122013092,-0.2536543309688568,0.10369132459163666
1763692625776625000,3.779625,-0.16172181069850922,-0.22433365881443024,0.14400723576545715
1763692625786211800,3.7892119140625,-0.16050012409687042,-0.1779092699289322,0.1769929975271225
1763692625795797800,3.7987978515625,-0.16660858690738678,-0.1253764033317566,0.19898349046707153
1763692625805383200,3.808383056640625,-0.18249061703681946,-0.07406523078680038,0.20753535628318787
1763692625814969000,3.817968994140625,-0.21425467729568481,-0.03008422814309597,0.2026485800743103
1763692625824556000,3.82755615234375,-0.2570139765739441,-0.0032069480512291193,0.18554484844207764
1763692625834142200,3.83714208984375,-0.2973299026489258,0.01511846948415041,0.15988926589488983
1763692625843727400,3.846727294921875,-0.32542887330055237,0.03833066672086716,0.12812520563602448
1763692625853313500,3.8563134765625,-0.34131091833114624,0.052990999072790146,0.09636115282773972
1763692625862900500,3.865900390625,-0.34008920192718506,0.0590994730591774,0.06948387622833252
1763692625872486400,3.875486328125,-0.3229855000972748,0.05665608495473862,0.05115845799446106
1763692625882071600,3.885071533203125,-0.28877803683280945,0.04443913698196411,0.04504998400807381
1763692625891657700,3.89465771484375,-0.24601873755455017,0.016340164467692375,0.04749337583780289
1763692625901244700,3.90424462890625,-0.19837264716625214,-0.02764083817601204,0.05726693198084831
1763692625910830600,3.91383056640625,-0.1507265567779541,-0.08750387281179428,0.0719272643327713
1763692625920416000,3.923416015625,-0.10796725004911423,-0.15714046359062195,0.08780929446220398
1763692625930002200,3.933002197265625,-0.06398624926805496,-0.23288552463054657,0.10124793648719788
1763692625939588900,3.9425888671875,-0.021226942539215088,-0.3049654960632324,0.11468657106161118
1763692625949175000,3.952175048828125,0.016645587980747223,-0.36360684037208557,0.1256818175315857
1763692625958760200,3.96176025390625,0.04107947647571564,-0.40514445304870605,0.14034216105937958
1763692625968346400,3.971346435546875,0.04474456235766411,-0.4405735731124878,0.1635543555021286
1763692625977933300,3.980933349609375,0.02886253222823143,-0.4662291705608368,0.19287502765655518
1763692625987519200,3.990519287109375,-0.005344913341104984,-0.48455458879470825,0.22463907301425934
1763692625997104600,4.000104736328125,-0.04321744292974472,-0.4894413650035858,0.25029465556144714
1763692626006690800,4.00969091796875,-0.0725381150841713,-0.4784461259841919,0.2698417901992798
1763692626016277500,4.019277587890625,-0.08842013776302338,-0.45889899134635925,0.2845021188259125
1763692626025863700,4.02886376953125,-0.0981936976313591,-0.43446511030197144,0.30160582065582275
1763692626035448800,4.03844873046875,-0.10552386194467545,-0.4112529158592224,0.32603973150253296
1763692626045035000,4.048034912109375,-0.111632339656353,-0.3868190348148346,0.3578037917613983
1763692626054622000,4.0576220703125,-0.11774080991744995,-0.35383328795433044,0.39567631483078003
1763692626064208000,4.067207763671875,-0.1238492801785469,-0.31229567527770996,0.43477052450180054
1763692626073793300,4.076793212890625,-0.13973131775856018,-0.2793098986148834,0.47386476397514343
1763692626083379500,4.08637939453125,-0.17393875122070312,-0.2707580327987671,0.5092939138412476
1763692626092966100,4.095966064453125,-0.22158484160900116,-0.27686652541160583,0.5349494814872742
1763692626102552300,4.10555224609375,-0.2692309319972992,-0.28908345103263855,0.5422796607017517
1763692626112137500,4.115137451171875,-0.3083251416683197,-0.2939702570438385,0.530062735080719
1763692626121723600,4.1247236328125,-0.33764582872390747,-0.28786176443099976,0.50685054063797
1763692626131310600,4.134310546875,-0.3596363365650177,-0.27808821201324463,0.4799732267856598
1763692626140896500,4.143896484375,-0.36818817257881165,-0.2536543309688568,0.453095942735672
1763692626150482000,4.15348193359375,-0.3633013963699341,-0.20845162868499756,0.43477052450180054
1763692626160068000,4.163068115234375,-0.3486410677433014,-0.14492350816726685,0.4225535988807678
1763692626169654800,4.17265478515625,-0.32787227630615234,-0.07528692483901978,0.41766682267189026
1763692626179241000,4.182240966796875,-0.30221667885780334,0.0029015245381742716,0.4164451062679291
1763692626188826000,4.191826171875,-0.27289602160453796,0.08231166750192642,0.4127800464630127
1763692626198412300,4.201412353515625,-0.2423536479473114,0.1385096162557602,0.40667155385017395
1763692626207999200,4.210999267578125,-0.21058958768844604,0.16660858690738678,0.39445462822914124
1763692626217585200,4.220585205078125,-0.17393875122070312,0.1763821393251419,0.372464120388031
1763692626227170300,4.23017041015625,-0.12262758612632751,0.17882554233074188,0.33947837352752686
1763692626236756500,4.239756591796875,-0.06154286116361618,0.17393875122070312,0.2942756712436676
1763692626246343400,4.249343505859375,0.001985253533348441,0.17149536311626434,0.24052110314369202
1763692626255929300,4.258929443359375,0.06917845457792282,0.16905197501182556,0.18187977373600006
1763692626265514800,4.2685146484375,0.1363716572523117,0.15316994488239288,0.12079504877328873
1763692626275101000,4.278100830078125,0.19623468816280365,0.11774080991744995,0.06337540596723557
1763692626284687600,4.2876875,0.2560977041721344,0.08108997344970703,0.014507622458040714
1763692626294273800,4.297273681640625,0.3232909142971039,0.052990999072790146,-0.023364907130599022
1763692626303859200,4.306859130859375,0.39292749762535095,0.02489202655851841,-0.047798797488212585
1763692626313445000,4.316445068359375,0.46134239435195923,-0.001985253533348441,-0.05757235363125801
1763692626323032000,4.326031982421875,0.5224271416664124,-0.03374931216239929,-0.051463883370161057
1763692626332618000,4.335617919921875,0.5688515305519104,-0.07895200699567795,-0.028251685202121735
1763692626342203400,4.345203369140625,0.603058934211731,-0.13026317954063416,0.010842538438737392
1763692626351789600,4.35478955078125,0.6238277554512024,-0.18523943424224854,0.06337540596723557
1763692626361376300,4.364376220703125,0.6201626658439636,-0.23899398744106293,0.1244601309299469
1763692626370962400,4.37396240234375,0.5847335457801819,-0.2829749882221222,0.18065807223320007
1763692626380547600,4.383547607421875,0.5260922312736511,-0.29885703325271606,0.2283041626214981
1763692626390133800,4.3931337890625,0.45889899134635925,-0.2695363461971283,0.26128992438316345
1763692626399720700,4.402720703125,0.39170581102371216,-0.2011214643716812,0.2832804024219513
1763692626409306600,4.412306640625,0.32573428750038147,-0.10216420143842697,0.3064926266670227
1763692626418892000,4.42189208984375,0.252432644367218,0.01511846948415041,0.3370349705219269
1763692626428478000,4.43147802734375,0.1656923145055771,0.12262758612632751,0.3736858069896698
1763692626438065000,4.44106494140625,0.06551336497068405,0.2166980654001236,0.40789327025413513
1763692626447651000,4.450651123046875,-0.04077405482530594,0.293664813041687,0.43110546469688416
1763692626457236200,4.460236328125,-0.14583978056907654,0.3364241421222687,0.43232715129852295
1763692626466822400,4.469822509765625,-0.23746687173843384,0.35352784395217896,0.4103366434574127
1763692626476409300,4.479409423828125,-0.3058817684650421,0.35597124695777893,0.3639122545719147
1763692626485995300,4.488995361328125,-0.3449759781360626,0.3486410677433014,0.30038413405418396
1763692626495580700,4.49858056640625,-0.35352784395217896,0.32787227630615234,0.2307475507259369
1763692626505166800,4.508166748046875,-0.34375429153442383,0.30099499225616455,0.1623326539993286
1763692626514753500,4.51775341796875,-0.32665055990219116,0.2533488869667053,0.0975828468799591
1763692626524339700,4.527339599609375,-0.3071034550666809,0.18371231853961945,0.03771981969475746
1763692626533924900,4.5369248046875,-0.28877803683280945,0.10063708573579788,-0.01847812905907631
1763692626543511000,4.546510986328125,-0.2667875289916992,0.012675080448389053,-0.07467607408761978
1763692626553098000,4.556097900390625,-0.23258009552955627,-0.07650861889123917,-0.1369825005531311
1763692626562684000,4.565683837890625,-0.18249061703681946,-0.15958385169506073,-0.20784078538417816
1763692626572269300,4.575269287109375,-0.11651911586523056,-0.23166382312774658,-0.28725093603134155
1763692626581855200,4.584855224609375,-0.037108972668647766,-0.2939702570438385,-0.36788275837898254
1763692626591442200,4.594442138671875,0.04840964451432228,-0.3452814221382141,-0.44607120752334595
1763692626601028000,4.604028076171875,0.13514995574951172,-0.37948885560035706,-0.5144860744476318
1763692626610613500,4.613613525390625,0.21822518110275269,-0.3880407214164734,-0.5706840753555298
1763692626620199700,4.62319970703125,0.2951919436454773,-0.3831539452075958,-0.6085565686225891
1763692626629786600,4.63278662109375,0.3623851239681244,-0.36360684037208557,-0.6281036734580994
1763692626639372500,4.64237255859375,0.40636613965034485,-0.3318427801132202,-0.6281036734580994
1763692626648957700,4.651957763671875,0.42102646827697754,-0.28664007782936096,-0.6085565686225891
1763692626658543900,4.6615439453125,0.40514445304870605,-0.23288552463054657,-0.567018985748291
1763692626677716700,4.680716796875,0.2915268540382385,-0.14003673195838928,-0.43385425209999084
1763692626687302100,4.69030224609375,0.20845162868499756,-0.11315945535898209,-0.3458922505378723
1763692626696888000,4.69988818359375,0.11926792562007904,-0.09116895496845245,-0.24815669655799866
1763692626706475000,4.70947509765625,0.036192700266838074,-0.07773031294345856,-0.14797775447368622
1763692626716061200,4.719061279296875,-0.037108972668647766,-0.08750387281179428,-0.051463883370161057
1763692626725646300,4.728646240234375,-0.10063708573579788,-0.10216420143842697,0.030389651656150818
1763692626735232500,4.738232421875,-0.1519482582807541,-0.10460758954286575,0.09269607067108154
1763692626744819500,4.7478193359375,-0.1910424828529358,-0.10094250738620758,0.13301199674606323
1763692626754405400,4.7574052734375,-0.21914145350456238,-0.08994726091623306,0.15744587779045105
1763692626763990800,4.76699072265625,-0.23868857324123383,-0.0716218426823616,0.17454960942268372
1763692626773577000,4.776576904296875,-0.24846212565898895,-0.04718795046210289,0.18187977373600006
1763692626783163600,4.78616357421875,-0.2533488869667053,-0.03008422814309597,0.18187977373600006
1763692626792749800,4.795749755859375,-0.25212720036506653,-0.02764083817601204,0.17210622131824493
1763692626802335000,4.8053349609375,-0.2423536479473114,-0.036192700266838074,0.15378080308437347
1763692626811921200,4.814921142578125,-0.22158484160900116,-0.04718795046210289,0.12690351903438568
1763692626821508000,4.824508056640625,-0.1898207813501358,-0.06917845457792282,0.09391776472330093
1763692626831094000,4.834093994140625,-0.14706148207187653,-0.09972081333398819,0.06581879407167435
1763692626840679400,4.843679443359375,-0.0981936976313591,-0.12904147803783417,0.04504998400807381
1763692626850265300,4.853265380859375,-0.0456608310341835,-0.1498102843761444,0.03527642786502838
1763692626859852300,4.862852294921875,0.010537114925682545,-0.1620272397994995,0.03405473381280899
1763692626869438500,4.8724384765625,0.06673506647348404,-0.1656923145055771,0.03649812191724777
1763692626879023600,4.882023681640625,0.11682453751564026,-0.16813570261001587,0.041384901851415634
1763692626888609800,4.89160986328125,0.15836215019226074,-0.17057909071445465,0.04749337583780289
1763692626898196700,4.90119677734375,0.1901262104511261,-0.16935740411281586,0.05115845799446106
1763692626907782700,4.91078271484375,0.2157817929983139,-0.1620272397994995,0.05360184609889984
1763692626917368000,4.9203681640625,0.2279987335205078,-0.14858859777450562,0.05482354015111923
1763692626926954200,4.929954345703125,0.2292204350233078,-0.13514995574951172,0.05604523420333862
1763692626936541000,4.939541015625,0.21822518110275269,-0.11804623156785965,0.060932014137506485
1763692626946127000,4.949127197265625,0.19379130005836487,-0.08872556686401367,0.06826218217611313
1763692626955712300,4.958712158203125,0.15347537398338318,-0.05085303261876106,0.07925742864608765
1763692626965298400,4.96829833984375,0.09972081333398819,-0.01175880990922451,0.09147437661886215
1763692626974885400,4.977885498046875,0.039857782423496246,0.028557108715176582,0.10857810080051422
1763692626984471300,4.98747119140625,-0.02244863659143448,0.07375980913639069,0.12690351903438568
1763692626994056700,4.997056640625,-0.07498150318861008,0.10674555599689484,0.1501157134771347
1763692627003642600,5.006642578125,-0.10796725004911423,0.13362284004688263,0.17332790791988373
1763692627013229600,5.0162294921875,-0.1250709742307663,0.164165198802948,0.1916533261537552
1763692627022815700,5.025815673828125,-0.1360662281513214,0.1910424828529358,0.20020519196987152
1763692627032401000,5.03540087890625,-0.14217470586299896,0.21181128919124603,0.19409671425819397
1763692627041987000,5.044987060546875,-0.14461809396743774,0.2301367074251175,0.17088451981544495
1763692627051574000,5.054573974609375,-0.14583978056907654,0.23991025984287262,0.13301199674606323
1763692627061160000,5.064159912109375,-0.14706148207187653,0.23868857324123383,0.08170082420110703
1763692627070745300,5.073745361328125,-0.14461809396743774,0.23746687173843384,0.023059483617544174
1763692627080331300,5.083331298828125,-0.13484452664852142,0.23868857324123383,-0.03436015918850899
1763692627089918200,5.092918212890625,-0.12140589207410812,0.2423536479473114,-0.0844496339559555
1763692627099504000,5.102504150390625,-0.10308047384023666,0.2435753494501114,-0.1247655525803566
1763692627109089500,5.112089599609375,-0.08108997344970703,0.2411319613456726,-0.1516428291797638
1763692627118675500,5.121675537109375,-0.05543438717722893,0.2289150059223175,-0.17118994891643524
1763692627128262400,5.131262451171875,-0.02367033064365387,0.21425467729568481,-0.1907370537519455
1763692627137848600,5.1408486328125,0.017867282032966614,0.20692451298236847,-0.2151709496974945
1763692627147434000,5.15043408203125,0.06429167091846466,0.20570281147956848,-0.2518217861652374
1763692627157020000,5.16002001953125,0.1119377613067627,0.21181128919124603,-0.29946786165237427
1763692627166606800,5.16960693359375,0.15469707548618317,0.21914145350456238,-0.3581092059612274
1763692627176192800,5.17919287109375,0.19256959855556488,0.2313583940267563,-0.42041563987731934
1763692627185778200,5.188778076171875,0.22677704691886902,0.23746687173843384,-0.4766135811805725
1763692627195364400,5.1983642578125,0.2560977041721344,0.23746687173843384,-0.515707790851593
1763692627204951000,5.207950927734375,0.28541839122772217,0.23258009552955627,-0.5364766120910645
1763692627214537200,5.217537109375,0.31351736187934875,0.22647161781787872,-0.5352548956871033
1763692627224122400,5.227122314453125,0.3379512429237366,0.22158484160900116,-0.520594596862793
1763692627233708500,5.23670849609375,0.35627666115760803,0.2289150059223175,-0.49616068601608276
1763692627243295500,5.24629541015625,0.36360684037208557,0.24968381226062775,-0.46928340196609497
1763692627252881400,5.25588134765625,0.358720064163208,0.27533939480781555,-0.44729289412498474
1763692627262466800,5.265466796875,0.3452814221382141,0.30343836545944214,-0.43263256549835205
1763692627272053000,5.275052978515625,0.32695600390434265,0.3364241421222687,-0.4289674758911133
1763692627281639700,5.2846396484375,0.3061871826648712,0.3755183517932892,-0.43385425209999084
1763692627291225900,5.294225830078125,0.28664007782936096,0.4109475016593933,-0.4424061179161072
1763692627300811000,5.30381103515625,0.2707580327987671,0.44515493512153625,-0.4521796703338623
1763692627310397200,5.313397216796875,0.26098448038101196,0.47325390577316284,-0.4631749391555786
1763692627319984000,5.322984130859375,0.25976279377937317,0.4793623983860016,-0.46928340196609497
1763692627329570000,5.332570068359375,0.27197974920272827,0.47325390577316284,-0.47172680497169495
1763692627339155500,5.342155517578125,0.2939702570438385,0.4549284875392914,-0.46928340196609497
1763692627348741600,5.35174169921875,0.32817769050598145,0.43415969610214233,-0.4631749391555786
1763692627358328300,5.361328369140625,0.36849361658096313,0.4243861436843872,-0.4534013867378235
1763692627367914500,5.37091455078125,0.4088095426559448,0.4109475016593933,-0.4411844313144684
1763692627377499600,5.380499755859375,0.4381301999092102,0.39506545662879944,-0.4265241026878357
1763692627387085800,5.3900859375,0.4540122151374817,0.3742966651916504,-0.4106420576572418
1763692627396672800,5.3996728515625,0.45889899134635925,0.35108447074890137,-0.39476004242897034
1763692627406258700,5.4092587890625,0.44790375232696533,0.3352024257183075,-0.37765631079673767
1763692627415844000,5.418843994140625,0.4234698712825775,0.3352024257183075,-0.362995982170105
1763692627425430300,5.42843017578125,0.3953709006309509,0.3486410677433014,-0.3495573401451111
1763692627435017000,5.438016845703125,0.36849361658096313,0.3828485310077667,-0.33856210112571716
1763692627444603100,5.44760302734375,0.3452814221382141,0.43538138270378113,-0.32878854870796204
1763692627454188300,5.457188232421875,0.32695600390434265,0.49646610021591187,-0.3177932798862457
1763692627463774500,5.4667744140625,0.31229567527770996,0.557550847530365,-0.30435463786125183
1763692627473361400,5.476361328125,0.2976353168487549,0.6076403260231018,-0.28847262263298035
1763692627482947300,5.485947265625,0.28664007782936096,0.6394043564796448,-0.2701472043991089
1763692627492532700,5.49553271484375,0.2829749882221222,0.6455128192901611,-0.2530434727668762
1763692627502118700,5.50511865234375,0.2829749882221222,0.6345176100730896,-0.2420482337474823
1763692627511705600,5.51470556640625,0.28786176443099976,0.6137487888336182,-0.2408265322446823
1763692627521291800,5.524291748046875,0.30007871985435486,0.5856497883796692,-0.24815669655799866
1763692627530877000,5.533876953125,0.3171824514865875,0.5587725043296814,-0.2652604281902313
1763692627540463000,5.543463134765625,0.333064466714859,0.5270084738731384,-0.28602921962738037
1763692627550050000,5.553050048828125,0.34405970573425293,0.48791423439979553,-0.3080197274684906
1763692627559636000,5.562635986328125,0.3501681983470917,0.4500417113304138,-0.32512345910072327
1763692627569221400,5.572221435546875,0.35383328795433044,0.4146125912666321,-0.3348970115184784
1763692627578807300,5.581807373046875,0.35383328795433044,0.376740038394928,-0.3336753249168396
1763692627588394200,5.591394287109375,0.3501681983470917,0.3449759781360626,-0.3226800560951233
1763692627597980200,5.600980224609375,0.34283801913261414,0.3242071866989136,-0.3067980408668518
1763692627607565600,5.610565673828125,0.3306210935115814,0.2973299026489258,-0.28969430923461914
1763692627617151700,5.62015185546875,0.31351736187934875,0.2680092453956604,-0.27503398060798645
1763692627626738400,5.629738525390625,0.2939702570438385,0.2411319613456726,-0.26159533858299255
1763692627636324600,5.63932470703125,0.27442312240600586,0.22158484160900116,-0.254265159368515
1763692627645910000,5.648909912109375,0.26098448038101196,0.20814619958400726,-0.24937839806079865
1763692627655496000,5.658495849609375,0.252432644367218,0.21181128919124603,-0.24815669655799866
1763692627665083000,5.668082763671875,0.24754585325717926,0.22280654311180115,-0.2432699203491211
1763692627674668800,5.677668701171875,0.2438807636499405,0.23380178213119507,-0.22738789021968842
1763692627684254200,5.687254150390625,0.24021568894386292,0.2411319613456726,-0.2017323076725006
1763692627693840400,5.69684033203125,0.23532891273498535,0.23380178213119507,-0.16996824741363525
1763692627703427000,5.706427001953125,0.22189027070999146,0.20081603527069092,-0.13576079905033112
1763692627713013200,5.71601318359375,0.2011214643716812,0.14583978056907654,-0.10155335813760757
1763692627722598400,5.725598388671875,0.18279604613780975,0.07986827939748764,-0.06612421572208405
1763692627732184600,5.7351845703125,0.1754658818244934,0.021226942539215088,-0.030695075169205666
1763692627741771500,5.744771484375,0.1779092699289322,-0.014202198944985867,0.0035123717971146107
1763692627751357400,5.754357421875,0.19256959855556488,-0.02641914412379265,0.03649812191724777
1763692627760942800,5.76394287109375,0.21089501678943634,-0.019088976085186005,0.06581879407167435
1763692627770529000,5.773529052734375,0.22189027070999146,0.0016798300202935934,0.09391776472330093
1763692627780116000,5.783115966796875,0.21822518110275269,0.034665580838918686,0.12079504877328873
1763692627789702000,5.792701904296875,0.19256959855556488,0.06887302547693253,0.14522893726825714
1763692627799287000,5.802287109375,0.1510319858789444,0.10674555599689484,0.1647760421037674
1763692627808873200,5.811873291015625,0.09483403712511063,0.14461809396743774,0.1782146841287613
1763692627818460200,5.821460205078125,0.03374931216239929,0.17271706461906433,0.18310146033763885
1763692627828046000,5.831046142578125,-0.02367033064365387,0.18371231853961945,0.1782146841287613
1763692627837631500,5.840631591796875,-0.07742489129304886,0.17882554233074188,0.1623326539993286
1763692627847217700,5.8502177734375,-0.11651911586523056,0.16538690030574799,0.1391204595565796
1763692627856804400,5.859804443359375,-0.1372879147529602,0.1495048701763153,0.1122431829571724
1763692627866390500,5.869390625,-0.1372879147529602,0.12995775043964386,0.09025268256664276
1763692627875975700,5.8789755859375,-0.1238492801785469,0.111632339656353,0.07803573459386826
1763692627885561900,5.888561767578125,-0.10796725004911423,0.0847550556063652,0.07925742864608765
1763692627895148800,5.898148681640625,-0.09575030952692032,0.051769305020570755,0.09025268256664276
1763692627904734700,5.907734619140625,-0.08842013776302338,0.016340164467692375,0.10491301864385605
1763692627914320100,5.917320068359375,-0.08719844371080399,-0.004428642801940441,0.1122431829571724
1763692627923906000,5.926906005859375,-0.09086353331804276,-0.017867282032966614,0.10979979485273361
1763692627933493000,5.936492919921875,-0.09575030952692032,-0.020310672000050545,0.0975828468799591
1763692627943079200,5.9460791015625,-0.10063708573579788,-0.022754060104489326,0.07681404054164886
1763692627952664300,5.955664306640625,-0.09941539168357849,-0.012980503961443901,0.04504998400807381
1763692627962250500,5.96525048828125,-0.09086353331804276,0.005344913341104984,0.008399149402976036
1763692627971837400,5.97483740234375,-0.0713164210319519,0.029778804630041122,-0.0331384651362896
1763692627981423400,5.98442333984375,-0.0456608310341835,0.0456608310341835,-0.07345438003540039
1763692627991008800,5.9940087890625,-0.020005248486995697,0.0456608310341835,-0.10521844029426575
1763692628000595000,6.003594970703125,-0.0016798300202935934,0.028557108715176582,-0.1247655525803566
1763692628010181600,6.013181640625,0.0068720318377017975,-0.004428642801940441,-0.12965233623981476
1763692628019767800,6.022767822265625,0.014202198944985867,-0.04963133856654167,-0.12354385852813721
1763692628029353000,6.03235302734375,0.02764083817601204,-0.09116895496845245,-0.1113269105553627
1763692628038939100,6.041939208984375,0.04474456235766411,-0.1253764033317566,-0.09300149232149124
1763692628048526000,6.051526123046875,0.06551336497068405,-0.14736689627170563,-0.072232685983181
1763692628058112000,6.061112060546875,0.08750387281179428,-0.15469707548618317,-0.045355409383773804
1763692628067697400,6.070697509765625,0.10705098509788513,-0.14125843346118927,-0.016034740954637527
1763692628077283600,6.08028369140625,0.11438114941120148,-0.10338589549064636,0.01817270554602146
1763692628086870300,6.089870361328125,0.10216420143842697,-0.06429167091846466,0.0584886260330677
1763692628096456400,6.09945654296875,0.06795676052570343,-0.036192700266838074,0.10369132459163666
1763692628106041600,6.10904150390625,0.012980503961443901,-0.022754060104489326,0.1513374149799347
1763692628115627800,6.118627685546875,-0.05543438717722893,-0.021532366052269936,0.19287502765655518
1763692628125214700,6.128214599609375,-0.1250709742307663,-0.021532366052269936,0.22586077451705933
1763692628134800600,6.137800537109375,-0.18615570664405823,-0.017867282032966614,0.2441861927509308
1763692628144386000,6.147385986328125,-0.23380178213119507,-0.014202198944985867,0.2539597451686859
1763692628153972000,6.156971923828125,-0.27411770820617676,-0.008093725889921188,0.2564031481742859
1763692628163559000,6.166558837890625,-0.3058817684650421,-0.004428642801940441,0.2576248347759247
1763692628173145000,6.17614501953125,-0.32909396290779114,-0.001985253533348441,0.26128992438316345
1763692628182730200,6.185730224609375,-0.3486410677433014,-0.004428642801940441,0.2686200737953186
1763692628192316400,6.19531640625,-0.3608580231666565,-0.012980503961443901,0.2796153426170349
1763692628201903400,6.2049033203125,-0.36452311277389526,-0.02641914412379265,0.2930539846420288
1763692628211489300,6.2144892578125,-0.36574479937553406,-0.0459662564098835,0.30160582065582275
1763692628221074700,6.22407470703125,-0.36574479937553406,-0.06917845457792282,0.30160582065582275
1763692628230660600,6.23366064453125,-0.3620797097682953,-0.0984991192817688,0.29061058163642883
1763692628240247600,6.24324755859375,-0.35230615735054016,-0.1253764033317566,0.2673983871936798
1763692628249833700,6.252833740234375,-0.3339807391166687,-0.1498102843761444,0.23441264033317566
1763692628259419000,6.2624189453125,-0.31199023127555847,-0.17424418032169342,0.20020519196987152
1763692628269005000,6.272005126953125,-0.2924431264400482,-0.1889045089483261,0.16721943020820618
1763692628278592000,6.281592041015625,-0.2814478874206543,-0.19379130005836487,0.1366770714521408
1763692628288178000,6.291177978515625,-0.2777827978134155,-0.19501298666000366,0.10857810080051422
1763692628297763300,6.300763427734375,-0.27656111121177673,-0.1901262104511261,0.07803573459386826
1763692628307349500,6.310349609375,-0.27533939480781555,-0.17302247881889343,0.04504998400807381
1763692628316936200,6.319936279296875,-0.2680092453956604,-0.15469707548618317,0.012064233422279358
1763692628326522400,6.3295224609375,-0.25212720036506653,-0.14614520967006683,-0.014813045971095562
1763692628336107500,6.339107421875,-0.22280654311180115,-0.1375933438539505,-0.030695075169205666
1763692628345693700,6.348693603515625,-0.18371231853961945,-0.1363716572523117,-0.03436015918850899
1763692628355280600,6.35828076171875,-0.13484452664852142,-0.1375933438539505,-0.023364907130599022
1763692628364866600,6.367866455078125,-0.0859767496585846,-0.14614520967006683,0.0035123717971146107
1763692628374452000,6.377451904296875,-0.04810422286391258,-0.15958385169506073,0.041384901851415634
1763692628384038100,6.3870380859375,-0.0261137206107378,-0.16935740411281586,0.08292251825332642
1763692628393624800,6.396624755859375,-0.020005248486995697,-0.17057909071445465,0.11712995916604996
1763692628403211000,6.4062109375,-0.02489202655851841,-0.1644706279039383,0.1378987729549408
1763692628412796200,6.415796142578125,-0.04321744292974472,-0.16080553829669952,0.14522893726825714
1763692628422382300,6.42538232421875,-0.07009471952915192,-0.15714046359062195,0.1391204595565796
1763692628431969300,6.43496923828125,-0.10185877978801727,-0.15469707548618317,0.12690351903438568
1763692628441555200,6.44455517578125,-0.11774080991744995,-0.15591876208782196,0.10979979485273361
1763692628451140600,6.454140625,-0.10552386194467545,-0.1510319858789444,0.09513945877552032
1763692628460726800,6.463726806640625,-0.06765133142471313,-0.14248012006282806,0.08780929446220398
1763692628470313500,6.4733134765625,-0.0065666078589856625,-0.11804623156785965,0.0853659063577652
1763692628479899600,6.482899658203125,0.0594048947095871,-0.08872556686401367,0.08658760040998459
1763692628489484800,6.49248486328125,0.1107160672545433,-0.06917845457792282,0.09147437661886215
1763692628499071000,6.502071044921875,0.14125843346118927,-0.06184828653931618,0.0988045409321785
1763692628508658000,6.511657958984375,0.15469707548618317,-0.08261708915233612,0.10369132459163666
1763692628518243800,6.521243896484375,0.15958385169506073,-0.1253764033317566,0.10246963053941727
1763692628527829200,6.530829345703125,0.16935740411281586,-0.1644706279039383,0.09269607067108154
1763692628537415400,6.54041552734375,0.1901262104511261,-0.2011214643716812,0.07314895838499069
1763692628547002000,6.550002197265625,0.22555534541606903,-0.22189027070999146,0.04504998400807381
1763692628556588300,6.55958837890625,0.2695363461971283,-0.22189027070999146,0.008399149402976036
1763692628566173400,6.56917333984375,0.3171824514865875,-0.2011214643716812,-0.031916771084070206
1763692628575759600,6.578759521484375,0.3574983477592468,-0.1754658818244934,-0.07345438003540039
1763692628585346600,6.5883466796875,0.38071054220199585,-0.14736689627170563,-0.11743538826704025
1763692628594932500,6.597932373046875,0.38193225860595703,-0.10705098509788513,-0.1638597846031189
1763692628604518000,6.607517822265625,0.35383328795433044,-0.08261708915233612,-0.21394924819469452
1763692628614103800,6.617103759765625,0.30374380946159363,-0.08750387281179428,-0.26403874158859253
1763692628623690800,6.626690673828125,0.252432644367218,-0.12293300777673721,-0.31168481707572937
1763692628633277000,6.63627685546875,0.2145601063966751,-0.1620272397994995,-0.3617742955684662
1763692628642862000,6.645862060546875,0.19989976286888123,-0.17057909071445465,-0.41675055027008057
1763692628652448300,6.6554482421875,0.20967331528663635,-0.1510319858789444,-0.4656183123588562
1763692628662035200,6.66503515625,0.23410721123218536,-0.13026317954063416,-0.5010474920272827
1763692628671621000,6.67462109375,0.25976279377937317,-0.1107160672545433,-0.5181511640548706
1763692628681206500,6.68420654296875,0.2793098986148834,-0.06917845457792282,-0.5267030596733093
1763692628690792400,6.69379248046875,0.284196674823761,-0.001985253533348441,-0.5376983284950256
1763692628700379400,6.70337939453125,0.24998924136161804,0.06887302547693253,-0.5486935377120972
1763692628709965600,6.712965576171875,0.18523943424224854,0.11651911586523056,-0.5609105229377747
1763692628719550700,6.72255078125,0.10705098509788513,0.15316994488239288,-0.5731274485588074
1763692628729137000,6.732136962890625,0.03497100621461868,0.18615570664405823,-0.5865660905838013
1763692628738723800,6.741723876953125,-0.0065666078589856625,0.24479703605175018,-0.6048914790153503
1763692628748309800,6.751309814453125,-0.018783552572131157,0.33031564950942993,-0.6244385838508606
1763692628757895200,6.760895263671875,-0.02489202655851841,0.40606072545051575,-0.6305471062660217
1763692628767481000,6.770481201171875,-0.033443886786699295,0.45615020394325256,-0.6207735538482666
1763692628777068000,6.780068115234375,-0.05665608495473862,0.48547086119651794,-0.5926745533943176
1763692628786654200,6.789654296875,-0.09452861547470093,0.5245651006698608,-0.5584670901298523
1763692628796239400,6.7992392578125,-0.1385096162557602,0.5868715047836304,-0.5144860744476318
1763692628805825500,6.808825439453125,-0.17393875122070312,0.6064186096191406,-0.435075968503952
1763692628815412500,6.81841259765625,-0.22524993121623993,0.5770979523658752,-0.3080197274684906
1763692628824998400,6.827998291015625,-0.2948864996433258,0.5441122055053711,-0.1638597846031189
1763692628834583800,6.837583740234375,-0.3596363365650177,0.5404471158981323,-0.01847812905907631
1763692628844169700,6.847169677734375,-0.40850409865379333,0.5734328627586365,0.11835165321826935
1763692628853756700,6.856756591796875,-0.44515493512153625,0.6491779088973999,0.241742804646492
1763692628863342800,6.8663427734375,-0.4805840849876404,0.7811209559440613,0.3455868363380432
1763692628872928000,6.875927978515625,-0.5416688323020935,0.9326110482215881,0.4408790171146393
1763692628882514200,6.88551416015625,-0.6394043564796448,1.0645540952682495,0.5263976454734802
1763692628892101000,6.89510107421875,-0.7603521347045898,1.1696197986602783,0.5911474227905273
1763692628901687000,6.90468701171875,-0.8922951221466064,1.2416998147964478,0.6106945276260376
1763692628911272400,6.9142724609375,-1.009577751159668,1.3150014877319336,0.5606050491333008
1763692628920858600,6.923858642578125,-1.088987946510315,1.3919682502746582,0.44454410672187805
1763692628930445300,6.9334453125,-1.1305255889892578,1.4212888479232788,0.31382277607917786
1763692628940031500,6.943031494140625,-1.1549594402313232,1.4359492063522339,0.18187977373600006
1763692628949616600,6.95261669921875,-1.1341906785964966,1.4701566696166992,0.11712995916604996
1763692628959202800,6.962202880859375,-1.071884274482727,1.495812177658081,0.06826218217611313
1763692628968789800,6.971789794921875,-1.0046910047531128,1.5544536113739014,-0.0331384651362896
1763692628978375700,6.981375732421875,-0.9582666158676147,1.6509674787521362,-0.07101099193096161
1763692628987961000,6.990961181640625,-0.9387195110321045,1.7804670333862305,-0.05757235363125801
1763692628997547300,7.00054736328125,-0.9448279738426208,1.8818676471710205,0.024281177669763565
1763692629007134000,7.010134033203125,-0.954601526260376,1.9441741704940796,0.1635543555021286
1763692629016720100,7.01972021484375,-0.9582666158676147,1.9441741704940796,0.33947837352752686
1763692629026305300,7.02930517578125,-0.950936496257782,1.8916412591934204,0.5129590034484863
1763692629035891500,7.038891357421875,-0.9179506897926331,1.8158961534500122,0.6377245187759399
1763692629045478400,7.048478515625,-0.8532009124755859,1.718160629272461,0.6670452356338501
1763692629055064300,7.058064208984375,-0.7346965670585632,1.653410792350769,0.5862606763839722
1763692629064649700,7.067649658203125,-0.5917583107948303,1.7108304500579834,0.49585527181625366
1763692629074236000,7.07723583984375,-0.5123481154441833,1.708387017250061,0.40667155385017395
1763692629083822600,7.086822509765625,-0.4756973087787628,1.598434567451477,0.32970482110977173
1763692629093408800,7.09640869140625,-0.4390464723110199,1.5471234321594238,0.23807771503925323
1763692629102994000,7.105993896484375,-0.4268295168876648,1.5471234321594238,0.14400723576545715
1763692629112580000,7.115580078125,-0.4659237563610077,1.5556752681732178,0.06826218217611313
1763692629122167000,7.1251669921875,-0.5196782946586609,1.482373595237732,-0.00992626789957285
1763692629131753000,7.1347529296875,-0.5160132050514221,1.3821946382522583,-0.10277505218982697
1763692629141338400,7.14433837890625,-0.45615020394325256,1.3467655181884766,-0.22738789021968842
1763692629150924500,7.153924560546875,-0.3840702176094055,1.333326816558838,-0.3849864900112152
1763692629160511200,7.16351123046875,-0.3180987238883972,1.324774980545044,-0.5523586273193359
1763692629170097400,7.173097412109375,-0.2533488869667053,1.3357702493667603,-0.7075138092041016
1763692629179682600,7.1826826171875,-0.17149536311626434,1.3834162950515747,-0.8333483934402466
1763692629189268700,7.192268798828125,-0.02489202655851841,1.4616048336029053,-0.9335273504257202
1763692629198855700,7.201855712890625,0.1766875684261322,1.5556752681732178,-0.9909469485282898
1763692629208441600,7.211441650390625,0.4027010500431061,1.5947694778442383,-0.9799517393112183
1763692629218027000,7.221027099609375,0.6348230242729187,1.5068074464797974,-0.8919897079467773
1763692629227613200,7.23061328125,0.807081937789917,1.31622314453125,-0.7417212724685669
1763692629237200000,7.240199951171875,0.853506326675415,1.0523371696472168,-0.543806791305542
1763692629246786000,7.2497861328125,0.8266290426254272,0.7774558663368225,-0.3434488773345947
1763692629256371200,7.25937109375,0.7765395641326904,0.5880932211875916,-0.18707197904586792
1763692629265957400,7.268957275390625,0.672695517539978,0.506239652633667,-0.09300149232149124
1763692629275544300,7.27854443359375,0.49799323081970215,0.47325390577316284,-0.07467607408761978
1763692629285130200,7.288130126953125,0.3049654960632324,0.4512633979320526,-0.13942588865756989
1763692629294715600,7.297715576171875,0.14003673195838928,0.44271156191825867,-0.256708562374115
1763692629304301800,7.3073017578125,0.022754060104489326,0.4537068009376526,-0.39231663942337036
1763692629313888500,7.316888427734375,-0.03833066672086716,0.48302745819091797,-0.47417017817497253
1763692629323474700,7.326474609375,-0.11285403370857239,0.5160132050514221,-0.46073153614997864
1763692629333059800,7.336059814453125,-0.07375980913639069,0.6907155513763428,-0.4680617153644562
1763692629342646000,7.34564599609375,0.14248012006282806,0.7908945083618164,-0.4766135811805725
1763692629352233000,7.35523291015625,0.3501681983470917,0.8226585388183594,-0.5841227173805237
1763692629361819000,7.36481884765625,0.4674508571624756,0.7127060294151306,-0.6867450475692749
1763692629371404300,7.374404296875,0.5089884996414185,0.5477772951126099,-0.8101361989974976
1763692629380990500,7.383990478515625,0.5456393361091614,0.35474956035614014,-0.9371923804283142
1763692629390577200,7.3935771484375,0.62627112865448,0.19592925906181335,-1.048366665840149
1763692629400163300,7.403163330078125,0.7765395641326904,0.09086353331804276,-1.148545503616333
1763692629409748500,7.41274853515625,0.9255862832069397,-0.0032069480512291193,-1.2572764158248901
1763692629419334700,7.422334716796875,1.0159916877746582,-0.04352286830544472,-1.375780701637268
1763692629428921600,7.431921630859375,1.0550858974456787,-0.12781979143619537,-1.4600776433944702
1763692629438507500,7.441507568359375,1.0550858974456787,-0.16813570261001587,-1.5211623907089233
1763692629448093000,7.451093017578125,0.9940012097358704,-0.21333840489387512,-1.5321576595306396
1763692629457678800,7.460678955078125,0.8864920735359192,-0.3342861533164978,-1.4832898378372192
1763692629467265800,7.470265869140625,0.7765395641326904,-0.42957833409309387,-1.3806675672531128
1763692629476852000,7.47985205078125,0.677582323551178,-0.5346440672874451,-1.265828251838684
1763692629486437400,7.489437255859375,0.5896202921867371,-0.6079457402229309,-1.1705360412597656
1763692629496023300,7.499023193359375,0.5016583204269409,-0.5175403356552124,-1.0422581434249878
1763692629505610200,7.5086103515625,0.4149180054664612,-0.42224815487861633,-0.8846595287322998
1763692629515196200,7.518196044921875,0.3318427801132202,-0.38193225860595703,-0.7075138092041016
1763692629524781600,7.527781494140625,0.2683146595954895,-0.30740886926651,-0.5413633584976196
1763692629534367500,7.537367431640625,0.2047865390777588,0.02367033064365387,-0.3727695345878601
1763692629543954400,7.546954345703125,0.08750387281179428,0.2985515892505646,-0.17241163551807404
1763692629553540600,7.55654052734375,-0.04321744292974472,0.3706315755844116,-0.04169032722711563
1763692629563126000,7.5661259765625,-0.11285403370857239,0.3058817684650421,0.08780929446220398
1763692629572712000,7.5757119140625,-0.1507265567779541,0.20570281147956848,0.18187977373600006
1763692629582299000,7.585298828125,-0.15316994488239288,0.033443886786699295,0.20631365478038788
1763692629591884800,7.594884765625,-0.08231166750192642,-0.23532891273498535,0.18676654994487762
1763692629601470200,7.60447021484375,0.06673506647348404,-0.465007483959198,0.14522893726825714
1763692629611056400,7.614056396484375,0.2414373755455017,-0.5077667832374573,0.09269607067108154
1763692629620643000,7.62364306640625,0.4027010500431061,-0.5444176197052002,0.05726693198084831
1763692629630229200,7.633229248046875,0.5334223508834839,-0.6372663974761963,0.05115845799446106
1763692629639814700,7.642814697265625,0.6433748602867126,-0.6555918455123901,0.06826218217611313
1763692629649400600,7.652400634765625,0.747218906879425,-0.5969504714012146,0.09513945877552032
1763692629658987500,7.661987548828125,0.8510629534721375,-0.5248705148696899,0.13301199674606323
1763692629668573400,7.671573486328125,0.9487984776496887,-0.44423866271972656,0.1769929975271225
1763692629678158800,7.681158935546875,1.0233218669891357,-0.4124746024608612,0.2160872220993042
1763692629687745000,7.6907451171875,1.0404255390167236,-0.441795289516449,0.2564031481742859
1763692629697331700,7.700331787109375,0.9915578365325928,-0.5224271416664124,0.3064926266670227
1763692629706918000,7.70991796875,0.8803836107254028,-0.6629219651222229,0.36635565757751465
1763692629716503300,7.71950341796875,0.7227849960327148,-0.8486195802688599,0.43354883790016174
1763692629726089200,7.729089111328125,0.5456393361091614,-1.0123265981674194,0.50685054063797
1763692629735676200,7.73867626953125,0.35505497455596924,-1.1149489879608154,0.5777087807655334
1763692629745262000,7.748261962890625,0.17424418032169342,-1.1564866304397583,0.6328377723693848
1763692629754847500,7.757847412109375,0.02764083817601204,-1.1173923015594482,0.660936713218689
1763692629764433700,7.76743359375,-0.10430216789245605,-1.0330954790115356,0.6719319820404053
1763692629774020400,7.777020263671875,-0.23502348363399506,-0.9390249252319336,0.6792621612548828
1763692629783606500,7.7866064453125,-0.36452311277389526,-0.8559496998786926,0.6902574300765991
1763692629793192000,7.79619189453125,-0.49768781661987305,-0.8168554902076721,0.7024743556976318
1763692629802777900,7.80577783203125,-0.6051968932151794,-0.8119687438011169,0.7146912813186646
1763692629812364800,7.81536474609375,-0.6784985661506653,-0.830294132232666,0.7171346545219421
1763692629821950700,7.82495068359375,-0.746913492679596,-0.8767185211181641,0.6963658928871155
1763692629831536000,7.8345361328125,-0.8312104344367981,-0.9744541049003601,0.6694886088371277
1763692629841122300,7.844122314453125,-0.8641961812973022,-1.0208784341812134,0.6853706240653992
1763692629850709200,7.853709228515625,-0.89107346534729,-1.0404255390167236,0.7537854909896851
1763692629860295200,7.863295166015625,-0.8727480173110962,-0.9940012097358704,0.8502993583679199
1763692629869880600,7.872880615234375,-0.8519791960716248,-0.8571714162826538,0.9333745837211609
1763692629879466500,7.882466552734375,-0.844649076461792,-0.5920637249946594,1.0201148986816406
1763692629889053400,7.892053466796875,-0.8812998533248901,-0.35627666115760803,1.1178505420684814
1763692629898639600,7.9016396484375,-0.8812998533248901,-0.2548760175704956,1.1997040510177612
1763692629908224800,7.911224853515625,-0.839762270450592,-0.24510246515274048,1.2290246486663818
1763692629917811000,7.92081103515625,-0.8116632699966431,-0.20600824058055878,1.2168077230453491
1763692629927398000,7.93039794921875,-0.7359182238578796,-0.14370182156562805,1.1874871253967285
1763692629936983800,7.93998388671875,-0.6284091472625732,-0.1119377613067627,1.1618314981460571
1763692629946569200,7.9495693359375,-0.557550847530365,-0.12781979143619537,1.1435060501098633
1763692629956155400,7.9591552734375,-0.5160132050514221,-0.26220619678497314,1.1117420196533203
1763692629965742000,7.9687421875,-0.4647020399570465,-0.41980478167533875,1.0579874515533447
1763692629975328300,7.978328369140625,-0.3327590525150299,-0.5016583204269409,0.9895725846290588
1763692629984913400,7.987913330078125,-0.23380178213119507,-0.5419742465019226,0.8979454636573792
1763692629994499600,7.99749951171875,-0.23380178213119507,-0.5835118293762207,0.8112051486968994
1763692630004086500,8.00708642578125,-0.2667875289916992,-0.6519267559051514,0.7281299233436584
1763692630013672400,8.01667236328125,-0.3107685446739197,-0.8021951913833618,0.6155813336372375
1763692630023257900,8.0262578125,-0.35352784395217896,-1.057529330253601,0.4286620616912842
1763692630032843800,8.03584375,-0.3987305462360382,-1.3299671411514282,0.15866757929325104
1763692630042430700,8.0454306640625,-0.40850409865379333,-1.5278817415237427,-0.16019469499588013
1763692630052017000,8.055016845703125,-0.3461976945400238,-1.5999616384506226,-0.4631749391555786
1763692630061602000,8.06460205078125,-0.22280654311180115,-1.5901881456375122,-0.7087355256080627
1763692630071188200,8.074188232421875,-0.0981936976313591,-1.5584241151809692,-0.917645275592804
1763692630080775200,8.083775146484374,-0.02367033064365387,-1.449693202972412,-1.1070079803466797
1763692630090361000,8.093361083984375,-0.0004581354442052543,-1.238340139389038,-1.2707149982452393
1763692630099946500,8.102946533203125,-0.016340164467692375,-0.9952229261398315,-1.3611204624176025
1763692630109532700,8.11253271484375,-0.04321744292974472,-0.830294132232666,-1.3611204624176025
1763692630119119400,8.122119384765625,-0.08108997344970703,-0.778982937335968,-1.2988139390945435
1763692630128705500,8.13170556640625,-0.10430216789245605,-0.7911999225616455,-1.213295340538025
1763692630138290700,8.141290771484375,-0.07620319724082947,-0.8974873423576355,-1.158319115638733
1763692630147876900,8.150876953125,-0.016340164467692375,-1.0880717039108276,-1.1790878772735596
1763692630157463800,8.1604638671875,0.05085303261876106,-1.2591089010238647,-1.2804886102676392
1763692630167049700,8.1700498046875,0.16080553829669952,-1.3079767227172852,-1.4368654489517212
1763692630176635100,8.17963525390625,0.3306210935115814,-1.1968024969100952,-1.5993508100509644
1763692630186221300,8.18922119140625,0.5358657836914062,-1.0123265981674194,-1.714190125465393
1763692630195808300,8.198808349609376,0.7252284288406372,-0.8522846102714539,-1.7618361711502075
1763692630205394200,8.208394287109375,0.8327375054359436,-0.752105712890625,-1.7386239767074585
1763692630214979300,8.217979248046875,0.858393132686615,-0.6922426819801331,-1.6799826622009277
1763692630224565500,8.2275654296875,0.8278507590293884,-0.6238277554512024,-1.6030158996582031
1763692630234152400,8.23715234375,0.7447755336761475,-0.5187620520591736,-1.5223840475082397
1763692630243738600,8.246738525390626,0.62627112865448,-0.36360684037208557,-1.4588559865951538
1763692630253323800,8.25632373046875,0.48577627539634705,-0.16813570261001587,-1.4136532545089722
1763692630262910000,8.265909912109375,0.34405970573425293,0.02489202655851841,-1.3818892240524292
1763692630272497000,8.275496826171874,0.21211670339107513,0.22036315500736237,-1.3672288656234741
1763692630282082800,8.285082763671875,0.11560284346342087,0.4903576374053955,-1.3696722984313965
1763692630291668200,8.294668212890626,0.06917845457792282,0.765238881111145,-1.3598986864089966
1763692630301254100,8.304254150390625,0.05207473039627075,0.9142856597900391,-1.3183610439300537
1763692630310841000,8.313841064453126,0.036192700266838074,0.9362761378288269,-1.2621631622314453
1763692630320427300,8.32342724609375,0.009315420873463154,0.844649076461792,-1.1839747428894043
1763692630330012400,8.333012451171875,-0.0065666078589856625,0.7200362086296082,-1.11678147315979
1763692630339598600,8.3425986328125,0.014202198944985867,0.6223006248474121,-1.0691354274749756
1763692630349185500,8.352185546875,0.07650861889123917,0.5636593103408813,-1.0459232330322266
1763692630358771500,8.361771484375,0.1656923145055771,0.529451847076416,-1.0508099794387817
1763692630368356900,8.37135693359375,0.2548760175704956,0.48424917459487915,-1.0764656066894531
1763692630377943000,8.380943115234375,0.31351736187934875,0.3633013963699341,-1.1143381595611572
1763692630387529700,8.39052978515625,0.35261157155036926,0.15927842259407043,-1.158319115638733
1763692630397116000,8.400115966796875,0.41736137866973877,0.029778804630041122,-1.2059651613235474
1763692630406701000,8.409701171875,0.5224271416664124,-0.009315420873463154,-1.2536113262176514
1763692630416287200,8.419287353515625,0.6287145614624023,-0.005650337319821119,-1.3024790287017822
1763692630425874200,8.428874267578125,0.7032378911972046,-0.001985253533348441,-1.3427950143814087
1763692630435460000,8.438460205078124,0.7362236380577087,-0.014202198944985867,-1.3818892240524292
1763692630445045500,8.44804541015625,0.7423321604728699,-0.014202198944985867,-1.4356437921524048
1763692630454631700,8.457631591796876,0.7301151752471924,0.02367033064365387,-1.5077236890792847
1763692630464218400,8.46721826171875,0.7020162343978882,0.0981936976313591,-1.5736953020095825
1763692630473804500,8.476804443359375,0.6445965766906738,0.2032594233751297,-1.612789511680603
1763692630483389700,8.4863896484375,0.5627430081367493,0.3327590525150299,-1.606680989265442
1763692630492975900,8.495975830078125,0.488219678401947,0.4769189953804016,-1.5553698539733887
1763692630502562800,8.505562744140626,0.43202173709869385,0.5685460567474365,-1.4625210762023926
1763692630512148700,8.515148681640625,0.3965925872325897,0.6076403260231018,-1.3415732383728027
1763692630521734100,8.524734130859375,0.39048412442207336,0.603975236415863,-1.2096302509307861
1763692630531320000,8.534320068359374,0.3990359604358673,0.5587725043296814,-1.080130696296692
1763692630540907000,8.543906982421875,0.4100312292575836,0.48302745819091797,-0.9616262912750244
1763692630550493200,8.5534931640625,0.4234698712825775,0.402395635843277,-0.8565605878829956
1763692630560078300,8.563078369140625,0.43324342370033264,0.3486410677433014,-0.7771504521369934
1763692630569664500,8.57266455078125,0.4369085133075714,0.3083251416683197,-0.7307260632514954
1763692630579251500,8.58225146484375,0.43568679690361023,0.27533939480781555,-0.719730794429779
1763692630588837400,8.59183740234375,0.4259132444858551,0.27411770820617676,-0.7453863620758057
1763692630598422800,8.6014228515625,0.39292749762535095,0.30343836545944214,-0.8003626465797424
1763692630608009000,8.611009033203125,0.333064466714859,0.34131091833114624,-0.8687775135040283
1763692630617595600,8.620595703125,0.2670929729938507,0.35474956035614014,-0.9225320816040039
1763692630627181800,8.630181884765625,0.20967331528663635,0.24601873755455017,-0.8638907074928284
1763692630636767000,8.63976708984375,0.15347537398338318,0.06642963737249374,-0.6794148683547974
1763692630646353200,8.649353271484374,0.12659808993339539,0.06032116711139679,-0.6122216582298279
1763692630655940000,8.658940185546875,0.10827267915010452,0.03833066672086716,-0.4937172830104828
1763692630665526000,8.668526123046876,0.08994726091623306,0.14706148207187653,-0.3898732662200928
1763692630675111400,8.678111328125,0.03497100621461868,0.25945737957954407,-0.3617742955684662
1763692630684697600,8.687697509765625,-0.028557108715176582,0.41827765107154846,-0.4912739098072052
1763692630694284500,8.697284423828124,-0.10185877978801727,0.48791423439979553,-0.650094211101532
1763692630703870500,8.706870361328125,-0.20081603527069092,0.5221216678619385,-0.7808154821395874
1763692630713455600,8.71645556640625,-0.31687700748443604,0.5685460567474365,-0.8651124238967896
1763692630723041800,8.726041748046875,-0.40606072545051575,0.5746545791625977,-0.9005415439605713
1763692630732628700,8.735628662109375,-0.4537068009376526,0.49646610021591187,-0.8883246183395386
1763692630742215000,8.74521484375,-0.48547086119651794,0.35108447074890137,-0.8773293495178223
1763692630751800000,8.754800048828125,-0.4928010404109955,0.25212720036506653,-0.8785510659217834
1763692630761386200,8.76438623046875,-0.474475622177124,0.21425467729568481,-0.8699992299079895
1763692630770973200,8.77397314453125,-0.43293800950050354,0.19226416945457458,-0.8431219458580017
1763692630780559000,8.78355908203125,-0.3596363365650177,0.13117945194244385,-0.779593825340271
1763692630790144500,8.79314453125,-0.24968381226062775,0.028557108715176582,-0.6830799579620361
1763692630799730700,8.802730712890625,-0.12262758612632751,-0.08750387281179428,-0.5853443741798401
1763692630809317400,8.8123173828125,-0.0065666078589856625,-0.1889045089483261,-0.5071559548377991
1763692630818903600,8.821903564453125,0.09116895496845245,-0.22433365881443024,-0.44484952092170715
1763692630828488700,8.83148876953125,0.17057909071445465,-0.2145601063966751,-0.386208176612854
1763692630838075000,8.841074951171874,0.25976279377937317,-0.21822518110275269,-0.33001023530960083
1763692630847661800,8.850661865234375,0.30740886926651,-0.20722992718219757,-0.2958027720451355
1763692630857247700,8.860247802734374,0.2793098986148834,-0.1644706279039383,-0.26403874158859253
1763692630866833200,8.869833251953125,0.3868190348148346,-0.06184828653931618,-0.22250111401081085
1763692630876419300,8.87941943359375,0.6323796510696411,0.010231691412627697,-0.1516428291797638
1763692630886006000,8.889006103515625,0.6922426819801331,0.09941539168357849,-0.10521844029426575
1763692630895592200,8.89859228515625,0.6213843822479248,0.19470755755901337,-0.045355409383773804
1763692630905177300,8.90817724609375,0.5822901725769043,0.21425467729568481,0.021837789565324783
1763692630914763500,8.917763427734375,0.5957288146018982,0.1910424828529358,0.05360184609889984
1763692630924350500,8.9273505859375,0.5725166201591492,0.15683503448963165,0.06459710001945496
1763692630933936400,8.936936279296875,0.47111594676971436,0.11896250396966934,0.05726693198084831
1763692630943521800,8.946521728515625,0.33917292952537537,0.005344913341104984,0.03161134570837021
1763692630953107700,8.956107666015624,0.2047865390777588,-0.08017370104789734,-0.00992626789957285
1763692630962694700,8.965694580078125,0.08261708915233612,-0.09483403712511063,-0.06734590977430344
1763692630972280800,8.97528076171875,0.016645587980747223,-0.14858859777450562,-0.14431266486644745
1763692630981866000,8.984865966796875,-0.020005248486995697,-0.21822518110275269,-0.23838314414024353
1763692630991452200,8.9944521484375,-0.037108972668647766,-0.2145601063966751,-0.305576354265213
1763692631001039000,9.0040390625,-0.04321744292974472,-0.1388150453567505,-0.3483356535434723
1763692631010625000,9.013625,-0.051769305020570755,-0.005650337319821119,-0.3348970115184784
1763692631020210400,9.02321044921875,-0.05787777900695801,0.1519482582807541,-0.29091599583625793
1763692631029796600,9.032796630859375,-0.052990999072790146,0.25945737957954407,-0.2286095917224884
1763692631039383600,9.042383544921876,-0.017561858519911766,0.2826695740222931,-0.15652960538864136
1763692631048969500,9.051969482421875,0.03497100621461868,0.2313583940267563,-0.07589777559041977
1763692631058554600,9.0615546875,0.08628217875957489,0.23502348363399506,-0.007482878863811493
1763692631068140800,9.071140869140624,0.09972081333398819,0.24724042415618896,0.0584886260330677
1763692631077727700,9.080727783203125,0.07528692483901978,0.16783028841018677,0.09513945877552032
1763692631087314000,9.09031396484375,0.04474456235766411,0.09086353331804276,0.0719272643327713
1763692631096899000,9.099899169921875,-0.0029015245381742716,-0.05085303261876106,-0.0050394898280501366
1763692631106485200,9.1094853515625,-0.031000498682260513,-0.18157434463500977,-0.09055810421705246
1763692631116072200,9.119072265625,-0.0065666078589856625,-0.28541839122772217,-0.12720894813537598
1763692631125658000,9.128658203125,0.10216420143842697,-0.3831539452075958,-0.12232216447591782
1763692631135243500,9.138243408203126,0.22677704691886902,-0.3892624080181122,-0.09544488787651062
1763692631144829700,9.14782958984375,0.20967331528663635,-0.31596073508262634,-0.03436015918850899
1763692631154416400,9.15741650390625,0.22066856920719147,-0.24021568894386292,0.01572931744158268
1763692631164002600,9.16700244140625,0.2560977041721344,-0.1375933438539505,0.10613471269607544
1763692631173587700,9.176587646484375,0.24021568894386292,-0.10949437320232391,0.19531841576099396
1763692631183174000,9.186173828125,0.22189027070999146,-0.0984991192817688,0.21242213249206543
1763692631192760800,9.1957607421875,0.18035265803337097,-0.12293300777673721,0.20631365478038788
1763692631202346800,9.2053466796875,0.09361234307289124,-0.08628217875957489,0.21364383399486542
1763692631211932200,9.21493212890625,-0.0016798300202935934,-0.05329642444849014,0.2441861927509308
1763692631221518300,9.224518310546875,-0.0725381150841713,-0.12659808993339539,0.2918322682380676
1763692631231105000,9.23410498046875,-0.10674555599689484,-0.22433365881443024,0.35291701555252075
1763692631240691200,9.243691162109375,-0.10308047384023666,-0.29885703325271606,0.43354883790016174
1763692631250276400,9.2532763671875,-0.09086353331804276,-0.335507869720459,0.5190674662590027
1763692631259862500,9.262862548828124,-0.111632339656353,-0.3477247953414917,0.5911474227905273
1763692631269449500,9.272449462890625,-0.18493400514125824,-0.3306210935115814,0.6389462351799011
1763692631279035400,9.282035400390624,-0.3046600818634033,-0.2805316150188446,0.6707102656364441
1763692631288620800,9.291620849609375,-0.45737189054489136,-0.1901262104511261,0.7000309824943542
1763692631298207000,9.30120703125,-0.557550847530365,-0.17180079221725464,0.7146912813186646
1763692631307793700,9.310793701171875,-0.5832064151763916,-0.19745637476444244,0.7366818189620972
1763692631317379800,9.3203798828125,-0.5673243999481201,-0.23655059933662415,0.7647807598114014
1763692631326965000,9.329965087890624,-0.5172349214553833,-0.34283801913261414,0.7977665066719055
1763692631336551200,9.33955126953125,-0.4524851143360138,-0.46012070775032043,0.8246437907218933
1763692631346138000,9.34913818359375,-0.3694098889827728,-0.51998370885849,0.8307522535324097
1763692631355724000,9.35872412109375,-0.26067906618118286,-0.5627430081367493,0.8466343283653259
1763692631365309400,9.368309326171875,-0.12262758612632751,-0.5993938446044922,0.8539644479751587
1763692631374895600,9.3778955078125,0.0325276181101799,-0.6079457402229309,0.8747332692146301
1763692631384482600,9.387482666015625,0.18279604613780975,-0.6287145614624023,0.9077190160751343
1763692631394068500,9.397068359375,0.2805316150188446,-0.6226060390472412,0.9431481957435608
1763692631403654000,9.40665380859375,0.3196258246898651,-0.6152759194374084,0.9736905097961426
1763692631413239800,9.41623974609375,0.3184041380882263,-0.5920637249946594,0.9969027042388916
1763692631422826800,9.42582666015625,0.2695363461971283,-0.5688515305519104,0.9956810474395752
1763692631432413000,9.435412841796875,0.1632489264011383,-0.5273138880729675,0.9529217481613159
1763692631441998000,9.444998046875,0.015423892997205257,-0.4747810363769531,0.8832851648330688
1763692631451584300,9.454584228515625,-0.15561333298683167,-0.40514445304870605,0.8173136115074158
1763692631461171200,9.464171142578126,-0.32542887330055237,-0.31596073508262634,0.7525638341903687
1763692631470757000,9.473757080078125,-0.48302745819091797,-0.23410721123218536,0.6670452356338501
1763692631480342500,9.483342529296875,-0.6296308040618896,-0.16935740411281586,0.5593833923339844
1763692631489928700,9.4929287109375,-0.7591304183006287,-0.1119377613067627,0.4372139275074005
1763692631499515400,9.502515380859375,-0.8703046441078186,-0.06673506647348404,0.3077143132686615
1763692631509101600,9.5121015625,-0.9619317054748535,-0.038636088371276855,0.17943638563156128
1763692631518686700,9.521686767578124,-1.009577751159668,-0.01175880990922451,0.08658760040998459
1763692631528273000,9.53127294921875,-0.9985825419425964,0.007788302376866341,0.05115845799446106
1763692631537859800,9.54085986328125,-0.9594883322715759,-0.09239064902067184,0.10491301864385605
1763692631547445800,9.55044580078125,-0.8739697337150574,-0.24998924136161804,0.23563432693481445
1763692631557031200,9.56003125,-0.7689039707183838,-0.43324342370033264,0.3761292099952698
1763692631566617300,9.569617431640625,-0.6345176100730896,-0.5774033665657043,0.48241662979125977
1763692631576204000,9.5792041015625,-0.48424917459487915,-0.6800256967544556,0.576487123966217
1763692631585790200,9.588790283203124,-0.42194274067878723,-0.6507050395011902,0.6817055344581604
1763692631595375400,9.598375244140625,-0.4891359508037567,-0.5786250829696655,0.8209787011146545
1763692631604961500,9.60796142578125,-0.5624375939369202,-0.5993938446044922,0.9675820469856262
1763692631614548500,9.617548583984375,-0.5612159371376038,-0.5212054252624512,1.0750911235809326
1763692631624134400,9.627134521484376,-0.5257867574691772,-0.3465031087398529,1.1312891244888306
1763692631633719800,9.6367197265625,-0.49768781661987305,-0.2145601063966751,1.1398409605026245
1763692631643306000,9.646305908203125,-0.47203221917152405,-0.14858859777450562,1.1044118404388428
1763692631652893000,9.655892822265624,-0.44271156191825867,-0.10094250738620758,1.0384403467178345
1763692631662478800,9.665478759765625,-0.423164427280426,-0.09116895496845245,0.9553651213645935
1763692631672064300,9.675064208984375,-0.41827765107154846,-0.14736689627170563,0.8759549856185913
1763692631681650200,9.684650146484374,-0.41705596446990967,-0.27686652541160583,0.8075400590896606
1763692631691237000,9.694237060546875,-0.39506545662879944,-0.45523393154144287,0.7501204609870911
1763692631700823300,9.7038232421875,-0.34008920192718506,-0.6555918455123901,0.6927008032798767
1763692631710408400,9.713408447265625,-0.2582356929779053,-0.8645015954971313,0.6265766024589539
1763692631719994600,9.72299462890625,-0.16905197501182556,-1.0673028230667114,0.5459447503089905
1763692631729581600,9.73258154296875,-0.0859767496585846,-1.2065759897232056,0.44698747992515564
1763692631739167500,9.74216748046875,-0.032222192734479904,-1.1650384664535522,0.30404922366142273
1763692631748753000,9.7517529296875,-0.016340164467692375,-0.9940012097358704,0.09391776472330093
1763692631758339000,9.761339111328125,-0.06032116711139679,-0.9304730892181396,-0.09055810421705246
1763692631767925800,9.77092578125,-0.11285403370857239,-0.7740961909294128,-0.24815669655799866
1763692631777512000,9.780511962890625,-0.16783028841018677,-0.6299362182617188,-0.3568875193595886
1763692631787097000,9.79009716796875,-0.20570281147956848,-0.5138752460479736,-0.409420371055603
1763692631796683300,9.799683349609374,-0.22036315500736237,-0.4271349310874939,-0.4155288338661194
1763692631806270200,9.809270263671875,-0.20936790108680725,-0.3611634373664856,-0.3837648034095764
1763692631815856000,9.818856201171876,-0.1910424828529358,-0.3196258246898651,-0.3324536085128784
1763692631825441500,9.828441650390625,-0.1751604527235031,-0.3110739588737488,-0.27503398060798645
1763692631835027700,9.83802783203125,-0.1629435122013092,-0.333064466714859,-0.22616620361804962
1763692631844614400,9.847614501953124,-0.1519482582807541,-0.37704548239707947,-0.1882936656475067
1763692631854200600,9.85720068359375,-0.14217470586299896,-0.4369085133075714,-0.1650814712047577
1763692631863785700,9.86678564453125,-0.12995775043964386,-0.5041016936302185,-0.14675605297088623
1763692631873372000,9.876371826171875,-0.1104106456041336,-0.5590779781341553,-0.12965233623981476
1763692631882958800,9.885958740234376,-0.08231166750192642,-0.603058934211731,-0.11743538826704025
1763692631892545000,9.895544921875,-0.04932591691613197,-0.6299362182617188,-0.11010521650314331
1763692631902130200,9.905130126953125,-0.012675080448389053,-0.6372663974761963,-0.10888352245092392
1763692631911716400,9.91471630859375,0.008093725889921188,-0.6311579346656799,-0.11377029865980148
1763692631921303300,9.92430322265625,0.01175880990922451,-0.6103891134262085,-0.11865708231925964
1763692631930889200,9.93388916015625,0.005650337319821119,-0.5700731873512268,-0.125987246632576
1763692631940474600,9.943474609375,-0.017561858519911766,-0.5102101564407349,-0.125987246632576
1763692631950060800,9.953060791015625,-0.052990999072790146,-0.4381301999092102,-0.11377029865980148
1763692631959647500,9.9626474609375,-0.09330692142248154,-0.3501681983470917,-0.09422318637371063
1763692631969233700,9.972233642578125,-0.13117945194244385,-0.24632415175437927,-0.06612421572208405
1763692631978818800,9.98181884765625,-0.14217470586299896,-0.1388150453567505,-0.031916771084070206
1763692631988405000,9.991405029296875,-0.1360662281513214,-0.04230117425322533,0.010842538438737392
1763692631997992000,10.000991943359375,-0.13362284004688263,0.009009997360408306,0.05360184609889984
1763692632007577900,10.010577880859374,-0.14583978056907654,0.012675080448389053,0.0853659063577652
1763692632017163300,10.020163330078125,-0.14828316867351532,0.011453386396169662,0.09391776472330093
1763692632026749200,10.029749267578126,-0.12018419802188873,0.04321744292974472,0.0853659063577652
1763692632036336000,10.039336181640625,-0.0456608310341835,0.08353336155414581,0.07681404054164886
1763692632045922300,10.04892236328125,0.04352286830544472,0.11896250396966934,0.07803573459386826
1763692632055507500,10.058507568359374,0.14492350816726685,0.1507265567779541,0.0988045409321785
1763692632065093600,10.06809375,0.2585411071777344,0.15805672109127045,0.1378987729549408
1763692632074680600,10.0776806640625,0.3746020793914795,0.16538690030574799,0.19409671425819397
1763692632084266500,10.0872666015625,0.4821111857891083,0.19226416945457458,0.26006820797920227
1763692632093852000,10.096851806640625,0.5798467397689819,0.24724042415618896,0.323596328496933
1763692632103438000,10.10643798828125,0.6702521443367004,0.3217637836933136,0.37979426980018616
1763692632113025000,10.11602490234375,0.752105712890625,0.3694098889827728,0.4237752854824066
1763692632122611000,10.12561083984375,0.807081937789917,0.39506545662879944,0.45676103234291077
1763692632132196400,10.1351962890625,0.8168554902076721,0.38162681460380554,0.47264307737350464
1763692632141782300,10.1447822265625,0.7545490860939026,0.3339807391166687,0.44576579332351685
1763692632151369200,10.154369140625,0.5444176197052002,0.31199023127555847,0.3626905679702759
1763692632160955400,10.163955322265625,0.36971530318260193,0.3242071866989136,0.24907296895980835
1763692632170540500,10.17354052734375,0.3758237659931183,0.21914145350456238,0.08903098851442337
1763692632180126700,10.183126708984375,0.4931064546108246,0.21181128919124603,-0.11621369421482086
1763692632189713700,10.192713623046876,0.6140542030334473,0.27656111121177673,-0.3092414140701294
1763692632199299600,10.202299560546875,0.709346354007721,0.188599094748497,-0.4680617153644562
1763692632208885000,10.211885009765625,0.798530101776123,0.018783552572131157,-0.5914528369903564
1763692632218471200,10.22147119140625,0.8864920735359192,-0.1241547018289566,-0.6830799579620361
1763692632228057900,10.231057861328125,0.9487984776496887,-0.27564483880996704,-0.728282630443573
1763692632237644000,10.24064404296875,0.9707890152931213,-0.47111594676971436,-0.733169436454773
1763692632247229200,10.250229248046875,0.9622371196746826,-0.672695517539978,-0.7124006152153015
1763692632256815400,10.2598154296875,0.9426900148391724,-0.8144121170043945,-0.6757497787475586
1763692632266402300,10.26940234375,0.9280297160148621,-0.8742751479148865,-0.6329904794692993
1763692632275988200,10.27898828125,0.9182561635971069,-0.8229639530181885,-0.5865660905838013
1763692632285573600,10.28857373046875,0.8926005363464355,-0.6042806506156921,-0.5425850749015808
1763692632295159800,10.298159912109375,0.8669449687004089,-0.3489464819431305,-0.5230379700660706
1763692632304746500,10.30774658203125,0.8486195802688599,-0.1522536724805832,-0.5169295072555542
1763692632314332700,10.317332763671875,0.8217422962188721,0.013896775431931019,-0.5034908652305603
1763692632323918000,10.32691796875,0.775317907333374,0.15683503448963165,-0.47539186477661133
1763692632333504000,10.33650390625,0.7105680704116821,0.2838912606239319,-0.4289674758911133
1763692632343091000,10.346091064453125,0.6360446810722351,0.36696648597717285,-0.36910444498062134
1763692632352676900,10.3556767578125,0.566408097743988,0.4109475016593933,-0.30435463786125183
1763692632362262300,10.36526220703125,0.5163186192512512,0.43293800950050354,-0.2408265322446823
1763692632371848400,10.374848388671875,0.48577627539634705,0.4268295168876648,-0.18585027754306793
1763692632381435400,10.384435302734374,0.4747810363769531,0.402395635843277,-0.14064757525920868
1763692632391021300,10.394021240234375,0.4821111857891083,0.376740038394928,-0.10888352245092392
1763692632400606700,10.403606689453126,0.5016583204269409,0.3486410677433014,-0.08811471611261368
1763692632410193000,10.41319287109375,0.5297572612762451,0.3180987238883972,-0.07834116369485855
1763692632419779600,10.422779541015625,0.5578562617301941,0.2924431264400482,-0.07834116369485855
1763692632429365800,10.43236572265625,0.5871769189834595,0.27656111121177673,-0.0856713280081749
1763692632438951000,10.441950927734375,0.6055023670196533,0.2777827978134155,-0.09177979826927185
1763692632448537000,10.451537109375,0.6006155610084534,0.28999972343444824,-0.08933641016483307
1763692632458124000,10.4611240234375,0.566408097743988,0.2973299026489258,-0.0844496339559555
1763692632467710000,10.4707099609375,0.5150969624519348,0.31565532088279724,-0.08200624585151672
1763692632477295400,10.48029541015625,0.46012070775032043,0.3449759781360626,-0.08322793990373611
1763692632486881500,10.489881591796875,0.4002576768398285,0.3706315755844116,-0.0856713280081749
1763692632496468200,10.49946826171875,0.31351736187934875,0.39506545662879944,-0.08689302206039429
1763692632506054400,10.509054443359375,0.18646112084388733,0.37796175479888916,-0.09300149232149124
1763692632515639600,10.5186396484375,0.020310672000050545,0.31565532088279724,-0.10766182839870453
1763692632525225700,10.528225830078124,-0.19348587095737457,0.1776038408279419,-0.1369825005531311
1763692632534812700,10.537812744140625,-0.402395635843277,0.0065666078589856625,-0.19806721806526184
1763692632544398600,10.547398681640624,-0.6247440576553345,-0.14492350816726685,-0.2554868757724762
1763692632553984000,10.55698388671875,-0.8238802552223206,-0.19989976286888123,-0.305576354265213
1763692632563570200,10.566570068359376,-0.922837495803833,-0.20967331528663635,-0.3764346241950989
1763692632573156900,10.576156982421875,-0.974148690700531,-0.13026317954063416,-0.4668400287628174
1763692632582743000,10.585742919921875,-0.9912523627281189,-0.0325276181101799,-0.5499152541160583
1763692632592328400,10.595328369140624,-0.9484930634498596,0.06765133142471313,-0.5890094637870789
1763692632601914400,10.604914306640625,-0.8641961812973022,0.13240113854408264,-0.5719057321548462
1763692632611501300,10.614501220703126,-0.7664605975151062,0.14583978056907654,-0.492495596408844
1763692632621087500,10.62408740234375,-0.687050461769104,0.06276455521583557,-0.3752129375934601
1763692632630672600,10.633672607421875,-0.6394043564796448,-0.06673506647348404,-0.2432699203491211
1763692632640258800,10.6432587890625,-0.6088619828224182,-0.23899398744106293,-0.09055810421705246
1763692632649845800,10.652845703125,-0.5905365943908691,-0.4906630516052246,0.060932014137506485
1763692632659431700,10.662431640625,-0.5661026835441589,-0.7020162343978882,0.1635543555021286
1763692632669017000,10.67201708984375,-0.534338653087616,-0.8742751479148865,0.20020519196987152
1763692632678603300,10.681603271484375,-0.4891359508037567,-0.9805625677108765,0.1757712960243225
1763692632688190000,10.69118994140625,-0.42194274067878723,-0.9744541049003601,0.11835165321826935
1763692632697776000,10.700776123046875,-0.33886751532554626,-0.8254073858261108,-0.027029991149902344
1763692632707361500,10.710361572265626,-0.31199023127555847,-0.7814263701438904,-0.22372281551361084
1763692632716947500,10.719947509765625,-0.28633466362953186,-0.6812474131584167,-0.42041563987731934
1763692632726534400,10.729534423828126,-0.28877803683280945,-0.6042806506156921,-0.6109999418258667
1763692632736120300,10.739120361328125,-0.30221667885780334,-0.5309789776802063,-0.7734853625297546
1763692632745705700,10.748705810546875,-0.2790044844150543,-0.45889899134635925,-0.8736643195152283
1763692632755292000,10.7582919921875,-0.22402822971343994,-0.4149180054664612,-0.8712208867073059
1763692632764878800,10.76787890625,-0.14828316867351532,-0.46867257356643677,-0.7685985565185547
1763692632774464800,10.77746484375,-0.051769305020570755,-0.5688515305519104,-0.5853443741798401
1763692632784050200,10.78705029296875,0.038636088371276855,-0.6568135023117065,-0.3458922505378723
1763692632793636000,10.796635986328125,0.14248012006282806,-0.709346354007721,-0.07467607408761978
1763692632803223000,10.80622314453125,0.18279604613780975,-0.747218906879425,0.16966283321380615
1763692632812809200,10.815809326171875,0.1253764033317566,-0.7948650121688843,0.3443651497364044
1763692632822394400,10.825394287109376,0.023975754156708717,-0.8266290426254272,0.44332239031791687
1763692632831980500,10.83498046875,-0.10308047384023666,-0.8278507590293884,0.4750864505767822
1763692632841567500,10.8445673828125,-0.25212720036506653,-0.8425110578536987,0.46897798776626587
1763692632851153400,10.8541533203125,-0.4109475016593933,-0.835180938243866,0.43477052450180054
1763692632860738800,10.86373876953125,-0.5612159371376038,-0.8180772066116333,0.37857258319854736
1763692632870325000,10.873324951171876,-0.6846070885658264,-0.7875348329544067,0.3101576864719391
1763692632879911700,10.88291162109375,-0.7603521347045898,-0.7264500856399536,0.23807771503925323
1763692632889497900,10.892497802734376,-0.8153283596038818,-0.6641436815261841,0.18310146033763885
1763692632899083000,10.9020830078125,-0.8507575392723083,-0.6164975762367249,0.16111096739768982
1763692632908669200,10.911669189453125,-0.8641961812973022,-0.5725166201591492,0.18432316184043884
1763692632918256000,10.921256103515624,-0.8519791960716248,-0.5383091568946838,0.2564031481742859
1763692632927842000,10.930842041015625,-0.8079982399940491,-0.5163186192512512,0.3614688515663147
1763692632937427500,10.940427490234375,-0.7591304183006287,-0.49799323081970215,0.476308137178421
1763692632947013600,10.950013671875,-0.7212579250335693,-0.4637857675552368,0.5752654075622559
1763692632956600600,10.9596005859375,-0.6894938349723816,-0.4002576768398285,0.6426113247871399
1763692632966186500,10.9691865234375,-0.6626165509223938,-0.32817769050598145,0.6731536984443665
1763692632975772000,10.97877197265625,-0.6369609832763672,-0.25121092796325684,0.6707102656364441
1763692632985358000,10.988358154296876,-0.6161921620368958,-0.1754658818244934,0.6377245187759399
1763692632994944800,10.99794482421875,-0.6088619828224182,-0.11438114941120148,0.585038959980011
1763692633004531000,11.007531005859375,-0.6174138784408569,-0.07773031294345856,0.5227325558662415
1763692633014116000,11.0171162109375,-0.6430694460868835,-0.07650861889123917,0.45798271894454956
1763692633023702300,11.026702392578125,-0.6809419989585876,-0.09605573117733002,0.3871244490146637
1763692633033289200,11.036289306640626,-0.7151494026184082,-0.11438114941120148,0.3052709102630615
1763692633042875100,11.045875244140625,-0.7432484030723572,-0.11682453751564026,0.2160872220993042
1763692633052460500,11.05546044921875,-0.7542436718940735,-0.10338589549064636,0.14156384766101837
1763692633062046700,11.065046630859374,-0.742026686668396,-0.10460758954286575,0.0975828468799591
1763692633071633400,11.07463330078125,-0.7151494026184082,-0.14248012006282806,0.0841442123055458
1763692633081219600,11.084219482421876,-0.6833853721618652,-0.18768282234668732,0.10491301864385605
1763692633090804700,11.0938046875,-0.6467345356941223,-0.22555534541606903,0.1525591015815735
1763692633100391000,11.103390869140625,-0.5917583107948303,-0.2438807636499405,0.21975229680538177
1763692633109977900,11.112977783203124,-0.5233433842658997,-0.2304421216249466,0.2942756712436676
1763692633119564000,11.12256396484375,-0.4891359508037567,-0.22066856920719147,0.35413870215415955
1763692633129149200,11.132149169921876,-0.49524441361427307,-0.18646112084388733,0.3846810758113861
1763692633138735400,11.1417353515625,-0.5037962794303894,-0.1363716572523117,0.39201122522354126
1763692633148322300,11.151322265625,-0.49768781661987305,-0.0850604772567749,0.38956785202026367
1763692633157908200,11.160908203125,-0.49890950322151184,-0.0032069480512291193,0.38101598620414734
1763692633167493600,11.17049365234375,-0.5599942207336426,0.13484452664852142,0.36635565757751465
1763692633177079800,11.180079833984376,-0.5673243999481201,0.2985515892505646,0.3578037917613983
1763692633186666500,11.18966650390625,-0.4781406819820404,0.3865135908126831,0.3248180150985718
1763692633196252700,11.199252685546876,-0.3571929335594177,0.5025745630264282,0.27839362621307373
1763692633205837800,11.208837890625,-0.26067906618118286,0.5673243999481201,0.23929941654205322
1763692633215424000,11.218424072265625,-0.19470755755901337,0.5697677731513977,0.20142687857151031
1763692633225011000,11.228010986328124,-0.1385096162557602,0.5599942207336426,0.14156384766101837
1763692633234596900,11.237596923828125,-0.08719844371080399,0.529451847076416,0.06826218217611313
1763692633244182300,11.247182373046876,-0.033443886786699295,0.4622586667537689,-0.001374406274408102
1763692633253768400,11.2567685546875,0.025197450071573257,0.3706315755844116,-0.05268557742238045
1763692633263355400,11.26635546875,0.07895200699567795,0.2777827978134155,-0.0856713280081749
1763692633272941300,11.27594140625,0.12904147803783417,0.20936790108680725,-0.10766182839870453
1763692633282526700,11.285526611328125,0.17057909071445465,0.24968381226062775,-0.12720894813537598
1763692633292112600,11.295112548828126,0.19501298666000366,0.42927291989326477,-0.15775130689144135
1763692633301699600,11.304699462890625,0.2304421216249466,0.5184566378593445,-0.19195875525474548
1763692633311285800,11.31428564453125,0.28786176443099976,0.6186355352401733,-0.2041756957769394
1763692633320871000,11.323870849609374,0.33917292952537537,0.6919372081756592,-0.18096350133419037
1763692633330457000,11.33345703125,0.3733803927898407,0.746913492679596,-0.12720894813537598
1763692633340044000,11.3430439453125,0.3953709006309509,0.7627955079078674,-0.05268557742238045
1763692633349630000,11.3526298828125,0.4259132444858551,0.7798992395401001,0.04016320779919624
1763692633359215400,11.36221533203125,0.4784461259841919,0.8409839868545532,0.14156384766101837
1763692633368801300,11.37180126953125,0.5493044257164001,0.9130639433860779,0.24907296895980835
1763692633378388200,11.38138818359375,0.6140542030334473,0.977813720703125,0.35169529914855957
1763692633387974400,11.390974365234374,0.6653653979301453,1.0547804832458496,0.4396573007106781
1763692633397559600,11.4005595703125,0.6946860551834106,1.1402990818023682,0.5117372870445251
1763692633407145700,11.410145751953126,0.709346354007721,1.223374366760254,0.5716003179550171
1763692633416732700,11.419732666015625,0.7203416228294373,1.283237338066101,0.6265766024589539
1763692633426318600,11.429318603515625,0.7203416228294373,1.3125580549240112,0.6731536984443665
1763692633435904000,11.438904052734374,0.7069029808044434,1.3101146221160889,0.6988092660903931
1763692633445490200,11.448490234375,0.6800256967544556,1.2954543828964233,0.6902574300765991
1763692633455076900,11.458076904296876,0.6482616662979126,1.2917892932891846,0.6413896083831787
1763692633464663000,11.4676630859375,0.6164975762367249,1.307671308517456,0.553274929523468
1763692633474248400,11.47724853515625,0.5859552621841431,1.3418787717819214,0.4408790171146393
1763692633483834400,11.48683447265625,0.5676298141479492,1.3699777126312256,0.32848310470581055
1763692633493421300,11.49642138671875,0.571294903755188,1.3724210262298584,0.241742804646492
1763692633503007500,11.506007568359376,0.6018372774124146,1.3357702493667603,0.19531841576099396
1763692633512592600,11.515592529296875,0.6580352187156677,1.2575818300247192,0.18676654994487762
1763692633522178800,11.5251787109375,0.7398887276649475,1.1488510370254517,0.20509196817874908
1763692633531765800,11.534765869140625,0.8388460278511047,1.001025915145874,0.22463907301425934
1763692633541351700,11.5443515625,0.9402466416358948,0.8104416131973267,0.23441264033317566
1763692633550937000,11.55393701171875,1.0184351205825806,0.5990884304046631,0.23441264033317566
1763692633560523300,11.563523193359375,1.0563076734542847,0.4011739492416382,0.22708246111869812
1763692633570110000,11.57310986328125,1.0844066143035889,0.3071034550666809,0.20753535628318787
1763692633579696000,11.582696044921875,1.1296093463897705,0.3449759781360626,0.18065807223320007
1763692633589281500,11.592281494140625,1.209019422531128,0.5013529062271118,0.14522893726825714
1763692633598867500,11.601867431640626,1.2957597970962524,0.6833853721618652,0.10613471269607544
1763692633608454400,11.611454345703125,1.3360756635665894,0.7762341499328613,0.06948387622833252
1763692633618040300,11.621040283203126,1.3091983795166016,0.793337881565094,0.030389651656150818
1763692633627625700,11.630625732421874,1.2200146913528442,0.7835643291473389,-0.008704573847353458
1763692633637212000,11.6402119140625,1.0905150175094604,0.8177717924118042,-0.046577103435993195
1763692633646798800,11.649798828125,0.9671239256858826,1.0462286472320557,-0.08689302206039429
1763692633656384800,11.659384765625,0.8999307155609131,1.4811519384384155,-0.11865708231925964
1763692633665970200,11.66897021484375,0.8620582222938538,1.9808249473571777,-0.14064757525920868
1763692633675556400,11.678556396484375,0.7545490860939026,2.4194133281707764,-0.1626380831003189
1763692633685143000,11.68814306640625,0.5285356044769287,2.707885980606079,-0.18707197904586792
1763692633694729200,11.697729248046874,0.19379130005836487,2.7555320262908936,-0.2176143378019333
1763692633704314400,11.707314453125,-0.15561333298683167,2.6197712421417236,-0.23593975603580475
1763692633713900500,11.716900634765626,-0.41949936747550964,2.5354743003845215,-0.20661908388137817
1763692633723487500,11.726487548828125,-0.5404471158981323,2.568459987640381,-0.10521844029426575
1763692633733073400,11.736073486328126,-0.5428904891014099,2.609997510910034,0.06459710001945496
1763692633742658800,11.745658935546874,-0.552664041519165,2.5037102699279785,0.3358132839202881
1763692633752245000,11.755244873046875,-0.6210789680480957,2.357106924057007,0.6229115128517151
1763692633761832000,11.76483203125,-0.6418477296829224,2.375432252883911,0.8441908955574036
1763692633771417900,11.77441796875,-0.589314877986908,2.631988048553467,0.9675820469856262
1763692633781003300,11.784003173828125,-0.5257867574691772,3.065842390060425,1.0115630626678467
1763692633790589400,11.79358935546875,-0.5673243999481201,3.4213554859161377,1.0237799882888794
1763692633800176000,11.803176025390625,-0.742026686668396,3.53497314453125,1.0531007051467896
1763692633809762300,11.81276220703125,-0.9961391687393188,3.3834829330444336,1.1178505420684814
1763692633819347500,11.822347412109375,-1.246586561203003,2.9497814178466797,1.211920976638794
1763692633828933600,11.83193359375,-1.4616048336029053,2.3644371032714844,1.3182083368301392
1763692633838520600,11.8415205078125,-1.566670536994934,2.04557466506958,1.4073920249938965
1763692633848106500,11.8511064453125,-1.5593403577804565,2.048018217086792,1.484358787536621
1763692633857692000,11.86069189453125,-1.5080292224884033,2.1225414276123047,1.5784293413162231
1763692633867277800,11.87027783203125,-1.5080292224884033,2.1591923236846924,1.6810516119003296
1763692633876864800,11.87986474609375,-1.5459016561508179,2.126206636428833,1.7641268968582153
1763692633886451000,11.889450927734375,-1.5568969249725342,2.0467965602874756,1.7787872552871704
1763692633896036000,11.8990361328125,-1.6741796731948853,1.9502825736999512,1.7164808511734009
1763692633905622300,11.908622314453124,-1.7926839590072632,1.9050798416137695,1.596754789352417
1763692633915209200,11.918209228515625,-1.8012359142303467,1.7523680925369263,1.3634110689163208
1763692633924795400,11.92779541015625,-1.7340426445007324,1.5178027153015137,1.1642749309539795
1763692633934380500,11.937380615234375,-1.6644060611724854,1.2991193532943726,1.068982720375061
1763692633943966700,11.946966796875,-1.6741796731948853,1.0828794240951538,1.0384403467178345
1763692633953553700,11.9565537109375,-1.6912833452224731,0.8128849864006042,1.086086392402649
1763692633963139600,11.9661396484375,-1.63019859790802,0.5538857579231262,1.2082558870315552
1763692633972725000,11.97572509765625,-1.5532318353652954,0.3742966651916504,1.3560808897018433
1763692633982311200,11.985311279296875,-1.495812177658081,0.25212720036506653,1.4929107427597046
1763692633991897900,11.99489794921875,-1.4481661319732666,0.23991025984287262,1.5857595205307007
1763692634001484000,12.004484130859375,-1.3883031606674194,0.35108447074890137,1.6028631925582886
1763692634011069200,12.014069091796875,-1.301562786102295,0.48547086119651794,1.5332266092300415
1763692634020655400,12.0236552734375,-1.1549594402313232,0.603975236415863,1.3817365169525146
1763692634030242300,12.0332421875,-0.9167290329933167,0.7847860455513,1.133732557296753
1763692634039828200,12.042828125,-0.6369609832763672,0.9680401682853699,0.8246437907218933
1763692634049413600,12.05241357421875,-0.3865135908126831,0.7359182238578796,0.5044071078300476
