time,seconds_elapsed,z,y,x
1763692622177990400,0.180990478515625,9.614959716796875,4.373481750488281,0.7755736112594604
1763692622187768600,0.1907685546875,9.67238712310791,4.366302967071533,0.5721837282180786
1763692622207324400,0.210324462890625,9.760921478271484,4.043272018432617,0.31345975399017334
1763692622217102300,0.220102294921875,9.736993789672852,3.9448671340942383,0.2632105052471161
1763692622226880300,0.22988037109375,9.576674461364746,3.8276188373565674,0.21296121180057526
1763692622236658200,0.239658203125,9.46899700164795,3.691227912902832,0.21296121180057526
1763692622246436000,0.24943603515625,9.451948165893555,3.6529428958892822,0.24646073579788208
1763692622256214000,0.259214111328125,9.418449401855469,3.6146576404571533,0.28235307335853577
1763692622265992200,0.2689921875,9.524032592773438,3.4372897148132324,0.4573282301425934
1763692622275770000,0.27877001953125,9.725028991699219,3.0759735107421875,0.7827520966529846
1763692622285548000,0.288548095703125,9.868598937988281,2.937189817428589,1.2640085220336914
1763692622295326000,0.298325927734375,10.050752639770508,2.8196423053741455,1.6854444742202759
1763692622305104000,0.308103759765625,10.156036376953125,2.5683960914611816,1.7237296104431152
1763692622314881500,0.317881591796875,10.366604804992676,2.4750759601593018,1.2616157531738281
1763692622324659500,0.327659423828125,10.687541961669922,2.374577283859253,0.4094717800617218
1763692622334437400,0.337437255859375,10.400104522705078,2.1613171100616455,-0.5506483316421509
1763692622344211500,0.34721142578125,8.901598930358887,0.8781659007072449,-1.501197099685669
1763692622353989000,0.356989013671875,9.004490852355957,0.698704183101654,-2.1164517402648926
1763692622363766800,0.366766845703125,10.438389778137207,2.1158533096313477,-1.599302887916565
1763692622373544700,0.376544677734375,12.305987358093262,3.214757204055786,-0.40229329466819763
1763692622383322600,0.386322509765625,13.732707977294922,3.832404613494873,0.2871387302875519
1763692622393100500,0.3961005859375,13.400105476379395,3.681656837463379,0.5051847100257874
1763692622402878500,0.40587841796875,12.765409469604492,3.4998021125793457,0.5315057039260864
1763692622412656000,0.41565625,11.635398864746094,3.64337158203125,1.0534402132034302
1763692622422434000,0.42543408203125,7.718647480010986,3.7749767303466797,1.8816559314727783
1763692622432212000,0.4352119140625,3.200998544692993,3.2650065422058105,2.1714866161346436
1763692622441990000,0.444989990234375,1.2116655111312866,4.019044876098633,2.7508487701416016
1763692622451767600,0.454767578125,2.9042885303497314,5.26181697845459,3.7516467571258545
1763692622461545500,0.46454541015625,5.769992828369141,5.721538066864014,4.658825874328613
1763692622471323400,0.474323486328125,6.555137634277344,5.424529075622559,5.075475692749023
1763692622481101300,0.484101318359375,5.018347263336182,4.751846790313721,4.2469611167907715
1763692622490879200,0.493879150390625,5.597709655761719,4.277768611907959,2.8704898357391357
1763692622500657000,0.503656982421875,6.844968318939209,4.079164505004883,2.0207388401031494
1763692622510434800,0.513434814453125,7.565506935119629,3.8826539516448975,1.8529419898986816
1763692622520212700,0.523212646484375,8.252546310424805,3.739084482192993,1.7859430313110352
1763692622529990700,0.53299072265625,8.85344409942627,3.6146576404571533,1.6806588172912598
1763692622539768300,0.542768310546875,8.899206161499023,3.602693557739258,1.6351951360702515
1763692622549546200,0.552546142578125,8.549555778503418,3.657728433609009,1.7979071140289307
1763692622559324200,0.56232421875,7.915158271789551,3.509373426437378,2.30069899559021
1763692622569102000,0.57210205078125,7.280761241912842,3.205185890197754,2.667099952697754
1763692622578880000,0.5818798828125,6.998108863830566,2.032104730606079,1.8840487003326416
1763692622588657700,0.59165771484375,7.534400463104248,1.2900304794311523,2.286342144012451
1763692622598435600,0.601435546875,7.785945892333984,1.550848126411438,2.4945175647735596
1763692622608213500,0.611213623046875,8.745766639709473,2.4415764808654785,2.832204818725586
1763692622617991400,0.620991455078125,9.083454132080078,2.1541385650634766,2.17627215385437
1763692622627616000,0.630615966796875,10.012167930603027,2.7023940086364746,2.8513472080230713
1763692622637202000,0.640201904296875,9.77527904510498,2.7741787433624268,2.396411895751953
1763692622646788900,0.649788818359375,9.358628273010254,1.306780219078064,2.7652056217193604
1763692622656374800,0.659374755859375,11.343474388122559,1.6704893112182617,1.843370795249939
1763692622665960200,0.668960205078125,11.350653648376465,4.134199142456055,1.8649061918258667
1763692622675546400,0.67854638671875,10.993824005126953,4.921737194061279,2.1714866161346436
1763692622685133000,0.688133056640625,10.675578117370605,3.8419759273529053,2.449054002761841
1763692622694719200,0.69771923828125,10.407282829284668,2.321636199951172,2.231307029724121
1763692622704304400,0.707304443359375,10.388140678405762,1.7446668148040771,1.7189439535140991
1763692622713890600,0.716890625,10.538887977600098,2.1828525066375732,1.2472587823867798
1763692622723477500,0.7264775390625,10.761719703674316,2.8435707092285156,1.074975609779358
1763692622733063400,0.7360634765625,10.893324851989746,3.298506021499634,1.0606186389923096
1763692622742648800,0.74564892578125,10.759326934814453,3.7175490856170654,1.1395817995071411
1763692622752235000,0.755235107421875,7.9366936683654785,4.237090587615967,0.9481559991836548
1763692622761821700,0.76482177734375,6.409175395965576,4.493122577667236,0.3038884699344635
1763692622771408000,0.774407958984375,7.05553674697876,4.792524814605713,-0.35443684458732605
1763692622780993000,0.783992919921875,7.756932735443115,4.900201797485352,-0.44775694608688354
1763692622790579200,0.7935791015625,5.702993869781494,4.280161380767822,-0.766002357006073
1763692622800166100,0.803166259765625,6.186643123626709,4.011866092681885,-1.017547845840454
1763692622809752000,0.812751953125,7.012465953826904,4.397409915924072,-1.1802598237991333
1763692622819337500,0.82233740234375,7.7955169677734375,4.778167724609375,-1.3357932567596436
1763692622828923400,0.83192333984375,8.300402641296387,4.794917583465576,-1.3815559148788452
1763692622838510300,0.84151025390625,8.855836868286133,4.598706245422363,-1.2640085220336914
1763692622848096500,0.851096435546875,9.23898696899414,4.2825541496276855,-1.2472587823867798
1763692622857681700,0.860681640625,9.018847465515137,4.103092670440674,-1.2329018115997314
1763692622867267800,0.870267822265625,8.73619556427002,4.028615951538086,-1.3911272287368774
1763692622876854500,0.8798544921875,8.034799575805664,4.256233215332031,-1.6734803915023804
1763692622886440700,0.889440673828125,7.5535430908203125,4.244269371032715,-2.1332013607025146
1763692622896026000,0.899026123046875,7.850552082061768,4.050450325012207,-2.6192433834075928
1763692622905612000,0.908612060546875,8.879764556884766,3.9448671340942383,-2.7987051010131836
1763692622915199000,0.918198974609375,9.92841911315918,4.0094733238220215,-2.549851655960083
1763692622924785000,0.927784912109375,10.555638313293457,4.141377925872803,-2.1954147815704346
1763692622934370300,0.937370361328125,10.692328453063965,4.146163463592529,-2.1547367572784424
1763692622943956500,0.94695654296875,10.400104522705078,4.134199142456055,-2.487638235092163
1763692622953543200,0.956543212890625,9.89970588684082,4.0935211181640625,-2.817847728729248
1763692622963129300,0.96612939453125,9.53360366821289,4.050450325012207,-2.9327032566070557
1763692622972714500,0.975714599609375,9.69631576538086,4.007080554962158,-2.927917718887329
1763692622982300700,0.98530078125,9.961918830871582,3.9759738445281982,-2.7987051010131836
1763692622991887600,0.9948876953125,10.009775161743164,3.9879379272460938,-2.6790640354156494
1763692623001473500,1.0044736328125,9.787242889404297,3.9448671340942383,-2.6647071838378906
1763692623011059000,1.014058837890625,9.382556915283203,3.904189348220825,-2.705385208129883
1763692623020644900,1.023644775390625,9.179166793823242,3.904189348220825,-2.676671266555786
1763692623030231800,1.033231689453125,9.310771942138672,3.863511323928833,-2.511566400527954
1763692623039818000,1.04281787109375,9.591031074523926,3.7247276306152344,-2.1475582122802734
1763692623049403100,1.052403076171875,5.813063621520996,3.856332778930664,-2.0207388401031494
1763692623058989300,1.0619892578125,11.302797317504883,3.691227912902832,-1.5705889463424683
1763692623068576300,1.071576171875,10.620543479919434,3.1956145763397217,-1.220937728881836
1763692623078162200,1.081162109375,9.23898696899414,3.0616166591644287,-1.1395817995071411
1763692623087747600,1.09074755859375,10.129715919494629,3.157329559326172,-0.797109067440033
1763692623097333800,1.100333740234375,9.765707015991211,3.2793633937835693,-0.6343970894813538
1763692623106920400,1.10992041015625,9.46181869506836,3.1621150970458984,-0.5961119532585144
1763692623116506600,1.119506591796875,9.382556915283203,2.8986055850982666,-0.6296114325523376
1763692623126091800,1.129091796875,8.772088050842285,2.649751901626587,-0.8763712644577026
1763692623135678000,1.138677978515625,9.514460563659668,2.5420749187469482,-0.797109067440033
1763692623145265000,1.148264892578125,9.416056632995605,2.3721845149993896,-0.8500502705574036
1763692623154850800,1.157850830078125,9.686744689941406,2.2498514652252197,-0.8404789566993713
1763692623164436200,1.167436279296875,9.997811317443848,2.2713868618011475,-0.6966105103492737
1763692623174022100,1.177022216796875,10.177572250366211,2.1852452754974365,-0.6200401782989502
1763692623183609000,1.186609130859375,10.251749038696289,1.8454644680023193,-0.828514814376831
1763692623193195000,1.196195068359375,10.682756423950195,1.9555343389511108,-0.5315057039260864
1763692623202780400,1.205780517578125,10.22303581237793,1.9914265871047974,-0.579362154006958
1763692623212366600,1.21536669921875,10.42642593383789,2.0105693340301514,-0.38793638348579407
1763692623221953300,1.224953369140625,10.148858070373535,2.000998020172119,-0.46450668573379517
1763692623231539500,1.23453955078125,9.751350402832031,2.1206390857696533,-0.5147559642791748
1763692623241124900,1.244124755859375,9.38016414642334,2.2546372413635254,-0.35922250151634216
1763692623250710800,1.253710693359375,9.236594200134277,2.2474586963653564,-0.06939185410737991
1763692623260297700,1.263297607421875,9.538389205932617,2.046461582183838,0.41186460852622986
1763692623269883600,1.272883544921875,10.117751121520996,2.1828525066375732,1.1084750890731812
1763692623279469000,1.282468994140625,10.64686393737793,2.360220432281494,1.5346965789794922
1763692623289055200,1.29205517578125,10.821540832519531,2.3024935722351074,1.6495521068572998
1763692623298642000,1.301641845703125,10.661221504211426,2.0679969787597656,1.4533406496047974
1763692623308228000,1.31122802734375,10.368997573852539,1.8478572368621826,1.1228320598602295
1763692623317813200,1.320813232421875,10.194321632385254,1.8717855215072632,0.9266205430030823
1763692623327399400,1.3303994140625,9.990633010864258,1.811964988708496,0.5123631358146667
1763692623336986400,1.339986328125,10.079465866088867,1.6513466835021973,0.004785645287483931
1763692623346572300,1.349572265625,10.44796085357666,2.5133609771728516,0.2799602448940277
1763692623356157700,1.35915771484375,10.357033729553223,2.398505687713623,0.4381856322288513
1763692623365743600,1.36874365234375,10.321141242980957,1.8526428937911987,0.7827520966529846
1763692623375330600,1.37833056640625,10.524531364440918,1.7566308975219727,1.189831018447876
1763692623384916700,1.387916748046875,10.591829299926758,1.80717933177948,1.5945172309875488
1763692623394502000,1.397501953125,10.546066284179688,1.5293127298355103,1.7596219778060913
1763692623404088000,1.407088134765625,10.450353622436523,1.6322041749954224,1.197009563446045
1763692623413675000,1.416675048828125,10.72582721710205,1.5340983867645264,1.1371889114379883
1763692623423261000,1.426260986328125,10.627721786499023,1.7207385301589966,1.1276177167892456
1763692623432846300,1.435846435546875,5.947061538696289,2.08713960647583,0.9960124492645264
1763692623442432500,1.4454326171875,9.509675025939941,1.7422740459442139,2.5423741340637207
1763692623452019200,1.455019287109375,9.258130073547363,0.9810572862625122,1.4434702396392822
1763692623461605400,1.46460546875,8.714659690856934,1.5101702213287354,1.0773683786392212
1763692623471190500,1.4741904296875,9.413662910461426,1.8741782903671265,1.1611171960830688
1763692623480776700,1.483776611328125,9.593423843383789,1.775773525238037,1.1324033737182617
1763692623490363600,1.49336376953125,9.739386558532715,1.6657036542892456,1.012762188911438
1763692623499949600,1.502949462890625,9.68913745880127,1.4192429780960083,0.4381856322288513
1763692623509535000,1.512534912109375,9.904491424560547,1.215553879737854,0.16271193325519562
1763692623519121000,1.522120849609375,9.8207426071167,1.3450654745101929,0.031106693670153618
1763692623528707800,1.531707763671875,9.832706451416016,1.3307085037231445,-0.2225325107574463
1763692623538293800,1.541293701171875,9.981060981750488,1.491027593612671,-0.2754737138748169
1763692623547879200,1.550879150390625,9.985847473144531,1.8526428937911987,-0.4860421121120453
1763692623557465300,1.56046533203125,9.210273742675781,1.8598214387893677,-0.014356935396790504
1763692623567052000,1.570052001953125,8.484949111938477,1.0791629552841187,-0.2994019389152527
1763692623576638200,1.57963818359375,8.135297775268555,0.42323049902915955,-0.6559324860572815
1763692623586223400,1.589223388671875,7.316653251647949,1.7662022113800049,-3.0355947017669678
1763692623595809500,1.5988095703125,9.100203514099121,3.078366279602051,-0.6894320249557495
1763692623605396500,1.608396484375,8.204689979553223,2.08713960647583,-2.1308085918426514
1763692623614982400,1.617982421875,8.492127418518066,1.71595299243927,-4.077070713043213
1763692623624567800,1.62756787109375,9.097810745239258,1.0815558433532715,-5.846263885498047
1763692623634154000,1.637154052734375,9.739386558532715,1.922034740447998,-5.678766250610352
1763692623643740700,1.64674072265625,8.180761337280273,1.953141450881958,-5.477769374847412
1763692623653326800,1.656326904296875,7.754539966583252,1.6298112869262695,-5.235795021057129
1763692623662912000,1.665912109375,10.172786712646484,2.525325298309326,-4.07467794418335
1763692623672498200,1.675498291015625,10.34028434753418,2.6856443881988525,-3.675076484680176
1763692623682085000,1.685085205078125,9.610174179077148,2.690429925918579,-3.6726837158203125
1763692623691671000,1.694671142578125,9.346664428710938,2.2737796306610107,-3.4474592208862305
1763692623701256400,1.70425634765625,8.714659690856934,2.388934373855591,-3.339782238006592
1763692623710842600,1.713842529296875,8.810373306274414,2.6234309673309326,-3.8162529468536377
1763692623720429300,1.72342919921875,9.219844818115234,2.903391122817993,-4.244867324829102
1763692623730015500,1.733015380859375,9.942776679992676,2.5995028018951416,-4.610969066619873
1763692623739600600,1.7426005859375,10.148858070373535,2.015354871749878,-4.536791801452637
1763692623749186800,1.752186767578125,11.147263526916504,1.1318050622940063,-4.141676902770996
1763692623758773800,1.761773681640625,10.357033729553223,1.4001003503799438,-4.445864677429199
1763692623768359700,1.771359619140625,10.103394508361816,1.256531000137329,-5.827121257781982
1763692623777945000,1.780945068359375,10.019645690917969,1.6872390508651733,-5.793622016906738
1763692623787531000,1.790531005859375,9.801599502563477,2.6401805877685547,-6.353841304779053
1763692623797118000,1.800117919921875,8.685946464538574,3.1381869316101074,-6.823133945465088
1763692623806704000,1.8097041015625,7.493722438812256,2.7981069087982178,-6.811169624328613
1763692623816289300,1.819289306640625,6.457031726837158,2.4511477947235107,-6.55992317199707
1763692623825875500,1.82887548828125,6.066702842712402,3.0831520557403564,-6.346662998199463
1763692623835462100,1.838462158203125,5.624030590057373,3.111865758895874,-5.688337802886963
1763692623845048300,1.84804833984375,5.578567028045654,2.6066811084747314,-5.810371398925781
1763692623854633700,1.8576337890625,6.746862411499023,2.4104697704315186,-6.538387775421143
1763692623864219600,1.8672197265625,6.535995006561279,2.539682149887085,-6.516852378845215
1763692623873806600,1.876806640625,7.036394119262695,3.1453654766082764,-6.6006011962890625
1763692623883392500,1.886392578125,6.227321147918701,3.48783802986145,-7.502994537353516
1763692623892978000,1.89597802734375,5.803492069244385,4.0166521072387695,-7.701898097991943
1763692623902564000,1.905564208984375,5.585745334625244,4.182055950164795,-7.385746002197266
1763692623912150800,1.91515087890625,6.540780544281006,3.784548044204712,-7.340282440185547
1763692623921737000,1.924737060546875,6.571887493133545,3.183650493621826,-7.491030216217041
1763692623931322000,1.934322021484375,6.634100914001465,2.7239294052124023,-7.4479594230651855
1763692623940908300,1.943908203125,7.086643218994141,2.587538480758667,-7.220641613006592
1763692623950495200,1.9534951171875,6.579065799713135,2.4990041255950928,-6.904489517211914
1763692623960081200,1.9630810546875,5.96381139755249,2.913261651992798,-6.729813575744629
1763692623969666600,1.97266650390625,5.31266450881958,3.571586847305298,-6.887740135192871
1763692623979252500,1.98225244140625,4.680660247802734,3.794119358062744,-7.136892795562744
1763692623988839400,1.99183935546875,4.3788652420043945,3.588336706161499,-7.469494819641113
1763692623998425600,2.001425537109375,4.754837512969971,3.1621150970458984,-7.895716667175293
1763692624008010800,2.0110107421875,5.329414367675781,3.1070802211761475,-8.262117385864258
1763692624017597000,2.020596923828125,5.841777324676514,3.308077335357666,-8.642576217651367
1763692624027183900,2.030183837890625,6.332605361938477,3.0185458660125732,-9.090332984924316
1763692624036769800,2.039769775390625,6.172286033630371,2.6090738773345947,-9.37059211730957
1763692624046355200,2.049355224609375,5.987739562988281,2.6760730743408203,-9.23898696899414
1763692624055941400,2.05894140625,5.944668769836426,3.571586847305298,-8.997013092041016
1763692624065528000,2.068528076171875,5.3940205574035645,4.452444553375244,-8.290831565856934
1763692624075114200,2.0781142578125,5.228915691375732,4.682454586029053,-7.864609718322754
1763692624084699400,2.087699462890625,5.2767720222473145,4.625027179718018,-7.567899703979492
1763692624094285600,2.09728564453125,5.516054630279541,4.411766529083252,-7.3043904304504395
1763692624103872500,2.10687255859375,5.051846981048584,4.0528435707092285,-6.803991317749023
1763692624113458400,2.11645849609375,4.108476638793945,3.456432342529297,-7.797610759735107
1763692624123043600,2.126043701171875,4.563411712646484,2.3650059700012207,-10.308877944946289
1763692624132629800,2.135629638671875,4.333401679992676,0.4950151741504669,-11.204392433166504
1763692624142216700,2.145216796875,3.6176488399505615,1.1150553226470947,-9.48066234588623
1763692624151802600,2.154802734375,3.1148569583892822,1.739881157875061,-8.906085968017578
1763692624161388000,2.164387939453125,2.6479573249816895,2.1230318546295166,-8.336295127868652
1763692624170974000,2.173973876953125,2.3249263763427734,2.664108991622925,-8.053643226623535
1763692624180561000,2.183560791015625,2.0470597743988037,3.0424740314483643,-7.960322856903076
1763692624190147000,2.19314697265625,1.6618152856826782,3.0041887760162354,-8.546863555908203
1763692624199732200,2.202732177734375,1.4820544719696045,2.508575439453125,-9.166903495788574
1763692624209318400,2.212318359375,1.4006985425949097,2.0368902683258057,-9.633803367614746
1763692624218905300,2.2219052734375,1.3695918321609497,1.6872390508651733,-10.026525497436523
1763692624228491300,2.2314912109375,1.226022481918335,1.471885085105896,-10.174880027770996
1763692624238076700,2.24107666015625,1.036690354347229,1.471885085105896,-10.079167366027832
1763692624247662800,2.250662841796875,0.9098708033561707,1.491027593612671,-9.710372924804688
1763692624257249500,2.26024951171875,0.735194742679596,1.6776677370071411,-9.227023124694824
1763692624266835700,2.269835693359375,0.5581258535385132,1.933998942375183,-8.83669376373291
1763692624276420900,2.2794208984375,0.47168517112731934,2.2019951343536377,-8.554041862487793
1763692624286007000,2.289007080078125,0.38793638348579407,2.4750759601593018,-8.463114738464355
1763692624295594000,2.298593994140625,0.368793785572052,2.6760730743408203,-8.589934349060059
1763692624305180000,2.308179931640625,0.5365904569625854,2.7789642810821533,-8.841479301452637
1763692624314765300,2.317765380859375,0.8428717851638794,2.848356246948242,-9.234201431274414
1763692624324351500,2.3273515625,1.2164511680603027,2.932404041290283,-9.492626190185547
1763692624333938200,2.336938232421875,1.5705889463424683,3.016152858734131,-9.547661781311035
1763692624343524400,2.3465244140625,1.8963119983673096,3.1166515350341797,-9.468698501586914
1763692624353109500,2.356109619140625,2.1403799057006836,3.2482566833496094,-9.332307815551758
1763692624362695700,2.36569580078125,2.2603201866149902,3.3918261528015137,-9.075976371765137
1763692624372282600,2.37528271484375,2.430210590362549,3.4902310371398926,-8.781659126281738
1763692624381868500,2.38486865234375,2.628814697265625,3.502195119857788,-8.575576782226562
1763692624391454000,2.394453857421875,2.7726831436157227,3.5141592025756836,-8.532505989074707
1763692624401040000,2.404039794921875,2.899502754211426,3.5285160541534424,-8.494221687316895
1763692624410626800,2.413626708984375,3.035893678665161,3.5452659130096436,-8.479864120483398
1763692624420213000,2.423212890625,3.2201411724090576,3.6003007888793945,-8.53729248046875
1763692624429798100,2.432798095703125,3.3424742221832275,3.6553356647491455,-8.65214729309082
1763692624439384300,2.44238427734375,3.478864908218384,3.691227912902832,-8.779266357421875
1763692624448971000,2.451970947265625,3.615255832672119,3.660121440887451,-8.874979019165039
1763692624458557200,2.46155712890625,3.605684518814087,3.6553356647491455,-8.870193481445312
1763692624468142300,2.471142333984375,3.5458641052246094,3.619443416595459,-8.827122688293457
1763692624477728500,2.480728515625,3.4908292293548584,3.595515012741089,-8.678768157958984
1763692624487315500,2.4903154296875,3.4118659496307373,3.5668013095855713,-8.506185531616211
1763692624496901400,2.4999013671875,3.3017961978912354,3.547658681869507,-8.410472869873047
1763692624506486800,2.50948681640625,3.253640651702881,3.5524442195892334,-8.338687896728516
1763692624516073000,2.519072998046875,3.224926710128784,3.526123285293579,-8.283653259277344
1763692624525659600,2.52865966796875,3.2033913135528564,3.5691940784454346,-8.235795974731445
1763692624535245800,2.538245849609375,3.1866414546966553,3.64337158203125,-8.226224899291992
1763692624544831000,2.5478310546875,3.153141975402832,3.739084482192993,-8.283653259277344
1763692624554417200,2.557417236328125,3.145963668823242,3.825226068496704,-8.367402076721191
1763692624573590000,2.576590087890625,3.0933215618133545,3.839582920074463,-8.525327682495117
1763692624583175400,2.586175537109375,3.10528564453125,3.76779842376709,-8.640183448791504
1763692624592761300,2.59576123046875,3.088535785675049,3.712763547897339,-8.7505521774292
1763692624602348300,2.605348388671875,3.07417893409729,3.6720855236053467,-8.827122688293457
1763692624611934500,2.6149345703125,3.0478577613830566,3.6338002681732178,-8.872586250305176
1763692624621519600,2.62451953125,3.01196551322937,3.6098721027374268,-8.901300430297852
1763692624631105800,2.634105712890625,3.0239295959472656,3.6314074993133545,-8.920442581176758
1763692624640692700,2.643692626953125,3.0478577613830566,3.6696925163269043,-8.918049812316895
1763692624650278700,2.653278564453125,3.0693931579589844,3.7199418544769287,-8.874979019165039
1763692624659864000,2.662864013671875,3.04307222366333,3.7749767303466797,-8.83669376373291
1763692624669450200,2.6724501953125,3.0789644718170166,3.791726589202881,-8.8438720703125
1763692624679037000,2.682036865234375,3.1339993476867676,3.808476448059082,-8.82233715057373
1763692624688623000,2.691623046875,3.160320520401001,3.79890513420105,-8.824729919433594
1763692624698208300,2.701208251953125,3.1651060581207275,3.7893338203430176,-8.858229637145996
1763692624707794400,2.71079443359375,3.1268210411071777,3.7438700199127197,-8.922835350036621
1763692624717381400,2.72038134765625,3.0933215618133545,3.6696925163269043,-9.013762474060059
1763692624726967300,2.72996728515625,3.0861430168151855,3.588336706161499,-9.107083320617676
1763692624736552400,2.739552490234375,3.160320520401001,3.5045878887176514,-9.265308380126953
1763692624746138600,2.749138671875,3.2727832794189453,3.434896945953369,-9.4088773727417
1763692624755725600,2.7587255859375,3.3592238426208496,3.377469062805176,-9.516554832458496
1763692624765311500,2.7683115234375,3.344866991043091,3.3439695835113525,-9.52612590789795
1763692624774897000,2.77789697265625,3.285046339035034,3.3272199630737305,-9.528518676757812
1763692624784482800,2.78748291015625,3.2751760482788086,3.291327476501465,-9.468698501586914
1763692624794069800,2.79706982421875,3.2129626274108887,3.2410783767700195,-9.389735221862793
1763692624803656000,2.806656005859375,3.119642496109009,3.238685369491577,-9.303593635559082
1763692624813241000,2.816240966796875,3.059821844100952,3.2243285179138184,-9.265308380126953
1763692624822827300,2.8258271484375,3.033500909805298,3.181257724761963,-9.241379737854004
1763692624832414200,2.835414306640625,3.0861430168151855,3.102294445037842,-9.282057762145996
1763692624842000100,2.845000244140625,3.129213809967041,3.0424740314483643,-9.334700584411621
1763692624851585500,2.85458544921875,3.129213809967041,3.0305099487304688,-9.341878890991211
1763692624861171700,2.864171630859375,3.0957143306732178,3.0592236518859863,-9.308379173278809
1763692624870758400,2.87375830078125,3.064607620239258,3.1166515350341797,-9.236594200134277
1763692624880344600,2.883344482421875,3.050250768661499,3.1310083866119385,-9.078369140625
1763692624889929700,2.8929296875,3.057429075241089,3.1166515350341797,-8.927620887756348
1763692624899516000,2.902515869140625,3.0837502479553223,3.087937593460083,-8.839086532592773
1763692624909102800,2.912102783203125,3.1483564376831055,3.0927233695983887,-8.774480819702148
1763692624918688800,2.921688720703125,3.200998544692993,3.102294445037842,-8.709874153137207
1763692624928274200,2.931274169921875,3.1722846031188965,3.119044303894043,-8.719446182250977
1763692624937860000,2.940860107421875,3.16749906539917,3.157329559326172,-8.70508861541748
1763692624947447000,2.950447021484375,3.13639235496521,3.214757204055786,-8.647361755371094
1763692624957033000,2.960032958984375,3.0861430168151855,3.2482566833496094,-8.568398475646973
1763692624966618400,2.969618408203125,3.0454649925231934,3.260220766067505,-8.530113220214844
1763692624976204500,2.97920458984375,3.0071799755096436,3.245863914489746,-8.525327682495117
1763692624985791500,2.98879150390625,3.04307222366333,3.2482566833496094,-8.563612937927246
1763692624995377400,2.99837744140625,3.035893678665161,3.198007345199585,-8.611469268798828
1763692625004962600,3.007962646484375,2.9904301166534424,3.1549365520477295,-8.688339233398438
1763692625014548700,3.017548828125,2.973680257797241,3.152543783187866,-8.812766075134277
1763692625024135700,3.0271357421875,3.0622148513793945,3.126222848892212,-8.994620323181152
1763692625033721600,3.0367216796875,3.1866414546966553,3.119044303894043,-9.154939651489258
1763692625043307000,3.04630712890625,3.313760280609131,3.1214370727539062,-9.272486686706543
1763692625052893200,3.05589306640625,3.4046874046325684,3.1310083866119385,-9.310771942138672
1763692625062480000,3.06547998046875,3.4310085773468018,3.1549365520477295,-9.35623550415039
1763692625072066000,3.075066162109375,3.4429726600646973,3.1477582454681396,-9.38734245300293
1763692625081651200,3.084651123046875,3.5482568740844727,3.135794162750244,-9.430413246154785
1763692625091237400,3.0942373046875,3.6487553119659424,3.128615617752075,-9.406484603881836
1763692625100824300,3.10382421875,3.7612180709838867,3.0999016761779785,-9.368199348449707
1763692625110410200,3.11341015625,3.8572301864624023,3.0352954864501953,-9.301200866699219
1763692625119995600,3.12299560546875,3.864408493041992,3.025724172592163,-9.250951766967773
1763692625129581800,3.132581787109375,3.864408493041992,3.0903303623199463,-9.154939651489258
1763692625139168500,3.14216845703125,3.8835511207580566,3.229114055633545,-9.013762474060059
1763692625148754700,3.151754638671875,3.924229145050049,3.372683525085449,-8.858229637145996
1763692625158339800,3.16133984375,3.9290146827697754,3.4612178802490234,-8.693124771118164
1763692625167926000,3.170926025390625,3.957728624343872,3.554837226867676,-8.556434631347656
1763692625177513000,3.180512939453125,3.981656789779663,3.6242289543151855,-8.410472869873047
1763692625187099000,3.190098876953125,3.94097900390625,3.7199418544769287,-8.271688461303711
1763692625196684300,3.199684326171875,3.90987229347229,3.7893338203430176,-8.175975799560547
1763692625206270200,3.209270263671875,3.9074792861938477,3.839582920074463,-8.17119026184082
1763692625215857200,3.218857177734375,3.9768712520599365,3.8850467205047607,-8.211868286132812
1763692625225443000,3.228443115234375,4.01754903793335,3.9089748859405518,-8.238189697265625
1763692625235028500,3.238028564453125,3.955335855484009,3.9376888275146484,-8.250153541564941
1763692625244614700,3.24761474609375,3.84765887260437,3.9544384479522705,-8.228617668151855
1763692625254201300,3.257201416015625,3.708575963973999,3.942474365234375,-8.159226417541504
1763692625263787500,3.26678759765625,3.5697922706604004,3.9209389686584473,-8.087141990661621
1763692625273373000,3.276373046875,3.5147573947906494,3.8611185550689697,-8.029714584350586
1763692625282958800,3.285958740234375,3.4980075359344482,3.794119358062744,-8.099405288696289
1763692625292545800,3.2955458984375,3.5171501636505127,3.763012647628784,-8.207082748413086
1763692625302131700,3.305131591796875,3.5315070152282715,3.7510485649108887,-8.357830047607422
1763692625311717000,3.314717041015625,3.5315070152282715,3.760619878768921,-8.5133638381958
1763692625321303300,3.32430322265625,3.6032917499542236,3.7725839614868164,-8.640183448791504
1763692625330890200,3.33389013671875,3.6631124019622803,3.815654754638672,-8.733802795410156
1763692625340476200,3.34347607421875,3.7205400466918945,3.880260944366455,-8.764909744262695
1763692625350061300,3.353061279296875,3.7755749225616455,3.9520456790924072,-8.760123252868652
1763692625359647500,3.3626474609375,3.8668015003204346,3.9759738445281982,-8.762516975402832
1763692625369234400,3.372234375,3.9744784832000732,3.966402530670166,-8.767302513122559
1763692625378820400,3.3818203125,3.996013879776001,3.966402530670166,-8.791230201721191
1763692625388405800,3.39140576171875,3.981656789779663,4.002295017242432,-8.805587768554688
1763692625397991700,3.40099169921875,4.01037073135376,3.9927237033843994,-8.800801277160645
1763692625407578600,3.41057861328125,3.996013879776001,3.990330934524536,-8.738588333129883
1763692625417164800,3.420164794921875,3.957728624343872,3.990330934524536,-8.685946464538574
1763692625426750000,3.42975,3.900300979614258,3.997509241104126,-8.625826835632324
1763692625436336000,3.439336181640625,3.8763725757598877,3.966402530670166,-8.549256324768066
1763692625445923000,3.448923095703125,3.84765887260437,3.9520456790924072,-8.494221687316895
1763692625455509000,3.458509033203125,3.804288864135742,3.9137604236602783,-8.453543663024902
1763692625465094400,3.468094482421875,3.7444684505462646,3.8898322582244873,-8.410472869873047
1763692625474680600,3.4776806640625,3.7205400466918945,3.8443686962127686,-8.393722534179688
1763692625484267300,3.487267333984375,3.6655051708221436,3.79890513420105,-8.415258407592773
1763692625493853400,3.496853515625,3.6272199153900146,3.7725839614868164,-8.432007789611816
1763692625503438600,3.5064384765625,3.588934898376465,3.7510485649108887,-8.429615020751953
1763692625513024800,3.516024658203125,3.5482568740844727,3.7103705406188965,-8.422436714172363
1763692625522611700,3.52561181640625,3.5171501636505127,3.6409788131713867,-8.41286563873291
1763692625532197600,3.53519775390625,3.529114246368408,3.5859439373016357,-8.415258407592773
1763692625541783000,3.544782958984375,3.502793312072754,3.5524442195892334,-8.405686378479004
1763692625551369000,3.554368896484375,3.464508056640625,3.526123285293579,-8.376973152160645
1763692625560956000,3.563955810546875,3.433401346206665,3.4902310371398926,-8.338687896728516
1763692625570541800,3.573541748046875,3.3951163291931152,3.4974093437194824,-8.314759254455566
1763692625580127200,3.583127197265625,3.3520455360412598,3.523730516433716,-8.293224334716797
1763692625589713400,3.59271337890625,3.337688446044922,3.5141592025756836,-8.293224334716797
1763692625599300000,3.602300048828125,3.423830032348633,3.468695640563965,-8.393722534179688
1763692625608886300,3.61188623046875,3.512364625930786,3.456432342529297,-8.515756607055664
1763692625618471400,3.621471435546875,3.560220956802368,3.463610887527466,-8.63061237335205
1763692625628057600,3.6310576171875,3.598506212234497,3.456432342529297,-8.714659690856934
1763692625637644500,3.64064453125,3.7109687328338623,3.410968780517578,-8.800801277160645
1763692625647230500,3.65023046875,3.811467409133911,3.3439695835113525,-8.779266357421875
1763692625656815900,3.65981591796875,3.833002805709839,3.3415768146514893,-8.748159408569336
1763692625666402000,3.669402099609375,3.871587038040161,3.3966116905212402,-8.688339233398438
1763692625675988700,3.67898876953125,3.84765887260437,3.4902310371398926,-8.597112655639648
1763692625685575000,3.688574951171875,3.82582426071167,3.595515012741089,-8.503792762756348
1763692625695160000,3.69816015625,3.801896095275879,3.6720855236053467,-8.329116821289062
1763692625704746200,3.707746337890625,3.8066816329956055,3.7007992267608643,-8.17119026184082
1763692625714333200,3.717333251953125,3.82582426071167,3.7175490856170654,-8.077570915222168
1763692625723919000,3.726919189453125,3.871587038040161,3.7342989444732666,-8.084749221801758
1763692625733504500,3.73650439453125,3.924229145050049,3.777369737625122,-8.233403205871582
1763692625743090700,3.746090576171875,4.005585193634033,3.825226068496704,-8.369794845581055
1763692625752677400,3.755677490234375,4.01754903793335,3.825226068496704,-8.506185531616211
1763692625762263600,3.765263671875,4.022335052490234,3.7654054164886475,-8.616254806518555
1763692625771848700,3.7748486328125,4.086941242218018,3.6864423751831055,-8.740981101989746
1763692625781435000,3.784434814453125,4.1036906242370605,3.629014730453491,-8.772088050842285
1763692625791021800,3.794021728515625,4.0797624588012695,3.6385860443115234,-8.733802795410156
1763692625800607700,3.803607666015625,4.053441524505615,3.6625142097473145,-8.628219604492188
1763692625810193200,3.813193115234375,3.9696927070617676,3.6768710613250732,-8.479864120483398
1763692625819779000,3.822779052734375,3.8524444103240967,3.6888351440429688,-8.336295127868652
1763692625829366000,3.832365966796875,3.7755749225616455,3.698406457901001,-8.257331848144531
1763692625838952200,3.8419521484375,3.7181472778320312,3.7031922340393066,-8.211868286132812
1763692625848537300,3.851537353515625,3.6559338569641113,3.7103705406188965,-8.254939079284668
1763692625858123500,3.86112353515625,3.6320056915283203,3.731905937194824,-8.28126049041748
1763692625867710500,3.87071044921875,3.6343984603881836,3.7414772510528564,-8.3267240524292
1763692625877296400,3.88029638671875,3.622434377670288,3.7869410514831543,-8.312366485595703
1763692625886881800,3.8898818359375,3.596113443374634,3.8347973823547363,-8.290831565856934
1763692625896467700,3.8994677734375,3.5626137256622314,3.887439489364624,-8.257331848144531
1763692625906054700,3.9090546875,3.5482568740844727,3.9329030513763428,-8.20229721069336
1763692625915640600,3.918640625,3.5865421295166016,3.9448671340942383,-8.118548393249512
1763692625925226000,3.92822607421875,3.6487553119659424,3.973581075668335,-8.111370086669922
1763692625934812200,3.937812255859375,3.6726837158203125,4.043272018432617,-8.116155624389648
1763692625944398800,3.94739892578125,3.7277185916900635,4.165306091308594,-8.094619750976562
1763692625953985000,3.956985107421875,3.7683966159820557,4.30169677734375,-8.048856735229492
1763692625963570200,3.966570068359375,3.811467409133911,4.378267288208008,-7.991429328918457
1763692625973156400,3.97615625,3.902693748474121,4.380660057067871,-8.005785942077637
1763692625982743300,3.985743408203125,4.0319061279296875,4.383052825927734,-8.058428764343262
1763692625992329200,3.9953291015625,4.118047714233398,4.414159774780273,-8.15683364868164
1763692626001914600,4.00491455078125,4.194618225097656,4.452444553375244,-8.30279541015625
1763692626011500800,4.014500732421875,4.2592244148254395,4.476373195648193,-8.43440055847168
1763692626021087500,4.02408740234375,4.328616142272949,4.473979949951172,-8.542078018188477
1763692626030673700,4.033673583984375,4.359723091125488,4.473979949951172,-8.616254806518555
1763692626040258800,4.0432587890625,4.3788652420043945,4.469194412231445,-8.669196128845215
1763692626049845000,4.052844970703125,4.333401679992676,4.512265205383301,-8.654839515686035
1763692626059432000,4.062431884765625,4.230510234832764,4.601099014282227,-8.546863555908203
1763692626069017900,4.072017822265625,4.070191383361816,4.658526420593262,-8.353044509887695
1763692626078603300,4.081603271484375,3.9218363761901855,4.646562576293945,-8.214261054992676
1763692626088189400,4.091189453125,3.900300979614258,4.569693088531494,-8.159226417541504
1763692626097776000,4.100776123046875,3.9194436073303223,4.483551502227783,-8.238189697265625
1763692626107362300,4.1103623046875,3.94815731048584,4.471587181091309,-8.386544227600098
1763692626116947500,4.119947509765625,3.9840497970581055,4.493122577667236,-8.546863555908203
1763692626126533600,4.12953369140625,3.9912281036376953,4.4859442710876465,-8.733802795410156
1763692626136120600,4.13912060546875,4.110869407653809,4.43330192565918,-8.949156761169434
1763692626145706500,4.14870654296875,4.237689018249512,4.3998026847839355,-9.154939651489258
1763692626155292000,4.1582919921875,4.347758769989014,4.378267288208008,-9.289237022399902
1763692626164878000,4.167878173828125,4.443770885467529,4.3758745193481445,-9.375378608703613
1763692626174464800,4.17746484375,4.539483547210693,4.3998026847839355,-9.384949684143066
1763692626184051000,4.187051025390625,4.59212589263916,4.3686957359313965,-9.305986404418945
1763692626193636000,4.196635986328125,4.575376033782959,4.292125701904297,-9.207581520080566
1763692626203222300,4.20622216796875,4.503591537475586,4.191627025604248,-9.07119083404541
1763692626212809200,4.215809326171875,4.429413795471191,4.091128349304199,-8.944371223449707
1763692626222395100,4.22539501953125,4.34536600112915,3.9759738445281982,-8.839086532592773
1763692626231980500,4.23498046875,4.2831525802612305,3.8682968616485596,-8.740981101989746
1763692626241566500,4.24456640625,4.232903480529785,3.7510485649108887,-8.597112655639648
1763692626251153400,4.2541533203125,4.180261135101318,3.6936209201812744,-8.475078582763672
1763692626260739300,4.2637392578125,4.137190341949463,3.729513168334961,-8.384151458740234
1763692626270324700,4.27332470703125,4.113262176513672,3.753441333770752,-8.312366485595703
1763692626279911000,4.282910888671875,4.218546390533447,3.7342989444732666,-8.28126049041748
1763692626289497600,4.29249755859375,4.41266393661499,3.6864423751831055,-8.266902923583984
1763692626299083800,4.302083740234375,4.558626174926758,3.6888351440429688,-8.247760772705078
1763692626308669200,4.311669189453125,4.687838554382324,3.707977771759033,-8.159226417541504
1763692626318255000,4.321255126953125,4.805087089538574,3.7558343410491943,-8.056035995483398
1763692626327842000,4.330842041015625,4.9175496101379395,3.791726589202881,-7.9627156257629395
1763692626337428000,4.340427978515625,5.085346221923828,3.794119358062744,-7.850253105163574
1763692626347013400,4.350013427734375,5.262415409088135,3.7486557960510254,-7.807182312011719
1763692626356599600,4.359599609375,5.494519233703613,3.6792638301849365,-7.744968891143799
1763692626366186200,4.369186279296875,5.7149577140808105,3.636193037033081,-7.723433494567871
1763692626375772400,4.3787724609375,5.870491027832031,3.6170506477355957,-7.71386194229126
1763692626385357600,4.388357666015625,6.018846035003662,3.6003007888793945,-7.689933776855469
1763692626394943700,4.39794384765625,6.002096652984619,3.6170506477355957,-7.661220073699951
1763692626404530700,4.40753076171875,5.8944196701049805,3.6098721027374268,-7.579864025115967
1763692626414116600,4.41711669921875,5.74606466293335,3.5763726234436035,-7.368996620178223
1763692626423702000,4.426701904296875,5.56660270690918,3.5045878887176514,-7.120142936706543
1763692626433288000,4.436287841796875,5.396413326263428,3.418147087097168,-6.849454879760742
1763692626442875000,4.445875,5.169095039367676,3.3583266735076904,-6.583851337432861
1763692626452461000,4.4554609375,4.845765113830566,3.3343982696533203,-6.387341022491455
1763692626462046200,4.465046142578125,4.565804481506348,3.3511481285095215,-6.303592205047607
1763692626471632400,4.47463232421875,4.350151538848877,3.3607194423675537,-6.2892351150512695
1763692626481219300,4.48421923828125,4.170690059661865,3.3415768146514893,-6.358626842498779
1763692626490805200,4.49380517578125,4.048655986785889,3.3750762939453125,-6.533602237701416
1763692626500390700,4.503390625,4.000799655914307,3.4396824836730957,-6.67717170715332
1763692626509976800,4.512976806640625,3.9122650623321533,3.51894474029541,-6.7657060623168945
1763692626519563500,4.5225634765625,3.87876558303833,3.629014730453491,-6.859025955200195
1763692626529149700,4.532149658203125,3.94097900390625,3.6768710613250732,-6.990930557250977
1763692626538734800,4.54173486328125,4.039084434509277,3.6481571197509766,-7.175177574157715
1763692626548321000,4.551321044921875,4.130012035369873,3.6720855236053467,-7.388139247894287
1763692626557908000,4.560907958984375,4.218546390533447,3.6936209201812744,-7.6013994216918945
1763692626567494000,4.570493896484375,4.35254430770874,3.707977771759033,-7.821538925170898
1763692626577079300,4.580079345703125,4.510769844055176,3.712763547897339,-8.087141990661621
1763692626586665200,4.589665283203125,4.7141594886779785,3.739084482192993,-8.355437278747559
1763692626596252200,4.599252197265625,4.989633560180664,3.8659040927886963,-8.55164909362793
1763692626605838000,4.608838134765625,5.293521881103516,4.048057556152344,-8.63779067993164
1763692626615423500,4.618423583984375,5.540281772613525,4.237090587615967,-8.676374435424805
1763692626625009700,4.628009765625,5.750850200653076,4.387838363647461,-8.592327117919922
1763692626634596600,4.6375966796875,5.913562297821045,4.529015064239502,-8.365009307861328
1763692626644182500,4.6471826171875,6.023632049560547,4.668097972869873,-8.118548393249512
1763692626653768000,4.656767822265625,6.09332275390625,4.785346031188965,-7.833503246307373
1763692626663353900,4.666353759765625,6.059524059295654,4.88345193862915,-7.514958381652832
1763692626682526700,4.685526611328125,5.8250274658203125,4.976771831512451,-6.937989234924316
1763692626692112100,4.695112060546875,5.750850200653076,4.924129962921143,-6.799205780029297
1763692626701698300,4.7046982421875,5.6359944343566895,4.809274196624756,-6.705885410308838
1763692626711285000,4.714284912109375,5.475376605987549,4.723132610321045,-6.689135551452637
1763692626720871200,4.72387109375,5.3940205574035645,4.646562576293945,-6.7417778968811035
1763692626730456300,4.733456298828125,5.36769962310791,4.608277320861816,-6.803991317749023
1763692626740042500,4.74304248046875,5.288736343383789,4.598706245422363,-6.921239376068115
1763692626749629400,4.75262939453125,5.202594757080078,4.60349178314209,-7.0531439781188965
1763692626759215400,4.76221533203125,5.137988567352295,4.579264163970947,-7.201498985290527
1763692626768800800,4.77180078125,5.075775146484375,4.524229526519775,-7.3043904304504395
1763692626778387000,4.781386962890625,5.0087761878967285,4.445266246795654,-7.39053201675415
1763692626787973600,4.7909736328125,4.955834865570068,4.359124660491943,-7.46710205078125
1763692626797559800,4.800559814453125,4.934299468994141,4.299304008483887,-7.52213716506958
1763692626807145000,4.81014501953125,4.943870544433594,4.272983074188232,-7.603792190551758
1763692626816731100,4.819731201171875,4.91037130355835,4.2825541496276855,-7.634898662567139
1763692626826318000,4.829318115234375,4.907978534698486,4.270590305328369,-7.670791149139404
1763692626835904000,4.838904052734375,4.996811866760254,4.237090587615967,-7.728219032287598
1763692626845489400,4.848489501953125,5.073382377624512,4.2346978187561035,-7.809575080871582
1763692626855075300,4.858075439453125,5.12602424621582,4.241876125335693,-7.859824180603027
1763692626864662300,4.867662353515625,5.1667022705078125,4.253840446472168,-7.910073280334473
1763692626874248400,4.87724853515625,5.171487808227539,4.277768611907959,-7.905287742614746
1763692626883833600,4.88683349609375,5.200201988220215,4.325624942779541,-7.912466049194336
1763692626893419800,4.896419677734375,5.269593715667725,4.366302967071533,-7.871788501739502
1763692626903006700,4.9060068359375,5.346164226531982,4.380660057067871,-7.826324462890625
1763692626912592600,4.915592529296875,5.343770980834961,4.409373760223389,-7.699504852294922
1763692626922178000,4.925177978515625,5.25762939453125,4.4620161056518555,-7.52213716506958
1763692626931764200,4.93476416015625,5.176273345947266,4.4955153465271,-7.337889671325684
1763692626941351000,4.944350830078125,5.080560684204102,4.5338006019592285,-7.160820960998535
1763692626950937000,4.95393701171875,5.035097122192383,4.567300319671631,-6.971787929534912
1763692626960522200,4.963522216796875,4.934299468994141,4.627419948577881,-6.844669342041016
1763692626970108400,4.9731083984375,4.850550651550293,4.684847831726074,-6.760920524597168
1763692626979695400,4.9826953125,4.757230281829834,4.768596649169922,-6.715456962585449
1763692626989281300,4.99228125,4.632803916931152,4.804488658905029,-6.74656343460083
1763692626998866700,5.00186669921875,4.510769844055176,4.775774955749512,-6.825526714324951
1763692627008452600,5.01145263671875,4.407878398895264,4.7350969314575195,-6.897311210632324
1763692627018039600,5.02103955078125,4.275974273681641,4.684847831726074,-6.914061069488525
1763692627027625700,5.030625732421875,4.1036906242370605,4.6633124351501465,-6.949953556060791
1763692627037211000,5.0402109375,4.005585193634033,4.648955345153809,-6.995716094970703
1763692627046797000,5.049797119140625,3.900300979614258,4.658526420593262,-7.017251491546631
1763692627056384000,5.059384033203125,3.864408493041992,4.689633369445801,-7.043572425842285
1763692627065970000,5.068969970703125,3.88594388961792,4.742275238037109,-7.089035987854004
1763692627075555300,5.078555419921875,3.902693748474121,4.814060211181641,-7.184749126434326
1763692627085141200,5.088141357421875,3.9385859966278076,4.888237476348877,-7.306783199310303
1763692627094728200,5.097728271484375,3.9768712520599365,4.940879821777344,-7.412067413330078
1763692627104314000,5.107314208984375,4.046263217926025,4.955236434936523,-7.491030216217041
1763692627113899500,5.1168994140625,4.082155227661133,4.897809028625488,-7.584649562835693
1763692627123485700,5.126485595703125,4.156332969665527,4.816452980041504,-7.752147197723389
1763692627133072400,5.136072265625,4.230510234832764,4.737489700317383,-7.888537883758545
1763692627142658600,5.145658447265625,4.3070807456970215,4.660919189453125,-8.00100040435791
1763692627152244000,5.155243896484375,4.323830604553223,4.641777038574219,-8.089534759521484
1763692627161830000,5.164829833984375,4.366901397705078,4.668097972869873,-8.168797492980957
1763692627171416800,5.174416748046875,4.4389848709106445,4.706383228302002,-8.221439361572266
1763692627181002800,5.184002685546875,4.522733688354492,4.720739841461182,-8.238189697265625
1763692627190588200,5.193588134765625,4.6423749923706055,4.708775997161865,-8.269295692443848
1763692627200174300,5.20317431640625,4.735694885253906,4.7111687660217285,-8.286046028137207
1763692627209761300,5.21276123046875,4.817050933837891,4.682454586029053,-8.298009872436523
1763692627219347200,5.22234716796875,4.845765113830566,4.627419948577881,-8.305188179016113
1763692627228932400,5.231932373046875,4.888835906982422,4.569693088531494,-8.3267240524292
1763692627238518500,5.2415185546875,4.912764072418213,4.505086898803711,-8.312366485595703
1763692627248105500,5.25110546875,4.919942378997803,4.459623336791992,-8.307580947875977
1763692627257691400,5.26069140625,4.927121162414551,4.428516387939453,-8.312366485595703
1763692627267276800,5.27027685546875,4.958227634429932,4.390231132507324,-8.338687896728516
1763692627276863000,5.279863037109375,4.943870544433594,4.387838363647461,-8.338687896728516
1763692627286449700,5.28944970703125,4.931906700134277,4.380660057067871,-8.367402076721191
1763692627296035800,5.299035888671875,4.927121162414551,4.347160339355469,-8.355437278747559
1763692627305621000,5.30862109375,4.898406982421875,4.299304008483887,-8.338687896728516
1763692627315207200,5.318207275390625,4.852943420410156,4.23948335647583,-8.348258972167969
1763692627324794000,5.327794189453125,4.8792643547058105,4.198805332183838,-8.357830047607422
1763692627334380000,5.337380126953125,4.874478816986084,4.146163463592529,-8.376973152160645
1763692627343965400,5.34696533203125,4.876871585845947,4.11505651473999,-8.398508071899414
1763692627353551600,5.356551513671875,4.931906700134277,4.050450325012207,-8.391329765319824
1763692627363138300,5.36613818359375,4.919942378997803,4.007080554962158,-8.386544227600098
1763692627372724500,5.375724365234375,4.864907741546631,4.033700942993164,-8.357830047607422
1763692627382309600,5.3853095703125,4.886443138122559,4.023830413818359,-8.290831565856934
1763692627391895800,5.394895751953125,4.915156841278076,4.004687786102295,-8.28126049041748
1763692627401482800,5.404482666015625,4.960620403289795,3.973581075668335,-8.231010437011719
1763692627411068700,5.414068603515625,4.9654059410095215,3.9759738445281982,-8.130512237548828
1763692627420654000,5.423654052734375,4.943870544433594,3.9640097618103027,-8.128119468688965
1763692627430240300,5.433240234375,4.955834865570068,3.942474365234375,-8.183154106140137
1763692627439827000,5.442826904296875,4.958227634429932,3.9137604236602783,-8.183154106140137
1763692627449413000,5.4524130859375,4.924727916717529,3.904189348220825,-8.175975799560547
1763692627458998300,5.461998291015625,4.881657123565674,3.8826539516448975,-8.144868850708008
1763692627468584400,5.47158447265625,4.802694320678711,3.8419759273529053,-8.075178146362305
1763692627478171400,5.48117138671875,4.6902313232421875,3.7893338203430176,-7.991429328918457
1763692627487757300,5.49075732421875,4.549055099487305,3.7486557960510254,-7.919644832611084
1763692627497342700,5.5003427734375,4.443770885467529,3.7031922340393066,-7.883752346038818
1763692627506928600,5.5099287109375,4.350151538848877,3.7031922340393066,-7.855038642883301
1763692627516515600,5.519515625,4.2831525802612305,3.698406457901001,-7.8693952560424805
1763692627526101800,5.529101806640625,4.264009952545166,3.6936209201812744,-7.890930652618408
1763692627535687000,5.53868701171875,4.223331928253174,3.6888351440429688,-7.8693952560424805
1763692627545273000,5.548273193359375,4.182653903961182,3.7414772510528564,-7.855038642883301
1763692627554860000,5.557860107421875,4.185046672821045,3.8036906719207764,-7.814360618591309
1763692627564446000,5.567446044921875,4.187439441680908,3.8419759273529053,-7.771289825439453
1763692627574031400,5.57703125,4.158725738525391,3.853940010070801,-7.733004570007324
1763692627583617300,5.5866171875,4.2209391593933105,3.8371901512145996,-7.71386194229126
1763692627593204200,5.596204345703125,4.218546390533447,3.832404613494873,-7.682755470275879
1763692627602790100,5.6057900390625,4.1491546630859375,3.863511323928833,-7.639684677124023
1763692627612375600,5.61537548828125,4.139583110809326,3.8994035720825195,-7.639684677124023
1763692627621961700,5.624961669921875,4.161118507385254,3.904189348220825,-7.666005611419678
1763692627631548700,5.634548583984375,4.175475597381592,3.9161534309387207,-7.740182876586914
1763692627641134600,5.644134521484375,4.201796531677246,3.956831455230713,-7.864609718322754
1763692627650720000,5.653719970703125,4.261617183685303,4.007080554962158,-7.950751304626465
1763692627660306200,5.66330615234375,4.297509670257568,4.040879249572754,-7.996214866638184
1763692627669892900,5.672892822265625,4.333401679992676,4.060021877288818,-8.060821533203125
1763692627679479000,5.68247900390625,4.388436794281006,4.105485439300537,-8.108976364135742
1763692627689064200,5.692064208984375,4.393222332000732,4.150949001312256,-8.116155624389648
1763692627698650400,5.701650390625,4.388436794281006,4.194019794464111,-8.051250457763672
1763692627708237300,5.7112373046875,4.376472473144531,4.217947959899902,-8.0081787109375
1763692627717823200,5.7208232421875,4.402793884277344,4.256233215332031,-8.034500122070312
1763692627727408400,5.730408447265625,4.472484588623047,4.253840446472168,-8.097012519836426
1763692627736994600,5.73999462890625,4.565804481506348,4.215555191040039,-8.19511890411377
1763692627746581500,5.74958154296875,4.594518661499023,4.196412563323975,-8.250153541564941
1763692627756167400,5.75916748046875,4.558626174926758,4.172484397888184,-8.286046028137207
1763692627765752800,5.7687529296875,4.5011982917785645,4.194019794464111,-8.228617668151855
1763692627775339000,5.778339111328125,4.417449474334717,4.2107696533203125,-8.104190826416016
1763692627784926000,5.787926025390625,4.278367042541504,4.22512674331665,-7.936394691467285
1763692627794512000,5.797511962890625,4.12761926651001,4.265804767608643,-7.764111042022705
1763692627804097000,5.807096923828125,3.9696927070617676,4.306482315063477,-7.618149280548096
1763692627813683200,5.81668310546875,3.81864595413208,4.316053867340088,-7.532007694244385
1763692627823270100,5.826270263671875,3.636791229248047,4.337589263916016,-7.505387306213379
1763692627832856000,5.83585595703125,3.5147573947906494,4.3758745193481445,-7.512565612792969
1763692627842441500,5.84544140625,3.409473180770874,4.423730850219727,-7.5463643074035645
1763692627852027600,5.855027587890625,3.3640096187591553,4.476373195648193,-7.603792190551758
1763692627861614300,5.8646142578125,3.3520455360412598,4.5098724365234375,-7.699504852294922
1763692627871200500,5.874200439453125,3.375973701477051,4.500301361083984,-7.788039684295654
1763692627880785700,5.88378564453125,3.3735809326171875,4.48115873336792,-7.840681552886963
1763692627890371800,5.893371826171875,3.3568310737609863,4.4380879402160645,-7.864609718322754
1763692627899958800,5.902958740234375,3.3352956771850586,4.406980991363525,-7.922037601470947
1763692627909544700,5.912544677734375,3.313760280609131,4.440480709075928,-7.974679470062256
1763692627919130000,5.922130126953125,3.308974504470825,4.466801643371582,-8.034500122070312
1763692627928716000,5.931716064453125,3.354438304901123,4.517050743103027,-8.144868850708008
1763692627938303000,5.941302978515625,3.385545015335083,4.54337215423584,-8.324331283569336
1763692627947889200,5.95088916015625,3.4740793704986572,4.574478626251221,-8.42722225189209
1763692627957474300,5.960474365234375,3.557828187942505,4.605884552001953,-8.549256324768066
1763692627967060500,5.970060546875,3.6415770053863525,4.651348114013672,-8.640183448791504
1763692627976647400,5.9796474609375,3.6583266258239746,4.6800618171691895,-8.628219604492188
1763692627986233300,5.9892333984375,3.6583266258239746,4.725525856018066,-8.597112655639648
1763692627995818800,5.99881884765625,3.6870405673980713,4.756632328033447,-8.501399993896484
1763692628005405000,6.008405029296875,3.722932815551758,4.794917583465576,-8.417651176452637
1763692628014991600,6.01799169921875,3.780360698699951,4.847559452056885,-8.374580383300781
1763692628024577800,6.027577880859375,3.842574119567871,4.888237476348877,-8.379365921020508
1763692628034163000,6.037162841796875,3.950550079345703,4.888237476348877,-8.410472869873047
1763692628043749000,6.0467490234375,4.089334011077881,4.895416259765625,-8.499007225036621
1763692628053336000,6.056336181640625,4.199403762817383,4.924129962921143,-8.575576782226562
1763692628062922000,6.065921875,4.29033088684082,4.976771831512451,-8.518149375915527
1763692628072507400,6.07550732421875,4.328616142272949,5.031806945800781,-8.369794845581055
1763692628082093600,6.085093505859375,4.2831525802612305,5.072484970092773,-8.147261619567871
1763692628091680300,6.09468017578125,4.204189300537109,5.074877738952637,-7.936394691467285
1763692628101266400,6.104266357421875,4.118047714233398,5.062913417816162,-7.723433494567871
1763692628110851600,6.1138515625,4.063013076782227,5.027021408081055,-7.524529933929443
1763692628120437800,6.123437744140625,4.039084434509277,5.0102715492248535,-7.409674644470215
1763692628130024700,6.133024658203125,3.9912281036376953,4.9791646003723145,-7.357032299041748
1763692628139610600,6.142610595703125,3.88594388961792,4.94566535949707,-7.357032299041748
1763692628149196000,6.152196044921875,3.7516467571258545,4.936093807220459,-7.333104133605957
1763692628158782000,6.161781982421875,3.6176488399505615,4.912165641784668,-7.33549690246582
1763692628168369000,6.171368896484375,3.505186080932617,4.873880386352539,-7.345067977905273
1763692628177955000,6.180955078125,3.440579891204834,4.847559452056885,-7.345067977905273
1763692628187540200,6.190540283203125,3.4118659496307373,4.794917583465576,-7.409674644470215
1763692628197126400,6.20012646484375,3.3879377841949463,4.770989418029785,-7.526922702789307
1763692628206713300,6.20971337890625,3.3592238426208496,4.751846790313721,-7.596613883972168
1763692628216299300,6.21929931640625,3.344866991043091,4.7039899826049805,-7.646862983703613
1763692628225884700,6.228884765625,3.3185458183288574,4.646562576293945,-7.778468132019043
1763692628235470600,6.238470703125,3.3281171321868896,4.646562576293945,-7.878966808319092
1763692628245057500,6.2480576171875,3.347259759902954,4.6633124351501465,-7.967501163482666
1763692628254643700,6.257643798828125,3.371187925338745,4.692026138305664,-8.046463966369629
1763692628264228900,6.267228759765625,3.4190444946289062,4.7111687660217285,-8.106583595275879
1763692628273815000,6.27681494140625,3.4597225189208984,4.7111687660217285,-8.118548393249512
1763692628283402000,6.286402099609375,3.4740793704986572,4.708775997161865,-8.15683364868164
1763692628292988000,6.29598779296875,3.5243287086486816,4.739882469177246,-8.197511672973633
1763692628302573300,6.3055732421875,3.6032917499542236,4.763810634613037,-8.257331848144531
1763692628312159500,6.315159423828125,3.70139741897583,4.768596649169922,-8.348258972167969
1763692628321746200,6.32474609375,3.7731821537017822,4.763810634613037,-8.415258407592773
1763692628331332400,6.334332275390625,3.9194436073303223,4.768596649169922,-8.491828918457031
1763692628340917500,6.34391748046875,4.012763500213623,4.787738800048828,-8.554041862487793
1763692628350503700,6.353503662109375,4.086941242218018,4.816452980041504,-8.556434631347656
1763692628360090600,6.363090576171875,4.118047714233398,4.82841682434082,-8.482256889343262
1763692628369676500,6.372676513671875,4.115654945373535,4.8212385177612305,-8.379365921020508
1763692628379262000,6.382261962890625,4.082155227661133,4.864309310913086,-8.262117385864258
1763692628388848000,6.39184814453125,3.9984066486358643,4.904987335205078,-8.17119026184082
1763692628398434800,6.401434814453125,3.902693748474121,4.957629203796387,-8.106583595275879
1763692628408021000,6.41102099609375,3.8066816329956055,4.967200756072998,-8.034500122070312
1763692628417606100,6.420606201171875,3.7444684505462646,4.9624152183532715,-7.998608112335205
1763692628427192300,6.4301923828125,3.699004650115967,4.991128921508789,-8.00100040435791
1763692628436779300,6.439779296875,3.6798620223999023,4.9791646003723145,-8.099405288696289
1763692628446365200,6.449365234375,3.7683966159820557,4.916951656341553,-8.274081230163574
1763692628455950600,6.45895068359375,3.8811583518981934,4.823631286621094,-8.496614456176758
1763692628465536800,6.468536865234375,3.957728624343872,4.744668006896973,-8.65214729309082
1763692628475123500,6.47812353515625,3.9768712520599365,4.744668006896973,-8.681160926818848
1763692628484709600,6.487709716796875,3.9218363761901855,4.747061252593994,-8.554041862487793
1763692628494294800,6.497294677734375,3.8572301864624023,4.754239559173584,-8.408080101013184
1763692628503881000,6.506880859375,3.804288864135742,4.7350969314575195,-8.269295692443848
1763692628513468000,6.516468017578125,3.7731821537017822,4.713561534881592,-8.245368003845215
1763692628523053800,6.5260537109375,3.78753924369812,4.696811676025391,-8.266902923583984
1763692628532639200,6.53563916015625,3.7612180709838867,4.6633124351501465,-8.30279541015625
1763692628542225400,6.545225341796875,3.7612180709838867,4.60349178314209,-8.388936996459961
1763692628551812000,6.55481201171875,3.7253258228302,4.548157691955566,-8.448758125305176
1763692628561398300,6.564398193359375,3.6966118812561035,4.548157691955566,-8.408080101013184
1763692628570983400,6.5739833984375,3.636791229248047,4.5577287673950195,-8.362615585327148
1763692628580569600,6.583569580078125,3.5697922706604004,4.555335998535156,-8.235795974731445
1763692628590156500,6.593156494140625,3.5721850395202637,4.625027179718018,-8.00100040435791
1763692628599742500,6.602742431640625,3.5243287086486816,4.730311393737793,-7.72104024887085
1763692628609327900,6.612327880859375,3.4932219982147217,4.768596649169922,-7.5702924728393555
1763692628618913800,6.621913818359375,3.450151205062866,4.770989418029785,-7.5463643074035645
1763692628628500700,6.631500732421875,3.4860434532165527,4.768596649169922,-7.599006652832031
1763692628638087000,6.6410869140625,3.5626137256622314,4.768596649169922,-7.620542049407959
1763692628647672000,6.650672119140625,3.6248271465301514,4.775774955749512,-7.634898662567139
1763692628657258200,6.66025830078125,3.653541088104248,4.730311393737793,-7.673183917999268
1763692628666845200,6.66984521484375,3.6942191123962402,4.608277320861816,-7.788039684295654
1763692628676431000,6.67943115234375,3.7660038471221924,4.555335998535156,-7.802396297454834
1763692628686016500,6.6890166015625,3.809074640274048,4.586442947387695,-7.692326545715332
1763692628695602400,6.6986025390625,3.7540395259857178,4.668097972869873,-7.6013994216918945
1763692628705189400,6.708189453125,3.581756353378296,4.756632328033447,-7.395317554473877
1763692628714775600,6.717775634765625,3.4836506843566895,4.809274196624756,-7.225427150726318
1763692628724360700,6.727360595703125,3.416651725769043,4.811667442321777,-7.146463871002197
1763692628733947000,6.73694677734375,3.502793312072754,4.780560493469238,-7.2349982261657715
1763692628743533800,6.746533935546875,3.591327667236328,4.751846790313721,-7.345067977905273
1763692628753119700,6.75611962890625,3.6008989810943604,4.720739841461182,-7.476673603057861
1763692628762705200,6.765705078125,3.536292791366577,4.715954303741455,-7.536793231964111
1763692628772291000,6.775291015625,3.481257915496826,4.751846790313721,-7.5702924728393555
1763692628781878000,6.7848779296875,3.433401346206665,4.840381145477295,-7.495816230773926
1763692628791464200,6.794464111328125,3.4286158084869385,5.089234828948975,-7.378567695617676
1763692628801049300,6.80404931640625,3.3496525287628174,5.290530681610107,-7.359425067901611
1763692628810635500,6.813635498046875,3.4621152877807617,5.3694939613342285,-7.33549690246582
1763692628820222500,6.823222412109375,3.7277185916900635,5.395814895629883,-7.498208999633789
1763692628829808400,6.832808349609375,3.955335855484009,5.31685209274292,-7.795217990875244
1763692628839393800,6.842393798828125,4.094119548797607,5.213960647583008,-8.168797492980957
1763692628848980000,6.85197998046875,4.1659040451049805,5.1514482498168945,-8.582756042480469
1763692628858566700,6.861566650390625,4.163511276245117,5.19242525100708,-8.81515884399414
1763692628868152800,6.87115283203125,4.118047714233398,5.170889854431152,-8.930013656616211
1763692628877738000,6.880738037109375,3.996013879776001,5.101198673248291,-9.087940216064453
1763692628887324200,6.89032421875,3.90987229347229,4.988736152648926,-9.272486686706543
1763692628896911000,6.8999111328125,3.7348971366882324,4.835595607757568,-9.499805450439453
1763692628906497000,6.9094970703125,3.5243287086486816,4.696811676025391,-9.724730491638184
1763692628916082400,6.91908251953125,3.1722846031188965,4.605884552001953,-9.916455268859863
1763692628925668600,6.928668701171875,2.854039192199707,4.519443988800049,-10.093523979187012
1763692628935255300,6.93825537109375,2.5211377143859863,4.23230504989624,-10.172487258911133
1763692628944841500,6.947841552734375,2.377568483352661,4.30169677734375,-10.25623607635498
1763692628954426600,6.957426513671875,2.2962124347686768,4.237090587615967,-10.675278663635254
1763692628964012800,6.9670126953125,1.8867406845092773,4.0166521072387695,-10.778170585632324
1763692628973599700,6.976599853515625,2.0303099155426025,3.7821552753448486,-10.727921485900879
1763692628983185700,6.986185546875,1.9824535846710205,3.6696925163269043,-10.589137077331543
1763692628992771000,6.99577099609375,1.810170292854309,3.5524442195892334,-10.284950256347656
1763692629002357200,7.005357177734375,1.6187444925308228,3.4830524921417236,-10.048060417175293
1763692629011944000,7.01494384765625,1.379163146018982,3.284149169921875,-9.887741088867188
1763692629021530000,7.024530029296875,1.2643076181411743,2.9204399585723877,-9.784850120544434
1763692629031115300,7.034115234375,1.0657033920288086,2.594717025756836,-9.835099220275879
1763692629040701400,7.043701416015625,0.8165507316589355,2.4511477947235107,-9.842277526855469
1763692629050288400,7.053288330078125,0.6131607890129089,2.420041084289551,-9.861420631408691
1763692629059874300,7.062874267578125,0.857228696346283,2.405683994293213,-9.959526062011719
1763692629069459700,7.072459716796875,0.3927220106124878,2.635395050048828,-9.645767211914062
1763692629079046000,7.0820458984375,0.1821536272764206,2.8579275608062744,-9.334700584411621
1763692629088632600,7.091632568359375,0.36640095710754395,2.908475875854492,-9.361021041870117
1763692629098218800,7.10121875,0.37118661403656006,2.767000198364258,-9.461520195007324
1763692629107804000,7.110803955078125,0.11994023621082306,2.360220432281494,-9.416056632995605
1763692629117390000,7.12039013671875,-0.4618147611618042,1.960319995880127,-9.164510726928711
1763692629126977000,7.12997705078125,-0.7444669604301453,1.7976080179214478,-9.27727222442627
1763692629136563000,7.13956298828125,-0.6990033388137817,1.9244276285171509,-9.593125343322754
1763692629146148400,7.1491484375,-0.6559324860572815,2.1373889446258545,-9.72951602935791
1763692629155734500,7.158734619140625,-0.5814558863639832,2.314457654953003,-9.823135375976562
1763692629165321200,7.1683212890625,-0.4546363055706024,2.398505687713623,-9.897313117980957
1763692629174907400,7.177907470703125,-0.3158525824546814,2.470290184020996,-9.940383911132812
1763692629184492500,7.187492431640625,-0.22013968229293823,2.944368362426758,-9.870991706848145
1763692629194078700,7.19707861328125,0.06729813665151596,3.025724172592163,-9.559625625610352
1763692629203665700,7.206665771484375,0.1869392693042755,3.0113673210144043,-9.286844253540039
1763692629213251600,7.21625146484375,-0.026021946221590042,3.207578659057617,-8.973084449768066
1763692629222837000,7.2258369140625,-0.19381862878799438,3.554837226867676,-8.786444664001465
1763692629232423200,7.235423095703125,-0.34217363595962524,3.8730826377868652,-8.702695846557617
1763692629242009900,7.245009765625,-0.18424734473228455,4.007080554962158,-8.726624488830566
1763692629251596000,7.254595947265625,0.11515458673238754,4.124628067016602,-8.805587768554688
1763692629261181200,7.26418115234375,0.3807578980922699,4.253840446472168,-8.872586250305176
1763692629270767400,7.273767333984375,0.37597227096557617,4.3758745193481445,-9.176474571228027
1763692629280354300,7.283354248046875,0.11515458673238754,4.406980991363525,-9.523733139038086
1763692629289940200,7.292940185546875,-0.12681959569454193,4.2586259841918945,-9.72233772277832
1763692629299525600,7.302525634765625,-0.31824541091918945,3.956831455230713,-9.772586822509766
1763692629309111800,7.31211181640625,-0.2273181527853012,3.308077335357666,-9.547661781311035
1763692629318698500,7.321698486328125,-0.13878370821475983,1.9986051321029663,-9.837491989135742
1763692629328284700,7.33128466796875,-0.2727817893028259,1.3043874502182007,-10.16291618347168
1763692629337869800,7.340869873046875,-0.1052841991186142,0.4208376705646515,-11.003395080566406
1763692629347456000,7.3504560546875,-1.2448660135269165,0.6074778437614441,-11.127821922302246
1763692629357043000,7.36004296875,-1.4745769500732422,1.0839486122131348,-10.088738441467285
1763692629366628900,7.36962890625,-1.6444673538208008,1.6369898319244385,-8.96112060546875
1763692629376214300,7.37921435546875,-1.6755740642547607,1.7880367040634155,-8.740981101989746
1763692629385800400,7.388800537109375,-1.622931957244873,1.8023936748504639,-8.784051895141602
1763692629395387100,7.39838720703125,-1.4745769500732422,1.7135601043701172,-8.918049812316895
1763692629404973300,7.407973388671875,-1.5583257675170898,1.9938194751739502,-9.114261627197266
1763692629414558700,7.417558837890625,-1.5080764293670654,2.4966113567352295,-9.09990406036377
1763692629424144600,7.42714453125,-1.1105687618255615,2.7981069087982178,-8.798408508300781
1763692629433731600,7.436731689453125,-0.5623133182525635,3.0975089073181152,-8.52772045135498
1763692629443317500,7.4463173828125,-0.13878370821475983,3.451646566390991,-8.443971633911133
1763692629452903000,7.45590283203125,0.0649053156375885,3.76779842376709,-8.657232284545898
1763692629462489000,7.465489013671875,0.4334000051021576,4.17726993560791,-9.008976936340332
1763692629472075800,7.47507568359375,0.5318048596382141,4.668097972869873,-9.46630573272705
1763692629481662000,7.484661865234375,0.40707895159721375,5.031806945800781,-9.794421195983887
1763692629491247400,7.494247314453125,0.6059823632240295,5.067699432373047,-9.705587387084961
1763692629500833300,7.503833251953125,0.5748756527900696,4.854738235473633,-9.576375007629395
1763692629510420200,7.513420166015625,0.5246263742446899,4.739882469177246,-9.801599502563477
1763692629520006100,7.523006103515625,0.7639086246490479,4.835595607757568,-10.194023132324219
1763692629529591600,7.532591552734375,2.549851655960083,5.517848968505859,-10.443175315856934
1763692629539177700,7.542177734375,2.3033909797668457,5.053342342376709,-9.384949684143066
1763692629548764400,7.551764404296875,1.017547845840454,3.9209389686584473,-8.321938514709473
1763692629558350600,7.5613505859375,0.1701895147562027,3.6792638301849365,-8.702695846557617
1763692629567936000,7.57093603515625,-0.1866401731967926,3.8036906719207764,-8.870193481445312
1763692629577522000,7.58052197265625,-0.6726822853088379,4.064807415008545,-9.09990406036377
1763692629587108900,7.59010888671875,-0.9933205246925354,4.083950042724609,-9.432806015014648
1763692629596694800,7.59969482421875,-0.8976075649261475,4.182055950164795,-9.676874160766602
1763692629606280200,7.6092802734375,0.05054837837815285,4.383052825927734,-9.59073257446289
1763692629615866400,7.618866455078125,0.3568296730518341,4.428516387939453,-9.332307815551758
1763692629625453300,7.628453369140625,0.3616153299808502,4.555335998535156,-9.08554744720459
1763692629635039200,7.638039306640625,0.8213363885879517,4.625027179718018,-9.111868858337402
1763692629644624600,7.647624755859375,1.2547364234924316,4.5939202308654785,-9.63619613647461
1763692629654210600,7.65721044921875,1.3049856424331665,4.507479667663574,-10.028918266296387
1763692629663797500,7.666797607421875,1.3336994647979736,4.421338081359863,-10.076774597167969
1763692629673383400,7.676383544921875,1.1303095817565918,4.430909156799316,-9.808777809143066
1763692629682968800,7.68596875,0.9314061999320984,4.713561534881592,-9.126225471496582
1763692629692555000,7.695554931640625,0.7854440212249756,5.062913417816162,-8.305188179016113
1763692629702142000,7.705141845703125,0.5533402562141418,5.357530117034912,-7.532007694244385
1763692629711727900,7.714727783203125,0.2994019389152527,5.563312530517578,-6.87816858291626
1763692629721313300,7.724313232421875,0.2826521694660187,5.565705299377441,-6.557530403137207
1763692629730899500,7.7338994140625,0.40229329466819763,5.522634506225586,-6.260521411895752
1763692629740486100,7.743486083984375,0.48394837975502014,5.26181697845459,-6.394519329071045
1763692629750072300,7.753072265625,0.7280163168907166,4.960022449493408,-6.701099872589111
1763692629759657500,7.762657470703125,0.9864411354064941,4.7350969314575195,-7.199106216430664
1763692629769243600,7.77224365234375,1.1494522094726562,4.4859442710876465,-7.716254711151123
1763692629778830600,7.78183056640625,1.2284153699874878,4.277768611907959,-7.965108394622803
1763692629788416500,7.79141650390625,1.163809061050415,4.253840446472168,-8.16401195526123
1763692629798002000,7.801001953125,1.103988528251648,4.347160339355469,-8.19511890411377
1763692629807588000,7.810588134765625,0.9960124492645264,4.529015064239502,-8.118548393249512
1763692629817174800,7.8201748046875,0.8452646136283875,4.6872406005859375,-8.104190826416016
1763692629826761000,7.829760986328125,0.6035895347595215,5.0102715492248535,-8.240582466125488
1763692629836346000,7.83934619140625,0.9290133714675903,5.055735111236572,-7.99382209777832
1763692629845932300,7.848932373046875,1.163809061050415,5.005486011505127,-8.293224334716797
1763692629855519200,7.858519287109375,1.6067804098129272,4.720739841461182,-8.499007225036621
1763692629865105200,7.868105224609375,1.7982062101364136,4.763810634613037,-8.831908226013184
1763692629874690600,7.877690673828125,1.9752750396728516,4.936093807220459,-8.96112060546875
1763692629884276700,7.88727685546875,1.7048860788345337,5.122734069824219,-9.111868858337402
1763692629893863400,7.896863525390625,1.1494522094726562,5.029414176940918,-8.86062240600586
1763692629903449600,7.90644970703125,0.8955138921737671,4.857131004333496,-8.73619556427002
1763692629913034800,7.91603466796875,1.1159526109695435,4.521836757659912,-9.1716890335083
1763692629922621000,7.925620849609375,1.1135598421096802,4.272983074188232,-9.439984321594238
1763692629932207900,7.935207763671875,0.8715856671333313,4.421338081359863,-9.286844253540039
1763692629941793800,7.944793701171875,0.48394837975502014,4.730311393737793,-9.128618240356445
1763692629951379200,7.954379150390625,-0.026021946221590042,4.849952220916748,-8.81515884399414
1763692629960965400,7.96396533203125,-0.16031911969184875,4.823631286621094,-8.53729248046875
1763692629970552000,7.973552001953125,-0.12203395366668701,4.572085857391357,-8.348258972167969
1763692629980138200,7.98313818359375,-0.1459621787071228,4.658526420593262,-8.19511890411377
1763692629989723400,7.992723388671875,-0.24167509377002716,4.993521690368652,-8.036892890930176
1763692629999309600,8.0023095703125,-0.3326023519039154,5.108377456665039,-7.718647480010986
1763692630008896500,8.011896484375,-0.5527420043945312,5.074877738952637,-7.321139812469482
1763692630018482400,8.021482421875,-0.8904291391372681,4.9384870529174805,-6.94038200378418
1763692630028067800,8.03106787109375,-1.0411769151687622,4.82841682434082,-6.701099872589111
1763692630037653800,8.04065380859375,-0.8042874932289124,4.636991024017334,-6.669992923736572
1763692630047240700,8.05024072265625,-0.3158525824546814,4.311268329620361,-7.1010003089904785
1763692630056827000,8.059826904296875,0.09122636169195175,4.198805332183838,-7.709076404571533
1763692630066412000,8.069412109375,0.2874378263950348,4.160520553588867,-8.120941162109375
1763692630075998200,8.078998291015624,0.7256234884262085,4.371088981628418,-8.800801277160645
1763692630085585200,8.088585205078125,1.1494522094726562,4.646562576293945,-9.23898696899414
1763692630095171000,8.098171142578124,1.2762718200683594,4.823631286621094,-9.36341381072998
1763692630104756500,8.107756591796875,1.1566306352615356,4.670490741729736,-9.023334503173828
1763692630114342700,8.1173427734375,0.9122636318206787,4.521836757659912,-8.597112655639648
1763692630123929300,8.126929443359375,0.768694281578064,4.253840446472168,-8.168797492980957
1763692630133515500,8.136515625,0.6107679605484009,3.849154233932495,-7.941180229187012
1763692630143100700,8.1461005859375,0.4983053207397461,3.5979080200195312,-7.7114691734313965
1763692630152686800,8.155686767578125,0.6729813814163208,3.650550127029419,-7.65164852142334
1763692630162273800,8.165273681640626,1.4222339391708374,3.554837226867676,-8.173583030700684
1763692630171859700,8.174859619140625,2.2866411209106445,3.5979080200195312,-9.320343017578125
1763692630181445000,8.184445068359375,2.8325037956237793,3.825226068496704,-10.308877944946289
1763692630191031300,8.19403125,3.16749906539917,3.9544384479522705,-10.601101875305176
1763692630200618200,8.2036181640625,3.3496525287628174,3.9520456790924072,-10.244272232055664
1763692630210204200,8.2132041015625,3.565006732940674,3.7510485649108887,-9.62901782989502
1763692630219789300,8.222789306640625,3.7971103191375732,3.571586847305298,-9.253344535827637
1763692630229375500,8.23237548828125,4.077369689941406,3.588336706161499,-9.396913528442383
1763692630238962400,8.24196240234375,4.063013076782227,3.70558500289917,-9.569196701049805
1763692630248548600,8.251548583984375,3.9529430866241455,3.76779842376709,-9.36341381072998
1763692630258133800,8.2611337890625,4.012763500213623,3.753441333770752,-9.126225471496582
1763692630267720000,8.270719970703125,4.254438877105713,3.6098721027374268,-9.047262191772461
1763692630277307000,8.280306884765626,4.704588413238525,3.4540395736694336,-9.217452049255371
1763692630286892800,8.289892822265625,4.647160530090332,3.4806597232818604,-9.679266929626465
1763692630296478200,8.299478271484375,4.1036906242370605,3.6792638301849365,-10.028918266296387
1763692630306064100,8.309064208984376,3.6870405673980713,3.73669171333313,-9.818349838256836
1763692630315651000,8.318651123046875,3.4142587184906006,3.588336706161499,-9.303593635559082
1763692630325237200,8.3282373046875,3.270390272140503,3.3678979873657227,-9.049654960632324
1763692630334822400,8.337822509765624,3.13639235496521,3.183650493621826,-9.198010444641113
1763692630344408600,8.34740869140625,3.0311081409454346,3.008974552154541,-9.361021041870117
1763692630353995500,8.35699560546875,3.0215368270874023,2.862713098526001,-9.432806015014648
1763692630363581400,8.36658154296875,3.019144058227539,2.8818557262420654,-9.499805450439453
1763692630373166800,8.376166748046876,3.01196551322937,2.9515466690063477,-9.52612590789795
1763692630382753000,8.3857529296875,3.184248685836792,3.0041887760162354,-10.02413272857666
1763692630392339700,8.395339599609375,3.691826343536377,2.915654420852661,-10.28016471862793
1763692630401926000,8.40492578125,3.900300979614258,2.7335007190704346,-10.491031646728516
1763692630411511000,8.414510986328125,3.869194269180298,2.5301108360290527,-10.54845905303955
1763692630421097200,8.42409716796875,3.7205400466918945,2.4631118774414062,-10.553245544433594
1763692630430684200,8.43368408203125,3.615255832672119,2.539682149887085,-10.553245544433594
1763692630440270000,8.44327001953125,3.6870405673980713,2.6856443881988525,-10.45513916015625
1763692630449855500,8.45285546875,3.924229145050049,2.793321371078491,-10.268199920654297
1763692630459441700,8.462441650390625,4.185046672821045,2.8651061058044434,-9.976275444030762
1763692630469028400,8.4720283203125,4.400400638580322,2.9347970485687256,-9.74387264251709
1763692630478614500,8.481614501953125,4.582554340362549,2.9204399585723877,-9.573982238769531
1763692630488199700,8.49119970703125,4.711766719818115,2.7957141399383545,-9.545269012451172
1763692630497785900,8.500785888671874,4.561018943786621,2.7239294052124023,-9.49501895904541
1763692630507372800,8.510372802734375,4.431806564331055,2.7071797847747803,-9.198010444641113
1763692630516958700,8.519958740234374,4.319045066833496,2.7023940086364746,-8.784051895141602
1763692630526544100,8.529544189453125,4.204189300537109,2.7071797847747803,-8.393722534179688
1763692630536130000,8.539130126953125,3.9912281036376953,2.7071797847747803,-8.044071197509766
1763692630545717000,8.548717041015625,3.629612922668457,2.633002281188965,-7.790432453155518
1763692630555303200,8.55830322265625,3.4070804119110107,2.484647274017334,-7.749754428863525
1763692630564888300,8.567888427734376,3.1890344619750977,2.3554348945617676,-7.83111047744751
1763692630574474500,8.577474609375,3.064607620239258,2.235494613647461,-7.977072715759277
1763692630584061400,8.5870615234375,3.098107099533081,2.2019951343536377,-8.027321815490723
1763692630593647400,8.5966474609375,3.1651060581207275,2.2785654067993164,-7.9316086769104
1763692630603232800,8.606232666015625,3.160320520401001,2.4894328117370605,-7.840681552886963
1763692630612819000,8.61581884765625,3.1028928756713867,2.7071797847747803,-7.938787460327148
1763692630622405600,8.625405517578125,3.299403429031372,2.7502505779266357,-8.199904441833496
1763692630631991800,8.63499169921875,3.8377883434295654,2.9826533794403076,-8.187939643859863
1763692630641577200,8.6445771484375,4.027120590209961,3.1334011554718018,-8.422436714172363
1763692630651163100,8.6541630859375,4.453341960906982,3.056830883026123,-8.791230201721191
1763692630660750000,8.66375,5.0255255699157715,2.752643346786499,-9.183652877807617
1763692630670336000,8.6733359375,4.850550651550293,2.8842484951019287,-9.279664993286133
1763692630679921400,8.68292138671875,4.122833251953125,3.049652576446533,-9.554840087890625
1763692630689507600,8.692507568359375,3.6583266258239746,3.2721848487854004,-9.904491424560547
1763692630699094500,8.702094482421876,3.4932219982147217,3.2626137733459473,-9.937990188598633
1763692630708680400,8.711680419921874,3.7061831951141357,2.9970104694366455,-9.90688419342041
1763692630718265900,8.721265869140625,3.5769708156585693,2.563610315322876,-9.983454704284668
1763692630727851800,8.730851806640626,3.5410783290863037,2.4248266220092773,-10.148558616638184
1763692630737438700,8.740438720703125,3.371187925338745,2.2809581756591797,-10.06002426147461
1763692630747025000,8.75002490234375,3.5315070152282715,2.18045973777771,-9.854242324829102
1763692630756610000,8.759610107421874,3.677469253540039,2.2331018447875977,-9.406484603881836
1763692630766196200,8.7691962890625,3.7683966159820557,2.228316068649292,-8.944371223449707
1763692630775783200,8.778783203125,3.7540395259857178,2.163709878921509,-8.83669376373291
1763692630785369000,8.788369140625,3.715754508972168,2.1158533096313477,-8.874979019165039
1763692630794954500,8.79795458984375,3.6415770053863525,2.15653133392334,-8.781659126281738
1763692630804540700,8.807540771484375,3.533900022506714,2.197209358215332,-8.432007789611816
1763692630814127400,8.81712744140625,3.591327667236328,2.213959217071533,-8.125726699829102
1763692630823713500,8.826713623046874,3.653541088104248,2.242672920227051,-8.034500122070312
1763692630833298700,8.836298583984375,3.5219359397888184,2.1996021270751953,-8.355437278747559
1763692630842884900,8.845884765625,3.3352956771850586,2.103889226913452,-8.046463966369629
1763692630852471800,8.855471923828125,3.4836506843566895,1.8598214387893677,-7.443173885345459
1763692630862057700,8.8650576171875,3.9290146827697754,0.6337988972663879,-7.984251022338867
1763692630871643100,8.87464306640625,4.625625133514404,-1.5038890838623047,-9.289237022399902
1763692630881229300,8.884229248046875,4.446163654327393,1.2421740293502808,-8.28126049041748
1763692630890816000,8.89381591796875,3.9768712520599365,3.243471145629883,-6.988537788391113
1763692630900402200,8.903402099609375,3.7540395259857178,3.5859439373016357,-7.05553674697876
1763692630909987600,8.912987548828125,3.7755749225616455,3.547658681869507,-8.077570915222168
1763692630919573500,8.922573486328124,4.027120590209961,4.0456647872924805,-8.324331283569336
1763692630929160400,8.932160400390625,4.039084434509277,4.548157691955566,-8.15683364868164
1763692630938746400,8.941746337890624,3.605684518814087,4.94566535949707,-8.058428764343262
1763692630948331800,8.951331787109375,3.7923247814178467,5.134698390960693,-8.065607070922852
1763692630957917700,8.960917724609375,4.417449474334717,4.811667442321777,-8.116155624389648
1763692630967504600,8.970504638671875,4.505984306335449,3.9616169929504395,-8.372187614440918
1763692630977090800,8.9800908203125,3.7995033264160156,3.2315070629119873,-8.293224334716797
1763692630986676200,8.98967626953125,4.101297855377197,2.728715181350708,-8.233403205871582
1763692630996262100,8.99926220703125,3.6559338569641113,2.4990041255950928,-8.424829483032227
1763692631005849000,9.00884912109375,3.653541088104248,2.743072032928467,-8.585148811340332
1763692631015435000,9.01843505859375,3.7109687328338623,3.1453654766082764,-8.755337715148926
1763692631025020400,9.0280205078125,3.9218363761901855,3.4396824836730957,-8.915657043457031
1763692631034606600,9.037606689453124,3.9768712520599365,3.7271203994750977,-8.767302513122559
1763692631044193500,9.047193603515625,4.0797624588012695,3.571586847305298,-8.810373306274414
1763692631053779500,9.056779541015626,4.18983268737793,3.3535408973693848,-8.798408508300781
1763692631063364900,9.06636474609375,4.067798614501953,3.1716864109039307,-8.623434066772461
1763692631072950800,9.07595068359375,4.120440483093262,3.5620155334472656,-8.31715202331543
1763692631082537700,9.085537841796874,4.12761926651001,3.8371901512145996,-8.065607070922852
1763692631092124000,9.0951240234375,3.78753924369812,4.256233215332031,-8.247760772705078
1763692631101709000,9.104708984375,3.933800458908081,4.579264163970947,-8.286046028137207
1763692631111295200,9.114295166015625,4.3310089111328125,4.9624152183532715,-8.135297775268555
1763692631120882200,9.123882080078126,4.398007869720459,5.2043890953063965,-8.489435195922852
1763692631130468000,9.133468017578124,4.625625133514404,4.995914459228516,-8.616254806518555
1763692631140053500,9.143053466796875,4.225724697113037,3.9520456790924072,-7.603792190551758
1763692631149639700,9.1526396484375,4.2281174659729,0.40408793091773987,-7.440781116485596
1763692631159226400,9.162226318359375,5.240880012512207,2.460718870162964,-9.499805450439453
1763692631168812500,9.1718125,5.035097122192383,3.492623805999756,-8.896514892578125
1763692631178397700,9.181397705078124,4.5801615715026855,3.456432342529297,-8.628219604492188
1763692631187984000,9.19098388671875,4.453341960906982,3.763012647628784,-8.482256889343262
1763692631197570800,9.20057080078125,4.637589454650879,3.8515472412109375,-8.391329765319824
1763692631207156700,9.21015673828125,4.630411148071289,3.8898322582244873,-8.70508861541748
1763692631216742100,9.2197421875,4.867300510406494,4.3758745193481445,-8.925228118896484
1763692631226328300,9.229328369140624,5.123631477355957,4.445266246795654,-8.994620323181152
1763692631235915000,9.2389150390625,5.212165832519531,3.9065821170806885,-9.023334503173828
1763692631245501200,9.248501220703124,5.212165832519531,3.64337158203125,-9.289237022399902
1763692631255086600,9.258086669921875,5.0949177742004395,3.9448671340942383,-9.20997428894043
1763692631264672500,9.267672607421876,4.919942378997803,4.004687786102295,-9.358628273010254
1763692631274259500,9.277259521484375,4.814658164978027,3.9711883068084717,-9.631410598754883
1763692631283845400,9.286845458984375,4.587339878082275,3.5285160541534424,-10.28016471862793
1763692631293430800,9.2964306640625,4.4605207443237305,2.8124639987945557,-11.190034866333008
1763692631303017000,9.306016845703125,5.075775146484375,2.046461582183838,-10.977073669433594
1763692631312603600,9.315603759765626,4.967798709869385,1.5101702213287354,-10.229914665222168
1763692631322189800,9.32518994140625,4.496412754058838,1.6082758903503418,-9.588339805603027
1763692631331775200,9.334775146484375,4.108476638793945,1.6202399730682373,-9.308379173278809
1763692631341361200,9.344361083984374,3.9625144004821777,1.5436697006225586,-9.154939651489258
1763692631350948000,9.353947998046875,4.182653903961182,1.4862419366836548,-8.951549530029297
1763692631360534000,9.363533935546876,3.981656789779663,1.4742778539657593,-8.889336585998535
1763692631370119400,9.373119384765625,3.8907296657562256,1.3642079830169678,-8.589934349060059
1763692631379705600,9.38270556640625,3.7253258228302,1.4216357469558716,-8.108976364135742
1763692631389292500,9.39229248046875,3.7205400466918945,1.5652050971984863,-7.603792190551758
1763692631398878500,9.40187841796875,3.6343984603881836,1.7207385301589966,-7.1249284744262695
1763692631408464000,9.4114638671875,3.722932815551758,1.8239290714263916,-6.634100914001465
1763692631418049800,9.4210498046875,3.9074792861938477,2.079961061477661,-6.222236156463623
1763692631427636700,9.43063671875,4.187439441680908,2.360220432281494,-6.133701801300049
1763692631437223000,9.440222900390625,4.299902439117432,2.5995028018951416,-6.160022735595703
1763692631446808000,9.44980810546875,4.35254430770874,2.7574288845062256,-6.183950901031494
1763692631456394200,9.459394287109374,4.419842720031738,2.68325138092041,-6.270092487335205
1763692631465981200,9.468981201171875,4.596911430358887,2.429612398147583,-6.514459609985352
1763692631475567000,9.478567138671876,4.922335147857666,2.2235305309295654,-7.146463871002197
1763692631485152500,9.488152587890625,5.209773063659668,2.173281192779541,-7.919644832611084
1763692631494738700,9.49773876953125,5.413163185119629,2.384148597717285,-8.592327117919922
1763692631504325400,9.507325439453124,5.545067310333252,2.7095725536346436,-9.044869422912598
1763692631513911600,9.51691162109375,5.693422317504883,2.944368362426758,-9.258130073547363
1763692631523496700,9.52649658203125,5.647958755493164,2.8818557262420654,-9.346664428710938
1763692631533083000,9.536082763671875,5.468197822570801,2.601895570755005,-8.987442016601562
1763692631542669800,9.545669921875,5.520840167999268,2.2498514652252197,-9.147761344909668
1763692631552255700,9.555255859375,5.202594757080078,2.063211441040039,-8.539685249328613
1763692631561841200,9.564841064453125,4.931906700134277,2.0440688133239746,-8.072785377502441
1763692631571427300,9.57442724609375,4.611268520355225,2.1062822341918945,-7.697112083435059
1763692631581014000,9.584013916015625,4.771587371826172,2.0512471199035645,-7.127321243286133
1763692631590600200,9.59360009765625,4.996811866760254,1.9794625043869019,-6.579065799713135
1763692631600185600,9.603185546875,4.843372344970703,2.1373889446258545,-6.744170665740967
1763692631609771500,9.612771484375,4.955834865570068,2.197209358215332,-6.8757758140563965
1763692631619358500,9.6223583984375,4.934299468994141,2.3482563495635986,-6.7345991134643555
1763692631628944400,9.6319443359375,4.687838554382324,2.587538480758667,-6.792026996612549
1763692631638529800,9.64152978515625,4.455734729766846,2.7239294052124023,-6.86381196975708
1763692631648116000,9.651115966796874,4.417449474334717,2.793321371078491,-6.758527755737305
1763692631657703000,9.660702880859375,4.347758769989014,2.970689296722412,-6.607779502868652
1763692631667288800,9.670288818359374,4.206582069396973,3.0520453453063965,-6.478567123413086
1763692631676874200,9.679874267578125,4.015156269073486,2.9180471897125244,-6.394519329071045
1763692631686460200,9.689460205078126,3.895515203475952,2.649751901626587,-6.471388816833496
1763692631696047000,9.699047119140625,3.828217029571533,2.3793630599975586,-6.653243541717529
1763692631705633300,9.70863330078125,3.8066816329956055,2.316850423812866,-6.861418724060059
1763692631715218400,9.718218505859374,3.8377883434295654,2.4343979358673096,-7.127321243286133
1763692631724804600,9.7278046875,4.07258415222168,2.6784658432006836,-7.383353233337402
1763692631734391600,9.7373916015625,4.429413795471191,2.946761131286621,-7.560721397399902
1763692631743977500,9.7469775390625,4.302295207977295,3.0113673210144043,-8.226224899291992
1763692631753563000,9.75656298828125,4.596911430358887,3.468695640563965,-7.723433494567871
1763692631763149000,9.766149169921874,5.042275428771973,3.605086326599121,-7.902894973754883
1763692631772735700,9.77573583984375,5.176273345947266,3.7271203994750977,-7.864609718322754
1763692631782322000,9.785322021484374,5.439484119415283,3.8204405307769775,-8.01057243347168
1763692631791907000,9.794906982421875,5.607280731201172,3.815654754638672,-8.075178146362305
1763692631801493200,9.8044931640625,5.772385597229004,3.832404613494873,-8.137690544128418
1763692631811080200,9.814080078125,5.822634696960449,3.9161534309387207,-8.041678428649902
1763692631820666000,9.823666015625,5.743671417236328,4.007080554962158,-7.919644832611084
1763692631830251500,9.83325146484375,5.6288161277771,4.0695929527282715,-7.867002487182617
1763692631839837700,9.842837646484375,5.604887962341309,4.112663745880127,-7.8693952560424805
1763692631849424400,9.85242431640625,5.659923076629639,4.103092670440674,-7.948358535766602
1763692631859010600,9.862010498046875,5.798706531524658,4.036093711853027,-8.135297775268555
1763692631868596000,9.871595947265625,5.997310638427734,3.9855451583862305,-8.293224334716797
1763692631878182000,9.881181884765626,6.174678802490234,3.9209389686584473,-8.422436714172363
1763692631887768800,9.890768798828125,6.311069488525391,3.8826539516448975,-8.515756607055664
1763692631897355000,9.90035498046875,6.428318023681641,3.9137604236602783,-8.570791244506836
1763692631906940200,9.909940185546875,6.452246189117432,3.956831455230713,-8.616254806518555
1763692631916526300,9.9195263671875,6.449853420257568,4.038486480712891,-8.568398475646973
1763692631926113300,9.92911328125,6.370890140533447,4.172484397888184,-8.443971633911133
1763692631935699200,9.93869921875,6.332605361938477,4.292125701904297,-8.386544227600098
1763692631945284600,9.94828466796875,6.306283950805664,4.306482315063477,-8.393722534179688
1763692631954870800,9.957870849609375,6.33499813079834,4.246662139892578,-8.40329360961914
1763692631964457500,9.96745751953125,6.416353702545166,4.332803726196289,-8.65214729309082
1763692631974043600,9.977043701171874,6.488138675689697,4.335196495056152,-8.889336585998535
1763692631983628800,9.98662890625,6.531209468841553,4.414159774780273,-9.152546882629395
1763692631993215000,9.996215087890626,6.509674072265625,4.48833703994751,-9.435198783874512
1763692632002802000,10.005802001953125,6.485745906829834,4.471587181091309,-9.669695854187012
1763692632012387800,10.015387939453126,6.533602237701416,4.430909156799316,-9.926026344299316
1763692632021973200,10.02497314453125,6.653542518615723,4.454837322235107,-10.153345108032227
1763692632031559200,10.03455908203125,6.694220542907715,4.318446636199951,-10.18445110321045
1763692632041146000,10.04414599609375,6.722934246063232,4.265804767608643,-10.299306869506836
1763692632050732300,10.053732177734375,6.797111988067627,4.060021877288818,-10.431211471557617
1763692632060317400,10.0633173828125,6.811468601226807,3.79890513420105,-10.4790678024292
1763692632069903600,10.072903564453124,6.928717136383057,3.5069806575775146,-10.45513916015625
1763692632079490600,10.082490478515625,6.9598236083984375,3.198007345199585,-10.371390342712402
1763692632089076500,10.092076416015624,6.854539394378662,3.1070802211761475,-10.093523979187012
1763692632098662000,10.101661865234375,6.535995006561279,3.1477582454681396,-9.676874160766602
1763692632108248000,10.111248046875,5.9901323318481445,3.212364435195923,-9.025727272033691
1763692632117835000,10.1208349609375,5.580959796905518,3.236292600631714,-8.30279541015625
1763692632127421000,10.1304208984375,5.13320255279541,3.128615617752075,-7.682755470275879
1763692632137006300,10.14000634765625,4.699802875518799,2.8531417846679688,-7.299604415893555
1763692632146592300,10.14959228515625,4.374079704284668,2.02492618560791,-6.974180698394775
1763692632156179200,10.15917919921875,4.292723655700684,2.470290184020996,-7.223034381866455
1763692632165765400,10.168765380859375,3.749253988265991,2.93001127243042,-7.4240312576293945
1763692632175350500,10.1783505859375,3.895515203475952,2.90099835395813,-7.316354274749756
1763692632184936700,10.187936767578124,4.077369689941406,2.9515466690063477,-7.254140853881836
1763692632194523600,10.197523681640625,3.7731821537017822,2.999403238296509,-7.479066371917725
1763692632204109600,10.207109619140626,3.9074792861938477,2.877070188522339,-7.630113124847412
1763692632213695000,10.216695068359375,4.321437835693359,2.7622146606445312,-7.532007694244385
1763692632223281200,10.22628125,4.541876316070557,2.8411777019500732,-7.4001030921936035
1763692632232867800,10.235867919921875,4.60648250579834,2.9563324451446533,-7.292426109313965
1763692632242454000,10.2454541015625,4.781158924102783,2.9659037590026855,-7.261319637298584
1763692632252039200,10.2550390625,5.13320255279541,2.8818557262420654,-7.4240312576293945
1763692632261625300,10.264625244140625,5.432305812835693,2.8339993953704834,-7.697112083435059
1763692632271212300,10.27421240234375,5.657529830932617,2.893819808959961,-8.048856735229492
1763692632280798200,10.283798095703125,5.813063621520996,2.96111798286438,-8.81515884399414
1763692632290383600,10.293383544921875,5.903990745544434,3.0544381141662598,-8.949156761169434
1763692632299969800,10.3029697265625,5.913562297821045,3.2027931213378906,-7.835896015167236
1763692632309556700,10.312556640625,5.686244010925293,3.267399311065674,-7.797610759735107
1763692632319142700,10.322142578125,5.552245616912842,3.308077335357666,-7.383353233337402
1763692632328728000,10.33172802734375,5.50648307800293,3.3415768146514893,-6.945167541503906
1763692632338314000,10.34131396484375,5.315057277679443,3.3655049800872803,-6.595815658569336
1763692632347901000,10.35090087890625,5.1188459396362305,3.300898790359497,-6.279664039611816
1763692632357487000,10.360487060546875,5.027918815612793,3.1549365520477295,-6.030810356140137
1763692632367072300,10.370072265625,4.934299468994141,3.0376882553100586,-5.90159797668457
1763692632376658400,10.379658447265625,4.852943420410156,2.946761131286621,-5.851348876953125
1763692632386245400,10.389245361328125,4.776372909545898,2.8914270401000977,-5.819942951202393
1763692632395831300,10.398831298828124,4.695017337799072,2.8507490158081055,-5.731408596038818
1763692632405416700,10.408416748046875,4.60648250579834,2.8100709915161133,-5.738586902618408
1763692632415003000,10.4180029296875,4.6423749923706055,2.7789642810821533,-5.755336761474609
1763692632424589600,10.427589599609375,4.678267478942871,2.7406792640686035,-5.745765209197998
1763692632434175700,10.43717578125,4.651946544647217,2.7406792640686035,-5.571089267730713
1763692632443761000,10.446760986328124,4.541876316070557,2.80767822265625,-5.341378211975098
1763692632453347000,10.45634716796875,4.446163654327393,2.913261651992798,-5.13529634475708
1763692632462934000,10.46593408203125,4.431806564331055,2.99222469329834,-4.953442096710205
1763692632472520000,10.47552001953125,4.446163654327393,3.1453654766082764,-4.812265396118164
1763692632482105300,10.485105224609375,4.505984306335449,3.348755359649658,-4.632504463195801
1763692632491691500,10.49469140625,4.60648250579834,3.557229995727539,-4.46979284286499
1763692632501278500,10.504278564453125,4.639982223510742,3.6625142097473145,-4.393222332000732
1763692632510864400,10.513864501953124,4.735694885253906,3.5835509300231934,-4.371686935424805
1763692632520449500,10.523449462890625,4.773980140686035,3.040081262588501,-4.400400638580322
1763692632530035700,10.53303564453125,4.958227634429932,3.008974552154541,-5.027619361877441
1763692632539622700,10.54262255859375,5.264808177947998,2.999403238296509,-5.30548620223999
1763692632549208800,10.552208740234375,5.729314804077148,2.915654420852661,-5.84147834777832
1763692632558794000,10.5617939453125,5.992525100708008,3.478266716003418,-6.363412857055664
1763692632568380200,10.571380126953125,6.691827774047852,3.7797625064849854,-6.897311210632324
1763692632577967000,10.580967041015626,7.1799635887146,3.8371901512145996,-7.4240312576293945
1763692632587553000,10.590552978515625,7.6253275871276855,3.7247276306152344,-7.9316086769104
1763692632597138400,10.600138427734375,7.907979965209961,3.6074793338775635,-8.166404724121094
1763692632606724600,10.609724609375,8.018049240112305,3.3846476078033447,-8.175975799560547
1763692632616311300,10.619311279296875,7.939086437225342,3.0855448246002197,-8.027321815490723
1763692632625897500,10.6288974609375,7.972586154937744,2.953939437866211,-7.890930652618408
1763692632635482600,10.638482666015625,7.996514320373535,2.7789642810821533,-7.780860900878906
1763692632645068800,10.64806884765625,7.778767108917236,2.5612175464630127,-7.740182876586914
1763692632654655700,10.65765576171875,7.864908695220947,2.5348963737487793,-7.807182312011719
1763692632664241700,10.66724169921875,7.893622875213623,2.7311079502105713,-8.01775074005127
1763692632673827000,10.6768271484375,8.051548957824707,2.886641502380371,-8.262117385864258
1763692632683413200,10.686413330078125,8.350951194763184,2.9204399585723877,-8.657232284545898
1763692632693000000,10.696,8.266902923583984,2.649751901626587,-9.353842735290527
1763692632702586000,10.705586181640625,8.106583595275879,2.307279348373413,-9.10229778289795
1763692632712171500,10.715171630859375,8.757730484008789,2.467897415161133,-9.164510726928711
1763692632721757400,10.72475732421875,8.590232849121094,2.388934373855591,-9.042476654052734
1763692632731344400,10.734344482421875,8.513663291931152,2.5133609771728516,-8.827122688293457
1763692632740930300,10.743930419921876,8.516056060791016,2.4583261013031006,-8.54447078704834
1763692632750515700,10.753515625,8.496912956237793,2.324028968811035,-8.290831565856934
1763692632760102000,10.763101806640625,8.331509590148926,2.1517457962036133,-7.902894973754883
1763692632769688800,10.772688720703124,8.187939643859863,2.0033907890319824,-7.45274543762207
1763692632779274800,10.782274658203125,8.058727264404297,2.0129621028900146,-6.981359004974365
1763692632788860200,10.791860107421876,7.955836296081543,1.9507486820220947,-6.332305908203125
1763692632798446000,10.801446044921875,7.793124198913574,2.163709878921509,-5.831906795501709
1763692632808033000,10.811032958984375,7.4841508865356445,2.4272193908691406,-5.456233978271484
1763692632817619200,10.820619140625,7.33340311050415,2.5061826705932617,-5.19033145904541
1763692632827204400,10.830204345703125,7.292725086212158,2.539682149887085,-5.147260665893555
1763692632836790500,10.83979052734375,7.120142936706543,2.587538480758667,-5.18315315246582
1763692632846377500,10.84937744140625,7.285546779632568,2.649751901626587,-5.2477593421936035
1763692632855963400,10.85896337890625,7.40279483795166,2.688037157058716,-5.415555953979492
1763692632865548800,10.868548828125,7.579864025115967,2.690429925918579,-5.5998029708862305
1763692632875135000,10.878135009765625,7.7955169677734375,2.673680305480957,-5.72422981262207
1763692632884721700,10.8877216796875,7.893622875213623,2.8292136192321777,-5.865705490112305
1763692632894307800,10.897307861328125,7.8433732986450195,2.944368362426758,-5.973382472991943
1763692632903893200,10.906893310546875,7.8026957511901855,2.9730820655822754,-5.973382472991943
1763692632913479200,10.916479248046874,7.699504852294922,2.913261651992798,-5.875277042388916
1763692632923066000,10.926066162109375,7.603792190551758,2.759821891784668,-5.760122299194336
1763692632932652000,10.935652099609374,7.443472862243652,2.6401805877685547,-5.6859450340271
1763692632942237400,10.945237548828125,7.208677291870117,2.6306095123291016,-5.537590026855469
1763692632951823600,10.95482373046875,6.969395160675049,2.659323215484619,-5.336592674255371
1763692632961410600,10.96441064453125,6.7085771560668945,2.656930446624756,-5.0826544761657715
1763692632970996500,10.97399658203125,6.457031726837158,2.6473591327667236,-4.864907741546631
1763692632980582000,10.983581787109374,6.232106685638428,2.7023940086364746,-4.649254322052002
1763692632990168000,10.99316796875,6.016453266143799,2.831606388092041,-4.41475772857666
1763692632999754800,11.002754638671876,5.856134414672852,2.970689296722412,-4.223331928253174
1763692633009341000,11.0123408203125,5.772385597229004,3.049652576446533,-4.091427803039551
1763692633018926000,11.021926025390625,5.750850200653076,3.166900873184204,-3.990929126739502
1763692633028512300,11.03151220703125,5.851348876953125,3.315255880355835,-4.031607151031494
1763692633038099200,11.04109912109375,6.030810356140137,3.468695640563965,-4.187439441680908
1763692633047685000,11.05068505859375,6.2297139167785645,3.5859439373016357,-4.398007869720459
1763692633057270500,11.0602705078125,6.358926296234131,3.7103705406188965,-4.534399032592773
1763692633066856700,11.069856689453125,6.5527448654174805,3.8898322582244873,-4.534399032592773
1763692633076443400,11.079443359375,6.859325408935547,4.036093711853027,-4.596612453460693
1763692633086029600,11.089029541015625,7.184749126434326,4.038486480712891,-4.769194602966309
1763692633095615000,11.098614990234376,7.510472297668457,3.990330934524536,-5.108975410461426
1763692633105201000,11.108200927734375,7.793124198913574,4.011866092681885,-5.410770416259766
1763692633114787800,11.117787841796876,7.776374340057373,4.150949001312256,-5.511268615722656
1763692633124374000,11.1273740234375,7.733004570007324,4.339982032775879,-5.511268615722656
1763692633133959200,11.136959228515625,7.615756034851074,4.36391019821167,-5.578267574310303
1763692633143545300,11.14654541015625,7.551149845123291,4.3447675704956055,-5.669195175170898
1763692633153132300,11.15613232421875,7.630113124847412,4.249054908752441,-5.793622016906738
1763692633162718200,11.16571826171875,7.661220073699951,3.61226487159729,-5.84147834777832
1763692633172303600,11.1753037109375,7.77398157119751,4.150949001312256,-6.234200477600098
1763692633181889800,11.184889892578125,7.476972579956055,4.30169677734375,-6.234200477600098
1763692633191476500,11.1944765625,7.740182876586914,4.021437644958496,-6.188736438751221
1763692633201062700,11.204062744140625,7.742575645446777,3.707977771759033,-6.370591163635254
1763692633210647800,11.213647705078126,7.685148239135742,3.523730516433716,-6.586244106292725
1763692633220234000,11.22323388671875,7.744968891143799,3.533301830291748,-6.7106709480285645
1763692633229821000,11.232821044921875,7.8433732986450195,3.70558500289917,-6.811169624328613
1763692633239406800,11.24240673828125,7.946264743804932,3.880260944366455,-6.9068827629089355
1763692633248992300,11.2519921875,8.051548957824707,3.9400815963745117,-7.05553674697876
1763692633258578400,11.261578369140626,8.254939079284668,3.9233317375183105,-7.285247802734375
1763692633268165400,11.271165283203125,8.417949676513672,3.8682968616485596,-7.587042331695557
1763692633277751300,11.280751220703126,8.592626571655273,3.8347973823547363,-7.989036560058594
1763692633287336700,11.290336669921874,8.798408508300781,3.729513168334961,-9.679266929626465
1763692633296922600,11.299922607421875,9.002098083496094,4.057629108428955,-9.205188751220703
1763692633306509600,11.309509521484374,9.109774589538574,4.127020835876465,-9.032905578613281
1763692633316095700,11.319095703125,9.011669158935547,4.3758745193481445,-9.516554832458496
1763692633325681000,11.328680908203125,9.040383338928223,4.4859442710876465,-9.475876808166504
1763692633335267000,11.33826708984375,9.002098083496094,4.440480709075928,-9.447162628173828
1763692633344854000,11.34785400390625,9.100203514099121,4.22512674331665,-9.475876808166504
1763692633354440000,11.35743994140625,9.344271659851074,4.026223182678223,-9.578767776489258
1763692633364025300,11.367025390625,9.298808097839355,3.8132619857788086,-9.806385040283203
1763692633373611300,11.376611328125,9.112167358398438,3.6481571197509766,-9.9140625
1763692633383198200,11.3861982421875,8.915956497192383,3.4612178802490234,-9.818349838256836
1763692633392784400,11.395784423828125,8.595019340515137,3.451646566390991,-9.59791088104248
1763692633402369500,11.40536962890625,8.149654388427734,3.492623805999756,-9.169296264648438
1763692633411955700,11.414955810546875,7.58943510055542,3.451646566390991,-8.760123252868652
1763692633421542700,11.424542724609376,7.0292158126831055,3.4157543182373047,-8.422436714172363
1763692633431128800,11.43412890625,6.471388816833496,3.3367912769317627,-8.173583030700684
1763692633440714000,11.4437138671875,6.021239280700684,3.260220766067505,-7.9866437911987305
1763692633450300200,11.453300048828124,5.743671417236328,3.1549365520477295,-7.867002487182617
1763692633459887000,11.46288720703125,5.578567028045654,3.119044303894043,-7.811967849731445
1763692633469473000,11.47247314453125,5.449055194854736,3.212364435195923,-7.675576686859131
1763692633479058400,11.482058349609375,5.264808177947998,3.3439695835113525,-7.661220073699951
1763692633488644600,11.49164453125,5.070989608764648,3.456432342529297,-7.752147197723389
1763692633498231300,11.501231201171874,4.898406982421875,3.451646566390991,-7.766504287719727
1763692633507817500,11.5108173828125,4.757230281829834,3.315255880355835,-7.71386194229126
1763692633517402600,11.520402587890626,4.659124851226807,3.0759735107421875,-7.5535430908203125
1763692633526988800,11.52998876953125,4.395615100860596,2.9276185035705566,-7.361817836761475
1763692633536575700,11.53957568359375,4.027120590209961,2.953939437866211,-7.282855033874512
1763692633546161700,11.54916162109375,3.7372899055480957,3.0616166591644287,-7.182356357574463
1763692633555747000,11.5587470703125,3.5793635845184326,3.0687949657440186,-7.041179656982422
1763692633565333200,11.568333251953124,3.7923247814178467,2.9730820655822754,-6.80159854888916
1763692633574920000,11.577919921875,3.9625144004821777,2.9180471897125244,-6.62213659286499
1763692633584506000,11.587506103515626,4.027120590209961,2.855534791946411,-6.502495765686035
1763692633594091500,11.597091552734375,3.840181350708008,2.8603203296661377,-6.636493682861328
1763692633603677400,11.606677490234375,3.3951163291931152,2.9491539001464844,-6.509674072265625
1763692633613264400,11.616264404296874,3.11246395111084,2.9874391555786133,-5.90159797668457
1763692633622850300,11.625850341796875,2.909074068069458,3.104687452316284,-5.214259624481201
1763692633632435700,11.635435791015626,2.8827531337738037,3.188436269760132,-4.687539577484131
1763692633642022000,11.64502197265625,3.3831520080566406,3.1621150970458984,-4.204189300537109
1763692633651608800,11.65460888671875,3.8572301864624023,2.8196423053741455,-4.625326156616211
1763692633661194800,11.66419482421875,3.9625144004821777,2.384148597717285,-5.3078789710998535
1763692633670780200,11.6737802734375,3.708575963973999,2.2091734409332275,-5.085047245025635
1763692633680366300,11.683366455078126,3.375973701477051,2.4487547874450684,-4.677968502044678
1763692633689953000,11.692953125,2.9186453819274902,2.8435707092285156,-4.216153621673584
1763692633699539200,11.702539306640626,2.7535407543182373,3.300898790359497,-4.235296249389648
1763692633709124400,11.712124267578124,3.378366470336914,3.6696925163269043,-4.814658164978027
1763692633718710500,11.72171044921875,3.82582426071167,3.6936209201812744,-5.532804012298584
1763692633728297500,11.73129736328125,3.7588253021240234,3.468695640563965,-6.042774677276611
1763692633737883400,11.74088330078125,2.765504837036133,3.0687949657440186,-6.981359004974365
1763692633747468800,11.75046875,2.430210590362549,2.985046148300171,-6.6484575271606445
1763692633757055000,11.760054931640624,2.765504837036133,2.4008984565734863,-6.322734832763672
1763692633766642000,11.769641845703125,3.1866414546966553,1.5795620679855347,-6.602993965148926
1763692633776227800,11.779227783203124,3.596113443374634,1.4575281143188477,-7.524529933929443
1763692633785813200,11.788813232421875,3.019144058227539,2.2067806720733643,-7.934001445770264
1763692633795399400,11.7983994140625,2.094916343688965,3.1860432624816895,-8.180761337280273
1763692633804986000,11.807986083984375,1.2882359027862549,4.134199142456055,-7.895716667175293
1763692633814572300,11.817572265625,0.4911268353462219,4.3280181884765625,-7.677969455718994
1763692633824157400,11.827157470703124,-0.16271193325519562,4.598706245422363,-8.104190826416016
1763692633833743600,11.83674365234375,0.26111677289009094,4.3447675704956055,-8.597112655639648
1763692633843330600,11.84633056640625,1.077667474746704,3.6888351440429688,-9.48066234588623
1763692633852916500,11.85591650390625,0.9696913957595825,3.3678979873657227,-10.179665565490723
1763692633862502000,11.865501953125,0.4094717800617218,3.5045878887176514,-10.536495208740234
1763692633872087800,11.875087890625,-0.33499518036842346,3.6649069786071777,-10.794919967651367
1763692633881674800,11.8846748046875,-0.9837492108345032,3.1453654766082764,-10.943573951721191
1763692633891261000,11.894260986328124,-1.038784146308899,3.3439695835113525,-10.84277629852295
1763692633900846000,11.90384619140625,-0.8952147960662842,3.212364435195923,-10.452746391296387
1763692633910432300,11.913432373046875,-2.2118654251098633,2.77657151222229,-10.739885330200195
1763692633920019200,11.923019287109375,-2.6739792823791504,3.1453654766082764,-11.637791633605957
1763692633929605400,11.93260546875,-2.8582265377044678,3.4540395736694336,-12.437294006347656
1763692633939190500,11.9421904296875,-2.851048231124878,3.863511323928833,-12.612269401550293
1763692633948776700,11.951776611328125,-3.0164520740509033,3.76779842376709,-12.578470230102539
1763692633958363600,11.96136376953125,-3.093022346496582,3.087937593460083,-13.031013488769531
1763692633967949600,11.970949462890625,-2.8701908588409424,2.7000012397766113,-13.435699462890625
1763692633977535000,11.980534912109375,-2.5782663822174072,2.477468729019165,-13.732707977294922
1763692633987121200,11.99012109375,-2.154437780380249,1.984248161315918,-13.859527587890625
1763692633996707800,11.999707763671875,-1.903191328048706,1.3019945621490479,-13.454841613769531
1763692634006294000,12.0092939453125,-2.137687921524048,0.8470591902732849,-12.782159805297852
1763692634015879200,12.018879150390624,-2.4299113750457764,0.3323032557964325,-12.226725578308105
1763692634025465300,12.02846533203125,-2.058724880218506,-0.6302096843719482,-12.087942123413086
1763692634035052300,12.03805224609375,-1.8601205348968506,-0.740279495716095,-11.7358980178833
1763692634044638500,12.047638427734375,-3.01405930519104,-0.1704886108636856,-10.517353057861328
1763692634054223600,12.0572236328125,-5.623432159423828,0.3681955933570862,-9.966704368591309
1763692634063811300,12.066811279296875,-4.378566265106201,0.6457630395889282,-9.767801284790039
1763692634073398000,12.07639794921875,-3.1432716846466064,0.8590233325958252,-9.794421195983887
1763692634082984200,12.085984130859375,-3.4785659313201904,0.8997012972831726,-10.412068367004395
1763692634092569600,12.095569580078125,-3.0786654949188232,0.4902295470237732,-11.316854476928711
1763692634102155500,12.105155517578124,-2.669193744659424,-0.01734796352684498,-11.762218475341797
1763692634111742500,12.114742431640625,-2.089831590652466,-0.4049852192401886,-12.02064323425293
1763692634121328600,12.12432861328125,-1.6755740642547607,-0.29730820655822754,-11.886645317077637
1763692634130913800,12.133913818359375,-1.594218134880066,0.4088735580444336,-11.309676170349121
1763692634140500000,12.1435,-1.5248262882232666,1.069591760635376,-10.720743179321289
1763692634150087000,12.1530869140625,-1.350150227546692,1.589133381843567,-10.141380310058594
1763692634159672800,12.1626728515625,-1.2903295755386353,2.111067771911621,-9.308379173278809
1763692634169258200,12.17225830078125,-1.378864049911499,2.3626132011413574,-8.147261619567871
1763692634178844400,12.181844482421875,-1.3070793151855469,2.360220432281494,-6.892525672912598
1763692634188431000,12.19143115234375,-1.3310075998306274,2.350649118423462,-5.987739562988281
1763692634198017300,12.201017333984375,-0.8042874932289124,2.1134605407714844,-5.824728488922119
1763692634207602400,12.2106025390625,-0.27038896083831787,1.6896319389343262,-6.262914180755615
1763692634217188600,12.220188720703124,-0.13160525262355804,1.282852053642273,-6.751348972320557
1763692634226775600,12.229775634765625,-0.004486542660742998,1.1653046607971191,-7.139285564422607
1763692634236361700,12.23936181640625,0.055334024131298065,1.3402798175811768,-7.144071102142334
1763692634245947000,12.24894677734375,0.0649053156375885,1.672882080078125,-6.7896342277526855
1763692634255533000,12.258532958984375,-0.05473581701517105,2.11824631690979,-6.27487850189209
1763692634265120000,12.2681201171875,-0.06430710852146149,2.573181629180908,-5.748157978057861
1763692634274706000,12.277705810546875,0.033798620104789734,3.0759735107421875,-5.2477593421936035
1763692634284291300,12.287291259765626,0.15583257377147675,3.471088409423828,-4.812265396118164
1763692634293877500,12.29687744140625,0.2802593410015106,3.7247276306152344,-4.4650068283081055
1763692634303464200,12.306464111328125,0.4453641176223755,3.832404613494873,-4.18983268737793
1763692634313050400,12.31605029296875,0.6753742098808289,3.8300118446350098,-4.069892406463623
1763692634322635500,12.325635498046875,0.9840483069419861,3.9137604236602783,-4.426722049713135
1763692634332221700,12.3352216796875,1.1877373456954956,3.980759620666504,-5.077868938446045
1763692634341808600,12.34480859375,1.2595219612121582,4.057629108428955,-5.4897332191467285
1763692634351394800,12.354394775390626,1.2379865646362305,4.17009162902832,-5.738586902618408
1763692634360980000,12.36397998046875,1.383948802947998,4.383052825927734,-5.9422760009765625
1763692634370566100,12.373566162109375,1.6737794876098633,4.576871395111084,-6.10259485244751
1763692634380153000,12.383153076171874,1.8652052879333496,4.744668006896973,-6.2413787841796875
1763692634389739000,12.392739013671875,2.0925233364105225,4.888237476348877,-6.404090881347656
1763692634399324400,12.402324462890626,2.3273191452026367,5.0581278800964355,-6.617351055145264
1763692634408910600,12.41191064453125,2.4373888969421387,4.895416259765625,-6.957131862640381
1763692634418497300,12.421497314453125,2.590529680252075,5.697310924530029,-7.294818878173828
1763692634428083500,12.43108349609375,3.0071799755096436,6.137889385223389,-7.532007694244385
1763692634437668600,12.440668701171875,3.481257915496826,5.886642932891846,-7.646862983703613
1763692634447254800,12.4502548828125,3.7971103191375732,6.051747798919678,-9.049654960632324
1763692634456841700,12.459841796875,4.491627216339111,6.4085774421691895,-9.918848037719727
1763692634466427600,12.469427734375,4.750051975250244,6.444469451904297,-10.296914100646973
1763692634476013000,12.479012939453124,4.738088130950928,6.123532295227051,-11.1373929977417
1763692634485599200,12.48859912109375,4.601696968078613,5.903392791748047,-11.963215827941895
1763692634495186000,12.49818603515625,4.326223373413086,6.166603088378906,-12.164511680603027
1763692634504772000,12.507772216796875,3.9984066486358643,6.769893646240234,-12.102298736572266
1763692634514357500,12.517357421875,3.8377883434295654,7.34686279296875,-11.972786903381348
1763692634523943400,12.526943359375,3.7755749225616455,7.517052173614502,-11.970394134521484
1763692634533530400,12.5365302734375,3.6942191123962402,7.200900554656982,-12.188440322875977
1763692634543116500,12.546116455078124,3.88594388961792,6.6693949699401855,-12.676875114440918
1763692634552701700,12.55570166015625,4.295116424560547,6.159424781799316,-13.61037540435791
1763692634562287900,12.565287841796875,4.704588413238525,5.908178329467773,-14.4532470703125
