time,seconds_elapsed,z,y,x
1763699998203887000,0.05488720703125,-0.0004974500043317676,-0.15364892780780792,-0.030776144936680794
1763699998213909800,0.06490966796875,-0.0031114621087908745,0.00138827133923769,-0.026036979630589485
1763699998223932000,0.074931884765625,-0.002460585441440344,0.12263613194227219,-0.019538067281246185
1763699998233954800,0.084954833984375,0.0046449946239590645,0.18266059458255768,-0.019343923777341843
1763699998243977700,0.094977783203125,0.006667931564152241,0.1752956211566925,-0.02396663837134838
1763699998253999900,0.104999755859375,0.011459757573902607,0.11025749891996384,-0.024062512442469597
1763699998264022800,0.115022705078125,0.013890158385038376,0.014340820722281933,-0.017858145758509636
1763699998274045000,0.125044921875,0.015024840831756592,-0.07517503201961517,-0.0077731250785291195
1763699998284067800,0.13506787109375,0.013041851110756397,-0.1272190660238266,0.001718647312372923
1763699998294089700,0.14508984375,0.008953285403549671,-0.13071422278881073,0.006721603684127331
1763699998304113000,0.15511279296875,0.00663047656416893,-0.09018277376890182,0.008300858549773693
1763699998314134800,0.165134765625,0.003565059043467045,-0.025645114481449127,0.0027463713195174932
1763699998324158000,0.175157958984375,-0.0011471380712464452,0.039727237075567245,-0.005851377733051777
1763699998334179800,0.185179931640625,-0.006370324641466141,0.0863620936870575,-0.013588114641606808
1763699998344203000,0.195203125,-0.012083071283996105,0.10026246309280396,-0.01699935644865036
1763699998354225000,0.205224853515625,-0.016721127554774284,0.07705401629209518,-0.016365375369787216
1763699998364247800,0.215247802734375,-0.02114730142056942,0.03705280274152756,-0.012921108864247799
1763699998374270000,0.22527001953125,-0.02078968659043312,-0.014775315299630165,-0.0060026682913303375
1763699998384292900,0.23529296875,-0.021194487810134888,-0.05765833333134651,-0.0005932552739977837
1763699998394315000,0.24531494140625,-0.0221725981682539,-0.08089715987443924,0.0030528889037668705
1763699998404338000,0.255337890625,-0.019559504464268684,-0.08201009780168533,0.005031883716583252
1763699998414361000,0.265361083984375,-0.016282403841614723,-0.060755375772714615,0.008724947459995747
1763699998424383000,0.275383056640625,-0.010814402252435684,-0.026341743767261505,0.008619486354291439
1763699998434406000,0.285406005859375,-0.007976491004228592,0.010927937924861908,0.009578409604728222
1763699998444428000,0.295427978515625,-0.0032230145297944546,0.04151700437068939,0.005641991272568703
1763699998454451000,0.305450927734375,0.0004110201261937618,0.05536198988556862,0.003024440258741379
1763699998464473000,0.31547314453125,0.0033434268552809954,0.04991103336215019,0.0023594489321112633
1763699998474496000,0.32549609375,0.007643620017915964,0.03346323221921921,0.0026512842159718275
1763699998484518000,0.335517822265625,0.0036379597149789333,0.011770722456276417,0.0012062529567629099
1763699998494541000,0.345541015625,0.0020875371992588043,-0.010362032800912857,-0.004588773474097252
1763699998504563000,0.35556298828125,0.0015892598312348127,-0.025737525895237923,-0.007411191239953041
1763699998514585900,0.3655859375,0.0024822410196065903,-0.035480596125125885,-0.006539713591337204
1763699998524608000,0.37560791015625,0.0001977815991267562,-0.03525742143392563,-0.005305605009198189
1763699998534631000,0.385630859375,-0.00010555225890129805,-0.02709050662815571,0.00022338563576340675
1763699998544653000,0.395653076171875,0.003068669466301799,-0.015478593297302723,0.004608812741935253
1763699998554675700,0.40567578125,0.005950996186584234,-0.005926484242081642,0.010042679496109486
1763699998564697900,0.41569775390625,0.0027560018934309483,0.003963430877774954,0.007513209246098995
1763699998574720800,0.425720703125,0.0014358853222802281,0.008922087028622627,0.001187183428555727
1763699998584744000,0.435743896484375,-0.0007620215183123946,0.0068765138275921345,-0.0048973411321640015
1763699998594765800,0.445765869140625,-0.0014424016699194908,0.004222269169986248,-0.007961076684296131
1763699998604789000,0.4557890625,-0.004625411704182625,-0.001491809613071382,-0.00910037662833929
1763699998614811000,0.465810791015625,-0.013746748678386211,-0.0024103871546685696,-0.007927832193672657
1763699998624833800,0.475833740234375,-0.01772870495915413,-0.007637373637408018,-0.003149055875837803
1763699998634856000,0.48585595703125,-0.013179832138121128,-0.023392081260681152,0.0043740952387452126
1763699998644878800,0.49587890625,-0.008139001205563545,-0.039285559207201004,0.012162243016064167
1763699998654900700,0.505900634765625,0.009651366621255875,-0.05646783486008644,0.012190413661301136
1763699998664924000,0.515923828125,0.018365763127803802,-0.05714481323957443,0.00845533050596714
1763699998674945800,0.52594580078125,0.009304484352469444,-0.016672849655151367,-0.0003485684283077717
1763699998684969000,0.535968994140625,0.011189470067620277,0.043335624039173126,-0.010154061019420624
1763699998694990800,0.545990966796875,0.011532669886946678,0.09978362917900085,-0.015097481198608875
1763699998705014000,0.556013916015625,0.011793392710387707,0.13284143805503845,-0.015294554643332958
1763699998715036000,0.566035888671875,0.006729160901159048,0.1308281123638153,-0.009122006595134735
1763699998725058800,0.576058837890625,0.0034593315795063972,0.08843432366847992,0.0019993544556200504
1763699998735081000,0.5860810546875,0.0038217990659177303,0.021569322794675827,0.006025833543390036
1763699998745104000,0.596103759765625,0.003260404337197542,-0.04921429976820946,0.004508098121732473
1763699998755126000,0.6061259765625,0.002117445692420006,-0.09627211838960648,0.0017794352024793625
1763699998765149000,0.61614892578125,-0.0009715547785162926,-0.10928086191415787,-0.0006003656890243292
1763699998775170800,0.6261708984375,-0.002103768987581134,-0.0884127989411354,-0.0008117049001157284
1763699998785194000,0.636194091796875,-0.0012614112347364426,-0.048266973346471786,-0.00004178495146334171
1763699998795217000,0.646216796875,-0.0023237578570842743,-0.0015885353786870837,0.004132673144340515
1763699998805239000,0.656239013671875,-0.001771151670254767,0.034783586859703064,0.0039688884280622005
1763699998815262000,0.666261962890625,-0.000027855858206748962,0.04931287840008736,-0.0031772181391716003
1763699998825284000,0.6762841796875,0.00038972782203927636,0.04036891460418701,-0.009202886372804642
1763699998835307000,0.68630712890625,0.0027671640273183584,0.011075498536229134,-0.014781003817915916
1763699998845329000,0.696328857421875,0.0011644737096503377,-0.026334723457694054,-0.012304797768592834
1763699998855351800,0.706351806640625,0.0012243491364642978,-0.05853508040308952,-0.005278232507407665
1763699998865374000,0.7163740234375,0.0006602916982956231,-0.07071451842784882,0.00242576003074646
1763699998875397000,0.726397216796875,0.00041530351154506207,-0.06270914524793625,0.00990400929003954
1763699998885419000,0.7364189453125,-0.0035405559465289116,-0.04135698825120926,0.00952051393687725
1763699998895442200,0.746442138671875,-0.004737935960292816,-0.010621881112456322,0.0052268728613853455
1763699998905464000,0.756464111328125,-0.005256719887256622,0.01911683939397335,-0.004684880375862122
1763699998915487000,0.766487060546875,-0.007452820427715778,0.03744351863861084,-0.008731251582503319
1763699998925509000,0.776509033203125,-0.005325487814843655,0.04082227125763893,-0.011851677671074867
1763699998935532000,0.786531982421875,-0.001970830373466015,0.03141454979777336,-0.012652467004954815
1763699998945554200,0.79655419921875,0.001899008871987462,0.009571835398674011,-0.010826870799064636
1763699998955577000,0.8065771484375,0.0036703350488096476,-0.013180956244468689,-0.012848776765167713
1763699998965599000,0.816598876953125,0.008754309266805649,-0.03221137076616287,-0.015461071394383907
1763699998975622100,0.8266220703125,0.010909686796367168,-0.036544837057590485,-0.019715145230293274
1763699998985644000,0.83664404296875,0.013079630210995674,-0.028061602264642715,-0.021094130352139473
1763699998995667200,0.846667236328125,0.017141193151474,-0.01196296513080597,-0.02119382657110691
1763699999005690000,0.856690185546875,0.020566551014780998,0.01105473656207323,-0.01896529272198677
1763699999015712300,0.866712158203125,0.01756647601723671,0.03682544082403183,-0.02044716849923134
1763699999025735200,0.876735107421875,0.018249310553073883,0.05528487637639046,-0.02160244807600975
1763699999035757000,0.886757080078125,-0.017067469656467438,0.04487540200352669,-0.03349826857447624
1763699999045780200,0.8967802734375,-0.057602375745773315,0.01750050112605095,-0.06375844031572342
1763699999055802000,0.906802001953125,-0.07933574169874191,-0.7456346154212952,0.06032288447022438
1763699999065825300,0.9168251953125,0.0060582528822124004,-2.492203712463379,0.2764189541339874
1763699999075847200,0.92684716796875,0.13276620209217072,-2.6710798740386963,0.23785400390625
1763699999085870300,0.936870361328125,0.11756140738725662,-2.074359178543091,0.1466716229915619
1763699999095892200,0.946892333984375,0.0393931120634079,-1.197503685951233,0.0239904522895813
1763699999105915100,0.9569150390625,0.020659105852246284,-0.3580552935600281,-0.09818578511476517
1763699999115937300,0.966937255859375,0.055763307958841324,0.5023892521858215,-0.19486621022224426
1763699999125960200,0.976960205078125,0.13229723274707794,1.4189609289169312,-0.23108413815498352
1763699999135982000,0.986982177734375,0.3524308204650879,2.4186503887176514,-0.23649929463863373
1763699999146005200,0.997005126953125,0.7117972373962402,2.6264121532440186,-0.21139393746852875
1763699999156027100,1.007027099609375,1.0268040895462036,1.7298299074172974,-0.14152753353118896
1763699999166050300,1.01705029296875,1.3291552066802979,0.04510469734668732,-0.06153389438986778
1763699999176072200,1.027072265625,1.7189695835113525,-0.99073326587677,-0.08000189065933228
1763699999186095400,1.037095458984375,2.109224796295166,-1.0433138608932495,-0.1669924408197403
1763699999196117200,1.0471171875,2.1145503520965576,-0.4895504415035248,-0.2027038037776947
1763699999206140200,1.05714013671875,1.8388471603393555,-0.41621071100234985,-0.30839452147483826
1763699999216162300,1.067162353515625,1.3512113094329834,-0.12198472023010254,-0.37482768297195435
1763699999226185000,1.07718505859375,0.8671613335609436,0.6717632412910461,-0.4148896038532257
1763699999236207400,1.087207275390625,0.462586909532547,1.572210669517517,-0.49712467193603516
1763699999246230000,1.09722998046875,0.08027283102273941,2.3732082843780518,-0.6545814275741577
1763699999256253200,1.107253173828125,-0.3464284837245941,2.762979030609131,-0.8179181218147278
1763699999266275000,1.117275146484375,-0.7508196830749512,2.7282392978668213,-0.8953982591629028
1763699999276297200,1.127297119140625,-0.9571941494941711,2.489511489868164,-0.8287940621376038
1763699999286320000,1.137320068359375,-0.8213263154029846,2.340216875076294,-0.6472545862197876
1763699999296343000,1.147343017578125,-0.43006423115730286,2.326575994491577,-0.38090044260025024
1763699999306365200,1.157365234375,0.008876113221049309,2.329364061355591,-0.07001502811908722
1763699999316388000,1.16738818359375,0.3605336546897888,2.309264659881592,0.23971392214298248
1763699999326410000,1.177409912109375,0.5789011120796204,2.183789014816284,0.5032238364219666
1763699999336433200,1.18743310546875,0.7044951915740967,1.9399110078811646,0.6919519305229187
1763699999346455000,1.197455078125,0.7913187742233276,1.6267520189285278,0.8075951933860779
1763699999356478200,1.207478271484375,0.8610689640045166,1.3131710290908813,0.9020681977272034
1763699999366500000,1.2175,0.9152216911315918,1.0029047727584839,0.9836349487304688
1763699999376523300,1.227523193359375,0.923438310623169,0.774298906326294,1.0331701040267944
1763699999386545200,1.237545166015625,0.8494421243667603,0.6452056169509888,1.054800271987915
1763699999396568000,1.247568115234375,0.7500160932540894,0.5202577114105225,0.9972106218338013
1763699999406590200,1.257590087890625,0.7059650421142578,0.5277209877967834,0.8475585579872131
1763699999416613000,1.267613037109375,0.713047981262207,0.5082206130027771,0.6293955445289612
1763699999426635300,1.27763525390625,0.7100990414619446,0.3489822447299957,0.37870287895202637
1763699999436658200,1.287658203125,0.6543192863464355,0.06353440880775452,0.10664710402488708
1763699999446680000,1.29768017578125,0.5725149512290955,-0.25557246804237366,-0.19584831595420837
1763699999456703200,1.307703125,0.5196139216423035,-0.378496378660202,-0.5236302614212036
1763699999466725000,1.31772509765625,0.47538626194000244,-0.37267470359802246,-0.8108084797859192
1763699999476748300,1.327748291015625,0.43162864446640015,-0.4397234618663788,-1.0225557088851929
1763699999486770200,1.337770263671875,0.3743078410625458,-0.7467952370643616,-0.9848456978797913
1763699999496793300,1.34779345703125,0.2446313202381134,-0.9084426164627075,0.2569514214992523
1763699999506815200,1.357815185546875,0.33784061670303345,-0.883151113986969,-0.05481526255607605
1763699999516838100,1.367838134765625,0.297970712184906,-0.9225761890411377,-0.3589334189891815
1763699999526860300,1.3778603515625,0.15147311985492706,-1.3264325857162476,-0.3598002791404724
1763699999536883200,1.38788330078125,0.04813779518008232,-1.1716042757034302,-0.3259260356426239
1763699999546905000,1.397905029296875,-0.1022154912352562,-0.9884573817253113,-0.20649470388889313
1763699999556928300,1.40792822265625,-0.1548200100660324,-0.9457809329032898,-0.18846924602985382
1763699999566950100,1.4179501953125,-0.1814553588628769,-0.9624078273773193,-0.15809670090675354
1763699999576973300,1.427973388671875,-0.16008776426315308,-0.9822544455528259,-0.07103379815816879
1763699999586995200,1.4379951171875,-0.10861499607563019,-0.9399304389953613,0.06748546659946442
1763699999597018400,1.448018310546875,-0.04950687661767006,-0.2997915744781494,0.45101895928382874
1763699999607041000,1.458041015625,-0.07554219663143158,-0.07498777657747269,0.34388211369514465
1763699999617063200,1.468063232421875,-0.0790797546505928,-0.004939750302582979,0.3347010910511017
1763699999627086000,1.478086181640625,-0.04839348793029785,-0.09064880013465881,0.41305792331695557
1763699999637108000,1.48810791015625,-0.07361146807670593,-0.11348868906497955,0.36219140887260437
1763699999647131100,1.498131103515625,-0.05284946411848068,-0.13607709109783173,0.25534433126449585
1763699999657153000,1.508153076171875,0.005000458564609289,-0.19477488100528717,0.14811083674430847
1763699999667176200,1.51817626953125,0.010734776966273785,-0.22111594676971436,0.08680646866559982
1763699999677198000,1.528197998046875,-0.010448239743709564,-0.1999286264181137,0.04932501167058945
1763699999687221000,1.538220947265625,-0.0032537104561924934,-0.1653253734111786,0.0003420221619307995
1763699999697243100,1.5482431640625,-0.008363296277821064,-0.10060583800077438,-0.06537538766860962
1763699999707266000,1.55826611328125,-0.024051712825894356,-0.03277458995580673,-0.12199392914772034
1763699999717288200,1.5682880859375,-0.03095252439379692,0.040266577154397964,-0.14100158214569092
1763699999727311000,1.57831103515625,-0.021153956651687622,0.11130693554878235,-0.10054071247577667
1763699999737333000,1.5883330078125,-0.006945667788386345,0.15105368196964264,0.00809891801327467
1763699999747356200,1.598356201171875,0.03382865712046623,0.09500931203365326,0.14633110165596008
1763699999757378000,1.6083779296875,0.06807853281497955,0.12429466098546982,0.2673438787460327
1763699999767401200,1.618401123046875,0.0733310878276825,0.23681801557540894,0.3460501432418823
1763699999777423000,1.628423095703125,0.03832235932350159,0.42010486125946045,0.340658575296402
1763699999787446300,1.6384462890625,-0.032756879925727844,0.6514648795127869,0.26721951365470886
1763699999797468200,1.64846826171875,-0.1019865870475769,0.7874574661254883,0.1622108817100525
1763699999807491000,1.658490966796875,-0.1710394322872162,0.8169487714767456,0.09464141726493835
1763699999817513200,1.66851318359375,-0.2040448933839798,0.7870772480964661,0.07336633652448654
1763699999827536100,1.6785361328125,-0.19660241901874542,0.7152405977249146,0.09131310880184174
1763699999837558300,1.688558349609375,-0.17537865042686462,0.47105303406715393,0.17566166818141937
1763699999847581200,1.698581298828125,-0.14702531695365906,0.12102843821048737,0.30825862288475037
1763699999857603000,1.70860302734375,-0.09290478378534317,-0.12649430334568024,0.4216654598712921
1763699999867626200,1.718626220703125,0.03140731528401375,-0.19097130000591278,0.457506000995636
1763699999877648400,1.7286484375,0.1943032294511795,-0.18929684162139893,0.4441239535808563
1763699999887671600,1.738671630859375,0.3236156702041626,-0.12439480423927307,0.43800026178359985
1763699999897693400,1.748693359375,0.38875728845596313,-0.09079881757497787,0.4705553650856018
1763699999907716600,1.758716552734375,0.2231837809085846,-0.02734314650297165,0.5518275499343872
1763699999917738500,1.768738525390625,-0.009925900027155876,-0.15440553426742554,0.5955809950828552
1763699999927761400,1.778761474609375,0.10628539323806763,-0.23142202198505402,0.7211123108863831
1763699999937783600,1.788783447265625,0.18023574352264404,-0.19887885451316833,0.770709216594696
1763699999947806500,1.798806396484375,0.24019229412078857,-0.012208838015794754,0.7434418797492981
1763699999957828600,1.80882861328125,0.26971980929374695,0.20964305102825165,0.6686505675315857
1763699999967851500,1.8188515625,0.28325504064559937,0.44276976585388184,0.5762708187103271
1763699999977873400,1.828873291015625,0.2724575102329254,0.6079185009002686,0.4801948666572571
1763699999987896300,1.838896240234375,0.26189541816711426,0.7421827912330627,0.3828190565109253
1763699999997918500,1.84891845703125,0.22757358849048615,0.8790557384490967,0.26769590377807617
1763700000007941400,1.85894140625,0.18762776255607605,0.9871241450309753,0.15302498638629913
1763700000017963500,1.868963623046875,0.16884207725524902,1.094786524772644,0.023154068738222122
1763700000027986200,1.878986083984375,0.15523572266101837,1.2012923955917358,-0.1304868906736374
1763700000038008600,1.889008544921875,0.1368200033903122,1.2785059213638306,-0.27501383423805237
1763700000048031200,1.89903125,0.08318393677473068,1.2950875759124756,-0.38913509249687195
1763700000058053400,1.909053466796875,0.03334087133407593,1.3279335498809814,-0.4772292971611023
1763700000068076300,1.919076171875,-0.0067282505333423615,1.31289541721344,-0.5582681894302368
1763700000078098200,1.92909814453125,-0.02259909175336361,1.3716692924499512,-0.6619588732719421
1763700000088121300,1.939121337890625,-0.10727030038833618,1.3083888292312622,-0.7221798896789551
1763700000098143200,1.949143310546875,-0.20466157793998718,1.2576645612716675,-0.6903250813484192
1763700000108166400,1.95916650390625,-0.253463476896286,1.1539291143417358,-0.5819027423858643
1763700000118188300,1.969188232421875,-0.2061614841222763,0.940794825553894,-0.43168261647224426
1763700000128211500,1.97921142578125,-0.06680358946323395,0.7146745920181274,-0.286715030670166
1763700000138233300,1.9892333984375,0.06273888796567917,0.585929811000824,-0.185158371925354
1763700000148256300,1.99925634765625,0.12058833986520767,0.50933837890625,-0.1352613866329193
1763700000158278400,2.0092783203125,0.057431574910879135,0.4942822754383087,-0.13609592616558075
1763700000168301300,2.01930126953125,-0.13104486465454102,0.5219022035598755,-0.16653957962989807
1763700000178324500,2.029324462890625,-0.39192211627960205,0.5439347624778748,-0.20789813995361328
1763700000188346400,2.039346435546875,-0.6625890135765076,0.5468088388442993,-0.234834685921669
1763700000198368300,2.0493681640625,-0.8687735199928284,0.5130243897438049,-0.23392309248447418
1763700000208391400,2.059391357421875,-0.9419223070144653,0.3843929171562195,-0.20875729620456696
1763700000218414300,2.069414306640625,-0.850260317325592,0.11306017637252808,-0.15143920481204987
1763700000228436500,2.0794365234375,-0.6175442337989807,-0.16939282417297363,-0.07851199805736542
1763700000238459400,2.08945947265625,-0.322407603263855,-0.4011839032173157,-0.028613220900297165
1763700000248481500,2.0994814453125,-0.0714760422706604,-0.590111494064331,-0.04535917937755585
1763700000258504400,2.10950439453125,0.04130632057785988,-0.6251215934753418,-0.1303403675556183
1763700000268526300,2.1195263671875,-0.035743724554777145,-0.551662802696228,-0.24773383140563965
1763700000278549500,2.129549560546875,-0.23670686781406403,-0.44844409823417664,-0.37588757276535034
1763700000288571400,2.1395712890625,-0.4819733798503876,-0.3238760530948639,-0.49700412154197693
1763700000298594600,2.149594482421875,-0.6927291750907898,-0.21922513842582703,-0.6067709922790527
1763700000308616400,2.159616455078125,-0.808832585811615,-0.1790260523557663,-0.7115394473075867
1763700000318639600,2.1696396484375,-0.7914537787437439,-0.19969257712364197,-0.7908802628517151
1763700000328661500,2.17966162109375,-0.6751287579536438,-0.16996344923973083,-0.8529289960861206
1763700000338684400,2.189684326171875,-0.5659493207931519,-0.053477171808481216,-0.8901687264442444
1763700000348706600,2.19970654296875,-0.5255874991416931,0.07359448820352554,-0.8909479975700378
1763700000358729500,2.2097294921875,-0.5205484628677368,0.20182906091213226,-0.8693257570266724
1763700000368751400,2.21975146484375,-0.5149475336074829,0.33479616045951843,-0.8419356942176819
1763700000378774500,2.2297744140625,-0.4984530806541443,0.4353252351284027,-0.8089839816093445
1763700000388796400,2.23979638671875,-0.4339803457260132,0.47309738397598267,-0.7732565999031067
1763700000398819300,2.2498193359375,-0.275756299495697,0.4023539423942566,-0.7484548091888428
1763700000408841500,2.259841552734375,-0.08534400910139084,0.37248125672340393,-0.7713108658790588
1763700000418864400,2.269864501953125,0.0038412949070334435,0.38431939482688904,-0.8021049499511719
1763700000428886500,2.279886474609375,0.002851664088666439,0.41376009583473206,-0.8355433344841003
1763700000438909200,2.2899091796875,-0.07178544998168945,0.582263171672821,-0.8500022292137146
1763700000448931300,2.299931396484375,-0.22101569175720215,0.8401607275009155,-0.8326961994171143
1763700000458954200,2.309954345703125,-0.40927252173423767,1.0908257961273193,-0.777381420135498
1763700000468976400,2.319976318359375,-0.5719357132911682,1.227056860923767,-0.6821374893188477
1763700000478999300,2.329999267578125,-0.6230316758155823,1.259141206741333,-0.5628607273101807
1763700000489021200,2.340021240234375,-0.536311686038971,1.1689047813415527,-0.45368653535842896
1763700000499044400,2.35004443359375,-0.3500814437866211,0.9868882298469543,-0.36355137825012207
1763700000509066200,2.360066162109375,-0.12249197065830231,0.8138861060142517,-0.3026358187198639
1763700000519089400,2.37008935546875,0.0892530083656311,0.6650049686431885,-0.2577233612537384
1763700000529111300,2.380111328125,0.2764301002025604,0.5179777145385742,-0.22538752853870392
1763700000539134500,2.390134521484375,0.4503454267978668,0.3772338330745697,-0.2032296508550644
1763700000549156400,2.40015625,0.6104198098182678,0.2575724124908447,-0.20903055369853973
1763700000559179300,2.41017919921875,0.7592663168907166,0.14714515209197998,-0.24301666021347046
1763700000569201400,2.420201416015625,0.904559314250946,0.0452912263572216,-0.2973904311656952
1763700000579224300,2.430224365234375,1.036927580833435,-0.018776556476950645,-0.3744145333766937
1763700000589246500,2.44024658203125,1.1073975563049316,0.020694686099886894,-0.4812386929988861
1763700000599269400,2.450269287109375,1.0942280292510986,0.1308562457561493,-0.5980220437049866
1763700000609291300,2.460291259765625,1.0053032636642456,0.2823355197906494,-0.7028552293777466
1763700000619314400,2.470314453125,0.8691410422325134,0.44344058632850647,-0.7720471620559692
1763700000629336300,2.48033642578125,0.733188271522522,0.5643923282623291,-0.7950068116188049
1763700000639359500,2.490359375,0.6742149591445923,0.6101064682006836,-0.7759799361228943
1763700000649381400,2.50038134765625,0.7362261414527893,0.532890260219574,-0.7435886859893799
1763700000659404500,2.510404541015625,0.8952904939651489,0.34669193625450134,-0.749700129032135
1763700000669426400,2.520426513671875,1.0611308813095093,0.1700415462255478,-0.8070254921913147
1763700000679449300,2.530449462890625,1.1465586423873901,0.041329242289066315,-0.8864161372184753
1763700000689471500,2.540471435546875,1.149480938911438,-0.010859127156436443,-0.9751699566841125
1763700000699494400,2.550494384765625,1.0497123003005981,-0.08498081564903259,-0.9079998731613159
1763700000709516300,2.560516357421875,0.9420865178108215,-0.07630131393671036,-0.7004432082176208
1763700000719539500,2.57053955078125,0.8737148642539978,-0.07358499616384506,-0.5205210447311401
1763700000729561300,2.580561279296875,0.8416695594787598,-0.0991409569978714,-0.42130208015441895
1763700000739584500,2.59058447265625,0.8114110827445984,-0.14365874230861664,-0.4348425269126892
1763700000749606400,2.6006064453125,0.7732122540473938,-0.2315388023853302,-0.5404342412948608
1763700000759629600,2.610629638671875,0.7129899859428406,-0.3192104399204254,-0.6336132287979126
1763700000769651500,2.6206513671875,0.6395999193191528,-0.2776965796947479,-0.6729835271835327
1763700000779674400,2.63067431640625,0.5138565301895142,-0.20428015291690826,-0.6605002880096436
1763700000789696500,2.640696533203125,0.3538380563259125,-0.06487806141376495,-0.638883650302887
1763700000799719400,2.650719482421875,0.18023882806301117,0.04024201259016991,-0.6030927896499634
1763700000809741600,2.660741455078125,0.04030035808682442,0.024586353451013565,-0.5805501937866211
1763700000819764500,2.670764404296875,-0.019335847347974777,0.008893868885934353,-0.5477538108825684
1763700000829786400,2.680786376953125,-0.0637001171708107,0.29266059398651123,-0.16033737361431122
1763700000839809500,2.6908095703125,-0.19416190683841705,0.34809795022010803,-0.08363886177539825
1763700000849831400,2.70083154296875,-0.4066017270088196,0.36120015382766724,-0.333302766084671
1763700000859854300,2.710854248046875,-0.5997186303138733,0.3829963803291321,-0.7469635009765625
1763700000869876500,2.72087646484375,-0.7582265138626099,0.3548677861690521,-1.0991140604019165
1763700000879899100,2.730899169921875,-0.8528652787208557,0.24740107357501984,-1.3009281158447266
1763700000889921300,2.74092138671875,-0.8622665405273438,0.07080154120922089,-1.3215187788009644
1763700000899944200,2.750944091796875,-0.79709392786026,-0.1346234381198883,-1.2221307754516602
1763700000909966000,2.760966064453125,-0.6932604312896729,-0.3419281542301178,-1.041301965713501
1763700000919989000,2.770989013671875,-0.5815919041633606,-0.4931022524833679,-0.8191248178482056
1763700000930011100,2.78101123046875,-0.4846368134021759,-0.5568700432777405,-0.5955689549446106
1763700000940033000,2.791032958984375,-0.420623779296875,-0.5689482092857361,-0.40373656153678894
1763700000950056200,2.80105615234375,-0.38895881175994873,-0.4677529036998749,-0.26206040382385254
1763700000960078000,2.811078125,-0.3994133770465851,-0.29411590099334717,-0.16042117774486542
1763700000970101000,2.82110107421875,-0.4473673403263092,-0.1204860508441925,-0.08945193141698837
1763700000980123100,2.831123046875,-0.5060268044471741,0.011530355550348759,-0.04898819699883461
1763700000990146000,2.84114599609375,-0.5563192367553711,0.10675354301929474,-0.025657840073108673
1763700001000168200,2.851168212890625,-0.5933274030685425,0.13710321485996246,-0.01495327614247799
1763700001010190800,2.86119091796875,-0.5910645127296448,0.12027337402105331,-0.0006901840679347515
1763700001020213200,2.871213134765625,-0.5407136082649231,0.11104443669319153,0.03407065570354462
1763700001030236000,2.88123583984375,-0.4738360643386841,0.10849126428365707,0.11707446724176407
1763700001040258000,2.891258056640625,-0.4246687591075897,0.12950803339481354,0.23661266267299652
1763700001050281000,2.901281005859375,-0.39367544651031494,0.16368411481380463,0.3614954650402069
1763700001060302800,2.911302734375,-0.35798826813697815,0.17888815701007843,0.45673418045043945
1763700001070326000,2.921325927734375,-0.2890062630176544,0.19251981377601624,0.49526211619377136
1763700001080348000,2.931347900390625,-0.19323574006557465,0.18951280415058136,0.4879337549209595
1763700001090371000,2.94137109375,-0.08432496339082718,0.1761423945426941,0.4457932412624359
1763700001100393000,2.95139306640625,0.029423518106341362,0.14174222946166992,0.389529287815094
1763700001110416100,2.961416015625,0.13293074071407318,0.10984421521425247,0.3335203230381012
1763700001120438000,2.97143798828125,0.189255028963089,0.07712617516517639,0.30196601152420044
1763700001130461000,2.9814609375,0.17410963773727417,0.10331570357084274,0.2960735261440277
1763700001140483000,2.991483154296875,0.1090657189488411,0.15244393050670624,0.30985942482948303
1763700001150506000,3.001506103515625,0.05093051493167877,0.19931717216968536,0.3309122323989868
1763700001160528100,3.011528076171875,0.05467766150832176,0.20920991897583008,0.34870055317878723
1763700001170551000,3.021551025390625,0.1322171837091446,0.16947396099567413,0.35930100083351135
1763700001180573000,3.031572998046875,0.2845509350299835,0.10049467533826828,0.3630467355251312
1763700001190596000,3.04159619140625,0.49512147903442383,-0.0035968460142612457,0.3511703610420227
1763700001200618000,3.051617919921875,0.7285111546516418,-0.10391538590192795,0.3189705014228821
1763700001210641200,3.06164111328125,0.8863763809204102,-0.17964743077754974,0.2827616333961487
1763700001220663000,3.0716630859375,0.9552250504493713,-0.20182976126670837,0.2553732991218567
1763700001230686200,3.081686279296875,0.9461919069290161,-0.1825929582118988,0.23313672840595245
1763700001240708000,3.0917080078125,0.8727086186408997,-0.1313144862651825,0.21560850739479065
1763700001250731000,3.10173095703125,0.7471882700920105,-0.06592429429292679,0.2228299379348755
1763700001260753200,3.111753173828125,0.5826063752174377,0.042545922100543976,0.26696228981018066
1763700001270776000,3.121776123046875,0.4070199131965637,0.2156793624162674,0.33762526512145996
1763700001280798000,3.1317978515625,0.2471090853214264,0.37211108207702637,0.40922823548316956
1763700001290821000,3.141821044921875,0.1349031776189804,0.487501323223114,0.45659494400024414
1763700001300843000,3.151843017578125,0.10115873068571091,0.5714528560638428,0.4593687057495117
1763700001310866200,3.1618662109375,0.17212770879268646,0.5758792757987976,0.418516606092453
1763700001320888000,3.17188818359375,0.3505837619304657,0.5160839557647705,0.35082846879959106
1763700001330911200,3.1819111328125,0.6169597506523132,0.3633786141872406,0.2598111927509308
1763700001340933000,3.19193310546875,0.9265333414077759,0.17348627746105194,0.11879964917898178
1763700001350956000,3.2019560546875,1.1832115650177002,-0.03570237383246422,-0.09117009490728378
1763700001360978200,3.211978271484375,1.3429895639419556,-0.23247979581356049,-0.33301883935928345
1763700001371001000,3.2220009765625,1.388525128364563,-0.3854150176048279,-0.5481623411178589
1763700001381023200,3.232023193359375,1.365733027458191,-0.46054965257644653,-0.6972325444221497
1763700001391046100,3.242046142578125,1.3100532293319702,-0.4754902422428131,-0.769000232219696
1763700001401068000,3.252068115234375,1.2578487396240234,-0.5257390737533569,-0.7896777987480164
1763700001411091200,3.26209130859375,1.2470037937164307,-0.5238090753555298,-0.7692707777023315
1763700001421113000,3.272113037109375,1.2894583940505981,-0.5573898553848267,-0.7215225696563721
1763700001431136300,3.28213623046875,1.3240784406661987,-0.6300355195999146,-0.5879791975021362
1763700001441158100,3.292158203125,1.3205888271331787,-0.6061760187149048,-0.39874812960624695
1763700001451181000,3.30218115234375,1.2636620998382568,-0.5177595615386963,-0.1686456948518753
1763700001461203200,3.312203125,1.1728466749191284,-0.4028269946575165,0.14425033330917358
1763700001471225900,3.322225830078125,1.0649816989898682,-0.2829219102859497,0.536109447479248
1763700001481248300,3.332248291015625,0.9004460573196411,-0.1315283179283142,0.9037587642669678
1763700001491271000,3.34227099609375,0.6956279277801514,0.04735273867845535,1.2126801013946533
1763700001501293000,3.35229296875,0.4854657053947449,0.24628204107284546,1.3804165124893188
1763700001511316000,3.36231591796875,0.28255918622016907,0.32256561517715454,1.4503567218780518
1763700001521338000,3.372338134765625,0.15415039658546448,0.3214990794658661,1.4170567989349365
1763700001531360300,3.3823603515625,0.12992814183235168,0.35449376702308655,1.3206597566604614
1763700001541383000,3.3923828125,0.21319638192653656,0.3054228723049164,1.2217447757720947
1763700001551405000,3.402405029296875,0.3808596730232239,0.22433093190193176,1.0974467992782593
1763700001561428000,3.412427978515625,0.568340539932251,0.12465011328458786,0.8892965316772461
1763700001571450000,3.4224501953125,0.6636337637901306,-0.0946609303355217,0.6571149826049805
1763700001581473000,3.43247314453125,0.6463748216629028,-0.30667728185653687,0.45194190740585327
1763700001591495000,3.442494873046875,0.5639803409576416,-0.43505096435546875,0.3068310618400574
1763700001601518000,3.45251806640625,0.48404183983802795,-0.5532282590866089,0.22375233471393585
1763700001611540000,3.4625400390625,0.40471401810646057,-0.6694531440734863,0.17309634387493134
1763700001621563000,3.47256298828125,0.22316031157970428,-0.6607769727706909,0.15581746399402618
1763700001631585000,3.4825849609375,-0.11098917573690414,-0.5386430621147156,0.23644918203353882
1763700001641608000,3.49260791015625,-0.5290113687515259,-0.34780633449554443,0.33485060930252075
1763700001651630000,3.502630126953125,-0.9794408679008484,-0.06526517868041992,0.45800021290779114
1763700001661653000,3.512653076171875,-1.4646803140640259,0.37396612763404846,0.6060065031051636
1763700001671675000,3.5226748046875,-1.9524202346801758,0.9484938383102417,0.7475916147232056
1763700001681698000,3.532697998046875,-2.305154800415039,1.5056520700454712,0.8892161846160889
1763700001691720000,3.542719970703125,-2.332925319671631,1.8990529775619507,0.9183216094970703
1763700001701743000,3.5527431640625,-1.9933463335037231,1.8897873163223267,0.7384821772575378
1763700001711765000,3.562764892578125,-1.4660961627960205,1.5978449583053589,0.42174527049064636
1763700001721788200,3.5727880859375,-0.9175491333007812,1.1671262979507446,0.1738084852695465
1763700001731810000,3.58281005859375,-0.5377064347267151,0.8413664102554321,0.186939999461174
1763700001741833000,3.5928330078125,-0.49655357003211975,0.6272839903831482,0.3862975537776947
1763700001751855000,3.602855224609375,-0.6521684527397156,0.4335891008377075,0.5267446637153625
1763700001761878000,3.6128779296875,-0.9873664379119873,0.3248891830444336,0.5035117268562317
1763700001771900200,3.622900146484375,-1.3096072673797607,0.14509625732898712,0.4151208996772766
1763700001781923000,3.632923095703125,-1.4768084287643433,0.14108750224113464,0.3297868072986603
1763700001791945000,3.642945068359375,-1.5595781803131104,0.09543266892433167,0.34183627367019653
1763700001801968000,3.652968017578125,-1.7419134378433228,0.024407122284173965,0.37286877632141113
1763700001811990000,3.662989990234375,-2.223196506500244,-0.025244852527976036,0.14423027634620667
1763700001822013200,3.67301318359375,-2.4145917892456055,0.11339738219976425,0.012485183775424957
1763700001832035000,3.68303515625,-2.356117010116577,0.10882260650396347,-0.08701664209365845
1763700001842058200,3.693058349609375,-1.7522372007369995,0.08090409636497498,-0.17776744067668915
1763700001852080000,3.703080078125,-0.9635615944862366,-0.060997381806373596,0.049961067736148834
1763700001862103000,3.71310302734375,-0.3096509277820587,-0.192672461271286,0.2168775200843811
1763700001872125700,3.723125732421875,-0.334250807762146,-0.06665942072868347,0.10068432986736298
1763700001882148900,3.73314892578125,-0.5755369067192078,0.12144127488136292,0.025921814143657684
1763700001892170800,3.743170654296875,-0.8040196299552917,0.3039788603782654,0.07905453443527222
1763700001902193700,3.753193603515625,-1.060863971710205,0.5650821328163147,0.16515907645225525
1763700001912215800,3.7632158203125,-1.169826865196228,0.6689102053642273,0.29308825731277466
1763700001922238500,3.773238525390625,-0.9565510749816895,0.5464790463447571,0.4246348440647125
1763700001932260900,3.7832607421875,-0.665937602519989,0.2506053149700165,0.5545491576194763
1763700001942282800,3.79328271484375,-0.31717419624328613,0.03485620766878128,0.6510016918182373
1763700001952305700,3.8033056640625,0.1547086238861084,-0.3176805377006531,0.6842188239097595
1763700001962327800,3.813327880859375,0.6589841842651367,-0.8581502437591553,0.5949879884719849
1763700001972350700,3.823350830078125,1.100465178489685,-1.1970971822738647,0.5457133650779724
1763700001982372900,3.833372802734375,1.430959701538086,-1.5986346006393433,0.5917224287986755
1763700001992395500,3.8433955078125,1.3054025173187256,-1.61724853515625,0.7147074937820435
1763700002002417700,3.853417724609375,0.7730545997619629,-1.4524967670440674,0.9292819499969482
1763700002012440600,3.863440673828125,0.27565789222717285,-0.8380120396614075,1.0880039930343628
1763700002022462700,3.873462646484375,-0.1567004770040512,-0.07119586318731308,1.064335584640503
1763700002032485600,3.883485595703125,-0.5040019750595093,0.773248016834259,0.8982675671577454
1763700002042507800,3.8935078125,-0.851545512676239,1.091636061668396,0.7731304168701172
1763700002052530700,3.90353076171875,-1.1318209171295166,0.9925885200500488,0.6515765190124512
1763700002062552600,3.913552490234375,-1.2063392400741577,0.4061017334461212,0.5316659808158875
1763700002072575500,3.923575439453125,-1.1087743043899536,-0.42142072319984436,0.4630957543849945
1763700002082597600,3.93359765625,-1.0547101497650146,-1.023144006729126,0.4331659972667694
1763700002092620500,3.94362060546875,-1.0404521226882935,-1.1766688823699951,0.4809550642967224
1763700002102642400,3.953642333984375,-0.9919225573539734,-1.086808443069458,0.5912575125694275
1763700002112665600,3.96366552734375,-0.9314032793045044,-0.9339547157287598,0.6942105293273926
1763700002122687500,3.9736875,-0.8948197364807129,-0.7867446541786194,0.7016656994819641
1763700002132710700,3.983710693359375,-0.8180226683616638,-0.7223944067955017,0.5687995553016663
1763700002142732500,3.993732666015625,-0.6485598683357239,-0.6837295293807983,0.27904269099235535
1763700002152755700,4.003755615234375,-0.43713659048080444,-0.5348809361457825,-0.02711457386612892
1763700002162777600,4.013777587890625,-0.18738272786140442,-0.28217843174934387,-0.1594293862581253
1763700002172800500,4.023800537109375,-0.05222729966044426,-0.039384178817272186,-0.20937643945217133
1763700002182822700,4.03382275390625,0.0972394198179245,0.1279105395078659,-0.239735409617424
1763700002192845600,4.043845458984375,0.267646849155426,0.20773276686668396,-0.2438732534646988
1763700002202867700,4.05386767578125,0.46921852231025696,0.286832720041275,-0.28348201513290405
1763700002212890600,4.063890625,0.6687026023864746,0.30310624837875366,-0.36159759759902954
1763700002222912500,4.07391259765625,0.8339067697525024,0.267966628074646,-0.4689056873321533
1763700002232934700,4.0839345703125,0.9653936624526978,0.23336738348007202,-0.5611376166343689
1763700002242957600,4.09395751953125,1.0484317541122437,0.28649982810020447,-0.6231505274772644
1763700002252979700,4.103979736328125,1.1507914066314697,0.39448729157447815,-0.6458515524864197
1763700002263002600,4.114002685546875,1.1159594058990479,0.4831830561161041,-0.5930451154708862
1763700002273024500,4.1240244140625,1.0492669343948364,0.6084951758384705,-0.5355806350708008
1763700002283047700,4.134047607421875,0.9596520662307739,0.6090397834777832,-0.5007507801055908
1763700002293069600,4.144069580078125,0.7525447010993958,0.2787822186946869,-0.39486372470855713
1763700002303092700,4.1540927734375,0.4046250879764557,-0.2827431559562683,-0.19444699585437775
1763700002313114600,4.164114501953125,-0.1252049207687378,-0.5400186777114868,0.03701974079012871
1763700002323137800,4.1741376953125,-0.851674497127533,-0.45825937390327454,0.2157772332429886
1763700002333159700,4.18415966796875,-1.2636125087738037,-0.34174656867980957,0.2771953046321869
1763700002343182600,4.1941826171875,-1.3481206893920898,-0.3258184790611267,0.2390684187412262
1763700002353204700,4.204204833984375,-1.1643656492233276,-0.24866721034049988,0.17078565061092377
1763700002363227600,4.2142275390625,-0.8500428795814514,-0.21623922884464264,0.09487276524305344
1763700002373249800,4.224249755859375,-0.5872265696525574,-0.16501247882843018,0.008608436211943626
1763700002383272700,4.234272705078125,-0.39090633392333984,-0.23431459069252014,-0.0801997259259224
1763700002393294600,4.244294677734375,-0.27999556064605713,-0.1251683086156845,-0.08607102930545807
1763700002403317800,4.25431787109375,-0.19836139678955078,-0.15343137085437775,-0.07714623957872391
1763700002413339600,4.264339599609375,-0.0041913678869605064,-0.013010438531637192,-0.04005816951394081
1763700002423362800,4.27436279296875,0.2668475806713104,0.34849634766578674,0.05465662106871605
1763700002433384700,4.284384765625,0.4017326831817627,0.5033717751502991,0.15283435583114624
1763700002443407600,4.29440771484375,0.3942747712135315,0.5126510262489319,0.2331840693950653
1763700002453429800,4.3044296875,0.3082965612411499,0.3513764441013336,0.26279112696647644
1763700002463452700,4.31445263671875,0.16549813747406006,0.14462299644947052,0.23184707760810852
1763700002473474800,4.324474853515625,0.031940799206495285,-0.03820116072893143,0.16272561252117157
1763700002483497700,4.334497802734375,-0.04413825646042824,-0.12509824335575104,0.07682907581329346
1763700002493519600,4.34451953125,-0.11152024567127228,-0.04062161594629288,0.04870200902223587
1763700002503541800,4.354541748046875,-0.16064971685409546,-0.05304206535220146,0.052523646503686905
1763700002513564700,4.364564697265625,-0.1809423267841339,-0.11398743093013763,0.06659239530563354
1763700002523586800,4.3745869140625,-0.1664656549692154,-0.11479649692773819,0.0765100046992302
1763700002533609700,4.384609619140625,-0.14355479180812836,-0.11556106805801392,0.052127160131931305
1763700002543631600,4.394631591796875,-0.163621187210083,-0.07477022707462311,-0.0033789759036153555
1763700002553654800,4.40465478515625,-0.2138022780418396,-0.01398506946861744,-0.04009374976158142
1763700002563676700,4.4146767578125,-0.11797481775283813,0.08901401609182358,0.017487255856394768
1763700002573699800,4.424699951171875,0.004357911646366119,0.19590096175670624,0.13320283591747284
1763700002583721700,4.4347216796875,0.023347849026322365,0.17832383513450623,0.1808379888534546
1763700002593744600,4.44474462890625,0.03026135079562664,0.1310933530330658,0.16644816100597382
1763700002603766800,4.454766845703125,0.045323923230171204,0.11924920231103897,0.12453027814626694
1763700002613789400,4.46478955078125,0.15196587145328522,0.12334218621253967,0.023602541536092758
1763700002623811800,4.474811767578125,0.30475354194641113,0.27764520049095154,-0.06253473460674286
1763700002633834500,4.48483447265625,0.35956910252571106,0.5468331575393677,0.07406899333000183
1763700002643856600,4.494856689453125,0.3432742655277252,0.5926200747489929,0.2859026789665222
1763700002653879600,4.504879638671875,0.2309732437133789,0.42375895380973816,0.37432655692100525
1763700002663901400,4.5149013671875,0.009693047031760216,0.283636212348938,0.25390079617500305
1763700002673924600,4.524924560546875,-0.13668251037597656,0.17688941955566406,0.025748681277036667
1763700002683946500,4.534946533203125,-0.07470623403787613,0.11356769502162933,-0.07760753482580185
1763700002693969700,4.5449697265625,0.16917164623737335,0.15055081248283386,-0.05634219944477081
1763700002703991600,4.554991455078125,0.35812053084373474,0.23940078914165497,0.09951957315206528
1763700002714014700,4.5650146484375,0.486075222492218,0.24213455617427826,0.2815740704536438
1763700002724036600,4.57503662109375,0.5674214959144592,0.15912728011608124,0.3526777923107147
1763700002734059500,4.5850595703125,0.6112854480743408,0.009329562075436115,0.29462891817092896
1763700002744081700,4.59508154296875,0.6316306591033936,-0.14344720542430878,0.14068248867988586
1763700002754104600,4.6051044921875,0.6091601848602295,-0.1762750893831253,-0.0033037918619811535
1763700002764126500,4.61512646484375,0.5772312879562378,-0.22784480452537537,-0.04633355140686035
1763700002774148600,4.625148681640625,0.45906755328178406,-0.3674933612346649,-0.029625119641423225
1763700002784171500,4.635171630859375,0.3647730052471161,-0.41730165481567383,0.03255249932408333
1763700002794193700,4.645193603515625,0.3050518333911896,-0.31044504046440125,0.16474378108978271
1763700002804216600,4.655216552734375,0.193147674202919,-0.08365876972675323,0.33873820304870605
1763700002814238500,4.665238525390625,0.057485006749629974,0.0449872761964798,0.31116652488708496
1763700002824261600,4.67526171875,0.08509080111980438,0.003963676746934652,0.16234108805656433
1763700002834283500,4.685283447265625,0.08606770634651184,0.02484390325844288,0.01782146655023098
1763700002844306700,4.695306640625,-0.042369093745946884,0.10744184255599976,-0.14592058956623077
1763700002854328600,4.70532861328125,-0.09243916720151901,0.1135888546705246,-0.2874142527580261
1763700002864351700,4.715351806640625,-0.05799410864710808,0.1408258080482483,-0.29446762800216675
1763700002874373600,4.72537353515625,-0.036284253001213074,0.1460561752319336,-0.2187100201845169
1763700002884396000,4.73539599609375,-0.04445509612560272,0.14415600895881653,-0.13470593094825745
1763700002894418200,4.745418212890625,-0.076683409512043,0.11016529053449631,-0.15032687783241272
1763700002904441000,4.755441162109375,-0.1348993182182312,-0.028128936886787415,-0.2620568871498108
1763700002914463000,4.765462890625,-0.30314895510673523,-0.23007549345493317,-0.4197976589202881
1763700002924486100,4.775486083984375,-0.4840793311595917,-0.4273369014263153,-0.5105787515640259
1763700002934508000,4.785508056640625,-0.5318076014518738,-0.5780428647994995,-0.5306336283683777
1763700002944531200,4.79553125,-0.5590642690658569,-0.5915470123291016,-0.5110817551612854
1763700002954553000,4.805552978515625,-0.5643489956855774,-0.37306851148605347,-0.5010706782341003
1763700002964576300,4.815576171875,-0.7970359921455383,-0.5319764614105225,-0.4526781439781189
1763700002974598100,4.82559814453125,-0.47029414772987366,0.132478728890419,-0.4921075999736786
1763700002984620000,4.8356201171875,-0.4722302556037903,0.3724055588245392,-0.273259699344635
1763700002994643200,4.845643310546875,-0.3997191786766052,0.3980325162410736,-0.06975674629211426
1763700003004665000,4.8556650390625,-0.4184284210205078,0.02890053763985634,-0.04298878833651543
1763700003014688300,4.865688232421875,-0.6279866099357605,-0.2746853232383728,-0.18366004526615143
1763700003024710100,4.875710205078125,-0.8155133724212646,-0.48746389150619507,-0.43649575114250183
1763700003034733000,4.885733154296875,-0.9553300142288208,-0.5291193723678589,-0.6954188346862793
1763700003044755200,4.895755126953125,-1.0746747255325317,-0.44919633865356445,-0.8499154448509216
1763700003054778000,4.905778076171875,-1.1062633991241455,-0.5343074798583984,-1.01199471950531
1763700003064800300,4.91580029296875,-0.851682722568512,-0.4417431652545929,-1.117342472076416
1763700003074823200,4.9258232421875,-0.7502087354660034,-0.05454150587320328,-1.0711427927017212
1763700003084845000,4.935844970703125,-0.8145278096199036,0.3404335081577301,-0.9310498833656311
1763700003094868200,4.9458681640625,-0.6898193955421448,-0.03872007504105568,-0.4103127121925354
1763700003104890000,4.95589013671875,-0.4444514214992523,-0.41888388991355896,-0.005990547128021717
1763700003114913300,4.965913330078125,-0.4202802777290344,-0.2907313108444214,0.18001927435398102
1763700003124935200,4.97593505859375,-0.2949252724647522,-0.11364280432462692,0.25131475925445557
1763700003134958300,4.985958251953125,-0.18784260749816895,-0.4077583849430084,0.13638266921043396
1763700003144980200,4.995980224609375,-0.3410486578941345,-0.4817524552345276,0.06416918337345123
1763700003155003100,5.006003173828125,-0.5004830360412598,-0.40665972232818604,0.0784689411520958
1763700003165025300,5.016025390625,-0.6874838471412659,-0.4572965204715729,0.05645764246582985
1763700003175048200,5.026048095703125,-0.7445349097251892,-0.4071006178855896,0.09442929923534393
1763700003185070000,5.036070068359375,-0.8175997734069824,-0.38990965485572815,0.11564457416534424
1763700003195092200,5.04609228515625,-0.9414814710617065,-0.42423734068870544,-0.0017499453388154507
1763700003205115100,5.056115234375,-1.1456161737442017,-0.4119567275047302,-0.027291525155305862
1763700003215137300,5.06613720703125,-1.436431884765625,-0.3165912330150604,-0.027111511677503586
1763700003225160200,5.07616015625,-1.6761906147003174,-0.16755834221839905,-0.022546054795384407
1763700003235182000,5.08618212890625,-1.7490153312683105,-0.14303532242774963,-0.22684815526008606
1763700003245205200,5.096205322265625,-1.5664889812469482,-0.14362041652202606,-0.3848857283592224
1763700003255227100,5.10622705078125,-1.4058388471603394,-0.07242214679718018,-0.42646193504333496
1763700003265250300,5.116250244140625,-1.2982101440429688,0.03293490782380104,-0.46969330310821533
1763700003275272200,5.126272216796875,-1.136399269104004,0.12348335981369019,-0.5162723660469055
1763700003285295400,5.13629541015625,-0.7914271950721741,-0.14335870742797852,-0.5915729999542236
1763700003295317200,5.146317138671875,-0.4188818633556366,-0.40345069766044617,-0.689969003200531
1763700003305340200,5.156340087890625,-0.26087281107902527,-0.5728735327720642,-0.6842093467712402
1763700003315362300,5.1663623046875,-0.21341940760612488,-0.6521023511886597,-0.6808001399040222
1763700003325385200,5.17638525390625,-0.07538831233978271,-0.9433333873748779,-0.8301683068275452
1763700003335407400,5.186407470703125,0.13985155522823334,-1.5471405982971191,-0.958260178565979
1763700003345430000,5.196429931640625,0.402748703956604,-1.1186167001724243,-1.5820890665054321
1763700003355452200,5.2064521484375,0.06887058168649673,-0.08552860468626022,-1.4531574249267578
1763700003365475000,5.21647509765625,-0.32300400733947754,-0.35880112648010254,-0.4637608230113983
1763700003375497200,5.226497314453125,-0.2270773947238922,-0.019686875864863396,-0.07974662631750107
1763700003385519400,5.236519287109375,-0.2223747819662094,0.07056818902492523,0.0952446311712265
1763700003395542300,5.246542236328125,-0.246689572930336,-0.000963266589678824,0.07356936484575272
1763700003405564200,5.256564208984375,-0.3046295940876007,0.047923050820827484,-0.07088848203420639
1763700003415587000,5.266587158203125,-0.36250388622283936,-0.11272761970758438,-0.017720798030495644
1763700003425609200,5.276609130859375,-0.2665323317050934,-0.17254674434661865,0.185873344540596
1763700003435632000,5.286632080078125,-0.04358557611703873,-0.1028636172413826,0.2586544156074524
1763700003445654300,5.296654296875,-0.0025918027386069298,0.00994868390262127,0.2912302017211914
1763700003455677200,5.30667724609375,-0.08762215822935104,0.04090282693505287,0.47295552492141724
1763700003465699000,5.316698974609375,-0.10716336965560913,0.1277375966310501,0.5658314228057861
1763700003475722000,5.326721923828125,-0.048102930188179016,0.18587742745876312,0.5101150274276733
1763700003485744000,5.336744140625,0.06704762578010559,0.14652229845523834,0.3969338536262512
1763700003495767000,5.34676708984375,0.2323911190032959,-0.033762481063604355,0.3203504681587219
1763700003505789000,5.356788818359375,0.04004911705851555,-0.00299471546895802,0.5291404128074646
1763700003515812000,5.36681201171875,-0.1378885954618454,0.011932184919714928,0.49551889300346375
1763700003525834000,5.376833984375,-0.17326708137989044,-0.19389954209327698,0.4991067051887512
1763700003535857200,5.386857177734375,-0.2770896553993225,-0.325604647397995,0.564950168132782
1763700003545879000,5.396879150390625,-0.3457914888858795,-0.3970751166343689,0.6238885521888733
1763700003555901000,5.40690087890625,-0.33131134510040283,-0.3968268632888794,0.6161624193191528
1763700003565924000,5.416924072265625,-0.2500034272670746,-0.31206458806991577,0.5770970582962036
1763700003575946000,5.426946044921875,-0.15158593654632568,-0.18819501996040344,0.5775416493415833
1763700003585969200,5.43696923828125,-0.057609908282756805,-0.10086676478385925,0.6225621104240417
1763700003595991000,5.446990966796875,0.011595655232667923,-0.06224961206316948,0.6752660274505615
1763700003606014200,5.45701416015625,0.07188296318054199,-0.0877901241183281,0.7142110466957092
1763700003616036000,5.4670361328125,0.13453006744384766,-0.18810603022575378,0.7370471954345703
1763700003626059000,5.47705908203125,0.17971085011959076,-0.2589160203933716,0.7179049253463745
1763700003636081200,5.4870810546875,0.1887235790491104,-0.2695871889591217,0.603929340839386
1763700003646104000,5.49710400390625,0.17788824439048767,-0.2438967227935791,0.5060296654701233
1763700003656126200,5.507126220703125,0.18320292234420776,-0.15867170691490173,0.5621615052223206
1763700003666149000,5.517149169921875,0.15481814742088318,-0.07800188660621643,0.3168686330318451
1763700003676171000,5.5271708984375,0.1751374751329422,-0.15741679072380066,0.25807830691337585
1763700003686194200,5.537194091796875,0.08441822975873947,-0.06069931387901306,0.11032958328723907
1763700003696216000,5.547216064453125,0.03163372725248337,0.20674240589141846,0.09475784003734589
1763700003706239200,5.5572392578125,-0.03604678064584732,0.39368513226509094,0.14693954586982727
1763700003716261000,5.56726123046875,-0.09701064974069595,0.4176934063434601,0.20037110149860382
1763700003726283000,5.577282958984375,-0.12307766824960709,0.42087987065315247,0.24364854395389557
1763700003736306200,5.58730615234375,-0.1285482496023178,0.4529031217098236,0.27731162309646606
1763700003746328000,5.597328125,-0.12336599826812744,0.4531060457229614,0.27521249651908875
1763700003756351200,5.607351318359375,-0.10496003925800323,0.4993453025817871,0.2637453079223633
1763700003766373000,5.617373046875,-0.07866930961608887,0.535443127155304,0.2808483839035034
1763700003776396000,5.62739599609375,-0.03634680062532425,0.587732195854187,0.3320249617099762
1763700003786418200,5.637418212890625,0.019640568643808365,0.6680142879486084,0.39137935638427734
1763700003796441000,5.647441162109375,0.0737484022974968,0.7548288106918335,0.4591714143753052
1763700003806463200,5.657463134765625,0.10578356683254242,0.7799301743507385,0.5152509212493896
1763700003816486100,5.667486083984375,0.14617322385311127,0.7928149700164795,0.5679563283920288
1763700003826508000,5.677508056640625,0.19240783154964447,0.7589209079742432,0.6531439423561096
1763700003836531200,5.68753125,0.2158544361591339,0.6605702042579651,0.7496623992919922
1763700003846553000,5.697552978515625,0.23264406621456146,0.6030797958374023,0.814516544342041
1763700003856576300,5.707576171875,0.24135719239711761,0.6316283345222473,0.880046010017395
1763700003866598100,5.71759814453125,0.27695754170417786,0.6594133377075195,0.9231178164482117
1763700003876620000,5.7276201171875,0.3056096136569977,0.5699021220207214,0.9451407790184021
1763700003886643700,5.737643798828125,0.34184110164642334,0.5095125436782837,0.9655858874320984
1763700003896665600,5.74766552734375,0.37835583090782166,0.48359018564224243,0.9944153428077698
1763700003906688800,5.757688720703125,0.40335679054260254,0.4761738181114197,1.0240107774734497
1763700003916710700,5.767710693359375,0.4339195787906647,0.4612933099269867,1.0573756694793701
1763700003926733800,5.77773388671875,0.45377716422080994,0.4206870198249817,1.1119507551193237
1763700003936755700,5.787755615234375,0.4720821678638458,0.34586453437805176,1.186064600944519
1763700003946778600,5.797778564453125,0.4888744652271271,0.25120699405670166,1.2632328271865845
1763700003956800800,5.80780078125,0.4644860625267029,0.11891871690750122,1.2985278367996216
1763700003966823700,5.81782373046875,0.4035148322582245,-0.07609790563583374,1.2787264585494995
1763700003976845800,5.827845703125,0.3197009265422821,-0.2677291929721832,1.2071551084518433
1763700003986868700,5.83786865234375,0.24618622660636902,-0.387442022562027,1.1026943922042847
1763700003996890600,5.847890625,0.18876643478870392,-0.3980675935745239,0.9998340606689453
1763700004006913500,5.85791357421875,0.15153996646404266,-0.3677850365638733,0.925505518913269
1763700004016935700,5.867935791015625,0.12441293150186539,-0.3307577967643738,0.8767871260643005
1763700004026957800,5.877957763671875,0.08028062433004379,-0.3033781051635742,0.8392836451530457
1763700004036980700,5.887980712890625,0.030447887256741524,-0.30216357111930847,0.8093294501304626
1763700004047002600,5.898002685546875,-0.035980403423309326,-0.3113826513290405,0.7780314683914185
1763700004057025800,5.90802587890625,-0.12148868292570114,-0.3396243453025818,0.7343845963478088
1763700004067047700,5.918047607421875,-0.208181232213974,-0.3828040361404419,0.676080584526062
1763700004077070600,5.928070556640625,-0.28004342317581177,-0.4057207405567169,0.6037618517875671
1763700004087092700,5.9380927734375,-0.3232383131980896,-0.3840559422969818,0.5046557784080505
1763700004097115600,5.94811572265625,-0.34853652119636536,-0.33940213918685913,0.3857649266719818
1763700004107137800,5.9581376953125,-0.3591657280921936,-0.28310370445251465,0.2808030843734741
1763700004117160400,5.968160400390625,-0.352538138628006,-0.23461106419563293,0.2172338217496872
1763700004127182800,5.978182861328125,-0.3278959095478058,-0.1871812343597412,0.22849421203136444
1763700004137205500,5.98820556640625,-0.3248661458492279,-0.14703844487667084,0.3376089930534363
1763700004147227600,5.9982275390625,-0.38696521520614624,-0.09798169136047363,0.5023391246795654
1763700004157250600,6.00825048828125,-0.4698597490787506,-0.02545381337404251,0.6106992363929749
1763700004167272400,6.0182724609375,-0.5190320611000061,-0.0045013935305178165,0.6044642329216003
1763700004177294800,6.028294921875,-0.548165500164032,-0.06338097900152206,0.4987936019897461
1763700004187317500,6.0383173828125,-0.549366295337677,-0.13288573920726776,0.33337026834487915
1763700004197339600,6.048339599609375,-0.5652946829795837,-0.24954403936862946,0.1561577022075653
1763700004207362600,6.058362548828125,-0.5685171484947205,-0.3948485255241394,-0.040254145860672
1763700004217384700,6.068384765625,-0.5379313230514526,-0.48693227767944336,-0.2209843397140503
1763700004227407600,6.07840771484375,-0.484935462474823,-0.5137559175491333,-0.35113728046417236
1763700004237429500,6.088429443359375,-0.44490912556648254,-0.48468172550201416,-0.3635099232196808
1763700004247452700,6.09845263671875,-0.4341014623641968,-0.40628013014793396,-0.2385280281305313
1763700004257474600,6.108474609375,-0.4745181202888489,-0.27124103903770447,-0.02530083619058132
1763700004267497500,6.11849755859375,-0.5529087781906128,-0.08777214586734772,0.18774273991584778
1763700004277519600,6.12851953125,-0.607828676700592,0.10081791877746582,0.3470189571380615
1763700004287542500,6.13854248046875,-0.5855260491371155,0.22891117632389069,0.45378586649894714
1763700004297564700,6.148564697265625,-0.5317336320877075,0.29509562253952026,0.5208919048309326
1763700004307587600,6.158587646484375,-0.4394117295742035,0.2370283156633377,0.5191757678985596
1763700004317609500,6.168609375,-0.31014779210090637,0.09529587626457214,0.43268778920173645
1763700004327631600,6.178631591796875,-0.25829923152923584,-0.09718089550733566,0.30563876032829285
1763700004337654500,6.188654541015625,-0.2367669641971588,-0.2459532916545868,0.1686660498380661
1763700004347676700,6.1986767578125,-0.21042856574058533,-0.3232552707195282,0.0721280500292778
1763700004357699600,6.208699462890625,-0.13354767858982086,-0.24739934504032135,0.010981997475028038
1763700004367721500,6.218721435546875,-0.061064958572387695,-0.1336035430431366,-0.005736795719712973
1763700004377744600,6.22874462890625,-0.030973680317401886,-0.06043900176882744,0.008851325139403343
1763700004387766500,6.2387666015625,-0.032101795077323914,-0.038570187985897064,0.03884118050336838
1763700004397789700,6.248789794921875,-0.04896597936749458,-0.05275801196694374,0.07085353136062622
1763700004407811600,6.2588115234375,-0.06884220987558365,-0.07975846529006958,0.10292624682188034
1763700004417834800,6.268834716796875,-0.07555948942899704,-0.11371919512748718,0.1299307942390442
1763700004427856600,6.278856689453125,-0.07234718650579453,-0.1390615701675415,0.1505170315504074
1763700004437879600,6.288879638671875,-0.06075546145439148,-0.1597306728363037,0.16531290113925934
1763700004447901700,6.298901611328125,-0.04505399614572525,-0.16076745092868805,0.16818831861019135
1763700004457923600,6.308923583984375,-0.018720107153058052,-0.18040141463279724,0.15311411023139954
1763700004467946800,6.31894677734375,0.0003763545537367463,-0.19251960515975952,0.1210230216383934
1763700004477968600,6.32896875,0.013937732204794884,-0.1933315545320511,0.08200669288635254
1763700004487991600,6.338991455078125,0.02215917594730854,-0.1811089813709259,0.04544975236058235
1763700004498013700,6.349013671875,0.034848734736442566,-0.14344468712806702,0.00709590595215559
1763700004508036600,6.35903662109375,0.018889745697379112,-0.1559668779373169,0.003762161359190941
1763700004518058500,6.36905859375,0.018371600657701492,-0.15388086438179016,0.010367346927523613
1763700004528081700,6.37908154296875,0.019099175930023193,-0.14623652398586273,0.013936514966189861
1763700004538103600,6.389103515625,0.023398978635668755,-0.13608883321285248,0.019101116806268692
1763700004548126700,6.399126708984375,0.029782041907310486,-0.12986049056053162,0.022489456459879875
1763700004558148600,6.409148681640625,0.03830667585134506,-0.12299688905477524,0.022663867101073265
1763700004568171800,6.419171875,0.0440676249563694,-0.1151709258556366,0.019276592880487442
1763700004578193700,6.429193603515625,0.04966773837804794,-0.10964762419462204,0.01629714109003544
1763700004588215600,6.439215576171875,0.052878446877002716,-0.1051037386059761,0.013390833511948586
1763700004598238700,6.44923876953125,0.05149224400520325,-0.09966162592172623,0.00847884826362133
1763700004608260600,6.459260498046875,0.049665048718452454,-0.09859476238489151,0.006338998209685087
1763700004618283800,6.46928369140625,0.052053794264793396,-0.10100354254245758,0.0009474137332290411
1763700004628305700,6.4793056640625,0.04888143762946129,-0.1092795878648758,-0.0013223984278738499
1763700004638328600,6.48932861328125,0.05019494146108627,-0.11782320588827133,-0.005916434805840254
1763700004648350700,6.499350830078125,0.047622326761484146,-0.12068876624107361,-0.008711155503988266
1763700004658373600,6.50937353515625,0.048269305378198624,-0.11871358007192612,-0.012482705526053905
1763700004668395800,6.519395751953125,0.04632626473903656,-0.11208177357912064,-0.013887523673474789
1763700004678418700,6.529418701171875,0.03814869746565819,-0.09716127812862396,-0.017284885048866272
1763700004688440600,6.539440673828125,0.03201836347579956,-0.0778280571103096,-0.02436862699687481
1763700004698463700,6.549463623046875,0.025038402527570724,-0.05601999908685684,-0.02772240713238716
1763700004708485600,6.559485595703125,0.014130362309515476,-0.03683538734912872,-0.02987184375524521
1763700004718508800,6.5695087890625,0.005065501667559147,-0.02501998469233513,-0.026148345321416855
1763700004728530700,6.57953076171875,-0.003963945899158716,-0.019169818609952927,-0.019875802099704742
1763700004738552600,6.589552490234375,-0.010433221235871315,-0.018537307158112526,-0.012480275705456734
1763700004748575700,6.59957568359375,-0.012252959422767162,-0.02126837894320488,-0.0037078240420669317
1763700004758597600,6.60959765625,-0.012325681746006012,-0.02355913259088993,0.004186227452009916
1763700004768620800,6.619620849609375,-0.012095318175852299,-0.02854377217590809,0.007661386393010616
1763700004778642700,6.629642578125,-0.010577267035841942,-0.03297637775540352,0.011656271293759346
1763700004788665900,6.639665771484375,-0.009160732850432396,-0.03305866941809654,0.011283695697784424
1763700004798687700,6.649687744140625,-0.00861928891390562,-0.033802565187215805,0.010035691782832146
1763700004808710700,6.659710693359375,-0.005032809916883707,-0.03532083332538605,0.008420484140515327
1763700004818732800,6.66973291015625,-0.004695876035839319,-0.0342353954911232,0.007172008976340294
1763700004828755700,6.679755615234375,-0.006010944955050945,-0.033363740891218185,0.009144878014922142
1763700004838777600,6.689777587890625,-0.0077808815985918045,-0.03644981235265732,0.010977399535477161
1763700004848799700,6.6997998046875,-0.008479028008878231,-0.038990456610918045,0.013308528810739517
1763700004858822700,6.70982275390625,-0.00988219678401947,-0.043617457151412964,0.01598873920738697
1763700004868844800,6.7198447265625,-0.011038007214665413,-0.047041215002536774,0.016364244744181633
1763700004878867200,6.7298671875,-0.010214025154709816,-0.04809662699699402,0.016306454315781593
1763700004888889000,6.73988916015625,-0.007018232252448797,-0.047955214977264404,0.014463813975453377
1763700004898912000,6.749912109375,-0.007265686988830566,-0.04342220351099968,0.012607714161276817
1763700004908934100,6.75993408203125,-0.005484831519424915,-0.03777789697051048,0.009089944884181023
1763700004918957000,6.76995703125,-0.00512294378131628,-0.02598709613084793,0.006748311221599579
1763700004928979200,6.779979248046875,-0.0027665789239108562,-0.014259065501391888,0.004808198660612106
1763700004939002000,6.790002197265625,-0.0013962024822831154,-0.003454141318798065,0.003299330361187458
1763700004949024000,6.80002392578125,-0.000725884921848774,0.003713490441441536,0.00028489832766354084
1763700004959047200,6.810047119140625,0.0011543933069333434,0.007387639954686165,-0.004744559992104769
1763700004969069000,6.820069091796875,0.0018249773420393467,0.008334393613040447,-0.004462797660380602
1763700004979091200,6.83009130859375,0.00359617592766881,0.009263422340154648,-0.0029190601781010628
1763700004989114000,6.840114013671875,0.005469709634780884,0.0038670587819069624,-0.00442294729873538
1763700004999136000,6.850135986328125,0.0009307011496275663,0.0030178085435181856,-0.0031738660763949156
1763700005009159200,6.8601591796875,0.0016042145434767008,0.004580284934490919,-0.0018484110478311777
1763700005019181000,6.87018115234375,0.004007267765700817,0.006833617575466633,-0.0020209248177707195
1763700005029204200,6.880204345703125,0.003281556535512209,0.010224087163805962,-0.000856590922921896
1763700005039226000,6.89022607421875,0.004495442379266024,0.015202505514025688,-0.0040086181834340096
1763700005049249300,6.900249267578125,0.009034800343215466,0.019632142037153244,-0.0051796091720461845
1763700005059271200,6.910271240234375,0.011106573045253754,0.023387933149933815,-0.007291346788406372
1763700005069294000,6.920294189453125,0.012178495526313782,0.026837525889277458,-0.010975830256938934
1763700005079316200,6.930316162109375,0.010444967076182365,0.0314655527472496,-0.015066641382873058
1763700005089338000,6.940338134765625,0.011196245439350605,0.033999551087617874,-0.01411482784897089
1763700005099361300,6.950361328125,0.009802773594856262,0.03661801666021347,-0.015337497927248478
1763700005109383200,6.960383056640625,0.010855254717171192,0.03894668444991112,-0.012014138512313366
1763700005119406000,6.970406005859375,0.007471293676644564,0.03797926753759384,-0.00943009927868843
1763700005129428200,6.98042822265625,0.004969253670424223,0.03850550577044487,-0.0053472076542675495
1763700005139451100,6.990451171875,0.0028534377925097942,0.03555405139923096,-0.0026095102075487375
1763700005149473000,7.00047314453125,0.0037977946922183037,0.03569812700152397,-0.0014313280116766691
1763700005159496200,7.01049609375,0.0018597119487822056,0.03424437344074249,0.0014649771619588137
1763700005169518000,7.02051806640625,0.0014096377417445183,0.03400575369596481,0.0014734992291778326
1763700005179541000,7.030541015625,0.0013913679867982864,0.03332873433828354,-0.0018005778547376394
1763700005189563100,7.040563232421875,-0.0006576682208105922,0.025789858773350716,-0.0004391700495034456
1763700005199586000,7.0505859375,-0.0017110544722527266,0.028416577726602554,0.0010769546497613192
1763700005209608200,7.060608154296875,-0.004252509213984013,0.024319838732481003,0.0021842969581484795
1763700005219630000,7.070630126953125,-0.006937473081052303,0.020799478515982628,0.003812202252447605
1763700005229653200,7.0806533203125,-0.004860740154981613,0.020184820517897606,0.00627615861594677
1763700005239675100,7.090675048828125,-0.005171832628548145,0.019679013639688492,0.008576416410505772
1763700005249698000,7.100697998046875,-0.0052671730518341064,0.02159302681684494,0.010560205206274986
1763700005259720200,7.11072021484375,-0.00527231115847826,0.021398337557911873,0.01045268401503563
1763700005269742800,7.120742919921875,-0.0028922439087182283,0.02505059726536274,0.01051526889204979
1763700005279765200,7.13076513671875,0.00003819295670837164,0.026227757334709167,0.005605718120932579
1763700005289788000,7.140787841796875,0.004151178989559412,0.0271470807492733,0.003373190527781844
1763700005299810000,7.15081005859375,0.004956669174134731,0.02792433090507984,0.0021088882349431515
1763700005309833000,7.1608330078125,0.005959616042673588,0.02568168193101883,0.00040659564547240734
1763700005319854800,7.170854736328125,0.006116744130849838,0.024031896144151688,-0.001896517351269722
1763700005329877200,7.180877197265625,0.006812362000346184,0.024036690592765808,0.0002065810840576887
1763700005339900000,7.19089990234375,0.00464940769597888,0.02399314008653164,0.002039336133748293
1763700005349922300,7.20092236328125,0.0051138633862137794,0.025283975526690483,0.0017463882686570287
1763700005359945000,7.210945068359375,0.0058571039699018,0.0256816279143095,0.0028602455276995897
1763700005369967000,7.220967041015625,0.008148221299052238,0.026316259056329727,0.0019236118532717228
1763700005379990000,7.230989990234375,0.01079223770648241,0.02616051770746708,0.002710894448682666
1763700005390012000,7.241011962890625,0.011485991068184376,0.02573787420988083,0.0033734890166670084
1763700005400035000,7.25103515625,0.016701726242899895,0.02525172010064125,0.0033197253942489624
1763700005410057000,7.261056884765625,0.014979726634919643,0.023187503218650818,0.005025213584303856
1763700005420080000,7.271080078125,0.013635743409395218,0.021585965529084206,0.00532945804297924
1763700005430102000,7.28110205078125,0.014656267128884792,0.021288489922881126,0.005574468988925219
1763700005440124200,7.291124267578125,0.014728106558322906,0.019865967333316803,0.006130302790552378
1763700005450147000,7.30114697265625,0.011762410402297974,0.01876767911016941,0.003524133237078786
1763700005460169000,7.3111689453125,0.00976599007844925,0.0151803158223629,0.00044807116501033306
1763700005470191900,7.32119189453125,0.011167878285050392,0.01557473000138998,-0.0002515413798391819
1763700005480214000,7.331214111328125,0.011559044010937214,0.0157180093228817,-0.00039149075746536255
1763700005490237000,7.34123681640625,0.010988861322402954,0.013287074863910675,-0.0003613969311118126
1763700005500259000,7.351259033203125,0.011190379038453102,0.012986106798052788,-0.001253348309546709
1763700005510282000,7.361281982421875,0.01217042189091444,0.014763234183192253,-0.002559362445026636
1763700005520303900,7.371303955078125,0.013575405813753605,0.013659151270985603,-0.002373356372117996
1763700005530327000,7.3813271484375,0.013882202096283436,0.01286180131137371,-0.0028692372143268585
1763700005540349000,7.391348876953125,0.01463712565600872,0.011595701798796654,-0.0036219051107764244
1763700005550371000,7.40137109375,0.014228063635528088,0.011181579902768135,-0.002927885390818119
1763700005560394000,7.41139404296875,0.015189300291240215,0.00960281491279602,-0.004173435270786285
1763700005570415900,7.421415771484375,0.012483261525630951,0.00845286250114441,-0.003885547397658229
1763700005580439000,7.43143896484375,0.010209321044385433,0.0081268809735775,-0.004446473903954029
1763700005590461000,7.4414609375,0.008691851049661636,0.0056504071690142155,-0.0029702831525355577
1763700005600484000,7.451484130859375,0.004738388583064079,0.004739073570817709,-0.0022906444501131773
1763700005610506000,7.461506103515625,0.0029242434538900852,0.001479364582337439,-0.0017689315136522055
1763700005620529200,7.471529052734375,0.002053971868008375,-0.0009183215443044901,-0.003386125201359391
1763700005630551000,7.481551025390625,0.0018001727294176817,-0.0011460217647254467,-0.0033291333820670843
1763700005640574000,7.491573974609375,0.0025905990041792393,-0.0027023733127862215,-0.0033421830739825964
1763700005650596000,7.50159619140625,-0.00026217917911708355,-0.00348347844555974,-0.0027602824848145247
1763700005660618000,7.511617919921875,-0.004505576565861702,-0.005481349769979715,-0.0015402291901409626
1763700005670641200,7.52164111328125,-0.003999842330813408,-0.00689202593639493,-0.003642528783529997
1763700005680663000,7.5316630859375,-0.003977105487138033,-0.00565425306558609,-0.002330240560695529
1763700005690686000,7.54168603515625,-0.005500433966517448,-0.007076913490891457,-0.0021270413417369127
1763700005700708000,7.5517080078125,-0.004044117871671915,-0.0037400368601083755,-0.0035604718141257763
1763700005710731000,7.56173095703125,-0.0025133327580988407,-0.0002654105192050338,-0.00449817068874836
1763700005720753000,7.5717529296875,-0.001435000798664987,0.00347488303668797,-0.005085966549813747
1763700005730776000,7.581776123046875,0.0000443850876763463,0.004233617335557938,-0.0047852955758571625
1763700005740798000,7.5917978515625,0.0007127044373191893,0.002286590402945876,-0.0024586948566138744
1763700005750821000,7.601821044921875,0.004399850964546204,0.0036764938849955797,-0.000933502335101366
1763700005760843000,7.611843017578125,0.007821746170520782,0.0014847125858068466,0.00114882318302989
1763700005770865000,7.621864990234375,0.009779169224202633,0.0008540760027244687,0.0026889292057603598
1763700005780888000,7.63188818359375,0.011512355878949165,-0.0025630055461078882,0.002652038587257266
1763700005790910000,7.641909912109375,0.013721182011067867,-0.0011030607856810093,0.00009460514411330223
1763700005800933000,7.65193310546875,0.014321224763989449,0.002336199628189206,0.00048667541705071926
1763700005810955000,7.661955078125,0.015476503409445286,0.0036786990240216255,0.0007500620558857918
1763700005820978200,7.671978271484375,0.017927810549736023,0.00494555477052927,-0.0016580312512814999
1763700005831000000,7.682,0.019194411113858223,0.0038129121530801058,-0.00040128547698259354
1763700005841023000,7.69202294921875,0.020154261961579323,0.0038070313166826963,0.0004834211431443691
1763700005851045000,7.702045166015625,0.021657085046172142,0.001966786803677678,-0.00029129255563020706
1763700005861068000,7.712068115234375,0.020860083401203156,0.0016666807932779193,-0.0003879065625369549
1763700005871090200,7.722090087890625,0.01979881338775158,0.0007979576475918293,-0.0012060296721756458
1763700005881111800,7.73211181640625,0.017070604488253593,0.001758964266628027,-0.0036292076110839844
1763700005891135000,7.742135009765625,0.013842055574059486,0.003960866015404463,-0.00659836595878005
1763700005901156900,7.752156982421875,0.007062346208840609,0.004593696910887957,-0.008264589123427868
1763700005911180000,7.762179931640625,0.003418875392526388,0.0067687006667256355,-0.0065042395144701
1763700005921202000,7.772201904296875,0.0000202858354896307,0.006660546641796827,-0.006380058825016022
1763700005931224800,7.782224853515625,-0.0010668163886293769,0.009956740774214268,-0.005777651444077492
1763700005941247000,7.7922470703125,-0.0017124186269938946,0.01086066011339426,-0.005959158763289452
1763700005951270000,7.802269775390625,-0.0017992376815527678,0.012549370527267456,-0.005259545519948006
1763700005961291800,7.812291748046875,-0.0011062313569709659,0.010251819156110287,-0.003920363262295723
1763700005971314000,7.82231396484375,0.0029436377808451653,0.008578288368880749,-0.0016894328873604536
1763700005981336800,7.8323369140625,0.005254959221929312,0.007808846887201071,0.000138505594804883
1763700005991359000,7.84235888671875,0.005863225553184748,0.005918269045650959,-0.0017328979447484016
1763700006001382000,7.8523818359375,0.006392112001776695,0.006076843477785587,0.0012104639317840338
1763700006011403800,7.86240380859375,0.007411569822579622,0.005020633805543184,0.002808360615745187
1763700006021427000,7.872427001953125,0.008286135271191597,0.007485751993954182,0.002561928005889058
1763700006031448800,7.88244873046875,0.008853655308485031,0.008298814296722412,0.0031976245809346437
1763700006041472000,7.892471923828125,0.010324902832508087,0.009028340689837933,0.002819568384438753
1763700006051494000,7.902493896484375,0.010800010524690151,0.008853104896843433,0.0030145118944346905
1763700006061517000,7.91251708984375,0.011437604203820229,0.009640675038099289,0.0015582095365971327
1763700006071539000,7.9225390625,0.012189947068691254,0.010407665744423866,-0.0010378398001194
1763700006081560800,7.932560791015625,0.01106557622551918,0.01163448765873909,-0.001568517880514264
1763700006091584000,7.942583984375,0.008835977874696255,0.011570039205253124,-0.0027107472997158766
1763700006101606000,7.95260595703125,0.009840939193964005,0.012593652121722698,-0.0013623619452118874
1763700006111629000,7.962629150390625,0.006846214644610882,0.010572579689323902,-0.001919228583574295
1763700006121651000,7.97265087890625,0.0074655525386333466,0.008241982199251652,-0.000748487189412117
1763700006131673900,7.982673828125,0.009622979909181595,0.007143694441765547,-0.0005932250060141087
1763700006141696000,7.992696044921875,0.008912162855267525,0.005086191464215517,0.0008322864305227995
1763700006151719000,8.002718994140626,0.010344144888222218,0.003284030593931675,0.0019335035467520356
1763700006161741000,8.012740966796875,0.00934850424528122,0.004018902778625488,0.003446151502430439
1763700006171763000,8.022762939453125,0.008723460137844086,0.0050218491815030575,0.004054950084537268
1763700006181785900,8.032785888671874,0.008321789093315601,0.006646003108471632,0.003012481378391385
1763700006191808000,8.04280810546875,0.00804854929447174,0.005888334009796381,0.003208756446838379
1763700006201831000,8.052830810546874,0.005851931404322386,0.0063367923721671104,0.002346969209611416
1763700006211852800,8.062852783203125,0.004383197985589504,0.004863798152655363,0.004353927448391914
1763700006221876000,8.0728759765625,0.004444742109626532,0.004513419698923826,0.004312152974307537
1763700006231897900,8.08289794921875,0.005692167207598686,0.0038425696548074484,0.004865291528403759
1763700006241921000,8.092921142578126,0.004002590198069811,0.0006746112485416234,0.003864773316308856
1763700006251943000,8.10294287109375,0.005813007242977619,-0.0019416781142354012,0.0070334021002054214
1763700006261966000,8.112966064453126,0.004850341938436031,-0.005249728914350271,0.005326284561306238
1763700006271988000,8.122988037109375,0.0053443582728505135,-0.008098778314888477,0.007986515760421753
1763700006282009900,8.133009765625,0.004812957718968391,-0.008701387792825699,0.008154945448040962
1763700006292033000,8.143032958984374,0.0045921821147203445,-0.00780736468732357,0.008268928155303001
1763700006302055000,8.153054931640625,0.004640550818294287,-0.008252294734120369,0.007385535631328821
1763700006312078000,8.163078125,0.0021691371221095324,-0.006682627368718386,0.0066917818039655685
1763700006322100000,8.173099853515625,0.002986061852425337,-0.004604572895914316,0.0046610585413873196
1763700006332123000,8.183122802734376,-0.0005114675732329488,-0.0028080043848603964,0.0032959221862256527
1763700006342145000,8.19314501953125,0.00033087399788200855,0.00024487313930876553,0.0026633308734744787
1763700006352168000,8.20316796875,0.0011029243469238281,-0.00017936842050403357,0.0010499879717826843
1763700006362190000,8.213190185546875,-0.00006250850856304169,-0.001249480526894331,-0.001116813626140356
1763700006372212000,8.2232119140625,0.003182553220540285,-0.0021528247743844986,0.00020171725191175938
1763700006382235000,8.23323486328125,0.004557677544653416,-0.0044074468314647675,0.000927226385101676
1763700006392257000,8.243257080078125,0.004143822006881237,-0.0064801848493516445,0.0004353404510766268
1763700006402280000,8.253280029296874,0.003920331597328186,-0.0027365577407181263,-0.0007979748770594597
1763700006412302000,8.263302001953125,0.0030835666693747044,-0.0022127139382064342,0.00010723364539444447
1763700006422325000,8.273324951171874,0.002148481784388423,0.0012419808190315962,-0.0018711062148213387
1763700006432347000,8.283346923828125,0.0010270245838910341,0.003605802310630679,-0.0013318159617483616
1763700006442370000,8.2933701171875,0.0012209909036755562,0.005938723683357239,-0.0032196571119129658
1763700006452392000,8.303391845703125,0.0009080695454031229,0.007690018508583307,-0.0020497306250035763
1763700006462413800,8.313413818359376,-0.000738218892365694,0.012854758650064468,-0.0014613945968449116
1763700006472437000,8.32343701171875,-0.0005038606468588114,0.010929293930530548,-0.002102151047438383
1763700006482459000,8.333458984375,-0.0029149868059903383,0.010929475538432598,-0.0007321995217353106
1763700006492482000,8.34348193359375,-0.0039605433121323586,0.011373158544301987,-0.0008464490529149771
1763700006502504000,8.35350390625,-0.005024260841310024,0.013095998205244541,-0.0005840056110173464
1763700006512527000,8.363527099609374,-0.004867400508373976,0.014398017898201942,-0.0016311604995280504
1763700006522549000,8.373549072265625,-0.004233251325786114,0.014571614563465118,-0.0030784441623836756
1763700006532572000,8.383572021484374,-0.0037216583732515574,0.015119160525500774,-0.005594599060714245
1763700006542594000,8.393593994140625,-0.006311199627816677,0.013931762427091599,-0.007648189552128315
1763700006552616000,8.403615966796876,-0.008410569280385971,0.013015635311603546,-0.006310749799013138
1763700006562639000,8.41363916015625,-0.00725928507745266,0.012227606028318405,-0.007714767940342426
1763700006572661000,8.423660888671876,-0.010581046342849731,0.013443338684737682,-0.00933796539902687
1763700006582684000,8.433683837890625,-0.011556391604244709,0.009818821214139462,-0.011292998678982258
1763700006592706000,8.4437060546875,-0.014108233153820038,0.012170393019914627,-0.015012369491159916
1763700006602729000,8.45372900390625,-0.016147401183843613,0.011882674880325794,-0.013653003610670567
1763700006612751000,8.463751220703125,-0.017017189413309097,0.012245929799973965,-0.012497457675635815
1763700006622773800,8.473773681640624,-0.017501981928944588,0.008849930949509144,-0.01325767207890749
1763700006632796000,8.4837958984375,-0.01853475719690323,0.008840343914926052,-0.011276280507445335
1763700006642818800,8.49381884765625,-0.01780431903898716,0.005811402574181557,-0.008401898667216301
1763700006652841000,8.503841064453125,-0.014529962092638016,0.0042390720918774605,-0.0066498052328825
1763700006662863000,8.513863037109376,-0.012955318205058575,0.0029471407178789377,-0.0056184218265116215
1763700006672886000,8.523885986328125,-0.010386699810624123,-0.0023999540135264397,-0.004412276204675436
1763700006682908000,8.533907958984376,-0.008433370850980282,-0.0012211748398840427,-0.004194579087197781
1763700006692930800,8.543930908203125,-0.007417375221848488,-0.003738394705578685,0.0008542418945580721
1763700006702953000,8.553952880859375,-0.004367955960333347,-0.007147305179387331,0.004098919685930014
1763700006712976000,8.563975830078125,-0.004561301786452532,-0.008039730601012707,0.008159974589943886
1763700006722998000,8.573998046875,-0.0019882898777723312,-0.0084272101521492,0.008860714733600616
1763700006733021000,8.58402099609375,-0.0009214276215061545,-0.009726567193865776,0.007364550605416298
1763700006743043000,8.59404296875,0.001645876094698906,-0.008721052668988705,0.006987004540860653
1763700006753065000,8.60406494140625,0.00277718692086637,-0.01249022502452135,0.006515891291201115
1763700006763088000,8.614087890625,0.005462503060698509,-0.01487406250089407,0.0029226327314972878
1763700006773110000,8.624110107421876,0.008108353242278099,-0.016742270439863205,0.001903174677863717
1763700006783132700,8.634132568359375,0.008926508948206902,-0.01761438138782978,0.00046418304555118084
1763700006793155000,8.644155029296876,0.009263399057090282,-0.01899363100528717,0.0006143853534013033
1763700006803177700,8.654177734375,0.008826492354273796,-0.01835997961461544,-0.0016553134191781282
1763700006813200000,8.664199951171875,0.0101759172976017,-0.017417753115296364,-0.003356274450197816
1763700006823222800,8.674222900390625,0.0074371700175106525,-0.012886674143373966,-0.005936075001955032
1763700006833245000,8.684244873046875,0.0076957629062235355,-0.010087691247463226,-0.008617877960205078
1763700006843267000,8.69426708984375,0.008400820195674896,-0.009214354678988457,-0.01024442259222269
1763700006853289700,8.704289794921875,0.008516667410731316,-0.007824717089533806,-0.011998114176094532
1763700006863312100,8.71431201171875,0.01258394680917263,-0.004488905426114798,-0.011914076283574104
1763700006873334800,8.724334716796875,0.014705954119563103,-0.0017975152004510164,-0.013491465710103512
1763700006883357000,8.73435693359375,0.018166281282901764,-0.000739941606298089,-0.013169432058930397
1763700006893379800,8.7443798828125,0.01917801797389984,-0.0007884111255407333,-0.014059726148843765
1763700006903401700,8.754401611328126,0.018530001863837242,0.0010306657059118152,-0.011472701095044613
1763700006913425000,8.7644248046875,0.019940145313739777,0.0005182735621929169,-0.01013073418289423
1763700006923446800,8.77444677734375,0.019961267709732056,0.002113539259880781,-0.007586024701595306
1763700006933469000,8.784468994140624,0.021602308377623558,0.004323963075876236,-0.009326932951807976
1763700006943491800,8.794491943359375,0.021812256425619125,0.006994327064603567,-0.007460387423634529
1763700006953514000,8.804513916015624,0.022692697122693062,0.010195713490247726,-0.01083993911743164
1763700006963537000,8.814536865234375,0.022293247282505035,0.012878142297267914,-0.011311281472444534
1763700006973558800,8.824558837890624,0.02195609174668789,0.014716521836817265,-0.01348788384348154
1763700006983582000,8.83458203125,0.023524845018982887,0.01896522380411625,-0.012440701946616173
1763700006993603800,8.844603759765626,0.023491553962230682,0.022415615618228912,-0.0114582609385252
1763700007003626000,8.8546259765625,0.0227784663438797,0.025172434747219086,-0.011718160472810268
1763700007013649000,8.86464892578125,0.019724885001778603,0.024829154834151268,-0.013785305432975292
1763700007023670800,8.8746708984375,0.016900397837162018,0.022221533581614494,-0.015331977047026157
1763700007033693700,8.884693603515625,0.01739388331770897,0.019801253452897072,-0.015423855744302273
1763700007043715800,8.8947158203125,0.013608446344733238,0.01966581493616104,-0.015601986087858677
1763700007053738800,8.90473876953125,0.012263549491763115,0.013568773865699768,-0.013783047907054424
1763700007063761000,8.914760986328124,0.00901929009705782,0.012218532152473927,-0.01055195927619934
1763700007073783800,8.92478369140625,0.007410474121570587,0.012775398790836334,-0.008163103833794594
1763700007083805700,8.9348056640625,0.0066632903181016445,0.013051770627498627,-0.004767957143485546
1763700007093827800,8.944827880859375,0.005321856122463942,0.01878076232969761,-0.002870455151423812
1763700007103850800,8.954850830078126,0.006052256096154451,0.01998412050306797,-0.0014628022909164429
1763700007113873000,8.964872802734375,0.008248564787209034,0.022158591076731682,-0.0021102167665958405
1763700007123895800,8.974895751953126,0.006571030244231224,0.025652145966887474,-0.0036944092717021704
1763700007133917700,8.984917724609375,0.006404849700629711,0.02670435979962349,-0.007620440796017647
1763700007143940900,8.99494091796875,0.004541785456240177,0.02763436734676361,-0.007790558040142059
1763700007153962800,9.004962646484374,0.00582463014870882,0.029949987307190895,-0.008131975308060646
1763700007163986000,9.01498583984375,0.0035477420315146446,0.03535311296582222,-0.008912310004234314
1763700007174007800,9.0250078125,0.0011008295696228743,0.036378163844347,-0.008223882876336575
1763700007184029700,9.03502978515625,-0.0010309156496077776,0.03996288403868675,-0.006600980646908283
1763700007194052900,9.045052978515624,-0.002295917132869363,0.03880654275417328,-0.0077868858352303505
1763700007204074800,9.05507470703125,-0.0032456163316965103,0.040345676243305206,-0.005068420432507992
1763700007214098000,9.065097900390626,-0.0030203131027519703,0.04277368262410164,-0.00334988278336823
1763700007224119800,9.075119873046875,-0.0032229633070528507,0.041663046926259995,-0.0026571049820631742
1763700007234143000,9.08514306640625,-0.0022948519326746464,0.04024704545736313,-0.0015857152175158262
1763700007244164900,9.095164794921875,-0.0038435952737927437,0.03793637827038765,-0.00041229836642742157
1763700007254187800,9.105187744140625,-0.002181250136345625,0.03679707646369934,0.0018367409938946366
1763700007264210000,9.1152099609375,-0.0006736346986144781,0.03368490934371948,0.0040559531189501286
1763700007274231800,9.125231689453125,-0.0012408880284056067,0.032304324209690094,0.005097515415400267
1763700007284254700,9.135254638671874,-0.0004213956417515874,0.02935333177447319,0.004555085673928261
1763700007294276900,9.14527685546875,0.0006081823958083987,0.028661442920565605,0.004184107296168804
1763700007304299800,9.1552998046875,0.0025368742644786835,0.03153640031814575,0.004337684717029333
1763700007314322000,9.165322021484375,0.0038274419493973255,0.032513245940208435,0.0034167636185884476
1763700007324344800,9.1753447265625,0.004587026312947273,0.03383154794573784,0.0017857806524261832
1763700007334366700,9.18536669921875,0.004457330331206322,0.033255238085985184,0.0015447644982486963
1763700007344388900,9.195388916015625,0.007262988016009331,0.03244226798415184,0.003749361727386713
1763700007354411800,9.205411865234375,0.004797966219484806,0.029889097437262535,0.002686227671802044
1763700007364434000,9.215433837890625,0.006264130584895611,0.027081547304987907,0.006732374429702759
1763700007374456800,9.225456787109374,0.005043869838118553,0.02216268889605999,0.007328390143811703
1763700007384478700,9.235478759765625,0.006418530363589525,0.01873425394296646,0.00614558719098568
1763700007394502000,9.245501953125,0.006154877599328756,0.016342202201485634,0.0058425189927220345
1763700007404523800,9.255523681640625,0.006473924033343792,0.014038833789527416,0.0027433985378593206
1763700007414547000,9.265546875,0.007399153430014849,0.013733346946537495,-0.000586880836635828
1763700007424568800,9.27556884765625,0.004959437530487776,0.011874441988766193,-0.00013533257879316807
1763700007434590700,9.2855908203125,0.0034819156862795353,0.008804881945252419,0.0008436455391347408
1763700007444614000,9.29561376953125,0.0020282105542719364,0.006709878798574209,0.0020335176959633827
1763700007454635800,9.3056357421875,0.0022777486592531204,0.0038325998466461897,0.0022979695349931717
1763700007464659000,9.315658935546875,-0.00007080973591655493,0.004468861501663923,0.004747337661683559
1763700007474680800,9.325680908203125,0.0009158914908766747,0.004853954538702965,0.004816047381609678
1763700007484704000,9.3357041015625,0.0017863800749182701,0.004990904591977596,0.00299775879830122
1763700007494726000,9.345725830078125,0.0014244564808905125,0.00808656308799982,-0.0006145527586340904
1763700007504747800,9.355747802734374,0.006146842148154974,0.012162393890321255,-0.0016444281209260225
1763700007514771000,9.36577099609375,0.008228369057178497,0.013523268513381481,-0.0032756144646555185
1763700007524792800,9.375792724609376,0.010435027070343494,0.014392203651368618,-0.003989398013800383
1763700007534815700,9.385815673828125,0.011356746777892113,0.014207380823791027,-0.0017001447267830372
1763700007544838000,9.395837890625,0.014351874589920044,0.012657411396503448,0.0015592367853969336
1763700007554860800,9.40586083984375,0.01318754069507122,0.012545558623969555,0.0008343243971467018
1763700007564883000,9.415883056640626,0.015302857384085655,0.013246506452560425,0.0009625682141631842
1763700007574905900,9.42590576171875,0.018013156950473785,0.010408109053969383,0.002146609593182802
1763700007584927700,9.435927734375,0.016490880399942398,0.009809981100261211,0.0006433739326894283
1763700007594950000,9.445949951171874,0.01849464327096939,0.008268543519079685,0.0015906603075563908
1763700007604972800,9.455972900390625,0.018428636714816093,0.007763663772493601,0.001165145542472601
1763700007614995000,9.465994873046874,0.01919429562985897,0.006541538517922163,0.0004205256700515747
1763700007625017900,9.476017822265625,0.018067458644509315,0.0077066561207175255,-0.0014514871872961521
1763700007635039700,9.486039794921876,0.01786266267299652,0.009341037832200527,-0.0007247105240821838
1763700007645063000,9.49606298828125,0.018797488883137703,0.012337299063801765,-0.0006594425067305565
1763700007655084800,9.506084716796876,0.020690729841589928,0.010567096062004566,-0.001896747387945652
1763700007665107000,9.51610693359375,0.021416792646050453,0.009660321287810802,-0.0037545096129179
1763700007675129900,9.5261298828125,0.022086044773459435,0.010615064762532711,-0.003020009957253933
1763700007685151700,9.53615185546875,0.020416630432009697,0.01256538461893797,-0.004422846250236034
1763700007695175000,9.5461748046875,0.02030770853161812,0.01509725209325552,-0.003099255496636033
1763700007705196800,9.55619677734375,0.018010273575782776,0.01675991341471672,-0.0036740514915436506
1763700007715220000,9.566219970703125,0.01562541164457798,0.02030857652425766,-0.003041018033400178
1763700007725241900,9.576241943359374,0.013289622962474823,0.015356821939349174,-0.0005115782842040062
1763700007735265000,9.58626513671875,0.01041021291166544,0.011883527971804142,0.0010831223335117102
1763700007745287000,9.596286865234376,0.008790326304733753,0.006302447523921728,0.003431469900533557
1763700007755308800,9.606308837890625,0.005397459026426077,0.0020035728812217712,0.0030335935298353434
1763700007765332000,9.61633203125,0.004969656467437744,-0.000014240184100344777,0.0046494510024785995
1763700007775353900,9.626353759765625,0.0020822572987526655,-0.0038020540960133076,0.005566909909248352
1763700007785376800,9.636376708984375,0.0002785969991236925,-0.0013205846771597862,0.004664246924221516
1763700007795399000,9.64639892578125,-0.00024577940348535776,-0.001227906672284007,0.0041997916996479034
1763700007805421800,9.656421875,-0.0013757586712017655,-0.0007256345124915242,0.0038818102329969406
1763700007815444000,9.66644384765625,-0.0021613910794258118,0.0023705565836280584,0.0016916267341002822
1763700007825465900,9.6764658203125,-0.0019056966993957758,0.002642805688083172,0.002734966343268752
1763700007835488800,9.68648876953125,-0.0016111510340124369,0.004419400356709957,0.003127516247332096
1763700007845511000,9.696510986328125,-0.002791919279843569,0.008191344328224659,0.002102578990161419
1763700007855533800,9.706533935546876,-0.002966090105473995,0.008713058196008205,0.0028946029487997293
1763700007865556000,9.716555908203125,-0.0020721442997455597,0.009850651025772095,0.0008204197511076927
1763700007875579000,9.726578857421876,0.0009334993083029985,0.009508967399597168,-0.0008600347209721804
1763700007885601500,9.7366015625,0.002344464650377631,0.01010087225586176,-0.0009516810532659292
1763700007895623400,9.74662353515625,0.00028584111714735627,0.010779445990920067,0.0005034701898694038
1763700007905646300,9.756646240234375,0.0004688260960392654,0.011994265019893646,0.0013380737509578466
1763700007915668500,9.76666845703125,0.0011663079494610429,0.01343317050486803,0.0034960333723574877
1763700007925691400,9.77669140625,0.001593282911926508,0.016751065850257874,0.004744759760797024
1763700007935713300,9.78671337890625,0.00015171384438872337,0.016977433115243912,0.0021063662134110928
1763700007945736400,9.796736328125,0.001937909983098507,0.015965601429343224,0.0013514484744518995
1763700007955758300,9.80675830078125,0.00023508479353040457,0.014350662007927895,0.001102709211409092
1763700007965781500,9.816781494140624,0.0009199016494676471,0.013348010368645191,-0.0018737239297479391
1763700007975803400,9.826803466796875,0.00036676309537142515,0.010032374411821365,-0.0030686839018017054
1763700007985825300,9.8368251953125,0.00021619047038257122,0.007124344352632761,-0.002724963240325451
1763700007995848400,9.846848388671875,-0.002962558763101697,0.004352259915322065,-0.003263720776885748
1763700008005870300,9.856870361328125,-0.0037347711622714996,0.0038527757860720158,-0.0009309647139161825
1763700008015893500,9.8668935546875,-0.0029488722793757915,0.002691105008125305,3.427267074584961e-7
1763700008025915400,9.876915283203125,-0.0016240793047472835,0.0019510026322677732,0.0007369113154709339
1763700008035938600,9.8869384765625,-0.0003361745039001107,0.0009256856283172965,0.0022349394857883453
1763700008045960400,9.89696044921875,-0.0015029053902253509,0.0016370160738006234,0.0005353102460503578
1763700008055982300,9.906982421875,0.002057208213955164,0.0010380710009485483,-0.0002508549951016903
1763700008066005500,9.917005615234375,0.002250608056783676,0.0010801074095070362,0.0018406721064820886
1763700008076027400,9.92702734375,0.0027422276325523853,0.0008372270967811346,0.000208953395485878
1763700008086050600,9.937050537109375,0.002662993734702468,0.0015712038148194551,-0.00037208758294582367
1763700008096072400,9.947072509765626,0.0030922952573746443,-0.0012549427337944508,0.0002465648576617241
1763700008106095400,9.957095458984375,-0.00015168602112680674,-0.0018159005558118224,-0.0013315349351614714
1763700008116117500,9.967117431640625,-0.000985521706752479,-0.004153090994805098,-0.0013427201192826033
1763700008126139400,9.977139404296874,-0.004226717632263899,-0.0070879035629332066,-0.0038125969003885984
1763700008136162600,9.98716259765625,-0.0066637760028243065,-0.011322064325213432,-0.004645101726055145
1763700008146184400,9.997184326171874,-0.006359164137393236,-0.013228312134742737,-0.004132322501391172
1763700008156207400,10.007207275390625,-0.007737349718809128,-0.0159458015114069,-0.0028100628405809402
1763700008166229500,10.0172294921875,-0.008533147163689137,-0.016994798555970192,-0.002357593970373273
1763700008176252400,10.02725244140625,-0.009659664705395699,-0.016472019255161285,-0.0034899699967354536
1763700008186274300,10.0372744140625,-0.006974818650633097,-0.019622966647148132,-0.0018114086706191301
1763700008196297500,10.04729736328125,-0.007736216764897108,-0.01996385119855404,0.001406222814694047
1763700008206319400,10.0573193359375,-0.007966412231326103,-0.022965168580412865,0.0034013146068900824
1763700008216341500,10.067341552734375,-0.004757835995405912,-0.024731909856200218,0.002339246217161417
1763700008226364400,10.077364501953125,-0.0030618244782090187,-0.027333904057741165,0.004135043825954199
1763700008236386300,10.08738623046875,-0.0047848899848759174,-0.02711286023259163,0.0020665666088461876
1763700008246409500,10.097409423828125,0.0007466517854481936,-0.03099300153553486,0.001645226264372468
1763700008256431400,10.107431396484374,0.0007652938948012888,-0.03215920180082321,0.0019301845459267497
1763700008266453500,10.11745361328125,0.003203206229954958,-0.03271957114338875,0.002034993376582861
1763700008276476400,10.127476318359374,0.003975256811827421,-0.03117280639708042,0.0021710810251533985
1763700008286498300,10.137498291015625,0.007199140731245279,-0.029926970601081848,0.00036152382381260395
1763700008296521500,10.147521484375,0.010267635807394981,-0.02994614467024803,-0.0005655225832015276
1763700008306543400,10.15754345703125,0.012890229001641273,-0.0294685959815979,-0.0011879049707204103
1763700008316566500,10.16756640625,0.015625562518835068,-0.0282728374004364,-0.0012259881477802992
1763700008326588400,10.17758837890625,0.0158623605966568,-0.02663554809987545,-0.0016377123538404703
1763700008336611600,10.187611572265626,0.018290363252162933,-0.02307676523923874,-0.0031823457684367895
1763700008346633500,10.197633544921874,0.01814572885632515,-0.017995072528719902,-0.006589828059077263
1763700008356655400,10.2076552734375,0.016477258875966072,-0.015143093653023243,-0.007306219078600407
1763700008366678500,10.217678466796874,0.01580120623111725,-0.012974660843610764,-0.006396899931132793
1763700008376700400,10.227700439453125,0.01616579294204712,-0.01141538005322218,-0.008317838422954082
1763700008386723600,10.2377236328125,0.01704835146665573,-0.009569447487592697,-0.007590084802359343
1763700008396745500,10.247745361328125,0.017357010394334793,-0.00723705068230629,-0.008046817034482956
1763700008406768400,10.257768310546876,0.017901668325066566,-0.004636419005692005,-0.005967095494270325
1763700008416790500,10.26779052734375,0.015370067209005356,-0.004924573004245758,-0.004736714996397495
1763700008426812400,10.2778125,0.014211312867701054,-0.0039085582830011845,-0.004622346721589565
1763700008436835300,10.28783544921875,0.012370003387331963,-0.004805244505405426,-0.0055549852550029755
1763700008446857500,10.297857421875,0.01156286895275116,-0.007174263708293438,-0.0067848633043468
1763700008456880400,10.30788037109375,0.011519460007548332,-0.010414798744022846,-0.005264997016638517
1763700008466902500,10.317902587890625,0.010409187525510788,-0.01206169743090868,-0.004843951668590307
1763700008476925400,10.327925537109374,0.007612601853907108,-0.01618400402367115,-0.0029728147201240063
1763700008486947300,10.337947265625,0.00865197740495205,-0.01804490201175213,-0.0035651905927807093
1763700008496969500,10.347969482421876,0.00853320024907589,-0.01979273371398449,-0.0006282564718276262
1763700008506992400,10.357992431640625,0.006238508969545364,-0.018418194726109505,-0.0004405323415994644
1763700008517014500,10.3680146484375,0.0038392674177885056,-0.018121251836419106,0.0008726723026484251
1763700008527037400,10.378037353515625,-0.001911885803565383,-0.013832111842930317,0.0006368928588926792
1763700008537059300,10.388059326171875,-0.0019539636559784412,-0.011930614709854126,0.0014084107242524624
1763700008547082500,10.39808251953125,-0.004549964796751738,-0.010630826465785503,0.004299217369407415
1763700008557104400,10.4081044921875,-0.005967565346509218,-0.007395084947347641,0.0020475145429372787
1763700008567126500,10.41812646484375,-0.008862747810781002,-0.006701478734612465,0.0022104079835116863
1763700008577149400,10.4281494140625,-0.00843025092035532,-0.004755240865051746,-0.000762745039537549
1763700008587171300,10.43817138671875,-0.010343285277485847,-0.008161379024386406,-0.0013803334441035986
1763700008597194500,10.448194580078125,-0.008664695546030998,-0.010280189104378223,0.0016937535256147385
1763700008607216400,10.45821630859375,-0.009208175353705883,-0.013803423382341862,0.0028849560767412186
1763700008617239600,10.468239501953125,-0.006190813612192869,-0.013295291922986507,0.004902300424873829
1763700008627261400,10.478261474609376,-0.004443907178938389,-0.011548611335456371,0.0063706496730446815
1763700008637283300,10.488283447265625,-0.0027581260073930025,-0.007340284530073404,0.008039119653403759
1763700008647306500,10.498306396484375,-0.00244143302552402,-0.0020307633094489574,0.0056643798016011715
1763700008657328400,10.508328369140624,0.0011586281470954418,0.0022425451315939426,0.0003777388483285904
1763700008667351600,10.5183515625,-0.0012956841383129358,0.008771320804953575,-0.0025097194593399763
1763700008677373400,10.52837353515625,-0.003287196159362793,0.010667757131159306,-0.005751318298280239
1763700008687396400,10.538396240234375,-0.0013092538574710488,0.011081438511610031,-0.007191794458776712
1763700008697418500,10.54841845703125,-0.0020155240781605244,0.012235652655363083,-0.0065843272022902966
1763700008707440400,10.5584404296875,-0.006380291655659676,0.008699668571352959,-0.006735032424330711
1763700008717463600,10.568463623046876,-0.00866421777755022,0.0034710837062448263,-0.003583714133128524
1763700008727485400,10.5784853515625,-0.011018732562661171,0.0013811313547194004,0.0007941671647131443
1763700008737508400,10.58850830078125,-0.012956715188920498,-0.00021303683752194047,0.0044967602007091045
1763700008747530500,10.598530517578125,-0.015604106709361076,-0.0008232860127463937,0.0061424169689416885
1763700008757553400,10.608553466796875,-0.01586136780679226,-0.002667791210114956,0.006770923268049955
1763700008767575600,10.618575439453124,-0.01864287257194519,-0.001971044111996889,0.007054667919874191
1763700008777597400,10.628597412109375,-0.01887083798646927,-0.0029598758555948734,0.00927734188735485
1763700008787620400,10.638620361328124,-0.01775612309575081,-0.0048057446256279945,0.008421342819929123
1763700008797642500,10.648642578125,-0.01782776229083538,-0.00435966532677412,0.008078327402472496
1763700008807665400,10.65866552734375,-0.016988011077046394,-0.007228996604681015,0.010292094200849533
1763700008817687600,10.6686875,-0.01606442779302597,-0.009514521807432175,0.010585574433207512
1763700008827710500,10.67871044921875,-0.014767426066100597,-0.011708112433552742,0.010144348256289959
1763700008837732400,10.688732421875,-0.015941614285111427,-0.013500419445335865,0.012091651558876038
1763700008847754500,10.69875439453125,-0.014908181503415108,-0.0130535326898098,0.010732699185609818
1763700008857777400,10.70877734375,-0.018023548647761345,-0.012143529951572418,0.01111273281276226
1763700008867799600,10.718799560546875,-0.016175003722310066,-0.010730212554335594,0.00897181872278452
1763700008877822500,10.728822509765624,-0.014688428491353989,-0.009393039159476757,0.00786154717206955
1763700008887844400,10.73884423828125,-0.011940675787627697,-0.006087115965783596,0.005543442443013191
1763700008897866200,10.7488662109375,-0.013600091449916363,-0.006503900978714228,0.0067783500999212265
1763700008907889400,10.758889404296875,-0.011725464835762978,-0.0030526367481797934,0.0046551888808608055
1763700008917911300,10.768911376953126,-0.012012554332613945,-0.0002781556104309857,0.0034911208786070347
1763700008927934200,10.778934326171875,-0.011042168363928795,-0.0012111896649003029,0.0039207180961966515
1763700008937956400,10.788956298828126,-0.009796075522899628,-0.0019395641284063458,0.005682665854692459
1763700008947979300,10.798979248046875,-0.009360969997942448,-0.004828974604606628,0.005178974010050297
1763700008958001400,10.80900146484375,-0.011089627631008625,-0.007829291746020317,0.006926273927092552
1763700008968023300,10.819023193359374,-0.010296174325048923,-0.010948983021080494,0.008824722841382027
1763700008978046200,10.829046142578125,-0.010703903622925282,-0.013974866829812527,0.010320354253053665
1763700008988068400,10.839068359375,-0.00785721093416214,-0.01417409349232912,0.011993085034191608
1763700008998091300,10.84909130859375,-0.010095330886542797,-0.013434533961117268,0.015613120049238205
1763700009008113400,10.859113525390624,-0.007858415134251118,-0.011411854065954685,0.015720771625638008
1763700009018136300,10.86913623046875,-0.010808132588863373,-0.01273278146982193,0.019144531339406967
1763700009028158200,10.879158203125,-0.011984521523118019,-0.01141589879989624,0.018456192687153816
1763700009038180400,10.889180419921875,-0.013777627609670162,-0.012144806794822216,0.018100926652550697
1763700009048203300,10.899203369140626,-0.015235215425491333,-0.01277542021125555,0.01600741781294346
1763700009058225400,10.909225341796875,-0.01985340192914009,-0.011531723663210869,0.011587368324398994
1763700009068248300,10.919248291015625,-0.022388342767953873,-0.01091066561639309,0.007596413604915142
1763700009078270200,10.929270263671874,-0.023476507514715195,-0.009702922776341438,0.009023068472743034
1763700009088293400,10.93929345703125,-0.024535059928894043,-0.008955491706728935,0.006794890854507685
1763700009098315300,10.949315185546874,-0.021346723660826683,-0.013317749835550785,0.013137741014361382
1763700009108337200,10.959337158203125,-0.019903207197785378,-0.022180717438459396,0.02072727680206299
1763700009118360300,10.9693603515625,-0.017825940623879433,-0.0269541684538126,0.020638061687350273
1763700009128382200,10.97938232421875,-0.015851417556405067,-0.024126464501023293,0.019527936354279518
1763700009138405400,10.9894052734375,-0.012585049495100975,-0.022258257493376732,0.016213366761803627
1763700009148427300,10.99942724609375,-0.010825765319168568,-0.02049870602786541,0.016552120447158813
1763700009158450400,11.009450439453126,-0.00768243707716465,-0.01573804020881653,0.013335554860532284
1763700009168472300,11.019472412109375,-0.00564257986843586,-0.009499327279627323,0.009451542980968952
1763700009178494200,11.029494140625,-0.0033258958719670773,-0.004933604970574379,0.006134841591119766
1763700009188517400,11.039517333984374,0.0010178885422647,-0.00011907779844477773,0.002444618148729205
1763700009198539300,11.049539306640625,0.0009361294796690345,0.0006164872902445495,-0.000001228880137205124
1763700009208562400,11.0595625,-0.0018862213473767042,0.0011201415909454226,-0.003398980014026165
1763700009218584300,11.069584228515625,-0.0037096876185387373,0.00010228145401924849,-0.004605391528457403
1763700009228606200,11.079606201171876,-0.00258733332157135,-0.00013879869948141277,-0.0037658154033124447
1763700009238629400,11.08962939453125,-0.005367673002183437,-0.0028554892633110285,-0.0026941592805087566
1763700009248651300,11.0996513671875,-0.00825509987771511,-0.004052920266985893,-0.001298308139666915
1763700009258674400,11.10967431640625,-0.0079477708786726,-0.0058388360776007175,-0.0002642024774104357
1763700009268696300,11.1196962890625,-0.009776494465768337,-0.004367311019450426,0.002312110271304846
1763700009278719200,11.12971923828125,-0.011462274938821793,-0.004805134609341621,0.0026849526911973953
1763700009288741400,11.139741455078125,-0.015815353021025658,-0.003609898965805769,0.0035239073913544416
1763700009298763300,11.14976318359375,-0.017257988452911377,-0.004700729623436928,0.006235538050532341
1763700009308786400,11.159786376953125,-0.018221937119960785,-0.0018043582094833255,0.008150648325681686
1763700009318808300,11.169808349609376,-0.01976710371673107,-0.0037766953464597464,0.006461937911808491
1763700009328831200,11.179831298828125,-0.018141014501452446,-0.004890672396868467,0.007982072420418262
1763700009338853400,11.189853271484376,-0.019634515047073364,-0.004687206819653511,0.007028660271316767
1763700009348876300,11.199876220703125,-0.019439857453107834,-0.005027274135500193,0.005343261174857616
1763700009358898200,11.209898193359376,-0.01724141836166382,-0.003946830052882433,0.0036436317022889853
1763700009368920300,11.21992041015625,-0.017022982239723206,-0.0027894615195691586,0.0010748954955488443
1763700009378943200,11.229943115234375,-0.015515366569161415,-0.0005894240457564592,0.001299399882555008
1763700009388965400,11.23996533203125,-0.015239449217915535,0.0005798734491690993,0.0011964237783104181
1763700009398988300,11.24998828125,-0.013592550531029701,0.002337826183065772,-0.0024225455708801746
1763700009409010200,11.26001025390625,-0.011756300926208496,0.0033439684193581343,-0.0018720701336860657
1763700009419033300,11.270033447265625,-0.013285755179822445,0.002328771399334073,-0.0010978896170854568
1763700009429055200,11.28005517578125,-0.011917460709810257,0.0027003055438399315,-0.00004300987347960472
1763700009439077400,11.290077392578125,-0.01368340291082859,0.0017887053545564413,0.00242281099781394
1763700009449100300,11.300100341796876,-0.014110352843999863,0.002617425983771682,0.004397217649966478
1763700009459122200,11.3101220703125,-0.014724744483828545,0.0019228735473006964,0.004273646976798773
1763700009469145300,11.320145263671876,-0.010792378336191177,0.001333823543973267,0.003892133943736553
1763700009479167200,11.330167236328125,-0.009237624704837799,-0.00020468466391321272,0.002186112804338336
1763700009489189400,11.340189453125,-0.00678434781730175,-0.002746479120105505,0.0029926071874797344
1763700009499212300,11.35021240234375,-0.006676756776869297,-0.006388618145138025,0.004093025345355272
1763700009509234200,11.360234130859375,-0.005829324945807457,-0.009066256694495678,0.0037522295024245977
1763700009519257300,11.37025732421875,-0.006594184786081314,-0.012127027846872807,0.0029122685082256794
1763700009529279200,11.380279296875,-0.00995258055627346,-0.010491929017007351,0.0006784405559301376
1763700009539302400,11.390302490234374,-0.008538974449038506,-0.010705248452723026,0.003938149660825729
1763700009549324300,11.40032421875,-0.002018732251599431,-0.018565228208899498,0.01281038112938404
1763700009559346200,11.41034619140625,-0.004979102406650782,-0.02616722136735916,0.020282411947846413
1763700009569369300,11.420369384765625,-0.004327706061303616,-0.022992372512817383,0.019515065476298332
1763700009579391200,11.43039111328125,-0.00026105891447514296,-0.01791718602180481,0.012902704998850822
1763700009589414400,11.440414306640625,0.0029035252518951893,-0.014331385493278503,0.009027186781167984
1763700009599436300,11.450436279296875,0.005364019889384508,-0.011671686545014381,0.0052092792466282845
1763700009609458200,11.460458251953124,0.00711066834628582,-0.00741294352337718,0.004493654239922762
1763700009619481300,11.4704814453125,0.008266746066510677,-0.004527674987912178,-0.0006816666573286057
1763700009629503200,11.480503173828126,0.009044767357409,-0.0019056869205087423,-0.0013517478946596384
1763700009639526400,11.4905263671875,0.008237829431891441,0.0021582969930022955,-0.007114295847713947
1763700009649548300,11.50054833984375,0.006152437534183264,0.0021645096130669117,-0.008535237982869148
1763700009659571200,11.5105712890625,0.005287709180265665,0.00019829769735224545,-0.008500084280967712
1763700009669593300,11.52059326171875,0.003819919191300869,-0.0015764415729790926,-0.008429833687841892
1763700009679615200,11.530615234375,0.0027972650714218616,-0.0023218602873384953,-0.008259391412138939
1763700009689638400,11.540638427734375,0.0008990269270725548,-0.005207079462707043,-0.009601450525224209
1763700009699660300,11.550660400390624,0.0006660003564320505,-0.005555686540901661,-0.008347367867827415
1763700009709683200,11.56068310546875,0.0028349764179438353,-0.007051382679492235,-0.0053828563541173935
1763700009719705300,11.570705322265624,0.003995315637439489,-0.0036558520514518023,-0.0021705515682697296
1763700009729727200,11.580727294921875,0.004574163351207972,-0.0004888299154117703,0.0004584633279591799
1763700009739750400,11.59075048828125,0.007188056129962206,0.0003378152323421091,0.00013116095215082169
1763700009749772300,11.600772216796875,0.006581062916666269,0.0043248748406767845,-0.0006839155685156584
1763700009759795200,11.610795166015626,0.007146718446165323,0.007348627783358097,0.0006870797369629145
1763700009769817300,11.6208173828125,0.006943616550415754,0.009726766496896744,-0.0009412956424057484
1763700009779840300,11.63084033203125,0.003971529193222523,0.010033030062913895,-0.0017146775498986244
1763700009789862400,11.6408623046875,0.003107458120211959,0.01219712384045124,-0.0015092894900590181
1763700009799884300,11.65088427734375,0.0011463062837719917,0.012123088352382183,-0.0022951883729547262
1763700009809907200,11.6609072265625,0.0035832140129059553,0.009690207429230213,-0.003600106108933687
1763700009819929300,11.670929443359375,0.0026180846616625786,0.00861881859600544,-0.00206772331148386
1763700009829952300,11.6809521484375,0.003386199474334717,0.005920728202909231,-0.002218840643763542
1763700009839974100,11.69097412109375,0.004929501097649336,0.004098061006516218,0.0021857614628970623
1763700009849996300,11.700996337890626,0.006700503174215555,0.005530575290322304,0.00504706148058176
1763700009860019200,11.711019287109375,0.006461883895099163,0.004877301864326,0.006822590716183186
1763700009870041300,11.721041259765625,0.005850109737366438,0.006131329573690891,0.005988960154354572
1763700009880064300,11.731064208984375,0.0064727566204965115,0.012086689472198486,0.002074379939585924
1763700009890085600,11.741085693359375,0.006762229837477207,0.017268763855099678,-0.0025335103273391724
1763700009900108500,11.751108642578124,0.0031448579393327236,0.019129514694213867,-0.005320508498698473
1763700009910130700,11.761130615234375,0.0037559950724244118,0.019634492695331573,-0.010104226879775524
1763700009920152600,11.771152587890626,0.007144867442548275,0.015262647531926632,-0.01022833026945591
1763700009930175700,11.78117578125,0.00510368449613452,0.010931901633739471,-0.009758161380887032
1763700009940197600,11.79119775390625,0.007936488837003708,0.009525752626359463,-0.006821494549512863
1763700009950220500,11.801220458984375,0.008950862102210522,0.004409481305629015,-0.00504028145223856
1763700009960242700,11.81124267578125,0.008836080320179462,0.0035511443857103586,-0.0025150724686682224
1763700009970264600,11.8212646484375,0.009163915179669857,0.004604158457368612,-0.0017669904045760632
1763700009980287700,11.831287841796875,0.011811706237494946,0.006435035262256861,-0.0038975230418145657
1763700009990309600,11.8413095703125,0.00909055769443512,0.008634311147034168,-0.004261362366378307
1763700010000332500,11.85133251953125,0.010696976445615292,0.007803937420248985,-0.0032158056274056435
1763700010010354700,11.861354736328124,0.00950939953327179,0.0062043145298957825,-0.003271704073995352
1763700010020377600,11.871377685546875,0.006847570650279522,0.003450605785474181,-0.0037063322961330414
1763700010030399700,11.881399658203126,0.004400379955768585,0.004330610856413841,-0.004937599413096905
1763700010040421600,11.891421630859375,0.0018474735552445054,0.0047892071306705475,-0.003270460292696953
1763700010050444500,11.901444580078126,0.0029010563157498837,0.005874155554920435,-0.002073639305308461
1763700010060466700,11.911466796875,0.0006496199639514089,0.0033018081448972225,-0.0016898775938898325
1763700010070489600,11.921489501953126,0.003554160241037607,0.0036514168605208397,0.0026482930406928062
1763700010080511700,11.93151171875,0.003575732000172138,0.0037901676259934902,0.003849911270663142
1763700010090533600,11.94153369140625,0.004587539006024599,0.003114119404926896,0.0032373557332903147
1763700010100556500,11.951556640625,0.003552901092916727,0.0025894767604768276,0.002116164658218622
1763700010110578700,11.96157861328125,0.005935437977313995,0.00217947899363935,0.002445303602144122
1763700010120601600,11.9716015625,0.007956776767969131,0.0027190353721380234,0.0006045266054570675
1763700010130623500,11.98162353515625,0.008422639220952988,0.00011521624401211739,0.0015360952820628881
1763700010140646700,11.991646728515626,0.008513186126947403,-0.001435808720998466,0.0033816660288721323
1763700010150668500,12.00166845703125,0.009791937656700611,-0.00032529712188988924,0.0035037354100495577
1763700010160690700,12.011690673828125,0.010641220025718212,0.0008041495457291603,0.0031996024772524834
1763700010170713600,12.021713623046875,0.01291332021355629,0.0018209295812994242,0.0023889888543635607
1763700010180735500,12.031735595703125,0.013853948563337326,0.0014773819129914045,-0.0010813763365149498
1763700010190758700,12.041758544921874,0.016660725697875023,0.0016093370504677296,-0.002248135395348072
1763700010200780500,12.051780517578125,0.01851694844663143,0.0014743147185072303,-0.0014270828105509281
1763700010210802700,12.061802734375,0.01836692914366722,0.00029689911752939224,-0.0026252984534949064
1763700010220825600,12.07182568359375,0.016287798061966896,0.0009152850834652781,-0.003845825092867017
1763700010230847500,12.081847412109376,0.015453853644430637,0.0013527371920645237,-0.005457805469632149
1763700010240870700,12.09187060546875,0.012205862440168858,0.00554055767133832,-0.006567545235157013
1763700010250892500,12.101892578125,0.011792421340942383,0.004804808646440506,-0.00711432471871376
1763700010260915700,12.111915771484375,0.010173485614359379,0.007653858512639999,-0.007138825953006744
