time,seconds_elapsed,z,y,x
1763698890681187800,0.052187744140625,-0.0879833847284317,0.09937398880720139,-0.2470201700925827
1763698890691147800,0.062147705078125,-0.06022126227617264,0.07975581288337708,-0.17449510097503662
1763698890701109000,0.07210888671875,-0.037208087742328644,0.04887246713042259,-0.09263592958450317
1763698890711069000,0.08206884765625,-0.021103421226143837,0.029589584097266197,-0.02389334887266159
1763698890721030000,0.09202978515625,-0.011811119504272938,0.02100861258804798,0.015971776098012924
1763698890730989800,0.10198974609375,-0.0036842171102762222,0.023739950731396675,0.02858424000442028
1763698890740949800,0.11194970703125,-0.0012708604335784912,0.01997211016714573,0.02388216368854046
1763698890750911000,0.121910888671875,-0.009970609098672867,-0.005160939879715443,0.006484530866146088
1763698890760871000,0.131870849609375,-0.02021072991192341,-0.0182916559278965,-0.028839902952313423
1763698890770832000,0.141831787109375,-0.02803589589893818,-0.006085323169827461,-0.06330307573080063
1763698890780792000,0.1517919921875,-0.029561620205640793,-0.000811997801065445,-0.08745954185724258
1763698890790752000,0.161751953125,-0.032394424080848694,0.0009643306257203221,-0.1109427660703659
1763698890800712700,0.171712646484375,-0.04115595668554306,0.013954165391623974,-0.12642665207386017
1763698890810673000,0.1816728515625,-0.052320729941129684,0.030593063682317734,-0.1250564455986023
1763698890820633900,0.1916337890625,-0.06005454808473587,0.04567987099289894,-0.10723298043012619
1763698890830593800,0.20159375,-0.06180770695209503,0.06316112726926804,-0.07018281519412994
1763698890840554000,0.211553955078125,-0.061162158846855164,0.07931852340698242,-0.02629658579826355
1763698890850515000,0.221514892578125,-0.0694376602768898,0.1078801304101944,0.014987205155193806
1763698890860475000,0.231474853515625,-0.07546786218881607,0.13929983973503113,0.04701198264956474
1763698890870435800,0.241435791015625,-0.084618479013443,0.15312457084655762,0.06513239443302155
1763698890880395800,0.251395751953125,-0.08244214206933975,0.15709188580513,0.06311265379190445
1763698890890355700,0.261355712890625,-0.09189343452453613,0.12181085348129272,0.031209051609039307
1763698890900317000,0.27131689453125,-0.11104316264390945,0.06494437903165817,-0.02275378257036209
1763698890910276900,0.28127685546875,-0.13455195724964142,0.016830379143357277,-0.06676571071147919
1763698890920238000,0.291238037109375,-0.15992628037929535,-0.03431536257266998,-0.0960833877325058
1763698890930198000,0.301197998046875,-0.1876543164253235,-0.0661662369966507,-0.10937362909317017
1763698890940158700,0.31115869140625,-0.2082645148038864,-0.08261418342590332,-0.113719642162323
1763698890950119000,0.321118896484375,-0.2304382622241974,-0.08276891708374023,-0.10543294996023178
1763698890960078800,0.331078857421875,-0.24638794362545013,-0.0945720449090004,-0.08710667490959167
1763698890970039800,0.341039794921875,-0.2551577389240265,-0.10665533691644669,-0.07252001017332077
1763698890980000000,0.351,-0.2591007947921753,-0.10476795583963394,-0.06587541848421097
1763698890989961000,0.3609609375,-0.25702592730522156,-0.09843815863132477,-0.05855199322104454
1763698890999921000,0.3709208984375,-0.2496843934059143,-0.1014896035194397,-0.04736778140068054
1763698891009880800,0.380880859375,-0.23848581314086914,-0.11870827525854111,-0.039332758635282516
1763698891019841800,0.390841796875,-0.23562051355838776,-0.13812857866287231,-0.03758945316076279
1763698891029801700,0.4008017578125,-0.242515429854393,-0.17684587836265564,-0.03220507502555847
1763698891039763000,0.410762939453125,-0.24909263849258423,-0.2362130731344223,-0.03394971042871475
1763698891049723000,0.420722900390625,-0.2546807527542114,-0.2973397970199585,-0.05402328819036484
1763698891059683800,0.430683837890625,-0.274845153093338,-0.3338610529899597,-0.08404696732759476
1763698891069644300,0.440644287109375,-0.33436813950538635,-0.46662577986717224,-0.09881792217493057
1763698891079604500,0.4506044921875,-0.4087986946105957,-0.4195120632648468,-0.12413313239812851
1763698891089565200,0.460565185546875,-0.4122815728187561,-0.3465576767921448,-0.14130839705467224
1763698891099525000,0.470525146484375,-0.35835495591163635,-0.39280587434768677,-0.12474513053894043
1763698891109486300,0.480486328125,-0.31377631425857544,-0.44750240445137024,-0.11336597055196762
1763698891119446300,0.4904462890625,-0.28047239780426025,-0.4286738634109497,-0.12830737233161926
1763698891129406200,0.50040625,-0.24846521019935608,-0.38676929473876953,-0.13293328881263733
1763698891139367400,0.510367431640625,-0.20115627348423004,-0.36092278361320496,-0.10003898292779922
1763698891149327400,0.520327392578125,-0.15084649622440338,-0.3280330002307892,-0.04749561473727226
1763698891159288000,0.5302880859375,-0.12084253132343292,-0.26038259267807007,0.004434429574757814
1763698891169248300,0.540248291015625,-0.09622347354888916,-0.18555015325546265,0.03834738954901695
1763698891179209200,0.550209228515625,-0.06102553755044937,-0.11492525041103363,0.05096384882926941
1763698891189169200,0.560169189453125,-0.03530552610754967,-0.04470222443342209,0.05420438200235367
1763698891199129300,0.57012939453125,-0.026549851521849632,0.014838334172964096,0.0655321404337883
1763698891209090300,0.58009033203125,-0.022468024864792824,0.04984185844659805,0.07263665646314621
1763698891219050200,0.59005029296875,-0.020007530227303505,0.04923092946410179,0.061461228877305984
1763698891229011200,0.60001123046875,-0.012473713606595993,0.025366609916090965,0.027125893160700798
1763698891238971100,0.60997119140625,0.006256564520299435,-0.016891898587346077,-0.02912992238998413
1763698891248931000,0.61993115234375,0.032157402485609055,-0.08173055201768875,-0.09526180475950241
1763698891258892300,0.629892333984375,0.045578137040138245,-0.1419544816017151,-0.13012418150901794
1763698891268852200,0.639852294921875,0.05464380234479904,-0.19981005787849426,-0.1291838139295578
1763698891278813400,0.6498134765625,0.062435947358608246,-0.22721317410469055,-0.09509162604808807
1763698891288773400,0.6597734375,0.06659819930791855,-0.21931850910186768,-0.03696440905332565
1763698891298734000,0.669734130859375,0.08127807825803757,-0.17973114550113678,0.02563239261507988
1763698891308694300,0.6796943359375,0.15178313851356506,-0.09192965924739838,0.07012555748224258
1763698891318654200,0.689654296875,0.18209443986415863,-0.02678740583360195,0.12633822858333588
1763698891328615200,0.699615234375,0.18397969007492065,0.07156340032815933,0.15409183502197266
1763698891338575400,0.709575439453125,0.17642323672771454,0.18957020342350006,0.1433134824037552
1763698891348536300,0.719536376953125,0.16962631046772003,0.27248796820640564,0.11950802057981491
1763698891358496300,0.729496337890625,0.14305755496025085,0.3081943094730377,0.09422530233860016
1763698891368456400,0.73945654296875,0.10218335688114166,0.30091002583503723,0.061947256326675415
1763698891378417200,0.749417236328125,0.06131608784198761,0.2751591205596924,0.02798103354871273
1763698891388377000,0.759377197265625,0.04519996792078018,0.21409843862056732,-0.010976218618452549
1763698891398338300,0.76933837890625,0.054486945271492004,0.14543628692626953,-0.044683583080768585
1763698891408298200,0.77929833984375,0.07457730174064636,0.07747162133455276,-0.0670650526881218
1763698891418258200,0.789258056640625,0.09372702240943909,0.021586518734693527,-0.08431221544742584
1763698891428219400,0.799219482421875,0.10096283257007599,-0.00643899105489254,-0.08290527015924454
1763698891438179300,0.809179443359375,0.09440986067056656,-0.022531939670443535,-0.0637773796916008
1763698891448140300,0.819140380859375,0.08534818887710571,-0.00040240364614874125,-0.031033016741275787
1763698891458100200,0.829100341796875,0.0741482600569725,0.03909893333911896,0.004488225560635328
1763698891468061200,0.839061279296875,0.06100263446569443,0.08101575821638107,0.03315822035074234
1763698891478021400,0.849021484375,0.042092859745025635,0.13078464567661285,0.051122039556503296
1763698891487981300,0.858981201171875,0.02947719767689705,0.18486279249191284,0.057377006858587265
1763698891497942300,0.8689423828125,0.02034628391265869,0.22553804516792297,0.062490008771419525
1763698891507902500,0.87890234375,0.01495045330375433,0.23446549475193024,0.07452403753995895
1763698891517863200,0.88886328125,0.020618192851543427,0.22285331785678864,0.08341792970895767
1763698891527823000,0.898822998046875,0.03627438470721245,0.1801476627588272,0.08404111117124557
1763698891537783300,0.908783203125,0.05158622935414314,0.12860004603862762,0.08237183839082718
1763698891547744300,0.918744140625,0.06186043843626976,0.07095939666032791,0.06628821045160294
1763698891557704200,0.9287041015625,0.06716039776802063,0.032098013907670975,0.042638275772333145
1763698891567665400,0.93866552734375,0.06724321842193604,0.019340941682457924,0.02563931606709957
1763698891577625300,0.948625244140625,0.07258658856153488,0.0033135050907731056,0.022178273648023605
1763698891587586000,0.9585859375,0.07277700304985046,0.017373930662870407,0.030759509652853012
1763698891597546200,0.968546142578125,0.0653422549366951,0.05985641106963158,0.05065838247537613
1763698891607506200,0.978506103515625,0.055503737181425095,0.09973804652690887,0.06792179495096207
1763698891617467100,0.988467041015625,0.03681527078151703,0.13730619847774506,0.08127567917108536
1763698891627427300,0.99842724609375,0.01932016760110855,0.16362062096595764,0.0763256624341011
1763698891637388300,1.00838818359375,0.00276196445338428,0.19003678858280182,0.07408913969993591
1763698891647348200,1.01834814453125,0.0023667511995881796,0.20749379694461823,0.07805219292640686
1763698891657309200,1.02830908203125,0.014523815363645554,0.20846745371818542,0.08492154628038406
1763698891667269000,1.03826904296875,0.022669093683362007,0.17862913012504578,0.09676063060760498
1763698891677229000,1.04822900390625,0.029318207874894142,0.164956733584404,0.09546393901109695
1763698891687190300,1.058190185546875,0.037696778774261475,0.16412076354026794,0.07491152733564377
1763698891697150200,1.068150146484375,0.03550206869840622,0.15018869936466217,0.04463804140686989
1763698891707111400,1.078111328125,0.028600752353668213,0.13193379342556,0.009338374249637127
1763698891717071400,1.0880712890625,0.016938237473368645,0.12017408013343811,-0.023728232830762863
1763698891727031300,1.09803125,0.011263040825724602,0.11419208347797394,-0.049666356295347214
1763698891736992300,1.1079921875,0.01727219671010971,0.11690264940261841,-0.0691673532128334
1763698891746952200,1.1179521484375,0.035903673619031906,0.11586987972259521,-0.0852014496922493
1763698891756913200,1.1279130859375,0.05837862193584442,0.10823220014572144,-0.10378152132034302
1763698891766873300,1.137873291015625,0.07579170167446136,0.11392257362604141,-0.12778006494045258
1763698891776834300,1.147834228515625,0.0904097929596901,0.12130192667245865,-0.1421925574541092
1763698891786794200,1.157794189453125,0.11037711054086685,0.1005585640668869,-0.14449086785316467
1763698891796754400,1.16775439453125,0.12302206456661224,0.08378517627716064,-0.1290770322084427
1763698891806715100,1.177715087890625,0.13365580141544342,0.09037596732378006,-0.10177509486675262
1763698891816675000,1.187675048828125,0.08588001877069473,0.22179044783115387,-0.05414712429046631
1763698891826636300,1.19763623046875,0.14593084156513214,0.29742929339408875,-0.03133102506399155
1763698891836596200,1.20759619140625,0.22929629683494568,0.27061551809310913,-0.0008431567694060504
1763698891846556200,1.21755615234375,0.29343026876449585,0.2725822627544403,0.016891099512577057
1763698891856517400,1.227517333984375,0.3163723349571228,0.3234712779521942,0.00820999313145876
1763698891866477300,1.237477294921875,0.3021326959133148,0.4069453775882721,-0.017682325094938278
1763698891876438300,1.247438232421875,0.25601926445961,0.5112425088882446,-0.01793026365339756
1763698891886398200,1.257398193359375,0.19372978806495667,0.6063961982727051,0.008464857004582882
1763698891896359200,1.267359130859375,0.13694800436496735,0.670362651348114,0.04315252974629402
1763698891906319400,1.2773193359375,0.1034851148724556,0.7014135122299194,0.0691111609339714
1763698891916279300,1.287279296875,0.07434054464101791,0.7133716344833374,0.08013211935758591
1763698891926240300,1.297240234375,0.05101045221090317,0.7395275831222534,0.05625768005847931
1763698891936200400,1.307200439453125,0.05595194920897484,0.5688338875770569,0.030554980039596558
1763698891946161200,1.3171611328125,0.08106262981891632,0.35337403416633606,-0.02797144651412964
1763698891956121000,1.32712109375,0.1148858368396759,0.1265840381383896,-0.09295976907014847
1763698891966081300,1.337081298828125,0.1642720252275467,-0.02610830031335354,-0.15190750360488892
1763698891976042200,1.347042236328125,0.2186412662267685,-0.04376319423317909,-0.2156931459903717
1763698891986002200,1.357002197265625,0.2990990877151489,-0.10008744895458221,-0.27138063311576843
1763698891995963400,1.36696337890625,0.3740231394767761,-0.13902606070041656,-0.3246294856071472
1763698892005923300,1.37692333984375,0.40940961241722107,-0.142242893576622,-0.3689439594745636
1763698892015884300,1.38688427734375,0.4328691363334656,-0.15116821229457855,-0.4074806869029999
1763698892025844200,1.39684423828125,0.4369767904281616,-0.12392140924930573,-0.4576953947544098
1763698892035804200,1.40680419921875,0.4493330717086792,-0.10412773489952087,-0.5052335858345032
1763698892045765000,1.41676513671875,0.47425758838653564,-0.0826360210776329,-0.5494423508644104
1763698892055725300,1.426725341796875,0.5465844869613647,-0.192305788397789,-0.5726369023323059
1763698892065686300,1.436686279296875,0.6277246475219727,-0.4396609961986542,-0.5568661689758301
1763698892075646000,1.44664599609375,0.6327721476554871,-0.6322914361953735,-0.5308796167373657
1763698892085607200,1.456607177734375,0.610298752784729,-0.773178219795227,-0.5551322102546692
1763698892095567000,1.466567138671875,0.586237370967865,-0.8671894073486328,-0.6281337141990662
1763698892105527000,1.476527099609375,0.5949411392211914,-0.8957880735397339,-0.74277263879776
1763698892115488000,1.486488037109375,0.5813233256340027,-0.8330681920051575,-0.8666959404945374
1763698892125448000,1.496447998046875,0.5435463786125183,-0.6621640920639038,-0.949131429195404
1763698892135409200,1.5064091796875,0.4977962076663971,-0.5146694779396057,-0.9563214182853699
1763698892145369000,1.516369140625,0.43635281920433044,-0.5053350925445557,-0.8786482214927673
1763698892155329000,1.5263291015625,0.3553597033023834,-0.47292467951774597,-0.7390921711921692
1763698892165290200,1.536290283203125,0.27252259850502014,-0.44005459547042847,-0.5591477155685425
1763698892175250200,1.546250244140625,0.18702608346939087,-0.36085033416748047,-0.36708638072013855
1763698892185211000,1.5562109375,0.10077747702598572,-0.211785227060318,-0.20880994200706482
1763698892195171000,1.566171142578125,-0.005565207917243242,-0.022756977006793022,-0.117464579641819
1763698892205132000,1.576132080078125,-0.14250041544437408,0.10389870405197144,-0.10306060314178467
1763698892215092000,1.586092041015625,-0.26686763763427734,0.0961126834154129,-0.16911578178405762
1763698892225052200,1.59605224609375,-0.3180626630783081,0.014120612293481827,-0.3186051547527313
1763698892235013000,1.60601318359375,-0.2577495276927948,-0.021750569343566895,-0.5271626114845276
1763698892244973000,1.61597314453125,-0.12624315917491913,0.01611904799938202,-0.7265691757202148
1763698892254934000,1.62593408203125,0.05497882887721062,0.0065172878094017506,-0.8857825398445129
1763698892264894000,1.63589404296875,0.25413161516189575,-0.038241662085056305,-0.981484591960907
1763698892274855200,1.645855224609375,0.42116934061050415,-0.0892113670706749,-1.003896951675415
1763698892284815000,1.655815185546875,0.50173419713974,-0.1173013225197792,-0.9115251898765564
1763698892294775000,1.665775146484375,0.48628708720207214,-0.1387578845024109,-0.7022625207901001
1763698892304736300,1.675736328125,0.37612995505332947,-0.14033900201320648,-0.4157218337059021
1763698892314696200,1.6856962890625,0.1744391769170761,-0.15574884414672852,-0.12883281707763672
1763698892324657000,1.695656982421875,-0.0548134483397007,-0.10207629948854446,0.08341393619775772
1763698892334617000,1.7056171875,-0.06488419324159622,0.11903397738933563,0.1819266527891159
1763698892344577000,1.715576904296875,0.07887724041938782,0.3605800271034241,0.23204894363880157
1763698892354538000,1.7255380859375,0.12242338061332703,0.4335272014141083,0.2616497278213501
1763698892364498200,1.735498291015625,-0.02346963994204998,0.5120552778244019,0.25377315282821655
1763698892374459100,1.745459228515625,-0.20043349266052246,0.5541535019874573,0.1992100477218628
1763698892384419000,1.755419189453125,-0.26747164130210876,0.6420955657958984,0.10221531987190247
1763698892394380000,1.765380126953125,-0.27667152881622314,0.4500713050365448,0.006897320970892906
1763698892404340000,1.775340087890625,-0.2990034818649292,0.3204115629196167,-0.10639834403991699
1763698892414300000,1.7852998046875,-0.13419508934020996,0.39445677399635315,-0.2488044947385788
1763698892424261000,1.79526123046875,0.048238903284072876,0.3241144120693207,-0.35293835401535034
1763698892434221000,1.805220947265625,0.1616823673248291,0.20581574738025665,-0.41867661476135254
1763698892444182000,1.81518212890625,0.29534295201301575,0.25781023502349854,-0.4275952875614166
1763698892454142200,1.82514208984375,0.3850986957550049,0.4514657258987427,-0.28933754563331604
1763698892464103000,1.83510302734375,0.5107061266899109,0.47108736634254456,-0.055623315274715424
1763698892474062800,1.845062744140625,0.7167109847068787,0.5778396129608154,0.16997279226779938
1763698892484023000,1.85502294921875,0.8539247512817383,0.5211648941040039,0.3551274538040161
1763698892493984000,1.86498388671875,0.9074822664260864,0.4603055417537689,0.48898380994796753
1763698892503944000,1.87494384765625,0.8782263398170471,0.4669000804424286,0.5137245655059814
1763698892513905200,1.8849052734375,0.7771671414375305,0.42660805583000183,0.4127063453197479
1763698892523865000,1.894864990234375,0.6221519708633423,0.3736684024333954,0.2391582578420639
1763698892533825000,1.904824951171875,0.43391042947769165,0.37153226137161255,0.040537040680646896
1763698892543786000,1.914785888671875,0.26314935088157654,0.317923367023468,-0.1367674320936203
1763698892553746000,1.924745849609375,0.15613846480846405,0.2136973738670349,-0.30618762969970703
1763698892563707100,1.93470703125,0.13602441549301147,0.066984623670578,-0.4277132451534271
1763698892573667000,1.9446669921875,0.1727352887392044,-0.048890043050050735,-0.4690564274787903
1763698892583628000,1.9546279296875,0.20739206671714783,0.011247328482568264,-0.38722389936447144
1763698892593588200,1.964588134765625,0.2047659307718277,0.04360393434762955,-0.2535092234611511
1763698892603548200,1.974548095703125,0.16364938020706177,0.1519932597875595,-0.13203765451908112
1763698892613508900,1.9845087890625,0.07231733947992325,0.24254447221755981,-0.02016092836856842
1763698892623469000,1.994468994140625,-0.03863314539194107,0.2756528854370117,0.03552230820059776
1763698892633430000,2.004429931640625,-0.13461799919605255,0.262069433927536,0.03293211758136749
1763698892643390000,2.014389892578125,-0.17623281478881836,0.3237170875072479,-0.028181036934256554
1763698892653351200,2.02435107421875,-0.09871432930231094,0.4677882492542267,-0.0998067557811737
1763698892663311000,2.03431103515625,0.054960720241069794,0.5783661603927612,-0.11772903054952621
1763698892673271000,2.04427099609375,0.17434915900230408,0.5730113387107849,-0.045394379645586014
1763698892683232000,2.05423193359375,0.2041797637939453,0.46993473172187805,0.08188794553279877
1763698892693192000,2.06419189453125,0.16883695125579834,0.3534768521785736,0.1934663951396942
1763698892703153200,2.074153076171875,0.12470091879367828,0.23670920729637146,0.22326743602752686
1763698892713113000,2.084113037109375,0.08387758582830429,0.13929690420627594,0.15450169146060944
1763698892723073000,2.094072998046875,0.03545546159148216,0.01101589947938919,0.0037920749746263027
1763698892733034200,2.1040341796875,-0.04737390577793121,-0.2364644706249237,-0.1894165277481079
1763698892742994200,2.113994140625,-0.1827692836523056,-0.5518051385879517,-0.380725234746933
1763698892752955000,2.123954833984375,-0.3057466149330139,-0.6971293091773987,-0.5790018439292908
1763698892762915000,2.1339150390625,-0.25566667318344116,-0.6355825662612915,-0.8244659304618835
1763698892772876000,2.1438759765625,-0.03818946331739426,-0.00022184131375979632,-1.038275957107544
1763698892782836000,2.1538359375,0.16397854685783386,0.688890814781189,-1.0989582538604736
1763698892792796200,2.163796142578125,0.399738609790802,1.0362391471862793,-0.9794696569442749
1763698892802757000,2.173757080078125,0.4881736636161804,1.4695059061050415,-0.7043735980987549
1763698892812717000,2.183717041015625,0.5520448088645935,2.02763032913208,-0.3254398703575134
1763698892822678000,2.193677978515625,0.7552649974822998,2.1596789360046387,0.11010333150625229
1763698892832638000,2.203637939453125,0.9761060476303101,1.7016688585281372,0.46643880009651184
1763698892842599000,2.213598876953125,1.07318913936615,0.7504318952560425,0.6929275989532471
1763698892852559000,2.22355908203125,1.026456594467163,0.27859994769096375,0.7892176508903503
1763698892862519000,2.23351904296875,0.7981067895889282,0.04057219251990318,0.7095209956169128
1763698892872480000,2.24347998046875,0.4148049056529999,-0.2219579666852951,0.49069780111312866
1763698892882440200,2.253440185546875,0.008840363472700119,-0.824292004108429,0.18168750405311584
1763698892892401000,2.26340087890625,-0.2859763503074646,-1.3271514177322388,-0.14629516005516052
1763698892902360800,2.27336083984375,-0.35118386149406433,-1.3722100257873535,-0.39592310786247253
1763698892912322000,2.283322021484375,-0.2196900099515915,-1.3570581674575806,-0.6336946487426758
1763698892922282000,2.293281982421875,-0.062442339956760406,-1.4419916868209839,-0.7997017502784729
1763698892932242000,2.303241943359375,0.041554369032382965,-1.0874186754226685,-0.7957253456115723
1763698892942203100,2.313203125,0.09622213989496231,-0.7811445593833923,-0.7466725707054138
1763698892952163000,2.3231630859375,0.0679984912276268,-0.5953909158706665,-0.5875551104545593
1763698892962124000,2.3331240234375,0.03317553177475929,-0.37711718678474426,-0.3412236273288727
1763698892972084000,2.343083984375,0.010087521746754646,-0.26198819279670715,-0.07605668157339096
1763698892982045000,2.353044921875,-0.010093380697071552,-0.17381839454174042,0.12054239213466644
1763698892992005000,2.363005126953125,-0.026873692870140076,0.19247864186763763,0.2651999890804291
1763698893001965000,2.372965087890625,-0.010962369851768017,0.28091663122177124,0.2938196361064911
1763698893011926000,2.382926025390625,-0.023661918938159943,0.316056489944458,0.2560642659664154
1763698893021886200,2.39288623046875,-0.06692097336053848,0.5633025169372559,0.2212463617324829
1763698893031847000,2.402846923828125,-0.04590144380927086,0.4420889914035797,0.152926966547966
1763698893041806800,2.412806884765625,0.01465537492185831,0.22870081663131714,0.0725836530327797
1763698893051767000,2.42276708984375,0.07785884290933609,0.09316456317901611,-0.003570233704522252
1763698893061728000,2.43272802734375,0.1166592389345169,-0.017858626320958138,-0.05251220986247063
1763698893071688700,2.442688720703125,0.14252811670303345,-0.14178350567817688,-0.08999434113502502
1763698893081649700,2.452649658203125,0.16369092464447021,-0.2414616197347641,-0.08382352441549301
1763698893091609600,2.462609619140625,0.211878702044487,-0.2850586473941803,-0.029749106615781784
1763698893101570600,2.472570556640625,0.33265092968940735,-0.33432233333587646,0.07141426205635071
1763698893111530500,2.482530517578125,0.5056765079498291,-0.3526552617549896,0.20033521950244904
1763698893121490400,2.492490478515625,0.6603267788887024,-0.2985483407974243,0.27924948930740356
1763698893131451600,2.50245166015625,0.7536205053329468,-0.2527236044406891,0.30475857853889465
1763698893141411600,2.51241162109375,0.7347102165222168,-0.23103109002113342,0.31420665979385376
1763698893151372500,2.52237255859375,0.6367937922477722,-0.15512967109680176,0.24988201260566711
1763698893161332500,2.53233251953125,0.5107066631317139,-0.05977198854088783,0.15427079796791077
1763698893171293400,2.54229345703125,0.38446006178855896,-0.01500904280692339,0.04925995692610741
1763698893181253600,2.552253662109375,0.30157262086868286,-0.026334401220083237,-0.019403258338570595
1763698893191213600,2.562213623046875,0.2877945005893707,-0.059660665690898895,-0.032035164535045624
1763698893201174500,2.572174560546875,0.3300572633743286,-0.1817607432603836,0.009534915909171104
1763698893211134700,2.582134765625,0.3749541640281677,-0.3275613486766815,0.09723973274230957
1763698893221095700,2.592095703125,0.4018811285495758,-0.4189639687538147,0.19110897183418274
1763698893231055600,2.6020556640625,0.4033932685852051,-0.44701850414276123,0.26937153935432434
1763698893241016600,2.6120166015625,0.3752191662788391,-0.4200926125049591,0.33271270990371704
1763698893250976500,2.6219765625,0.3373103737831116,-0.3825601637363434,0.37373682856559753
1763698893260936400,2.6319365234375,0.299874871969223,-0.3391634225845337,0.3961673080921173
1763698893270897700,2.641897705078125,0.2617029845714569,-0.31818488240242004,0.4074532687664032
1763698893280857600,2.651857666015625,0.2168460190296173,-0.34469667077064514,0.417145311832428
1763698893290818600,2.661818603515625,0.16709497570991516,-0.41592344641685486,0.41869792342185974
1763698893300778800,2.67177880859375,0.12578269839286804,-0.46301159262657166,0.4108101725578308
1763698893310739500,2.681739501953125,0.11423203349113464,-0.4728357195854187,0.3956455886363983
1763698893320699400,2.691699462890625,0.15350833535194397,-0.4660167098045349,0.36417022347450256
1763698893330659600,2.70165966796875,0.2081657201051712,-0.43991345167160034,0.3167036473751068
1763698893340620500,2.71162060546875,0.2555401623249054,-0.37233415246009827,0.2532751262187958
1763698893350580500,2.72158056640625,0.2789645195007324,-0.313362181186676,0.19241392612457275
1763698893360541700,2.731541748046875,0.26542848348617554,-0.2560400366783142,0.15836673974990845
1763698893370501600,2.741501708984375,0.2502814829349518,-0.21105897426605225,0.15659120678901672
1763698893380462600,2.751462646484375,0.2602939009666443,-0.15045687556266785,0.1801588535308838
1763698893390422500,2.761422607421875,0.26855742931365967,-0.04384255409240723,0.22125409543514252
1763698893400382500,2.771382568359375,0.26796993613243103,0.03735535964369774,0.2502889335155487
1763698893410343700,2.78134375,0.19571010768413544,0.08171270787715912,0.25957006216049194
1763698893420303600,2.7913037109375,-0.0022000374738126993,0.09691429883241653,0.21613097190856934
1763698893430264600,2.8012646484375,-0.15811985731124878,0.13685478270053864,0.16861803829669952
1763698893440224800,2.811224853515625,-0.13860101997852325,0.07619223743677139,0.12399571388959885
1763698893450185500,2.821185546875,0.02533598244190216,-0.08409010618925095,0.07360631227493286
1763698893460145400,2.8311455078125,0.19641798734664917,-0.30996719002723694,0.002302036387845874
1763698893470105600,2.841105712890625,0.3112311065196991,-0.3605584502220154,-0.09236321598291397
1763698893480066600,2.851066650390625,0.35128718614578247,-0.21865670382976532,-0.20104362070560455
1763698893490026500,2.861026611328125,0.3671734929084778,-0.037528734654188156,-0.31759127974510193
1763698893499987700,2.87098779296875,0.3667446970939636,0.19077341258525848,-0.41840577125549316
1763698893509947600,2.88094775390625,0.33213746547698975,0.4112948775291443,-0.47525522112846375
1763698893519908600,2.89090869140625,0.2497943937778473,0.5417311787605286,-0.465452641248703
1763698893529868500,2.90086865234375,0.11638359725475311,0.505828857421875,-0.3885493278503418
1763698893539828500,2.910828369140625,0.03635401278734207,0.27858954668045044,-0.2796612083911896
1763698893549789700,2.920789794921875,0.0722385123372078,-0.06767172366380692,-0.17953434586524963
1763698893559749600,2.93074951171875,0.11604644358158112,-0.32877975702285767,-0.09743627160787582
1763698893569710600,2.940710693359375,0.044433243572711945,-0.3223561942577362,-0.04095995053648949
1763698893579670800,2.9506708984375,-0.03292998671531677,-0.40705353021621704,-0.05583636835217476
1763698893589631500,2.960631591796875,-0.10236845165491104,-0.74845290184021,-0.13486513495445251
1763698893599591400,2.97059130859375,-0.17548847198486328,-1.2025588750839233,-0.2479320466518402
1763698893609551600,2.980551513671875,-0.5125535726547241,-1.4287028312683105,-0.3533940315246582
1763698893619512600,2.9905126953125,-0.6398995518684387,-1.3711804151535034,-0.43239641189575195
1763698893629472500,3.000472412109375,-0.540131688117981,-1.3234189748764038,-0.5013704299926758
1763698893639433700,3.010433837890625,-0.36615028977394104,-1.5225517749786377,-0.6063570380210876
1763698893649393700,3.0203935546875,-0.2265218198299408,-1.9875272512435913,-0.7646042108535767
1763698893659354400,3.030354248046875,-0.2694506347179413,-2.46366024017334,-0.9657548666000366
1763698893669314600,3.040314453125,-0.35325127840042114,-2.6706619262695312,-1.1229248046875
1763698893679274500,3.0502744140625,-0.41783905029296875,-2.4059929847717285,-1.217092514038086
1763698893689235500,3.0602353515625,-0.44290924072265625,-1.4999573230743408,-1.1432486772537231
1763698893699195600,3.070195556640625,-0.3129800260066986,-1.1389466524124146,-0.9026917815208435
1763698893709156600,3.080156494140625,0.2766835391521454,-2.024289131164551,-0.3614197075366974
1763698893719116500,3.090116455078125,1.0054341554641724,-2.947706460952759,0.2631448209285736
1763698893729077500,3.100077392578125,1.1618263721466064,-2.8295857906341553,0.6223069429397583
1763698893739037400,3.110037353515625,1.1632437705993652,-2.174023151397705,0.8688129186630249
1763698893748997400,3.119997314453125,1.258988857269287,-1.1553069353103638,1.1900420188903809
1763698893758958600,3.12995849609375,1.3631584644317627,-0.2233223021030426,1.4579267501831055
1763698893768918500,3.13991845703125,1.3595716953277588,0.6304442882537842,1.4811428785324097
1763698893778879700,3.149879638671875,1.2968971729278564,1.2297217845916748,1.2023706436157227
1763698893788839700,3.159839599609375,1.2112306356430054,1.4528553485870361,0.7899678945541382
1763698893798799600,3.169799560546875,0.9665743112564087,1.186956763267517,0.5034351944923401
1763698893808760600,3.179760498046875,0.6825756430625916,1.061442494392395,0.5073375105857849
1763698893818720500,3.189720458984375,0.5064602494239807,0.6106186509132385,0.6499399542808533
1763698893828681500,3.199681396484375,0.48268115520477295,0.4122711718082428,0.7075505256652832
1763698893838641700,3.2096416015625,0.5466878414154053,0.17670845985412598,0.6516571640968323
1763698893848602600,3.2196025390625,0.6180925369262695,-0.20050939917564392,0.5588300228118896
1763698893858562600,3.2295625,0.7012060284614563,-0.4663679599761963,0.4819181561470032
1763698893868522800,3.239522705078125,0.7573691606521606,-0.5045257210731506,0.5074592232704163
1763698893878483500,3.2494833984375,0.7496904730796814,-0.3616167902946472,0.6528398394584656
1763698893888443400,3.259443359375,0.6739757657051086,-0.21021315455436707,0.8205404281616211
1763698893898404600,3.269404541015625,0.5769072771072388,-0.17069929838180542,0.9181327819824219
1763698893908364500,3.279364501953125,0.5126292109489441,-0.2566469609737396,0.8830251097679138
1763698893918325800,3.28932568359375,0.5146209597587585,-0.32910919189453125,0.7279026508331299
1763698893928285700,3.29928564453125,0.6162996888160706,-0.2926523685455322,0.538422167301178
1763698893938246400,3.309246337890625,0.797677218914032,-0.26691797375679016,0.38858476281166077
1763698893948206600,3.31920654296875,0.9834944605827332,-0.232537642121315,0.3598268926143646
1763698893958166500,3.32916650390625,1.0817863941192627,-0.07829267531633377,0.49397775530815125
1763698893968127500,3.33912744140625,1.1408934593200684,0.08135717362165451,0.6399943828582764
1763698893978087700,3.349087646484375,1.113276481628418,0.059564258903265,0.6676906943321228
1763698893988048600,3.359048583984375,1.0389620065689087,0.2464342713356018,0.6126290559768677
1763698893998008600,3.369008544921875,0.9332504868507385,0.4227912127971649,0.5249074697494507
1763698894007969500,3.378969482421875,0.8164024353027344,0.3950623571872711,0.41471409797668457
1763698894017929500,3.388929443359375,0.8560912609100342,0.5798372626304626,0.3907504379749298
1763698894027889400,3.398889404296875,0.953095018863678,0.7825493812561035,0.36388102173805237
1763698894037850600,3.4088505859375,1.1335608959197998,0.7838807106018066,0.32823434472084045
1763698894047810600,3.418810546875,1.2112232446670532,1.006879448890686,0.3193007707595825
1763698894057771800,3.428771728515625,1.2052348852157593,1.6054400205612183,0.4503551721572876
1763698894067731700,3.438731689453125,1.2758983373641968,2.169463634490967,0.5950306057929993
1763698894077692400,3.4486923828125,0.9889957308769226,2.283456325531006,0.7172838449478149
1763698894087652400,3.45865234375,0.748444139957428,2.0707409381866455,0.8022453188896179
1763698894097612300,3.4686123046875,0.5916798114776611,1.7430429458618164,0.8338197469711304
1763698894107573500,3.478573486328125,0.6686113476753235,1.6840109825134277,0.7354713678359985
1763698894117533400,3.488533447265625,0.9496169090270996,1.6093785762786865,0.573455810546875
1763698894127494400,3.498494384765625,1.13744056224823,1.3234238624572754,0.4279971420764923
1763698894137454600,3.50845458984375,1.2347639799118042,0.8487592935562134,0.2898688316345215
1763698894147415300,3.518415283203125,1.3748891353607178,0.2972186207771301,0.2226192206144333
1763698894157375200,3.528375244140625,1.539110541343689,-0.20517019927501678,0.20620882511138916
1763698894167335400,3.53833544921875,1.6416409015655518,-0.7560101747512817,0.1733185201883316
1763698894177296400,3.54829638671875,1.5162163972854614,-1.5908457040786743,0.02094309777021408
1763698894187256300,3.55825634765625,1.3365265130996704,-1.9463531970977783,-0.058214835822582245
1763698894197217500,3.568217529296875,0.9076439142227173,-1.7174869775772095,0.01914386637508869
1763698894207177500,3.578177490234375,0.29792195558547974,-1.9902684688568115,0.053705040365457535
1763698894217138200,3.58813818359375,0.02123737707734108,-2.2263245582580566,0.2147703617811203
1763698894227098400,3.598098388671875,0.23616166412830353,-1.4570907354354858,0.5206924676895142
1763698894237058300,3.608058349609375,0.8350551724433899,-0.2859742343425751,0.7335653305053711
1763698894247019300,3.618019287109375,1.3832151889801025,0.2604323923587799,0.6365056037902832
1763698894256979500,3.6279794921875,1.639907956123352,0.6991045475006104,0.4770331382751465
1763698894266940400,3.6379404296875,1.6378142833709717,1.081311583518982,0.40897685289382935
1763698894276900400,3.647900390625,1.5148015022277832,1.2823165655136108,0.4153290092945099
1763698894286861300,3.657861328125,1.2656420469284058,1.5286123752593994,0.5459445714950562
1763698894296821200,3.6678212890625,1.033331036567688,1.860705852508545,0.9986265301704407
1763698894306781200,3.67778125,0.9508553147315979,1.429269790649414,1.3990551233291626
1763698894316742400,3.687742431640625,1.1060954332351685,1.7157878875732422,1.2175391912460327
1763698894326702300,3.697702392578125,1.2323464155197144,2.328554391860962,1.1880455017089844
1763698894336663600,3.70766357421875,1.2902560234069824,1.5400863885879517,1.759218692779541
1763698894346623500,3.71762353515625,0.9437111020088196,0.7405539751052856,0.5285913944244385
1763698894356584200,3.727584228515625,1.069060206413269,0.926201343536377,0.25434520840644836
1763698894366544400,3.73754443359375,0.9923686385154724,0.18682155013084412,0.09369239956140518
1763698894376505300,3.74750537109375,1.1423474550247192,0.08202802389860153,0.22607147693634033
1763698894386465300,3.75746533203125,1.1800380945205688,-0.09098130464553833,0.20046038925647736
1763698894396425500,3.767425537109375,1.1508562564849854,-0.212515190243721,0.16015131771564484
1763698894406386400,3.777386474609375,1.0537896156311035,-0.28037014603614807,0.12372806668281555
1763698894416346400,3.787346435546875,0.9076063632965088,-0.3464338481426239,0.06721099466085434
1763698894426307300,3.797307373046875,0.7319290637969971,-0.2305208295583725,0.1311662793159485
1763698894436267300,3.807267333984375,0.7556418776512146,-0.03476889804005623,0.2613453269004822
1763698894446228500,3.817228515625,0.9040164351463318,0.23646792769432068,0.34749430418014526
1763698894456188400,3.8271884765625,1.0561596155166626,0.24678555130958557,0.2832338511943817
1763698894466148400,3.8371484375,1.1173723936080933,0.13536714017391205,0.2605556845664978
1763698894476109600,3.847109619140625,1.1332600116729736,-0.11251482367515564,0.27463316917419434
1763698894486069500,3.857069580078125,1.096842885017395,-0.3731442987918854,0.31516993045806885
1763698894496030200,3.8670302734375,0.8937784433364868,-0.469970166683197,0.35622334480285645
1763698894505990400,3.876990478515625,0.6359543204307556,-0.5333307385444641,0.3899754583835602
1763698894515951400,3.886951416015625,0.4042145907878876,-0.6094604134559631,0.3567884862422943
1763698894525911300,3.896911376953125,0.2379148304462433,-0.9834166765213013,0.17536543309688568
1763698894535871500,3.90687158203125,0.25614070892333984,-1.0817699432373047,0.010671286843717098
1763698894545832400,3.91683251953125,0.26157113909721375,-1.0795583724975586,-0.037689853459596634
1763698894555792400,3.92679248046875,0.3064211905002594,-0.9650792479515076,0.0036607813090085983
1763698894565753300,3.93675341796875,0.3706209361553192,-0.9173692464828491,-0.05383286997675896
1763698894575713300,3.94671337890625,0.4331410527229309,-0.9827972650527954,-0.1327947974205017
1763698894585674200,3.95667431640625,0.4803740680217743,-0.9329791069030762,-0.15547321736812592
1763698894595634400,3.966634521484375,0.5200040340423584,-0.6592596769332886,-0.13404008746147156
1763698894605594400,3.976594482421875,0.575397253036499,-0.5343092083930969,-0.15796007215976715
1763698894615555300,3.986555419921875,0.7244698405265808,-0.36519742012023926,-0.12690521776676178
1763698894625515500,3.996515625,0.9347378611564636,-0.3201037049293518,-0.034632012248039246
1763698894635476200,4.006476318359375,1.1176639795303345,-0.42786291241645813,0.04344707727432251
1763698894645436200,4.016436279296875,1.2291069030761719,-0.6482599973678589,0.10103739798069
1763698894655397400,4.0263974609375,1.2921513319015503,-0.8231700658798218,0.09628179669380188
1763698894665357300,4.036357421875,1.3185211420059204,-0.9665322303771973,0.06333956122398376
1763698894675318500,4.046318603515625,1.1163731813430786,-1.4406238794326782,-0.007547931279987097
1763698894685278500,4.056278564453125,1.148028016090393,-0.7135639190673828,-0.03184421733021736
1763698894695238400,4.06623828125,0.9897416830062866,-0.2682620882987976,-0.04638614133000374
1763698894705199400,4.076199462890625,0.8735690116882324,-0.1386668086051941,-0.03773832321166992
1763698894715159300,4.0861591796875,0.9428207874298096,-0.18955741822719574,0.012998356483876705
1763698894725120300,4.096120361328125,1.031105875968933,-0.24428164958953857,0.1101752370595932
1763698894735080400,4.10608056640625,1.0423269271850586,-0.22686244547367096,0.17145110666751862
1763698894745041400,4.11604150390625,1.0018020868301392,-0.20059648156166077,0.1715153008699417
1763698894755001300,4.12600146484375,0.907367467880249,-0.2595250606536865,0.09411105513572693
1763698894764961500,4.13596142578125,0.8180000185966492,-0.3344128727912903,-0.050699129700660706
1763698894774922500,4.145922607421875,0.7551363706588745,-0.3441256880760193,-0.22840946912765503
1763698894784882400,4.15588232421875,0.7247702479362488,-0.2688367962837219,-0.40908658504486084
1763698894794843400,4.165843505859375,0.7227709889411926,-0.19357958436012268,-0.5525041818618774
1763698894804803300,4.17580322265625,0.7529851198196411,-0.10676772147417068,-0.6143915057182312
1763698894814764500,4.1857646484375,0.8002109527587891,0.04861387610435486,-0.6074331998825073
1763698894824724500,4.195724365234375,0.8453312516212463,0.2179853320121765,-0.5594196319580078
1763698894834684400,4.205684326171875,0.902141809463501,0.2938646376132965,-0.4435151219367981
1763698894844645400,4.215645263671875,0.9855373501777649,0.17719422280788422,-0.2168249934911728
1763698894854605300,4.225605224609375,1.116417646408081,-0.36883315443992615,0.31955721974372864
1763698894864566300,4.235566162109375,1.0282632112503052,-0.32922664284706116,0.716754674911499
1763698894874526500,4.2455263671875,0.7963605523109436,-0.25846511125564575,0.8362115621566772
1763698894884487400,4.2554873046875,0.6004267334938049,-0.1782083511352539,0.7219880223274231
1763698894894447400,4.265447265625,0.3984632194042206,-0.0727599561214447,0.4816156327724457
1763698894904408600,4.27540869140625,0.3016037940979004,-0.06797745078802109,0.23937396705150604
1763698894914368500,4.285368408203125,0.41850191354751587,-0.24494025111198425,0.041432660073041916
1763698894924328400,4.295328369140625,0.6857770085334778,-0.2963898479938507,-0.14389991760253906
1763698894934289400,4.305289306640625,1.0194833278656006,-0.2677403688430786,-0.32127097249031067
1763698894944249300,4.315249267578125,1.286872148513794,-0.20671242475509644,-0.4853762984275818
1763698894954210300,4.325210205078125,1.3572204113006592,-0.2373180091381073,-0.600433886051178
1763698894964170500,4.33517041015625,1.3120605945587158,-0.33325305581092834,-0.677918016910553
1763698894974131500,4.34513134765625,1.3737093210220337,-0.3660062253475189,-0.8196189999580383
1763698894984091400,4.35509130859375,1.4013679027557373,-0.3285270035266876,-0.9510135054588318
1763698894994051600,4.365051513671875,1.3752793073654175,-0.3155675530433655,-1.0128190517425537
1763698895004012300,4.37501220703125,1.3206216096878052,-0.3520776033401489,-1.0047789812088013
1763698895013972200,4.38497216796875,1.3525973558425903,-0.502334475517273,-1.0511062145233154
1763698895023933400,4.394933349609375,1.4799963235855103,-0.5923530459403992,-1.125108003616333
1763698895033893400,4.404893310546875,1.6284841299057007,-0.21045497059822083,-0.9785114526748657
1763698895043854600,4.4148544921875,1.6767776012420654,0.016353139653801918,-0.649810791015625
1763698895053814500,4.424814453125,1.6614491939544678,0.03897056728601456,-0.31343168020248413
1763698895063774500,4.4347744140625,1.5493016242980957,-0.04151228815317154,0.024413464590907097
1763698895073735400,4.4447353515625,1.3833858966827393,-0.2747117280960083,0.3650464117527008
1763698895083695600,4.454695556640625,1.2576911449432373,-0.5874730944633484,0.6957764029502869
1763698895093656600,4.464656494140625,1.1479231119155884,-0.7888887524604797,1.002704381942749
1763698895103616500,4.474616455078125,1.057543158531189,-0.8977931141853333,1.2823530435562134
1763698895113577700,4.48457763671875,0.9227054119110107,-1.021844744682312,1.4050509929656982
1763698895123537700,4.49453759765625,0.618073582649231,-0.9087565541267395,1.1843810081481934
1763698895133498600,4.50449853515625,0.48370009660720825,-0.6751083731651306,0.8478655219078064
1763698895143458600,4.51445849609375,0.38418787717819214,-0.1775422990322113,0.3714403808116913
1763698895153418500,4.52441845703125,0.330406129360199,0.45168542861938477,0.009474461898207664
1763698895163379700,4.534379638671875,0.475090354681015,0.9579110741615295,-0.412889301776886
1763698895173339600,4.544339599609375,0.7063997387886047,1.4830683469772339,-0.6089954376220703
1763698895183300600,4.554300537109375,0.9105883240699768,1.8756211996078491,-0.6716622710227966
1763698895193260500,4.564260498046875,1.0995286703109741,2.1529624462127686,-0.6599915027618408
1763698895203221500,4.574221435546875,1.1977574825286865,2.262176036834717,-0.674329400062561
1763698895213181400,4.584181396484375,1.2549097537994385,2.1482717990875244,-0.6379666328430176
1763698895223141600,4.5941416015625,1.2757463455200195,2.04368257522583,-0.6510768532752991
1763698895233102600,4.6041025390625,1.1568294763565063,1.8262426853179932,-0.6019290089607239
1763698895243062500,4.6140625,1.1266809701919556,1.4335659742355347,-0.5172668695449829
1763698895253023700,4.624023681640625,1.1816126108169556,0.9847096800804138,-0.4569550156593323
1763698895262983700,4.633983642578125,1.1802394390106201,0.8008482456207275,-0.3801792860031128
1763698895272944400,4.6439443359375,1.1604268550872803,0.8780868053436279,-0.3294580578804016
1763698895282904600,4.653904541015625,1.1589211225509644,0.9501069188117981,-0.2555244565010071
1763698895292865500,4.663865478515625,1.1748279333114624,1.0434435606002808,-0.12091496586799622
1763698895302825500,4.673825439453125,1.206516146659851,0.9980297088623047,-0.02395300380885601
1763698895312785700,4.68378564453125,1.3211259841918945,0.861936092376709,-0.03736521676182747
1763698895322746600,4.69374658203125,1.56974458694458,0.7368434071540833,-0.13854669034481049
1763698895332706600,4.70370654296875,1.9783976078033447,0.4931409955024719,-0.1900373101234436
1763698895342667500,4.71366748046875,2.1633994579315186,0.5003672242164612,-0.12364684045314789
1763698895352627500,4.72362744140625,2.126152992248535,0.6632253527641296,0.05095639079809189
1763698895362588700,4.733588623046875,2.069246292114258,0.8949262499809265,0.32541751861572266
1763698895372548600,4.743548583984375,2.143159866333008,1.098105788230896,0.6607598066329956
1763698895382508500,4.753508544921875,2.35417103767395,1.1369976997375488,0.9285220503807068
1763698895392469800,4.7634697265625,2.585156202316284,0.9716359376907349,0.9965442419052124
1763698895402429700,4.7734296875,2.5842502117156982,0.5568893551826477,0.8468689918518066
1763698895412390400,4.783390380859375,2.4724156856536865,0.43334636092185974,0.5950908064842224
1763698895422350600,4.7933505859375,2.519216299057007,0.20273447036743164,0.3286133110523224
1763698895432311600,4.8033115234375,2.631256103515625,-0.22676390409469604,0.21346114575862885
1763698895442271500,4.813271484375,2.6805615425109863,-0.5271649956703186,0.26849111914634705
1763698895452231700,4.823231689453125,2.403928518295288,-0.5010183453559875,0.38247013092041016
1763698895462192600,4.833192626953125,1.9901576042175293,-0.4076937437057495,0.4649008512496948
1763698895472152600,4.843152587890625,1.9141252040863037,-0.6730287671089172,0.5457706451416016
1763698895482113500,4.853113525390625,2.37947416305542,-1.2277641296386719,0.6876428127288818
1763698895492073500,4.863073486328125,2.808259963989258,-1.7280468940734863,0.8204834461212158
1763698895502034700,4.87303466796875,2.864961624145508,-1.9782905578613281,0.844164252281189
1763698895511994600,4.88299462890625,2.8673322200775146,-2.3522987365722656,0.816203236579895
1763698895521955600,4.89295556640625,2.89715313911438,-2.554157018661499,0.8495084047317505
1763698895531915800,4.902915771484375,2.9032349586486816,-2.5340352058410645,0.9634968042373657
1763698895541875700,4.912875732421875,2.8670151233673096,-2.3982224464416504,1.1042014360427856
1763698895551836400,4.92283642578125,2.815753221511841,-2.135084390640259,1.215502142906189
1763698895561796600,4.932796630859375,2.667941093444824,-1.7822664976119995,1.2927370071411133
1763698895571757600,4.942757568359375,2.548845052719116,-1.6026463508605957,1.2971863746643066
1763698895581717500,4.952717529296875,2.3768365383148193,-1.6415908336639404,1.285144567489624
1763698895591678700,4.9626787109375,1.8595455884933472,-1.753100872039795,1.0485267639160156
1763698895601638700,4.972638671875,1.2327072620391846,-1.9925934076309204,0.9490182399749756
1763698895611598600,4.9825986328125,0.9775673151016235,-1.9813101291656494,0.969529390335083
1763698895621559600,4.9925595703125,0.8916478753089905,-1.8240336179733276,0.9927561283111572
1763698895631519500,5.00251953125,0.907892107963562,-1.3993582725524902,0.9675107002258301
1763698895641480700,5.012480712890625,0.9671330451965332,-0.8517012596130371,0.8880339860916138
1763698895651440600,5.022440673828125,0.9742215871810913,-0.34764692187309265,0.7979600429534912
1763698895661401600,5.032401611328125,0.8671273589134216,0.048653554171323776,0.766903281211853
1763698895671361800,5.04236181640625,0.649435818195343,0.18239404261112213,0.827573299407959
1763698895681322500,5.052322509765625,0.29962560534477234,0.045637261122465134,0.9789292812347412
1763698895691282400,5.062282470703125,-0.10251758992671967,-0.26380687952041626,1.1247354745864868
1763698895701242600,5.07224267578125,-0.48124679923057556,-0.5581189393997192,1.1671068668365479
1763698895711203600,5.08220361328125,-0.7900331020355225,-0.6957295536994934,1.1271286010742188
1763698895721163500,5.09216357421875,-1.015504002571106,-0.6285579204559326,1.042757272720337
1763698895731124700,5.102124755859375,-1.1778900623321533,-0.4716032147407532,0.9241515398025513
1763698895741084700,5.112084716796875,-1.3033616542816162,-0.33538466691970825,0.7973493337631226
1763698895751045400,5.12204541015625,-1.4108860492706299,-0.20125135779380798,0.7200404405593872
1763698895761005600,5.132005615234375,-1.537078857421875,-0.08754316717386246,0.6766011118888855
1763698895770965500,5.141965576171875,-1.7037242650985718,-0.12905199825763702,0.5881196856498718
1763698895780926500,5.151926513671875,-1.9731634855270386,-0.3668842613697052,0.37114450335502625
1763698895790886700,5.16188671875,-2.263664722442627,-0.764356255531311,0.021731659770011902
1763698895800847600,5.17184765625,-2.4184772968292236,-1.218875765800476,-0.3424969017505646
1763698895810807600,5.1818076171875,-2.371823787689209,-1.5095622539520264,-0.5350165367126465
1763698895820768500,5.1917685546875,-2.166609525680542,-1.489582896232605,-0.4525195360183716
1763698895830728400,5.201728515625,-1.9316767454147339,-1.2187285423278809,-0.12172403931617737
1763698895840689700,5.211689697265625,-1.7916229963302612,-0.9044550657272339,0.33031827211380005
1763698895850649600,5.221649658203125,-1.785354733467102,-0.7862434387207031,0.7391651272773743
1763698895860609500,5.231609619140625,-1.863294243812561,-0.8692778944969177,0.9788400530815125
1763698895870570800,5.24157080078125,-1.9456567764282227,-1.1830246448516846,1.0078428983688354
1763698895880530700,5.25153076171875,-1.9692968130111694,-1.5963897705078125,0.9008318185806274
1763698895890491400,5.261491455078125,-1.8828234672546387,-1.9761813879013062,0.6642791628837585
1763698895900451600,5.27145166015625,-1.6939682960510254,-2.2304165363311768,0.32404252886772156
1763698895910412500,5.28141259765625,-1.442633032798767,-2.2915079593658447,-0.07287127524614334
1763698895920372500,5.29137255859375,-1.1649422645568848,-2.1320106983184814,-0.4745822250843048
1763698895930332700,5.301332763671875,-0.8821603655815125,-1.763176441192627,-0.8252902030944824
1763698895940293600,5.311293701171875,-0.6305409073829651,-1.3052623271942139,-1.0666618347167969
1763698895950253600,5.321253662109375,-0.43470433354377747,-0.9003548622131348,-1.188536524772644
1763698895960214500,5.331214599609375,-0.34215280413627625,-0.6299883127212524,-1.192277193069458
1763698895970174500,5.341174560546875,-0.35706597566604614,-0.4933585822582245,-1.1078683137893677
1763698895980135700,5.3511357421875,-0.42633000016212463,-0.47533750534057617,-0.9918426871299744
1763698895990095600,5.361095703125,-0.5381225943565369,-0.4827703833580017,-0.8977944850921631
1763698896000056600,5.371056640625,-0.6436356902122498,-0.457907110452652,-0.88965904712677
1763698896010016800,5.381016845703125,-0.6879030466079712,-0.42022472620010376,-0.9461289644241333
1763698896019976700,5.390976806640625,-0.65908282995224,-0.29326969385147095,-1.0010462999343872
1763698896029937400,5.4009375,-0.5247330069541931,-0.14514175057411194,-1.0349252223968506
1763698896039897600,5.410897705078125,-0.29959362745285034,-0.06325646489858627,-1.0379552841186523
1763698896049858600,5.420858642578125,-0.07188377529382706,0.0067841364070773125,-1.0221446752548218
1763698896059818500,5.430818603515625,0.12907490134239197,0.0724843218922615,-0.9883075952529907
1763698896069779700,5.44077978515625,0.24488911032676697,0.2159472107887268,-0.8896856904029846
1763698896079738600,5.450738525390625,0.21464411914348602,0.4064132869243622,-0.684181272983551
1763698896089699800,5.460699951171875,0.025139175355434418,0.7083395719528198,-0.23580746352672577
1763698896099659800,5.47065966796875,-0.08951497077941895,1.0602563619613647,0.45755264163017273
1763698896109619700,5.48061962890625,-0.17128227651119232,1.3035966157913208,1.2278869152069092
1763698896119580700,5.49058056640625,-0.2414613515138626,1.4590750932693481,1.9409109354019165
1763698896129540600,5.50054052734375,-0.27379000186920166,1.5058783292770386,2.5004777908325195
1763698896139501800,5.510501708984375,-0.2309594452381134,1.5262991189956665,2.9440293312072754
1763698896149461800,5.520461669921875,-0.09680217504501343,1.6040400266647339,3.3201842308044434
1763698896159422700,5.530422607421875,0.07533416897058487,1.7538119554519653,3.6504061222076416
1763698896169383000,5.5403828125,0.2837531566619873,1.7641979455947876,3.9028310775756836
1763698896179342800,5.5503427734375,0.514273464679718,1.4779672622680664,4.034947395324707
1763698896189303600,5.560303466796875,0.7778621912002563,0.9351330399513245,4.073996067047119
1763698896199263500,5.570263427734375,1.0472118854522705,0.3743584156036377,4.0368547439575195
1763698896209224700,5.580224609375,1.260324239730835,0.049304697662591934,3.918073892593384
1763698896219184600,5.5901845703125,1.4232494831085205,-0.03929653763771057,3.722856044769287
1763698896229145900,5.600145751953125,1.600363850593567,0.07376130670309067,3.493023157119751
1763698896239105800,5.610105712890625,1.8097542524337769,0.22736524045467377,3.2826671600341797
1763698896249066500,5.62006640625,2.0292482376098633,0.3200312554836273,3.078148365020752
1763698896259026700,5.630026611328125,2.1767160892486572,0.35931476950645447,2.8396334648132324
1763698896268986600,5.639986572265625,2.25468111038208,0.3958280384540558,2.538234233856201
1763698896278947600,5.649947509765625,2.3227834701538086,0.40998032689094543,2.1809451580047607
1763698896288907800,5.65990771484375,2.4348418712615967,0.3780892491340637,1.7742607593536377
1763698896298868700,5.66986865234375,2.5964856147766113,0.34247612953186035,1.3220826387405396
1763698896308828700,5.67982861328125,2.786360740661621,0.25954368710517883,0.8140974640846252
1763698896318789600,5.68978955078125,2.9389748573303223,0.13498498499393463,0.25654152035713196
1763698896328749600,5.69974951171875,3.060776948928833,0.004596616141498089,-0.292072594165802
1763698896338709500,5.70970947265625,3.142326593399048,-0.08178674429655075,-0.7816750407218933
1763698896348670700,5.719670654296875,3.1722540855407715,-0.10684335976839066,-1.2135263681411743
1763698896358630700,5.729630615234375,3.1337296962738037,-0.09958145022392273,-1.5837472677230835
1763698896368592000,5.739591796875,2.9547829627990723,-0.11980416625738144,-1.8796857595443726
1763698896378551800,5.7495517578125,2.6672568321228027,-0.09565595537424088,-2.085692882537842
1763698896388512500,5.759512451171875,2.3344502449035645,-0.06376539915800095,-2.201019763946533
1763698896398472700,5.76947265625,1.9867736101150513,-0.05959169194102287,-2.2184317111968994
1763698896408433700,5.77943359375,1.6669225692749023,-0.04676883667707443,-2.1298863887786865
1763698896418393600,5.7893935546875,1.4064137935638428,0.00558145297691226,-1.9475337266921997
1763698896428353800,5.799353759765625,1.2141574621200562,0.1011471226811409,-1.6783539056777954
1763698896438314800,5.809314697265625,1.072506070137024,0.1794443279504776,-1.3277021646499634
1763698896448274700,5.819274658203125,0.9113779067993164,0.20322875678539276,-0.9277513027191162
1763698896458235600,5.829235595703125,0.6751278638839722,0.18201561272144318,-0.5314084887504578
1763698896468195600,5.839195556640625,0.3723256289958954,0.09490200877189636,-0.1688486784696579
1763698896478156800,5.84915673828125,0.038371358066797256,-0.01631745509803295,0.11701983213424683
1763698896488116700,5.85911669921875,-0.2774744927883148,-0.15630891919136047,0.2799999713897705
1763698896498077700,5.86907763671875,-0.5364480018615723,-0.29629185795783997,0.27170395851135254
1763698896508038000,5.879037841796875,-0.7382780313491821,-0.3673204779624939,0.09300557523965836
1763698896517997800,5.888997802734375,-0.8674600124359131,-0.2800351083278656,-0.17922061681747437
1763698896527958500,5.89895849609375,-0.9514409303665161,-0.046790409833192825,-0.47005990147590637
1763698896537918700,5.908918701171875,-1.0241063833236694,0.26065874099731445,-0.7153578400611877
1763698896547879700,5.918879638671875,-1.1288889646530151,0.45774492621421814,-0.8359875679016113
1763698896557839600,5.928839599609375,-1.2002984285354614,0.37400075793266296,-0.758168637752533
1763698896567800800,5.93880078125,-1.2490683794021606,0.04086008295416832,-0.4690638780593872
1763698896577760800,5.9487607421875,-1.417232871055603,-0.3215939998626709,-0.10897069424390793
1763698896587721500,5.958721435546875,-1.680246353149414,-0.8533609509468079,0.116763636469841
1763698896597681700,5.968681640625,-1.851963758468628,-1.3700599670410156,0.1900482326745987
1763698896607641600,5.9786416015625,-1.7922248840332031,-1.643323302268982,0.24104030430316925
1763698896617602600,5.9886025390625,-1.588936448097229,-1.6703181266784668,0.2448510229587555
1763698896627562800,5.998562744140625,-1.356947422027588,-1.6190876960754395,0.12946878373622894
1763698896637523700,6.008523681640625,-1.130454659461975,-1.446831226348877,0.02599058859050274
1763698896647483600,6.018483642578125,-0.9077097177505493,-1.0622748136520386,0.08473832160234451
1763698896657444600,6.028444580078125,-0.7442517876625061,-0.5692844986915588,0.34137117862701416
1763698896667404500,6.038404541015625,-0.690387487411499,-0.27584996819496155,0.6906508803367615
1763698896677364500,6.048364501953125,-0.7651528120040894,-0.3459659218788147,1.0287474393844604
1763698896687325700,6.05832568359375,-0.9149766564369202,-0.6965165138244629,1.2377667427062988
1763698896697285600,6.06828564453125,-1.0501980781555176,-1.1381714344024658,1.2578336000442505
1763698896707246800,6.078246826171875,-1.0721603631973267,-1.471027135848999,1.115757942199707
1763698896717206800,6.088206787109375,-0.9943995475769043,-1.5671030282974243,0.8955182433128357
1763698896727167500,6.09816748046875,-0.8924721479415894,-1.4632600545883179,0.6193721890449524
1763698896737127700,6.108127685546875,-0.8442425727844238,-1.2451159954071045,0.2739700376987457
1763698896747088600,6.118088623046875,-0.8815406560897827,-0.9369232058525085,-0.16218997538089752
1763698896757048600,6.128048583984375,-0.9410961270332336,-0.5915317535400391,-0.6997117400169373
1763698896767008800,6.1380087890625,-0.9671003222465515,-0.2777477204799652,-1.2872998714447021
1763698896776969700,6.1479697265625,-0.9597592949867249,-0.01936730556190014,-1.8230866193771362
1763698896786929700,6.1579296875,-0.9379152655601501,0.20227719843387604,-2.2394747734069824
1763698896796890600,6.167890625,-0.9038829803466797,0.3803798258304596,-2.4927053451538086
1763698896806850600,6.1778505859375,-0.8495185375213623,0.517343282699585,-2.56101655960083
1763698896816811800,6.187811767578125,-0.7732709050178528,0.6001420021057129,-2.4447338581085205
1763698896826771700,6.197771728515625,-0.7015884518623352,0.6461590528488159,-2.1346209049224854
1763698896836732700,6.207732666015625,-0.6888854503631592,0.6786658763885498,-1.620253086090088
1763698896846692900,6.21769287109375,-0.774227499961853,0.6804144978523254,-0.9881100058555603
1763698896856652800,6.22765283203125,-0.9043330550193787,0.6785761117935181,-0.40616375207901
1763698896866613500,6.237613525390625,-0.9992715716362,0.7121612429618835,0.06952022016048431
1763698896876573700,6.24757373046875,-0.9800307750701904,0.830852210521698,0.48399198055267334
1763698896886534700,6.25753466796875,-0.8365843892097473,0.9900652766227722,0.8424611687660217
1763698896896494600,6.26749462890625,-0.6699091196060181,1.1926889419555664,1.1530853509902954
1763698896906455800,6.277455810546875,-0.5066964626312256,1.4054608345031738,1.4604618549346924
1763698896916415700,6.287415771484375,-0.39235392212867737,1.557485580444336,1.8238378763198853
1763698896926376700,6.297376708984375,-0.42720672488212585,1.7750437259674072,2.2925868034362793
1763698896936336600,6.307336669921875,-0.5668472051620483,1.896019697189331,2.7960360050201416
1763698896946296600,6.317296630859375,-0.7000371813774109,1.8306915760040283,3.191025733947754
1763698896956257500,6.327257568359375,-0.7537925839424133,1.516623616218567,3.3865368366241455
1763698896966217700,6.3372177734375,-0.6298106908798218,1.1179521083831787,3.4115920066833496
1763698896976178700,6.3471787109375,-0.3316037654876709,1.0815001726150513,3.444687843322754
1763698896986138600,6.357138671875,0.08767765760421753,1.3725920915603638,3.548659563064575
1763698896996099600,6.367099609375,0.5254712104797363,1.5851789712905884,3.6394877433776855
1763698897006059500,6.3770595703125,0.894301176071167,1.4643065929412842,3.591158628463745
1763698897016020700,6.387020751953125,1.152758002281189,1.101266860961914,3.3606109619140625
1763698897025980700,6.396980712890625,1.3168684244155884,0.8630354404449463,3.0492537021636963
1763698897035940600,6.406940673828125,1.4663801193237305,0.8858925700187683,2.6916310787200928
1763698897045901800,6.41690185546875,1.6520695686340332,1.1487550735473633,2.271211624145508
1763698897055861800,6.42686181640625,1.8764430284500122,1.4957149028778076,1.7794725894927979
1763698897065822700,6.43682275390625,2.146510601043701,1.7919976711273193,1.2062164545059204
1763698897075783200,6.446783203125,2.440918207168579,1.9633973836898804,0.6161121726036072
1763698897085744000,6.456744140625,2.7274162769317627,1.960488200187683,0.07432296872138977
1763698897095704000,6.4667041015625,2.9695165157318115,1.777390718460083,-0.3669383227825165
1763698897105665300,6.476665283203125,3.131930351257324,1.469008445739746,-0.6847671270370483
1763698897115625200,6.486625244140625,3.192718505859375,1.1046442985534668,-0.8761525750160217
1763698897125585200,6.496585205078125,3.1610934734344482,0.7487708926200867,-0.9810004234313965
1763698897135546000,6.506546142578125,3.037606954574585,0.4655809998512268,-1.0289037227630615
1763698897145506000,6.516506103515625,2.8343842029571533,0.30932775139808655,-1.0593516826629639
1763698897155467000,6.526467041015625,2.596949338912964,0.23033520579338074,-1.0764923095703125
1763698897165427200,6.53642724609375,2.36863112449646,0.2504708170890808,-1.0597407817840576
1763698897175388200,6.54638818359375,2.1673076152801514,0.33638760447502136,-0.9809503555297852
1763698897185348000,6.55634814453125,1.9304783344268799,0.41960740089416504,-0.8431898355484009
1763698897195308300,6.566308349609375,1.6151806116104126,0.5015445947647095,-0.6672350168228149
1763698897205269000,6.57626904296875,1.2207733392715454,0.5303341746330261,-0.46631497144699097
1763698897215229000,6.58622900390625,0.7838689684867859,0.4662233591079712,-0.2436070591211319
1763698897225190100,6.596190185546875,0.3712444007396698,0.3059993386268616,0.01950073055922985
1763698897235150000,6.606150146484375,0.019279422238469124,0.13566036522388458,0.2725202143192291
1763698897245111300,6.616111328125,-0.2873350977897644,0.046250052750110626,0.43328991532325745
1763698897255071200,6.6260712890625,-0.5733591318130493,-0.31448736786842346,0.476020872592926
1763698897265032000,6.636031982421875,-0.8953973650932312,-0.3847324848175049,0.33952319622039795
1763698897274992000,6.6459921875,-1.173802375793457,-0.3894135355949402,0.08679774403572083
1763698897284952000,6.6559521484375,-1.3989124298095703,-0.24104030430316925,-0.2343858778476715
1763698897294913000,6.6659130859375,-1.537515640258789,-0.03642245754599571,-0.5181981325149536
1763698897304873200,6.675873291015625,-1.5951956510543823,0.03002527728676796,-0.6099879741668701
1763698897314834200,6.685834228515625,-1.6099879741668701,-0.1384526789188385,-0.506139874458313
1763698897324794000,6.695794189453125,-1.6471762657165527,-0.44490474462509155,-0.3900260627269745
1763698897334755000,6.705755126953125,-1.7485671043395996,-0.8285136818885803,-0.4018361270427704
1763698897344715000,6.715715087890625,-1.8333871364593506,-1.2595947980880737,-0.5654404759407043
1763698897354676200,6.72567626953125,-1.7425776720046997,-1.6425548791885376,-0.8084344863891602
1763698897364636200,6.73563623046875,-1.4486587047576904,-1.7177801132202148,-0.9814646244049072
1763698897374596000,6.74559619140625,-1.0834215879440308,-1.5216237306594849,-1.0144108533859253
1763698897384557300,6.755557373046875,-0.7583889365196228,-1.2835677862167358,-0.9674188494682312
1763698897394517200,6.765517333984375,-0.5020554065704346,-1.0245606899261475,-0.8643177151679993
1763698897404478000,6.77547802734375,-0.3060608506202698,-0.7330042123794556,-0.6764416098594666
1763698897414438100,6.785438232421875,-0.15650252997875214,-0.5320793390274048,-0.40774914622306824
1763698897424399000,6.795399169921875,-0.010067814029753208,-0.5971677899360657,-0.09997986257076263
1763698897434359000,6.805359130859375,0.0978810265660286,-0.9907134771347046,0.16152365505695343
1763698897444320300,6.8153203125,0.13581669330596924,-1.5570392608642578,0.2923399806022644
1763698897454280200,6.8252802734375,0.09554276615381241,-2.0776407718658447,0.25058722496032715
1763698897464240000,6.835240234375,0.023911990225315094,-2.36285138130188,0.06175471097230911
1763698897474201000,6.845201171875,-0.022760439664125443,-2.299931526184082,-0.2090323120355606
1763698897484161000,6.8551611328125,-0.04884770140051842,-1.9394625425338745,-0.5272899270057678
1763698897494122200,6.865122314453125,-0.08784037083387375,-1.3756459951400757,-0.8838658928871155
1763698897504082200,6.875082275390625,-0.1673991084098816,-0.715714693069458,-1.2523366212844849
1763698897514043100,6.885043212890625,-0.2868674397468567,-0.14079147577285767,-1.6122899055480957
1763698897524003300,6.89500341796875,-0.41421395540237427,0.23552757501602173,-1.9263134002685547
1763698897533964000,6.904964111328125,-0.5098406076431274,0.4568871259689331,-2.1297905445098877
1763698897543924000,6.914924072265625,-0.553128182888031,0.5113375782966614,-2.1831088066101074
1763698897553884200,6.92488427734375,-0.5563990473747253,0.40980350971221924,-2.0876755714416504
1763698897563845000,6.93484521484375,-0.5475016832351685,0.2258075624704361,-1.8953008651733398
1763698897573805000,6.94480517578125,-0.5709764361381531,0.10274581611156464,-1.6432691812515259
1763698897583766300,6.954766357421875,-0.6116694808006287,0.12230141460895538,-1.2791227102279663
1763698897593726200,6.964726318359375,-0.6298429369926453,0.30158647894859314,-0.8105162978172302
1763698897603687200,6.974687255859375,-0.6374752521514893,0.6050478219985962,-0.26587802171707153
1763698897613647000,6.984647216796875,-0.651979923248291,0.9166169166564941,0.3115064799785614
1763698897623608000,6.994608154296875,-0.6660240888595581,1.1476349830627441,0.8631808161735535
1763698897633568000,7.004568115234375,-0.6926615834236145,1.269301414489746,1.3270126581192017
1763698897643528200,7.014528076171875,-0.7239963412284851,1.3302146196365356,1.682129979133606
1763698897653489200,7.0244892578125,-0.7255947589874268,1.3847116231918335,1.950202226638794
1763698897663449000,7.034448974609375,-0.6945308446884155,1.5261242389678955,2.1856496334075928
1763698897673410300,7.044410400390625,-0.6317579746246338,1.8292667865753174,2.4559333324432373
1763698897683370200,7.054370361328125,-0.5423415899276733,2.1322460174560547,2.7382500171661377
1763698897693331200,7.064331298828125,-0.36090654134750366,2.111863374710083,2.916945219039917
1763698897703291100,7.074291015625,-0.07486278563737869,1.7366840839385986,3.0099594593048096
1763698897713252000,7.084252197265625,0.3650621175765991,0.9940230250358582,3.0788626670837402
1763698897723212300,7.09421240234375,0.8382731080055237,0.1944752037525177,3.13132381439209
1763698897733172200,7.104172119140625,1.1827691793441772,-0.441506564617157,3.080094337463379
1763698897743133200,7.11413330078125,1.3264281749725342,-0.6895099878311157,2.8891029357910156
1763698897753093000,7.124093017578125,1.3494428396224976,-0.45207157731056213,2.6002986431121826
1763698897763054000,7.13405419921875,1.3635551929473877,0.2369006872177124,2.2697112560272217
1763698897773014000,7.144013916015625,1.4305609464645386,1.1898812055587769,1.96774423122406
1763698897782975200,7.153975341796875,1.5936750173568726,2.043980121612549,1.7438093423843384
1763698897792935200,7.16393505859375,1.8432341814041138,2.538163661956787,1.5888736248016357
1763698897802896400,7.173896484375,2.1211001873016357,2.645050525665283,1.484047532081604
1763698897812856300,7.183856201171875,2.3848519325256348,2.41914439201355,1.4086755514144897
1763698897822816300,7.193816162109375,2.602062225341797,1.9733123779296875,1.3278905153274536
1763698897832777200,7.203777099609375,2.765817880630493,1.406545877456665,1.2160720825195312
1763698897842737200,7.213737060546875,2.9004571437835693,0.8369279503822327,1.0817174911499023
1763698897852698000,7.223697998046875,3.004985809326172,0.3891538679599762,0.9257320761680603
1763698897862658300,7.233658203125,3.049443006515503,0.15177062153816223,0.717354953289032
1763698897872619300,7.243619384765625,3.0066041946411133,0.12466336786746979,0.4313966631889343
1763698897882579200,7.2535791015625,2.899355173110962,0.2554978132247925,0.0646495670080185
1763698897892540200,7.2635400390625,2.749922275543213,0.49020886421203613,-0.3759880065917969
1763698897902500000,7.2735,2.5713019371032715,0.7461783289909363,-0.8351331949234009
1763698897912460000,7.2834599609375,2.3913018703460693,0.9917433261871338,-1.2042092084884644
1763698897922421200,7.293421142578125,2.2069857120513916,1.2125500440597534,-1.390728235244751
1763698897932381200,7.303381103515625,1.9886316061019897,1.3471909761428833,-1.3774551153182983
1763698897942342100,7.313342041015625,1.6940913200378418,1.4096601009368896,-1.1931052207946777
1763698897952302300,7.32330224609375,1.3203710317611694,1.4006690979003906,-0.8785020112991333
1763698897962263000,7.333262939453125,0.8717191815376282,1.3282787799835205,-0.5016298294067383
1763698897972223000,7.343222900390625,0.3839932084083557,1.2103300094604492,-0.1219344288110733
1763698897982184200,7.35318408203125,-0.0845569595694542,1.0298970937728882,0.2211102843284607
1763698897992144100,7.36314404296875,-0.5008545517921448,0.7764763236045837,0.4804829955101013
1763698898002104000,7.37310400390625,-0.8395183682441711,0.4750751852989197,0.5710445642471313
1763698898012065300,7.383065185546875,-1.1083064079284668,0.227086141705513,0.48929300904273987
1763698898022025200,7.393025146484375,-1.3268259763717651,0.12276773154735565,0.24444596469402313
1763698898031986200,7.402986083984375,-1.4859296083450317,0.18970522284507751,-0.09191234409809113
1763698898041946000,7.412946044921875,-1.5892605781555176,0.3755222260951996,-0.35206589102745056
1763698898051907000,7.422906982421875,-1.6424771547317505,0.4640062749385834,-0.4306400716304779
1763698898061867300,7.4328671875,-1.698787808418274,0.31005772948265076,-0.4280298948287964
1763698898071828200,7.442828125,-1.854416847229004,-0.027897411957383156,-0.5296369791030884
1763698898081788400,7.452788330078125,-2.080352306365967,-0.6173713207244873,-0.847144365310669
1763698898091748400,7.462748291015625,-2.210998773574829,-1.323604941368103,-1.3156319856643677
1763698898101709600,7.47270947265625,-2.0961155891418457,-1.8583987951278687,-1.7453569173812866
1763698898111669500,7.48266943359375,-1.8053369522094727,-2.051936149597168,-2.015021324157715
1763698898121630500,7.49263037109375,-1.4274860620498657,-2.016627788543701,-2.0902771949768066
1763698898131590700,7.502590576171875,-1.051965355873108,-1.8090543746948242,-1.956040382385254
1763698898141551600,7.512551513671875,-0.743362307548523,-1.4303678274154663,-1.6044951677322388
1763698898151511600,7.522511474609375,-0.5408520698547363,-1.002103328704834,-1.107177734375
1763698898161472500,7.532472412109375,-0.4372151494026184,-0.7076841592788696,-0.5390205979347229
1763698898171432400,7.542432373046875,-0.39242130517959595,-0.675449013710022,-0.033476732671260834
1763698898181393700,7.5523935546875,-0.38851311802864075,-0.9035399556159973,0.31298455595970154
1763698898191353600,7.562353515625,-0.445162832736969,-1.204153299331665,0.47524216771125793
1763698898201313500,7.5723134765625,-0.5590212345123291,-1.43241286277771,0.4617186188697815
1763698898211274500,7.5822744140625,-0.6626072525978088,-1.47829270362854,0.3064661920070648
1763698898221234700,7.592234619140625,-0.7159886956214905,-1.3446558713912964,0.034025877714157104
1763698898231195400,7.6021953125,-0.7106975317001343,-1.0782867670059204,-0.3285789489746094
1763698898241155600,7.612155517578125,-0.6742026805877686,-0.7871723771095276,-0.7645605206489563
1763698898251116500,7.622116455078125,-0.6376172304153442,-0.5180854797363281,-1.233217477798462
1763698898261076500,7.632076416015625,-0.6299318671226501,-0.2870919704437256,-1.7028651237487793
1763698898271037700,7.64203759765625,-0.6408340334892273,-0.09861152619123459,-2.131863594055176
1763698898280997600,7.65199755859375,-0.6413275599479675,0.042875293642282486,-2.4445178508758545
1763698898290957600,7.66195751953125,-0.6213927268981934,0.17791540920734406,-2.6154656410217285
1763698898300918500,7.67191845703125,-0.577117383480072,0.2984660565853119,-2.6166279315948486
1763698898310878500,7.68187841796875,-0.5258153080940247,0.4386442005634308,-2.4179866313934326
1763698898320839700,7.691839599609375,-0.4599454998970032,0.5214605331420898,-2.0055572986602783
1763698898330799600,7.701799560546875,-0.39311161637306213,0.49773308634757996,-1.4261605739593506
1763698898340760600,7.711760498046875,-0.3350057005882263,0.42419999837875366,-0.7369763255119324
1763698898350720800,7.721720703125,-0.2982220947742462,0.3767898976802826,-0.01426255889236927
1763698898360681500,7.731681396484375,-0.24249492585659027,0.4093150794506073,0.6613712906837463
1763698898370641400,7.741641357421875,-0.13705451786518097,0.5394222140312195,1.2540173530578613
1763698898380601300,7.751601318359375,0.015446334145963192,0.7268072962760925,1.703029990196228
1763698898390562600,7.7615625,0.20094455778598785,0.9003543257713318,1.9964174032211304
1763698898400522500,7.7715224609375,0.38672640919685364,1.1246103048324585,2.2119510173797607
1763698898410483700,7.781483642578125,0.5551580190658569,1.441733717918396,2.428114414215088
1763698898420443600,7.791443603515625,0.6832606196403503,1.792689561843872,2.667628288269043
1763698898430404400,7.801404296875,0.7762227654457092,1.926376461982727,2.8320634365081787
1763698898440364500,7.811364501953125,0.869408130645752,1.6891802549362183,2.8558177947998047
1763698898450325500,7.821325439453125,1.0371571779251099,1.1254338026046753,2.805556058883667
1763698898460285400,7.831285400390625,1.315395474433899,0.5466758608818054,2.8081514835357666
1763698898470246700,7.84124658203125,1.618056297302246,0.19831602275371552,2.912113904953003
1763698898480206600,7.85120654296875,1.8419770002365112,0.09167692065238953,3.0705044269561768
1763698898490166500,7.86116650390625,1.9323058128356934,0.20642320811748505,3.183025360107422
1763698898500127500,7.87112744140625,1.9206483364105225,0.47913676500320435,3.1861538887023926
1763698898510087400,7.88108740234375,1.8743932247161865,0.9410892128944397,3.1114184856414795
1763698898520048600,7.891048583984375,1.8688410520553589,1.3543140888214111,2.940626859664917
1763698898530008600,7.901008544921875,1.9363764524459839,1.6875921487808228,2.6740052700042725
1763698898539969500,7.910969482421875,2.078518867492676,1.9238544702529907,2.350931167602539
1763698898549929700,7.9209296875,2.279022693634033,2.0123958587646484,2.0003461837768555
1763698898559890400,7.930890380859375,2.5045206546783447,1.9580044746398926,1.648647427558899
1763698898569850400,7.940850341796875,2.7424604892730713,1.729952096939087,1.3069180250167847
1763698898579810600,7.950810546875,2.962306022644043,1.355961799621582,0.9912652969360352
1763698898589771500,7.960771484375,3.1116299629211426,0.9527514576911926,0.7233664989471436
1763698898599731500,7.9707314453125,3.146111488342285,0.6282317042350769,0.4948810935020447
1763698898609692700,7.980692626953125,3.070828914642334,0.4612562954425812,0.2966846525669098
1763698898619652600,7.990652587890625,2.9005560874938965,0.4948185086250305,0.09245962649583817
1763698898629613600,8.000613525390625,2.677764892578125,0.6664363741874695,-0.14686082303524017
1763698898639573500,8.010573486328125,2.433364152908325,0.8447672128677368,-0.4029961824417114
1763698898649534500,8.020534423828124,2.190854549407959,0.9934014081954956,-0.5972828269004822
1763698898659494700,8.03049462890625,1.9347844123840332,1.1283842325210571,-0.639057457447052
1763698898669454600,8.04045458984375,1.6328455209732056,1.2219773530960083,-0.505306601524353
1763698898679415600,8.05041552734375,1.2495567798614502,1.2650542259216309,-0.2338620275259018
1763698898689375700,8.060375732421875,0.7875846028327942,1.2264999151229858,0.10490085184574127
1763698898699336400,8.07033642578125,0.261138916015625,1.1118340492248535,0.45794251561164856
1763698898709296400,8.08029638671875,-0.27794238924980164,0.9100295901298523,0.7554367780685425
1763698898719257600,8.090257568359375,-0.7689504623413086,0.6421336531639099,0.9370383024215698
1763698898729217500,8.100217529296875,-1.169697642326355,0.342467337846756,0.9742021560668945
1763698898739178500,8.110178466796874,-1.4602773189544678,0.041978344321250916,0.8228515386581421
1763698898749138700,8.120138671875,-1.6590598821640015,-0.18713366985321045,0.4356507956981659
1763698898759098600,8.1300986328125,-1.7946573495864868,-0.27407628297805786,-0.14683817327022552
1763698898769059300,8.140059326171874,-1.8996013402938843,-0.17571350932121277,-0.7943820357322693
1763698898779019500,8.15001953125,-1.956691861152649,0.07082810252904892,-1.368906021118164
1763698898788980500,8.15998046875,-1.9462519884109497,0.33688586950302124,-1.6624282598495483
1763698898798940400,8.1699404296875,-1.9275474548339844,0.5000420212745667,-1.5877928733825684
1763698898808901600,8.179901611328125,-1.956688404083252,0.3512594997882843,-1.2418559789657593
1763698898818861600,8.189861572265626,-2.146089792251587,-0.13537752628326416,-0.9444290995597839
1763698898828822500,8.199822509765625,-2.4400722980499268,-1.0704946517944336,-0.9627013206481934
1763698898838782500,8.209782470703125,-2.625054121017456,-2.1255016326904297,-1.2481101751327515
1763698898848742400,8.219742431640626,-2.489514112472534,-2.7337875366210938,-1.6464260816574097
1763698898858703600,8.22970361328125,-2.042127847671509,-2.8572165966033936,-2.0858852863311768
1763698898868663600,8.23966357421875,-1.3845252990722656,-2.720900535583496,-2.540926933288574
1763698898878624500,8.24962451171875,-0.6840726137161255,-2.3137073516845703,-2.8656790256500244
1763698898888584700,8.259584716796875,-0.06528180092573166,-1.6558291912078857,-2.8795571327209473
1763698898898545400,8.26954541015625,0.3916519284248352,-1.045753002166748,-2.54066801071167
1763698898908505300,8.27950537109375,0.6081051230430603,-0.7946369051933289,-1.9809068441390991
1763698898918466600,8.289466552734375,0.5948881506919861,-0.915289044380188,-1.3605570793151855
1763698898928426500,8.299426513671875,0.4260280132293701,-1.2278461456298828,-0.7687259912490845
1763698898938387700,8.3093876953125,0.23481197655200958,-1.4891419410705566,-0.3021151125431061
1763698898948347600,8.31934765625,0.11063090711832047,-1.575276494026184,-0.04020813852548599
1763698898958307600,8.3293076171875,0.07690782845020294,-1.4775664806365967,0.01817474327981472
1763698898968268500,8.3392685546875,0.09637899696826935,-1.2447912693023682,-0.10214341431856155
1763698898978228500,8.349228515625,0.11780013889074326,-0.9310701489448547,-0.3714691698551178
1763698898988189400,8.359189453125,0.09703333675861359,-0.6340680122375488,-0.7584334015846252
1763698898998149600,8.369149658203124,0.04110082983970642,-0.43914541602134705,-1.2092589139938354
1763698899008110600,8.379110595703125,-0.021034711971879005,-0.3546430468559265,-1.6638882160186768
1763698899018070500,8.389070556640625,-0.06825974583625793,-0.32323983311653137,-2.0526325702667236
1763698899028031500,8.399031494140624,-0.07328779250383377,-0.306418240070343,-2.3185548782348633
1763698899037991400,8.408991455078125,-0.02935762144625187,-0.27183791995048523,-2.4498558044433594
1763698899047951400,8.418951416015625,0.02057584933936596,-0.2036207616329193,-2.4119114875793457
1763698899057912600,8.42891259765625,0.07248938083648682,-0.11359713226556778,-2.1600990295410156
1763698899067872500,8.43887255859375,0.14227432012557983,-0.008376440964639187,-1.696923851966858
1763698899077833200,8.448833251953126,0.19479824602603912,0.07065313309431076,-1.080722689628601
1763698899087793200,8.458793212890624,0.22589623928070068,0.05645928159356117,-0.4219256639480591
1763698899097754000,8.468754150390625,0.22905901074409485,-0.030488133430480957,0.15869669616222382
1763698899107714300,8.47871435546875,0.21431735157966614,-0.13058143854141235,0.597000002861023
1763698899117675000,8.488675048828124,0.21844898164272308,-0.1274314522743225,0.9213232398033142
1763698899127635000,8.498635009765625,0.2773016393184662,0.015308116562664509,1.140717625617981
1763698899137596200,8.50859619140625,0.3895304501056671,0.27618151903152466,1.3014644384384155
1763698899147556000,8.51855615234375,0.5340591073036194,0.6273206472396851,1.4960880279541016
1763698899157516000,8.52851611328125,0.66595858335495,1.0282344818115234,1.7383781671524048
1763698899167477200,8.538477294921876,0.7385635375976562,1.4151164293289185,2.022155284881592
1763698899177437200,8.548437255859374,0.744632363319397,1.5411385297775269,2.3233165740966797
1763698899187398000,8.55839794921875,0.7284507155418396,1.3240426778793335,2.53678822517395
1763698899197358000,8.568358154296876,0.7890259027481079,0.8184077739715576,2.660006284713745
1763698899207319000,8.578319091796875,0.9789180755615234,0.24178306758403778,2.775860071182251
1763698899217279000,8.588279052734375,1.2336726188659668,-0.04791000112891197,2.9756391048431396
1763698899227240200,8.598240234375,1.441279649734497,0.02016199380159378,3.259631872177124
1763698899237200100,8.6082001953125,1.5639501810073853,0.2806375324726105,3.5272104740142822
1763698899247160000,8.61816015625,1.5818870067596436,0.5473741292953491,3.6639292240142822
1763698899257121000,8.62812109375,1.5569950342178345,0.9029042720794678,3.681033134460449
1763698899267081000,8.6380810546875,1.538513422012329,1.2814289331436157,3.6065990924835205
1763698899277042200,8.648042236328125,1.5872557163238525,1.562020182609558,3.396117925643921
1763698899287002000,8.658002197265626,1.7082335948944092,1.779754638671875,3.078792095184326
1763698899296963000,8.667963134765625,1.877554178237915,1.9169180393218994,2.69956111907959
1763698899306923300,8.67792333984375,2.0687899589538574,1.9581937789916992,2.2960519790649414
1763698899316884000,8.687884033203124,2.274474620819092,1.8509504795074463,1.892674446105957
1763698899326844000,8.697843994140625,2.49052095413208,1.603501558303833,1.5174750089645386
1763698899336804000,8.70780419921875,2.688917636871338,1.271902322769165,1.2013013362884521
1763698899346765000,8.71776513671875,2.842768907546997,0.9682542681694031,0.9372491836547852
1763698899356725000,8.72772509765625,2.925565481185913,0.7728509306907654,0.7097880840301514
1763698899366686200,8.737686279296875,2.909276008605957,0.7265188694000244,0.4759231209754944
1763698899376646100,8.747646240234374,2.781296730041504,0.8092195987701416,0.17452839016914368
1763698899386607000,8.757607177734375,2.56640625,0.9668209552764893,-0.1970350444316864
1763698899396567000,8.767567138671875,2.3279454708099365,1.1806069612503052,-0.6042544841766357
1763698899406528000,8.777528076171874,2.097222089767456,1.4051591157913208,-0.9763739705085754
1763698899416488200,8.78748828125,1.8838354349136353,1.6053963899612427,-1.2259126901626587
1763698899426449200,8.79744921875,1.6666147708892822,1.7588061094284058,-1.2977977991104126
1763698899436409000,8.8074091796875,1.4361748695373535,1.818684697151184,-1.154968500137329
1763698899446369300,8.817369384765625,1.1414090394973755,1.7686654329299927,-0.8159781694412231
1763698899456330000,8.827330078125,0.7337371110916138,1.617423176765442,-0.3456346392631531
1763698899466290000,8.8372900390625,0.21630620956420898,1.346126675605774,0.1441425234079361
1763698899476251100,8.847251220703125,-0.3454069197177887,0.9996071457862854,0.5401743054389954
1763698899486211000,8.857211181640626,-0.8699905276298523,0.6551714539527893,0.7432222366333008
1763698899496172000,8.867172119140625,-1.294996738433838,0.3936993479728699,0.7234663367271423
1763698899506132200,8.87713232421875,-1.5856865644454956,0.2492670863866806,0.46701139211654663
1763698899516093000,8.887093017578126,-1.767675518989563,0.20749619603157043,0.00119575927965343
1763698899526052900,8.897052978515624,-1.8750941753387451,0.2898227572441101,-0.575921893119812
1763698899536013000,8.907012939453125,-1.9077544212341309,0.4410892426967621,-1.0663909912109375
1763698899545974000,8.91697412109375,-1.8812021017074585,0.550823450088501,-1.2508782148361206
1763698899555934000,8.926933837890624,-1.894829511642456,0.49808064103126526,-1.1256505250930786
1763698899565895200,8.936895263671875,-2.0616648197174072,0.25331801176071167,-0.8881794214248657
1763698899575855000,8.946855224609376,-2.3801090717315674,-0.29457998275756836,-0.8059907555580139
1763698899585816000,8.956816162109375,-2.6246163845062256,-1.0253894329071045,-0.9196566343307495
1763698899595776000,8.96677587890625,-2.5552620887756348,-1.5158454179763794,-1.0708913803100586
1763698899605737000,8.976737060546874,-2.153719663619995,-1.591233730316162,-1.1702609062194824
1763698899615697200,8.986697265625,-1.6005464792251587,-1.4084649085998535,-1.2327979803085327
1763698899625658000,8.996658203125,-1.039237380027771,-1.1970010995864868,-1.2463465929031372
1763698899635618000,9.0066181640625,-0.5510817766189575,-1.0373811721801758,-1.1423940658569336
1763698899645578200,9.016578125,-0.20361411571502686,-0.9489825367927551,-0.875913679599762
1763698899655539000,9.0265390625,-0.006886135786771774,-0.9551118016242981,-0.49639350175857544
1763698899665499000,9.036498779296876,0.04511954262852669,-1.1622288227081299,-0.09357788413763046
1763698899675460000,9.046460205078125,-0.0191904716193676,-1.578917145729065,0.21887189149856567
1763698899685420000,9.056419921875,-0.15865355730056763,-2.0177500247955322,0.3663489520549774
1763698899695381200,9.06638134765625,-0.3351500332355499,-2.2979681491851807,0.3152053654193878
1763698899705341200,9.076341064453125,-0.5084248781204224,-2.319458246231079,0.07203078269958496
1763698899715302000,9.086302001953126,-0.631506621837616,-2.104302406311035,-0.326397567987442
1763698899725262000,9.096261962890624,-0.689200758934021,-1.6918833255767822,-0.7971171140670776
1763698899735222000,9.106221923828125,-0.7097318768501282,-1.1526273488998413,-1.303672432899475
1763698899745183000,9.116182861328125,-0.7439827919006348,-0.6292815208435059,-1.7985647916793823
1763698899755143200,9.12614306640625,-0.8251663446426392,-0.17296911776065826,-2.2333145141601562
1763698899765104000,9.136104248046875,-0.9390625357627869,0.17148014903068542,-2.569124698638916
1763698899775064000,9.14606396484375,-1.0497249364852905,0.4053637385368347,-2.7841525077819824
1763698899785025000,9.15602490234375,-1.1215569972991943,0.4914371073246002,-2.866710901260376
1763698899794985000,9.16598486328125,-1.1292662620544434,0.4717930853366852,-2.79300594329834
1763698899804946200,9.1759462890625,-1.0563089847564697,0.46011805534362793,-2.501016616821289
1763698899814906000,9.185906005859374,-0.9185000061988831,0.46491682529449463,-1.9944711923599243
1763698899824867000,9.1958671875,-0.7755881547927856,0.46205657720565796,-1.359277367591858
1763698899834827300,9.2058271484375,-0.6479321718215942,0.43285661935806274,-0.6765973567962646
1763698899844787200,9.215787109375,-0.545361340045929,0.4141809344291687,-0.028299015015363693
1763698899854748000,9.225747802734375,-0.453910231590271,0.4459766745567322,0.5549396276473999
1763698899864708000,9.2357080078125,-0.3388925790786743,0.47034433484077454,1.0544346570968628
1763698899874669000,9.2456689453125,-0.20360638201236725,0.4333290755748749,1.4434937238693237
1763698899884629000,9.25562890625,-0.06336884945631027,0.39340081810951233,1.7684375047683716
1763698899894590200,9.265590087890626,0.04080308973789215,0.39799371361732483,2.089033603668213
1763698899904550100,9.275550048828125,0.1008339375257492,0.5045164227485657,2.4095048904418945
1763698899914510800,9.2855107421875,0.0925815999507904,0.8338285684585571,2.719160318374634
1763698899924471000,9.295470947265626,0.04699254408478737,1.4041833877563477,2.9892380237579346
1763698899934432000,9.305431884765625,0.019994746893644333,1.8225196599960327,3.094417095184326
1763698899944392000,9.315391845703125,0.06439496576786041,1.8046858310699463,2.9513795375823975
1763698899954352000,9.32535205078125,0.26236265897750854,1.2553004026412964,2.601064682006836
1763698899964313000,9.33531298828125,0.650786280632019,0.3860915005207062,2.1712582111358643
1763698899974273000,9.34527294921875,1.1030904054641724,-0.24275033175945282,1.8668700456619263
1763698899984234000,9.35523388671875,1.4293254613876343,-0.4173482358455658,1.7375410795211792
1763698899994194000,9.36519384765625,1.568474531173706,-0.07809507101774216,1.7564218044281006
1763698900004155100,9.375155029296875,1.5759942531585693,0.6270231604576111,1.8861180543899536
1763698900014115000,9.385114990234374,1.5932438373565674,1.392062783241272,2.0581603050231934
1763698900024076000,9.395075927734375,1.7019636631011963,1.9804794788360596,2.2171213626861572
1763698900034036200,9.4050361328125,1.9178842306137085,2.248445749282837,2.2494475841522217
1763698900043996200,9.41499609375,2.1913235187530518,2.2609610557556152,2.1758835315704346
1763698900053956900,9.424956787109375,2.4807212352752686,2.1137547492980957,2.0252177715301514
1763698900063917000,9.4349169921875,2.7462987899780273,1.84553861618042,1.8131780624389648
1763698900073878000,9.4448779296875,2.9723455905914307,1.5152260065078735,1.5618497133255005
1763698900083838200,9.454838134765625,3.1411306858062744,1.1765896081924438,1.2879116535186768
1763698900093799200,9.464799072265626,3.237215518951416,0.8660932779312134,0.9804448485374451
1763698900103759400,9.47475927734375,3.2465696334838867,0.6195420622825623,0.6461747288703918
1763698900113720000,9.484719970703125,3.153031349182129,0.47206687927246094,0.2811102271080017
1763698900123680000,9.494679931640626,2.972792387008667,0.45840591192245483,-0.10280227661132812
1763698900133641200,9.50464111328125,2.7187278270721436,0.567933201789856,-0.5012471079826355
1763698900143601200,9.51460107421875,2.41153621673584,0.7348939776420593,-0.8896427750587463
1763698900153561000,9.52456103515625,2.111967086791992,0.9485479593276978,-1.1148642301559448
1763698900163522300,9.534522216796875,1.8257875442504883,1.20565664768219,-1.043515682220459
1763698900173482200,9.544482177734375,1.4882081747055054,1.4021798372268677,-0.7211195826530457
1763698900183443200,9.554443115234376,1.085646629333496,1.4376667737960815,-0.21086323261260986
1763698900193403100,9.564403076171875,0.6249589323997498,1.3235652446746826,0.43489766120910645
1763698900203364000,9.574364013671875,0.10524306446313858,1.0121359825134277,1.048429250717163
1763698900213324300,9.58432421875,-0.43556666374206543,0.5555393695831299,1.4705474376678467
1763698900223285200,9.59428515625,-0.9370236396789551,0.10485664010047913,1.6518170833587646
1763698900233245200,9.6042451171875,-1.3314907550811768,-0.2042279690504074,1.5946249961853027
1763698900243206100,9.6142060546875,-1.6212629079818726,-0.3080904483795166,1.2896709442138672
1763698900253166000,9.624166015625,-1.8196508884429932,-0.20639364421367645,0.7951016426086426
1763698900263126000,9.6341259765625,-1.9426742792129517,0.042149316519498825,0.2507334053516388
1763698900273087200,9.644087158203124,-1.9807889461517334,0.34336188435554504,-0.1536785066127777
1763698900283047200,9.654047119140625,-1.953867793083191,0.5822189450263977,-0.2700141668319702
1763698900293008100,9.664008056640625,-1.9644874334335327,0.6570385694503784,-0.19128580391407013
1763698900302968300,9.67396826171875,-2.1043756008148193,0.5054810047149658,-0.20798994600772858
1763698900312929300,9.68392919921875,-2.302964210510254,-0.03830903768539429,-0.5066884756088257
1763698900322889200,9.69388916015625,-2.3829751014709473,-0.7576104402542114,-0.9652672410011292
1763698900332850200,9.70385009765625,-2.173776626586914,-1.3360272645950317,-1.4022771120071411
1763698900342810000,9.71381005859375,-1.7018874883651733,-1.6108840703964233,-1.6888524293899536
1763698900352771300,9.723771240234376,-1.1307613849639893,-1.7324703931808472,-1.831335186958313
1763698900362731300,9.733731201171874,-0.6188179850578308,-1.835218071937561,-1.8133562803268433
1763698900372691200,9.743691162109375,-0.24857625365257263,-1.9609707593917847,-1.5783319473266602
1763698900382652200,9.753652099609376,-0.03007747419178486,-2.200868606567383,-1.1470178365707397
1763698900392612000,9.763612060546874,0.02689366601407528,-2.6108014583587646,-0.6467880606651306
1763698900402573000,9.773572998046875,-0.08685579895973206,-3.0012576580047607,-0.23562957346439362
1763698900412533200,9.783533203125,-0.29162147641181946,-3.092459201812744,0.002282329136505723
1763698900422494200,9.793494140625,-0.46691712737083435,-2.796741485595703,0.05630801245570183
1763698900432454100,9.8034541015625,-0.5626518726348877,-2.2970974445343018,-0.07127498090267181
1763698900442415400,9.813415283203126,-0.6193205118179321,-1.7889091968536377,-0.3430130183696747
1763698900452375300,9.823375244140625,-0.6917632818222046,-1.3523225784301758,-0.672153115272522
1763698900462336300,9.833336181640625,-0.7831805348396301,-1.0910323858261108,-1.0237691402435303
1763698900472296200,9.843296142578126,-0.8725224137306213,-0.9561171531677246,-1.3865591287612915
1763698900482256100,9.853256103515625,-0.9576892256736755,-0.911331832408905,-1.7410426139831543
1763698900492217300,9.86321728515625,-0.9751750230789185,-0.9392521977424622,-2.0616276264190674
1763698900502177300,9.87317724609375,-0.9110599160194397,-1.0027885437011719,-2.3304264545440674
1763698900512138200,9.88313818359375,-0.7947250604629517,-0.9428008198738098,-2.434729814529419
1763698900522098200,9.89309814453125,-0.6625635623931885,-0.6725296378135681,-2.298489570617676
1763698900532059100,9.90305908203125,-0.5461648106575012,-0.28063246607780457,-1.915160894393921
1763698900542019000,9.91301904296875,-0.4794408977031708,0.12350942194461823,-1.3318617343902588
1763698900551980300,9.922980224609375,-0.46732378005981445,0.3999934792518616,-0.6521314382553101
1763698900561940200,9.932940185546874,-0.46190398931503296,0.46196550130844116,0.015868445858359337
1763698900571901200,9.942901123046875,-0.4021573066711426,0.2612036466598511,0.5911639928817749
1763698900581861400,9.952861328125,-0.2800463140010834,0.013578392565250397,1.0319639444351196
1763698900591821300,9.9628212890625,-0.09733347594738007,-0.0629427433013916,1.3891551494598389
1763698900601782000,9.972781982421875,0.10508327931165695,0.0835590735077858,1.7096631526947021
1763698900611742200,9.9827421875,0.2840104103088379,0.43445131182670593,1.979106068611145
1763698900621703200,9.992703125,0.42381730675697327,0.8902643918991089,2.2139501571655273
1763698900631663000,10.0026630859375,0.5155943632125854,1.3961941003799438,2.444058656692505
1763698900641624300,10.012624267578126,0.5439575910568237,1.9244065284729004,2.7040512561798096
1763698900651584300,10.022584228515624,0.49984312057495117,2.4777016639709473,3.0264854431152344
1763698900661545200,10.032545166015625,0.43317726254463196,2.9282596111297607,3.3661978244781494
1763698900671505200,10.042505126953126,0.4233163893222809,3.0453245639801025,3.636242151260376
1763698900681466000,10.052466064453125,0.5233955979347229,2.826854944229126,3.8070547580718994
1763698900691426300,10.06242626953125,0.7487373352050781,2.378390073776245,3.8977670669555664
1763698900701386200,10.07238623046875,1.111052393913269,1.7975655794143677,3.960873603820801
1763698900711347200,10.08234716796875,1.5392814874649048,1.2696082592010498,4.071713924407959
1763698900721307400,10.092307373046875,1.8753501176834106,0.6240524053573608,4.146068096160889
1763698900731268000,10.10226806640625,1.9585442543029785,-0.08206291496753693,4.017404079437256
1763698900741228000,10.11222802734375,1.727768898010254,-0.35643666982650757,3.6523728370666504
1763698900751189200,10.122189208984375,1.3547074794769287,0.17721712589263916,3.089365005493164
1763698900761149200,10.132149169921876,1.0868693590164185,1.24224853515625,2.3296308517456055
1763698900771110400,10.1421103515625,1.053817629814148,2.379040479660034,1.4484049081802368
1763698900781070300,10.1520703125,1.2650127410888672,3.304631233215332,0.5941597819328308
1763698900791031000,10.162031005859374,1.5867406129837036,3.891993999481201,-0.13396047055721283
1763698900800991200,10.1719912109375,1.908959150314331,4.03211784362793,-0.7088817954063416
1763698900810952200,10.1819521484375,2.185772657394409,3.771965503692627,-1.0983712673187256
1763698900820912000,10.191912109375,2.4113566875457764,3.175262689590454,-1.3134171962738037
1763698900830872300,10.201872314453125,2.585148334503174,2.414273977279663,-1.3840482234954834
1763698900840833300,10.211833251953125,2.7151131629943848,1.6978753805160522,-1.3281335830688477
1763698900850793200,10.221793212890624,2.783003807067871,1.1067432165145874,-1.2227534055709839
1763698900860754200,10.231754150390625,2.787750482559204,0.6930946111679077,-1.1087865829467773
1763698900870714000,10.241714111328125,2.7230632305145264,0.44076913595199585,-0.9919174909591675
1763698900880675000,10.251675048828124,2.583557605743408,0.3158607482910156,-0.9157990217208862
1763698900890635300,10.26163525390625,2.4042084217071533,0.3166445195674896,-0.8870930671691895
1763698900900596200,10.27159619140625,2.2023799419403076,0.42456698417663574,-0.8220152854919434
1763698900910556200,10.28155615234375,1.9857794046401978,0.5675944685935974,-0.6481577157974243
1763698900920516400,10.291516357421875,1.7285460233688354,0.6903006434440613,-0.3335060775279999
1763698900930477000,10.30147705078125,1.3845795392990112,0.766005277633667,0.04854116961359978
1763698900940437000,10.31143701171875,0.9585070610046387,0.7516921162605286,0.4098559617996216
1763698900950398200,10.321398193359375,0.5225161910057068,0.6049684882164001,0.6845258474349976
1763698900960358100,10.331358154296876,0.0999859869480133,0.4149830937385559,0.8059406876564026
1763698900970319400,10.3413193359375,-0.29111358523368835,0.1905912458896637,0.7127247452735901
1763698900980279300,10.351279296875,-0.6212451457977295,-0.031445808708667755,0.39433878660202026
1763698900990240000,10.361239990234376,-0.8818562626838684,-0.1376023292541504,-0.060437243431806564
1763698901000200200,10.3712001953125,-1.0564898252487183,-0.12668417394161224,-0.5636079907417297
1763698901010161200,10.3811611328125,-1.1712779998779297,-0.04092106595635414,-1.0066823959350586
1763698901020121000,10.39112109375,-1.2383991479873657,0.06798943877220154,-1.2515772581100464
1763698901030082300,10.401082275390625,-1.2621668577194214,0.05937384441494942,-1.2279561758041382
1763698901040042200,10.411042236328125,-1.293806791305542,-0.16392847895622253,-0.9547142386436462
1763698901050002200,10.421002197265626,-1.3952058553695679,-0.5916481018066406,-0.627400279045105
1763698901059963100,10.430963134765625,-1.5862774848937988,-1.2799272537231445,-0.5546187162399292
1763698901069923000,10.440923095703125,-1.7675360441207886,-2.119271755218506,-0.7836229205131531
1763698901079884000,10.450884033203126,-1.6811941862106323,-2.79242205619812,-1.199356198310852
1763698901089844200,10.46084423828125,-1.2283228635787964,-3.013150691986084,-1.6418225765228271
1763698901099805200,10.47080517578125,-0.5386453866958618,-2.759941577911377,-2.01214337348938
1763698901109765000,10.48076513671875,0.20430466532707214,-2.2621829509735107,-2.188035726547241
1763698901119726000,10.49072607421875,0.8168224096298218,-1.7590885162353516,-2.078000068664551
1763698901129686000,10.50068603515625,1.1795971393585205,-1.576381802558899,-1.7159128189086914
1763698901139647200,10.510647216796874,1.2017855644226074,-1.7348272800445557,-1.200943946838379
1763698901149607200,10.520607177734375,0.9476690888404846,-2.0299735069274902,-0.6726609468460083
1763698901159567000,10.530567138671875,0.6319712996482849,-2.34306001663208,-0.2907325029373169
1763698901169528300,10.5405283203125,0.461565226316452,-2.6438815593719482,-0.18327608704566956
1763698901179488300,10.55048828125,0.4780464768409729,-2.7835466861724854,-0.376984566450119
1763698901189449000,10.560448974609375,0.6003814339637756,-2.6732535362243652,-0.6911835074424744
1763698901199409200,10.5704091796875,0.7101412415504456,-2.384523868560791,-0.96595698595047
1763698901209370000,10.5803701171875,0.7095803618431091,-2.0706498622894287,-1.166545033454895
1763698901219330000,10.590330078125,0.556647777557373,-1.6147658824920654,-1.3114947080612183
1763698901229291300,10.600291259765624,0.26872652769088745,-1.121273159980774,-1.4349201917648315
1763698901239251200,10.610251220703125,-0.03371002525091171,-0.6620303988456726,-1.5416088104248047
1763698901249212200,10.620212158203126,-0.26902320981025696,-0.20023483037948608,-1.62190580368042
1763698901259172000,10.630172119140624,-0.42979636788368225,0.25917378067970276,-1.694430947303772
1763698901269132000,10.640132080078125,-0.5252291560173035,0.6685120463371277,-1.7327746152877808
1763698901279093200,10.65009326171875,-0.5513651371002197,1.0086088180541992,-1.6942588090896606
1763698901289053200,10.66005322265625,-0.5087878704071045,1.2171330451965332,-1.5396440029144287
1763698901299014100,10.67001416015625,-0.44752582907676697,1.3286161422729492,-1.267275094985962
1763698901308974300,10.679974365234376,-0.42055919766426086,1.3585205078125,-0.8827736973762512
1763698901318935000,10.68993505859375,-0.43265581130981445,1.3807501792907715,-0.41682571172714233
1763698901328895000,10.69989501953125,-0.4641314446926117,1.4603039026260376,0.09902910888195038
1763698901338856200,10.709856201171876,-0.47244611382484436,1.5755540132522583,0.593250572681427
1763698901348816100,10.719816162109375,-0.4335367977619171,1.7262718677520752,1.002700924873352
1763698901358777000,10.729777099609375,-0.33069828152656555,1.8985488414764404,1.3723098039627075
1763698901368737300,10.7397373046875,-0.19298037886619568,2.0208752155303955,1.714091420173645
1763698901378698000,10.749697998046875,-0.081049844622612,2.090245008468628,2.027418613433838
1763698901388658000,10.759657958984375,-0.01522768847644329,2.178694009780884,2.3483076095581055
1763698901398618000,10.7696181640625,0.004408863373100758,2.399224281311035,2.747404098510742
1763698901408579000,10.7795791015625,-0.018094316124916077,2.6647932529449463,3.176689863204956
1763698901418539000,10.7895390625,0.004808603785932064,2.634506940841675,3.448143720626831
1763698901428500200,10.799500244140624,0.19589360058307648,2.099163055419922,3.4700169563293457
1763698901438460200,10.809460205078125,0.5752209424972534,1.066530704498291,3.2438738346099854
1763698901448421000,10.819421142578125,1.0282278060913086,-0.12549348175525665,2.8045387268066406
1763698901458381000,10.829381103515624,1.4277806282043457,-1.002781629562378,2.3338563442230225
1763698901468342000,10.839342041015625,1.6854640245437622,-1.2195069789886475,1.9287965297698975
1763698901478302200,10.84930224609375,1.7994377613067627,-0.5344282388687134,1.6968892812728882
1763698901488263200,10.85926318359375,1.8179198503494263,0.7182551026344299,1.7123539447784424
1763698901498223000,10.86922314453125,1.8247638940811157,1.9462306499481201,1.9626413583755493
1763698901508183300,10.879183349609375,1.8599826097488403,2.7181310653686523,2.281693696975708
1763698901518144300,10.889144287109374,1.9403951168060303,2.851473569869995,2.485332727432251
1763698901528104200,10.899104248046875,2.0465505123138428,2.5988025665283203,2.5387656688690186
1763698901538065200,10.909065185546876,2.183626651763916,2.1358602046966553,2.4459893703460693
1763698901548025000,10.919025146484374,2.37139630317688,1.5394700765609741,2.2022321224212646
1763698901557986300,10.928986328125,2.575876474380493,0.9502726197242737,1.8538618087768555
1763698901567946200,10.9389462890625,2.7459542751312256,0.5047540068626404,1.4360188245773315
1763698901577907200,10.9489072265625,2.8144853115081787,0.28117361664772034,0.9894522428512573
1763698901587867100,10.9588671875,2.73028302192688,0.289497047662735,0.5310529470443726
1763698901597828000,10.968828125,2.5222747325897217,0.5085663199424744,0.06855189800262451
1763698901607788000,10.9787880859375,2.240398406982422,0.8811529278755188,-0.3725685179233551
1763698901617748200,10.988748291015625,1.9248014688491821,1.3141796588897705,-0.7765671014785767
1763698901627709200,10.998709228515626,1.6270065307617188,1.7010656595230103,-1.0836175680160522
1763698901637669000,11.008669189453125,1.3803422451019287,1.9909781217575073,-1.218473196029663
1763698901647630300,11.01863037109375,1.168814778327942,2.08870267868042,-1.1743874549865723
1763698901657590300,11.02859033203125,0.9259698987007141,1.9547234773635864,-0.9802381992340088
1763698901667551000,11.038551025390625,0.6190406084060669,1.6041436195373535,-0.6660754680633545
1763698901677511200,11.04851123046875,0.23211392760276794,1.1845972537994385,-0.2714940905570984
1763698901687472000,11.05847216796875,-0.20205216109752655,0.7608587145805359,0.14209695160388947
1763698901697432000,11.06843212890625,-0.6303364038467407,0.3737379014492035,0.531614363193512
1763698901707393300,11.078393310546875,-1.0339683294296265,0.01678856648504734,0.819879949092865
1763698901717353200,11.088353271484374,-1.380273461341858,-0.3128393888473511,0.9458858370780945
1763698901727313200,11.098313232421875,-1.6839414834976196,-0.552830159664154,0.9211823344230652
1763698901737274000,11.108274169921875,-1.966422200202942,-0.7073281407356262,0.7147695422172546
1763698901747234000,11.118234130859374,-2.2104384899139404,-0.8184759616851807,0.33889976143836975
1763698901757195300,11.1281953125,-2.360290050506592,-0.8589224219322205,-0.12546604871749878
1763698901767155200,11.1381552734375,-2.3842601776123047,-0.7765743136405945,-0.5190075039863586
1763698901777116200,11.1481162109375,-2.2766330242156982,-0.5344708561897278,-0.626054584980011
1763698901787076400,11.158076416015625,-2.1191959381103516,-0.36329030990600586,-0.3329968750476837
1763698901797037000,11.168037109375,-2.014465570449829,-0.6641220450401306,0.09657980501651764
1763698901806997000,11.1779970703125,-2.091301202774048,-1.3643821477890015,0.27116864919662476
1763698901816958200,11.187958251953125,-2.32729434967041,-2.3293519020080566,-0.0072901370003819466
1763698901826918100,11.197918212890626,-2.4174911975860596,-3.207197666168213,-0.736193835735321
1763698901836879400,11.20787939453125,-2.1425604820251465,-3.553710699081421,-1.7274333238601685
1763698901846839300,11.21783935546875,-1.4882923364639282,-3.4247779846191406,-2.7914860248565674
1763698901856799200,11.22779931640625,-0.5832234621047974,-2.9979302883148193,-3.7396085262298584
1763698901866760200,11.23776025390625,0.30350902676582336,-2.279858112335205,-4.3089494705200195
1763698901876720000,11.24772021484375,0.8760127425193787,-1.4092295169830322,-4.172478675842285
1763698901886681000,11.25768115234375,1.0254818201065063,-0.6893230080604553,-3.2796671390533447
1763698901896641300,11.267641357421875,0.8208842277526855,-0.39724189043045044,-1.997120976448059
1763698901906602200,11.277602294921875,0.39876577258110046,-0.5911610126495361,-0.7582166194915771
1763698901916562200,11.287562255859376,-0.047996554523706436,-1.0242104530334473,0.12046702206134796
1763698901926523100,11.297523193359375,-0.39351293444633484,-1.398417592048645,0.5365691781044006
1763698901936483000,11.307483154296875,-0.5593519806861877,-1.6742143630981445,0.48518213629722595
1763698901946444000,11.317444091796874,-0.5510886907577515,-1.8475397825241089,0.05630428344011307
1763698901956404200,11.327404296875,-0.4419132173061371,-1.8857781887054443,-0.6246734857559204
1763698901966364200,11.3373642578125,-0.3276151418685913,-1.7384438514709473,-1.4146349430084229
1763698901976325000,11.3473251953125,-0.29884421825408936,-1.3661528825759888,-2.1395463943481445
1763698901986285300,11.357285400390625,-0.36596813797950745,-0.8701916337013245,-2.6424102783203125
1763698901996246000,11.36724609375,-0.4866921603679657,-0.3494597375392914,-2.8711330890655518
1763698902006206000,11.3772060546875,-0.6289734244346619,0.1380864977836609,-2.883523464202881
1763698902016167200,11.387167236328125,-0.7532317042350769,0.527052640914917,-2.7015719413757324
1763698902026127000,11.397127197265625,-0.8089300990104675,0.7367728352546692,-2.360507011413574
1763698902036088300,11.40708837890625,-0.7861446142196655,0.6702092289924622,-1.938698649406433
1763698902046048300,11.41704833984375,-0.6813125014305115,0.38646674156188965,-1.4769395589828491
1763698902056009000,11.427009033203126,-0.5046905875205994,0.07024460285902023,-0.9496232867240906
1763698902065969200,11.43696923828125,-0.27029699087142944,-0.11137951910495758,-0.30995625257492065
1763698902075929000,11.44692919921875,-0.11045646667480469,-0.18109442293643951,0.43541085720062256
1763698902085890300,11.456890380859376,-0.1154879778623581,-0.15140017867088318,1.1766098737716675
1763698902095850200,11.466850341796874,-0.12224601954221725,-0.021887721493840218,1.832016944885254
1763698902105811500,11.4768115234375,-0.016047941520810127,0.2419833391904831,2.2937567234039307
1763698902115771400,11.486771484375,0.09996175020933151,0.6801428198814392,2.587380886077881
1763698902125732400,11.496732421875,0.24995310604572296,1.2458951473236084,2.7822909355163574
1763698902135692300,11.5066923828125,0.3917291462421417,1.823250412940979,2.9501166343688965
1763698902145653200,11.5166533203125,0.4851081073284149,2.375967025756836,3.177506923675537
1763698902155613400,11.526613525390625,0.5085833072662354,2.813337564468384,3.431906223297119
1763698902165574400,11.536574462890625,0.4986705183982849,2.9306633472442627,3.560098886489868
1763698902175534300,11.546534423828126,0.5899910926818848,2.649909019470215,3.530675172805786
1763698902185495300,11.556495361328125,0.8964098691940308,1.9466983079910278,3.3912484645843506
1763698902195455200,11.566455322265625,1.351859211921692,1.010785460472107,3.2297120094299316
1763698902205415200,11.576415283203126,1.7947399616241455,0.09899395704269409,3.109509229660034
1763698902215376400,11.58637646484375,1.9984253644943237,-0.6585139632225037,3.010186195373535
1763698902225336300,11.59633642578125,1.9390987157821655,-1.1024152040481567,2.8302700519561768
1763698902235297300,11.60629736328125,1.7210873365402222,-0.8994413614273071,2.5789177417755127
1763698902245257500,11.616257568359375,1.502036690711975,-0.12088087946176529,2.2037582397460938
1763698902255218200,11.62621826171875,1.4005275964736938,0.9525299072265625,1.674857497215271
1763698902265178000,11.63617822265625,1.4953961372375488,1.9574178457260132,1.064495325088501
1763698902275139300,11.646139404296875,1.7551571130752563,2.6796791553497314,0.493770033121109
1763698902285099300,11.656099365234375,2.0687415599823,3.0347900390625,0.022852584719657898
1763698902295060500,11.666060546875,2.3581814765930176,2.9975829124450684,-0.2899141013622284
1763698902305020400,11.6760205078125,2.5900630950927734,2.6188340187072754,-0.4239014685153961
1763698902314980400,11.68598046875,2.757608413696289,1.998329758644104,-0.4284365773200989
1763698902324941300,11.69594140625,2.8548667430877686,1.2887121438980103,-0.363353967666626
1763698902334901200,11.7059013671875,2.89772891998291,0.6415762901306152,-0.28364503383636475
1763698902344862200,11.7158623046875,2.8764748573303223,0.19147568941116333,-0.22380007803440094
1763698902354822400,11.725822509765624,2.7918965816497803,-0.01780189946293831,-0.19855889678001404
1763698902364783400,11.735783447265625,2.649684190750122,-0.033239446580410004,-0.21276739239692688
1763698902374743300,11.745743408203126,2.4572038650512695,0.11662275344133377,-0.26625457406044006
1763698902384704300,11.755704345703125,2.219045400619507,0.3752114176750183,-0.33028444647789
1763698902394664200,11.765664306640625,1.9386587142944336,0.6379109621047974,-0.33292335271835327
1763698902404625400,11.77562548828125,1.614340901374817,0.8085780739784241,-0.21329842507839203
1763698902414585300,11.78558544921875,1.238515853881836,0.8890103101730347,0.02087412215769291
1763698902424545300,11.795545166015625,0.8057178258895874,0.904532253742218,0.33032357692718506
1763698902434506500,11.805506591796876,0.317134827375412,0.7939817905426025,0.6415387392044067
1763698902444466400,11.815466552734375,-0.2100139558315277,0.5760113596916199,0.8982778191566467
1763698902454427100,11.82542724609375,-0.7268514633178711,0.29248353838920593,1.0329993963241577
1763698902464387300,11.83538720703125,-1.1731834411621094,-0.028328577056527138,0.9702441692352295
1763698902474348300,11.845348388671875,-1.49285089969635,-0.321548730134964,0.7180992960929871
1763698902484308200,11.85530810546875,-1.653283715248108,-0.5501624941825867,0.3310684859752655
1763698902494269400,11.86526953125,-1.6996976137161255,-0.5908137559890747,-0.10182783007621765
1763698902504229400,11.8752294921875,-1.6837377548217773,-0.4802244007587433,-0.4677831828594208
1763698902514190300,11.8851904296875,-1.6600468158721924,-0.44368770718574524,-0.7312976121902466
1763698902524150300,11.895150390625,-1.648559331893921,-0.611552357673645,-0.903403639793396
1763698902534111200,11.905111328125,-1.6690304279327393,-0.9154056906700134,-1.03766930103302
1763698902544071400,11.915071533203125,-1.7638603448867798,-1.3299301862716675,-1.235244631767273
1763698902554031400,11.92503125,-1.8642982244491577,-1.8343544006347656,-1.5587856769561768
1763698902563992300,11.934992431640625,-1.8011120557785034,-2.3299429416656494,-1.9498744010925293
1763698902573952300,11.9449521484375,-1.470236897468567,-2.6782705783843994,-2.323035955429077
1763698902583913200,11.954913330078124,-0.9816734194755554,-2.7427937984466553,-2.6086363792419434
1763698902593873200,11.964873046875,-0.44197767972946167,-2.570063591003418,-2.7207889556884766
1763698902603834400,11.97483447265625,0.02574903890490532,-2.2888779640197754,-2.619630813598633
1763698902613794300,11.984794189453124,0.32879918813705444,-1.9684568643569946,-2.3352253437042236
1763698902623755300,11.99475537109375,0.44320058822631836,-1.6482537984848022,-1.900884747505188
1763698902633715500,12.004715576171876,0.3761368691921234,-1.3570563793182373,-1.3848868608474731
1763698902643676200,12.01467626953125,0.18244756758213043,-1.1361985206604004,-0.9526004791259766
1763698902653636000,12.024635986328125,-0.04041692987084389,-1.00224769115448,-0.7327834367752075
1763698902663596300,12.03459619140625,-0.24024908244609833,-0.8364389538764954,-0.7000579833984375
1763698902673557200,12.04455712890625,-0.3895450830459595,-0.5992929935455322,-0.8283301591873169
1763698902683517200,12.05451708984375,-0.4798462390899658,-0.3114691972732544,-1.0876379013061523
1763698902693478400,12.064478515625,-0.5316367149353027,-0.021874139085412025,-1.389143943786621
1763698902703438300,12.074438232421874,-0.5754255056381226,0.20723147690296173,-1.683475136756897
1763698902713399300,12.0843994140625,-0.6499140858650208,0.3706454336643219,-1.9298090934753418
1763698902723359200,12.094359130859376,-0.7379552721977234,0.4772254228591919,-2.093257427215576
1763698902733320200,12.1043203125,-0.8329297304153442,0.5252512693405151,-2.143770456314087
1763698902743280400,12.1142802734375,-0.9120485186576843,0.562926709651947,-2.0698721408843994
1763698902753241300,12.124241455078124,-0.9524308443069458,0.6103605628013611,-1.8949488401412964
1763698902763201300,12.134201171875,-0.9353716969490051,0.6754538416862488,-1.6428444385528564
1763698902773161500,12.144161376953125,-0.8559458255767822,0.7059805393218994,-1.3238699436187744
1763698902783122200,12.1541220703125,-0.7245483994483948,0.6904324889183044,-0.9539371132850647
1763698902793082000,12.16408203125,-0.575699508190155,0.7135934829711914,-0.5625275373458862
1763698902803043300,12.174043212890625,-0.43890491127967834,0.7529323697090149,-0.18514534831047058
1763698902813003300,12.184003173828126,-0.28241971135139465,0.8083929419517517,0.1582527607679367
1763698902822964500,12.193964599609375,-0.07862663269042969,0.896605908870697,0.45435631275177
1763698902832924400,12.20392431640625,0.19254468381404877,1.0346388816833496,0.7334723472595215
1763698902842885400,12.213885498046874,0.5035549998283386,1.163436770439148,0.9974994659423828
1763698902852845300,12.22384521484375,0.8057817220687866,1.2271872758865356,1.2586109638214111
1763698902862806300,12.23380615234375,1.053735613822937,1.275423288345337,1.5581684112548828
1763698902872766200,12.24376611328125,1.235585331916809,1.425838828086853,1.9964003562927246
1763698902882727400,12.2537275390625,1.3372162580490112,1.6687172651290894,2.626098155975342
1763698902892687400,12.263687255859375,1.3258028030395508,1.8167450428009033,3.2964091300964355
1763698902902647300,12.273647216796874,1.250179648399353,1.6461395025253296,3.7764804363250732
1763698902912608500,12.2836083984375,1.2317301034927368,1.1446346044540405,3.9499661922454834
1763698902922568400,12.293568359375,1.370932698249817,0.5250377058982849,3.9111223220825195
1763698902932529200,12.303529052734374,1.7211328744888306,0.14426103234291077,3.9046244621276855
1763698902942489300,12.3134892578125,2.1121554374694824,-0.17933380603790283,4.003760814666748
1763698902952450300,12.3234501953125,2.188053846359253,-0.638012170791626,3.9595022201538086
1763698902962410200,12.33341015625,1.8435591459274292,-0.7322779297828674,3.6608192920684814
1763698902972371500,12.343371337890625,1.3287250995635986,-0.04697869345545769,3.209846019744873
1763698902982331400,12.353331298828126,0.9847091436386108,1.2075339555740356,2.703889846801758
1763698902992292400,12.363292236328125,0.9735025763511658,2.5371131896972656,2.2134084701538086
1763698903002252300,12.373252197265625,1.2592413425445557,3.5056397914886475,1.7336633205413818
1763698903012212200,12.383212158203126,1.6689848899841309,4.006394863128662,1.2965871095657349
1763698903022173400,12.39317333984375,2.0538346767425537,3.9958364963531494,0.920818567276001
1763698903032133400,12.40313330078125,2.401103973388672,3.5497453212738037,0.6465542316436768
1763698903042094300,12.41309423828125,2.7134666442871094,2.8213939666748047,0.4746120572090149
1763698903052054500,12.423054443359375,2.9954636096954346,1.9622071981430054,0.3621307909488678
1763698903062015200,12.43301513671875,3.2466301918029785,1.1532336473464966,0.23933908343315125
1763698903071975200,12.44297509765625,3.463841676712036,0.5243782997131348,0.08231671154499054
1763698903081936600,12.4529365234375,3.6501941680908203,0.1724300980567932,-0.08731226623058319
1763698903091896600,12.462896484375,3.778986930847168,0.17872340977191925,-0.24592748284339905
1763698903101857500,12.472857421875,3.8105950355529785,0.3845072090625763,-0.4114946126937866
1763698903111817500,12.4828173828125,3.710226535797119,0.632777988910675,-0.578308641910553
