time,seconds_elapsed,z,y,x
1763699999474605300,0.053605224609375,0.02359880320727825,0.028181036934256554,0.10731393843889236
1763699999484556500,0.063556640625,0.01236345898360014,0.06592602282762527,0.1280042976140976
1763699999494507300,0.07350732421875,-0.001534779672510922,0.08472394198179245,0.11289618909358978
1763699999504457500,0.08345751953125,-0.01058952696621418,0.07891452312469482,0.06799742579460144
1763699999514408400,0.093408447265625,-0.012760802172124386,0.05997838079929352,0.005243231542408466
1763699999524358400,0.1033583984375,-0.009512810967862606,0.03875831514596939,-0.05936958268284798
1763699999534309400,0.113309326171875,-0.007447530049830675,0.02213699370622635,-0.10773365199565887
1763699999544260400,0.12326025390625,-0.007383613847196102,0.010118413716554642,-0.13757917284965515
1763699999554210300,0.133210205078125,-0.009608418680727482,0.001674595638178289,-0.13743215799331665
1763699999564161300,0.143161376953125,-0.0171427670866251,-0.004780374001711607,-0.11406797915697098
1763699999574112500,0.153112548828125,-0.021447768434882164,0.0015105449128895998,-0.07155913859605789
1763699999584062500,0.1630625,-0.0201548021286726,0.01008166279643774,-0.01401595026254654
1763699999594013400,0.173013427734375,-0.018793927505612373,0.010460896417498589,0.040771931409835815
1763699999603963400,0.18296337890625,-0.01218476053327322,-0.0016916398890316486,0.07989723235368729
1763699999613914400,0.192914306640625,-0.014722486957907677,-0.008563927374780178,0.09530015289783478
1763699999623865300,0.202865234375,-0.023426495492458344,-0.017598967999219894,0.0927421897649765
1763699999633815300,0.212815185546875,-0.03549647331237793,-0.02442624792456627,0.07002142816781998
1763699999643766500,0.2227666015625,-0.04314747080206871,-0.039932768791913986,0.03634096309542656
1763699999653717200,0.23271728515625,-0.05253111943602562,-0.056112539023160934,-0.004406998865306377
1763699999663667500,0.24266748046875,-0.0665782243013382,-0.06716146320104599,-0.03701287880539894
1763699999673618400,0.252618408203125,-0.08261924237012863,-0.06269986927509308,-0.06246044859290123
1763699999683568000,0.262568115234375,-0.09542478621006012,-0.04291817173361778,-0.07433947920799255
1763699999693519400,0.272519287109375,-0.11056965589523315,-0.029205555096268654,-0.07829054445028305
1763699999703470600,0.282470703125,-0.12068647146224976,-0.009880593977868557,-0.07224836200475693
1763699999713420300,0.292420166015625,-0.1270437091588974,0.013227121904492378,-0.061339523643255234
1763699999723371300,0.302371337890625,-0.13232794404029846,0.03111450932919979,-0.053818490356206894
1763699999733321500,0.312321533203125,-0.1433105617761612,0.022852851077914238,-0.05024932324886322
1763699999743272200,0.322272216796875,-0.15350674092769623,-0.000919323181733489,-0.04382657632231712
1763699999753223400,0.332223388671875,-0.17041142284870148,-0.009247028268873692,-0.04730546474456787
1763699999763173400,0.34217333984375,-0.1936458945274353,-0.01293444074690342,-0.05416390299797058
1763699999773124400,0.352124267578125,-0.2288169413805008,-0.035596076399087906,-0.055154331028461456
1763699999783075300,0.362075439453125,-0.26626232266426086,-0.06254087388515472,-0.0473368875682354
1763699999793025300,0.372025390625,-0.29736751317977905,-0.08013691008090973,-0.03135126456618309
1763699999802976300,0.381976318359375,-0.3146919012069702,-0.09798914939165115,-0.011510981246829033
1763699999812926200,0.39192626953125,-0.3123682737350464,-0.10709556192159653,-0.003108441596850753
1763699999822877400,0.40187744140625,-0.3038802742958069,-0.1379634588956833,-0.004234426189213991
1763699999832828200,0.411828125,-0.3116796016693115,-0.17262770235538483,-0.031269773840904236
1763699999842778400,0.4217783203125,-0.36271482706069946,-0.1884775012731552,-0.062256451696157455
1763699999852729300,0.431729248046875,-0.42515021562576294,-0.16870379447937012,-0.10104165971279144
1763699999862679300,0.44167919921875,-0.48025208711624146,-0.1294783651828766,-0.14081278443336487
1763699999872630300,0.45163037109375,-0.5122665166854858,-0.12243936210870743,-0.17840676009655
1763699999882581500,0.46158154296875,-0.5053116679191589,-0.17949412763118744,-0.2043965458869934
1763699999892531500,0.471531494140625,-0.5063308477401733,-0.3489377498626709,-0.23349077999591827
1763699999902482200,0.481482177734375,-0.4861299693584442,-0.32937631011009216,-0.2325000911951065
1763699999912433400,0.491433349609375,-0.44722864031791687,-0.2199091911315918,-0.2067028433084488
1763699999922383400,0.50138330078125,-0.41323259472846985,-0.16094893217086792,-0.18207313120365143
1763699999932334300,0.511334228515625,-0.3738601505756378,-0.17276404798030853,-0.1707853227853775
1763699999942284300,0.5212841796875,-0.33276650309562683,-0.2289050817489624,-0.1691189855337143
1763699999952235500,0.531235595703125,-0.30306559801101685,-0.27518948912620544,-0.16273511946201324
1763699999962186200,0.541186279296875,-0.2837907075881958,-0.264427125453949,-0.15006139874458313
1763699999972136200,0.55113623046875,-0.26790788769721985,-0.23123028874397278,-0.1418633908033371
1763699999982087400,0.56108740234375,-0.2518455684185028,-0.22737669944763184,-0.13806413114070892
1763699999992037400,0.571037353515625,-0.2356833666563034,-0.23166492581367493,-0.13083870708942413
1763700000001988400,0.58098828125,-0.1983271986246109,-0.2752605974674225,-0.12595340609550476
1763700000011939300,0.590939208984375,-0.1618986278772354,-0.26925942301750183,-0.11937699466943741
1763700000021889500,0.6008896484375,-0.12335016578435898,-0.22478704154491425,-0.1210625097155571
1763700000031840300,0.61084033203125,-0.08968327939510345,-0.15829908847808838,-0.13425713777542114
1763700000041791500,0.62079150390625,-0.057204168289899826,-0.07987858355045319,-0.15174105763435364
1763700000051741400,0.630741455078125,-0.026214294135570526,-0.0012660667998716235,-0.17365089058876038
1763700000061692400,0.6406923828125,0.0046267095021903515,0.07161186635494232,-0.18866445124149323
1763700000071642400,0.650642333984375,0.029678000137209892,0.1115342527627945,-0.19503793120384216
1763700000081593300,0.66059326171875,0.05590614303946495,0.11196914315223694,-0.18957951664924622
1763700000091544300,0.67054443359375,0.07234663516283035,0.1018131822347641,-0.17659075558185577
1763700000101494300,0.680494384765625,0.08660173416137695,0.10791368037462234,-0.16093002259731293
1763700000111445500,0.690445556640625,0.0996866449713707,0.12972497940063477,-0.14721128344535828
1763700000121395500,0.7003955078125,0.1179833635687828,0.1489468663930893,-0.13057692348957062
1763700000131346400,0.710346435546875,0.14490339159965515,0.13427898287773132,-0.11216381937265396
1763700000141297400,0.72029736328125,0.16157184541225433,0.09039194881916046,-0.09416458010673523
1763700000151247400,0.730247314453125,0.16592185199260712,0.055745288729667664,-0.08038271963596344
1763700000161198300,0.7401982421875,0.16722041368484497,0.04453258216381073,-0.07157831639051437
1763700000171148300,0.750148193359375,0.17197363078594208,0.03433826565742493,-0.06137654185295105
1763700000181099500,0.760099609375,0.17177362740039825,0.0008415589109063148,-0.048656217753887177
1763700000191050200,0.77005029296875,0.16941618919372559,-0.042334672063589096,-0.032525185495615005
1763700000201000400,0.78000048828125,0.1680329442024231,-0.08000242710113525,-0.02262834645807743
1763700000210951400,0.789951416015625,0.16087596118450165,-0.1168813481926918,-0.014962171204388142
1763700000220902400,0.79990234375,0.14374412596225739,-0.15083451569080353,-0.013231117278337479
1763700000230852400,0.809852294921875,0.12875637412071228,-0.151621475815773,-0.010588196106255054
1763700000240803300,0.81980322265625,0.11632607877254486,-0.11856073141098022,-0.013185576535761356
1763700000250753300,0.829753173828125,0.10579380393028259,-0.0978647768497467,-0.00977486651390791
1763700000260704300,0.839704345703125,0.0951041430234909,-0.0917472317814827,-0.007487743627279997
1763700000270655500,0.849655517578125,0.08973041921854019,-0.07727348059415817,-0.010146111249923706
1763700000280605400,0.85960546875,0.09783867746591568,-0.050983820110559464,-0.016460198909044266
1763700000290556400,0.869556396484375,0.0989750474691391,-0.04644739255309105,-0.02257082238793373
1763700000300506400,0.87950634765625,0.09275257587432861,-0.06589885801076889,-0.02552054077386856
1763700000310457300,0.889457275390625,0.07969482988119125,-0.06609086692333221,-0.034625619649887085
1763700000320408300,0.899408203125,0.07540047913789749,-0.02810726873576641,-0.04993746429681778
1763700000330358300,0.909358154296875,0.07043608278036118,-0.01272538211196661,-0.06198107823729515
1763700000340309500,0.9193095703125,0.05492743104696274,-0.02894696220755577,-0.06907413899898529
1763700000350259200,0.92925927734375,0.03694576770067215,-0.03422428295016289,-0.07423135638237
1763700000360210400,0.93921044921875,0.019632291048765182,-0.020473849028348923,-0.08405735343694687
1763700000370161400,0.949161376953125,0.006936735473573208,-0.022696789354085922,-0.1014520525932312
1763700000380111400,0.959111328125,-0.0070587084628641605,-0.06069716811180115,-0.1291143149137497
1763700000390062300,0.969062255859375,-0.016274044290184975,-0.11578518897294998,-0.158025324344635
1763700000400012300,0.97901220703125,-0.02694879285991192,-0.16435912251472473,-0.17721526324748993
1763700000409963300,0.98896337890625,-0.03742486983537674,-0.19736793637275696,-0.19572129845619202
1763700000419913200,0.998913330078125,-0.05229968950152397,-0.20516273379325867,-0.2054562121629715
1763700000429863400,1.008863525390625,-0.05921591818332672,-0.19772027432918549,-0.19982603192329407
1763700000439814400,1.018814453125,-0.06323915719985962,-0.18249231576919556,-0.1795034408569336
1763700000449765400,1.028765380859375,-0.057322144508361816,-0.1601446568965912,-0.1574000120162964
1763700000459715300,1.03871533203125,-0.04725433140993118,-0.1460520178079605,-0.1277712732553482
1763700000469666600,1.04866650390625,-0.04659173637628555,-0.11701024323701859,-0.09648951888084412
1763700000479616500,1.058616455078125,-0.04337703436613083,-0.05794505774974823,-0.07470246404409409
1763700000489567500,1.0685673828125,-0.039812926203012466,-0.007969243451952934,-0.05975547432899475
1763700000499517400,1.078517333984375,-0.03964594751596451,0.024760207161307335,-0.04893718287348747
1763700000509468400,1.088468505859375,-0.032032500952482224,0.03598809614777565,-0.03918628394603729
1763700000519419400,1.09841943359375,-0.02973153069615364,0.031494274735450745,-0.03175872936844826
1763700000529369300,1.108369384765625,-0.022825952619314194,0.029531527310609818,-0.02658740244805813
1763700000539320600,1.118320556640625,-0.013570936396718025,0.020736970007419586,-0.01840590499341488
1763700000549271300,1.128271240234375,-0.005724198184907436,-0.0005885586142539978,-0.014028999954462051
1763700000559221500,1.138221435546875,-0.0004929511342197657,-0.036551885306835175,-0.008784436620771885
1763700000569172500,1.14817236328125,0.005204349290579557,-0.06417765468358994,-0.004764661658555269
1763700000579122400,1.158122314453125,0.017437845468521118,-0.08340967446565628,0.0025747441686689854
1763700000589073400,1.168073486328125,0.02983779087662697,-0.11093317717313766,0.015663381665945053
1763700000599024400,1.1780244140625,0.037336453795433044,-0.1380971521139145,0.03527436777949333
1763700000608974300,1.187974365234375,0.04092293232679367,-0.14228284358978271,0.05439666286110878
1763700000618925300,1.19792529296875,0.03702699393033981,-0.12385323643684387,0.0714038759469986
1763700000628875500,1.20787548828125,0.027704598382115364,-0.09360531717538834,0.08710800111293793
1763700000638826500,1.217826416015625,0.03007880598306656,-0.0600457601249218,0.10165152698755264
1763700000648777500,1.227777587890625,0.04147820174694061,-0.04902906343340874,0.11315877735614777
1763700000658727400,1.2377275390625,0.05473994463682175,-0.06656917184591293,0.11275850236415863
1763700000668678400,1.247678466796875,0.05740656703710556,-0.0865498036146164,0.10577889531850815
1763700000678628400,1.25762841796875,0.05596792697906494,-0.07833395153284073,0.08300860226154327
1763700000688579300,1.267579345703125,0.051602475345134735,-0.0648019015789032,0.06280745565891266
1763700000698529500,1.277529541015625,0.03816363215446472,-0.06787198781967163,0.04338342696428299
1763700000708480300,1.287480224609375,0.026006300002336502,-0.06933672726154327,0.02515488862991333
1763700000718431500,1.297431396484375,0.022363096475601196,-0.05877969413995743,0.015904132276773453
1763700000728381400,1.30738134765625,0.02070021815598011,-0.0470719039440155,0.014246313832700253
1763700000738332400,1.31733251953125,0.025945579633116722,-0.04059562832117081,0.01942562870681286
1763700000748283400,1.327283447265625,0.037747643887996674,-0.030399983748793602,0.019897807389497757
1763700000758233300,1.3372333984375,0.05234869197010994,-0.025830531492829323,0.021523134782910347
1763700000768184300,1.347184326171875,0.061459630727767944,-0.024601750075817108,0.02377856709063053
1763700000778134300,1.35713427734375,0.06615132093429565,-0.02629764936864376,0.020547619089484215
1763700000788085500,1.36708544921875,0.06214912608265877,-0.03393106907606125,0.020170249044895172
1763700000798035500,1.377035400390625,0.05999968573451042,-0.0536738820374012,0.023674169555306435
1763700000807986400,1.386986328125,0.05471277981996536,-0.08739615976810455,0.03026948869228363
1763700000817937400,1.3969375,0.052314069122076035,-0.11713621020317078,0.04159591346979141
1763700000827887400,1.406887451171875,0.049008287489414215,-0.1329071819782257,0.056784987449645996
1763700000837838300,1.41683837890625,0.04975477233529091,-0.1361735463142395,0.07001397013664246
1763700000847788300,1.426788330078125,0.05089673772454262,-0.1295745074748993,0.08057872951030731
1763700000857739500,1.436739501953125,0.05497776344418526,-0.11360032856464386,0.08391167968511581
1763700000867690200,1.446690185546875,0.05986066907644272,-0.09909169375896454,0.07054980099201202
1763700000877640400,1.456640380859375,0.05811283737421036,-0.1081634908914566,0.06066600978374481
1763700000887591400,1.46659130859375,0.057669155299663544,-0.11797404289245605,0.04436719790101051
1763700000897541400,1.476541259765625,0.054070159792900085,-0.12182310968637466,0.03175286948680878
1763700000907492400,1.486492431640625,0.04899870231747627,-0.12305907905101776,0.0224445890635252
1763700000917443600,1.496443603515625,0.05137317627668381,-0.10494904965162277,0.017352892085909843
1763700000927393500,1.5063935546875,0.05751069635152817,-0.07573764026165009,0.015311578288674355
1763700000937344300,1.51634423828125,0.06035255640745163,-0.0472431443631649,0.016650615260004997
1763700000947294500,1.52629443359375,0.058525629341602325,0.0037609159480780363,0.016756609082221985
1763700000957245400,1.536245361328125,0.04824556037783623,0.060198891907930374,0.015139537863433361
1763700000967196400,1.546196533203125,0.04489796608686447,0.1158488392829895,0.01158901210874319
1763700000977146400,1.556146484375,0.04454855993390083,0.16310742497444153,0.002892725635319948
1763700000987097600,1.56609765625,0.04469610005617142,0.1866108924150467,-0.0070949275977909565
1763700000997047600,1.576047607421875,0.046238336712121964,0.18972839415073395,-0.02274872176349163
1763700001006998300,1.585998291015625,0.038594797253608704,0.17918546497821808,-0.0367249920964241
1763700001016949500,1.595949462890625,0.029519276693463326,0.16327068209648132,-0.053168945014476776
1763700001026899500,1.6058994140625,0.0198043305426836,0.13469576835632324,-0.06716332584619522
1763700001036850400,1.615850341796875,0.009379386901855469,0.0996999591588974,-0.06748716533184052
1763700001046800400,1.62580029296875,-0.003721234854310751,0.07175993919372559,-0.060693707317113876
1763700001056751600,1.635751708984375,-0.01130698248744011,0.058641210198402405,-0.048237837851047516
1763700001066702300,1.645702392578125,-0.015259913168847561,0.056353285908699036,-0.033491380512714386
1763700001076652300,1.65565234375,-0.011604990810155869,0.05705716088414192,-0.017291372641921043
1763700001086603500,1.665603515625,-0.004063451196998358,0.040102679282426834,-0.00016831177345011383
1763700001096553200,1.67555322265625,0.0008269115351140499,0.02069063112139702,0.008547415025532246
1763700001106504400,1.68550439453125,0.0005358280031941831,0.02419641613960266,0.005441637244075537
1763700001116454400,1.695454345703125,-0.0032860743813216686,0.052915677428245544,-0.006237655878067017
1763700001126405400,1.7054052734375,-0.007733819540590048,0.08555565029382706,-0.027171432971954346
1763700001136356400,1.7153564453125,-0.001234907773323357,0.10122808068990707,-0.04776565730571747
1763700001146306600,1.725306640625,0.005391835700720549,0.09043562412261963,-0.06211290508508682
1763700001156257300,1.73525732421875,0.015135543420910835,0.07191946357488632,-0.0739317461848259
1763700001166207200,1.745207275390625,0.012236958369612694,0.05512131005525589,-0.07950840890407562
1763700001176158500,1.755158447265625,-0.000978711643256247,0.03513028845191002,-0.08108659833669662
1763700001186109200,1.765109130859375,-0.011319233104586601,0.021199028939008713,-0.07989723235368729
1763700001196059400,1.775059326171875,-0.015394402667880058,0.016034627333283424,-0.07647373527288437
1763700001206010400,1.78501025390625,-0.009615609422326088,0.010431601665914059,-0.06776333600282669
1763700001215960600,1.794960693359375,-0.0012828446924686432,-0.008694687858223915,-0.05597112327814102
1763700001225911300,1.804911376953125,0.0029140308033674955,-0.03098641149699688,-0.04121454805135727
1763700001235862500,1.814862548828125,-0.002092179376631975,-0.05312100797891617,-0.024086160585284233
1763700001245812500,1.8248125,-0.010612696409225464,-0.07621274888515472,-0.006857906002551317
1763700001255763200,1.83476318359375,-0.024623055011034012,-0.1096189022064209,0.015723835676908493
1763700001265713400,1.84471337890625,-0.03362986445426941,-0.13428030908107758,0.0332903116941452
1763700001275664400,1.854664306640625,-0.037822481244802475,-0.15161855518817902,0.04770440608263016
1763700001285614600,1.864614501953125,-0.03922303766012192,-0.16201527416706085,0.05747447907924652
1763700001295565300,1.8745654296875,-0.03749331459403038,-0.16672161221504211,0.06560883671045303
1763700001305516500,1.8845166015625,-0.03918948024511337,-0.17158107459545135,0.07075513154268265
1763700001315466500,1.894466552734375,-0.046301186084747314,-0.1650288999080658,0.06982355564832687
1763700001325417200,1.904417236328125,-0.052436575293540955,-0.14033819735050201,0.060801297426223755
1763700001335367400,1.914367431640625,-0.04796379804611206,-0.10870464146137238,0.049018409103155136
1763700001345318400,1.924318359375,-0.04212374985218048,-0.10489579290151596,0.042154110968112946
1763700001355269400,1.934269287109375,-0.043421775102615356,-0.10624707490205765,0.03207964077591896
1763700001365219300,1.94421923828125,-0.043350670486688614,-0.07185767590999603,0.014376276172697544
1763700001375170600,1.954170654296875,-0.037931669503450394,-0.007179349660873413,-0.012693424709141254
1763700001385120500,1.96412060546875,-0.040778856724500656,0.03645974025130272,-0.034395523369312286
1763700001395071500,1.974071533203125,-0.04699999839067459,0.053349774330854416,-0.05019499361515045
1763700001405022500,1.9840224609375,-0.05068448185920715,0.0793779119849205,-0.0551798976957798
1763700001414973000,1.993972900390625,-0.043422307819128036,0.12794065475463867,-0.06183620169758797
1763700001424924000,2.003923828125,-0.03328685089945793,0.15621116757392883,-0.06299441307783127
1763700001434874000,2.0138740234375,-0.03371348977088928,0.14713725447654724,-0.056102950125932693
1763700001444824800,2.023824951171875,-0.04117247089743614,0.1279262751340866,-0.042271558195352554
1763700001454775000,2.033775146484375,-0.047331031411886215,0.12440530955791473,-0.03274063766002655
1763700001464726000,2.04372607421875,-0.03492336347699165,0.12374484539031982,-0.031099330633878708
1763700001474677000,2.053677001953125,-0.01950392685830593,0.0852493867278099,-0.03183622658252716
1763700001484627000,2.063626953125,-0.014553110115230083,0.02431252971291542,-0.032932382076978683
1763700001494578000,2.073577880859375,-0.018396850675344467,-0.004450674634426832,-0.03876310959458351
1763700001504528100,2.083528076171875,-0.02600070834159851,0.0040796962566673756,-0.0517987497150898
1763700001514478800,2.093478759765625,-0.03214302286505699,0.020011259242892265,-0.06124258413910866
1763700001524430000,2.10343017578125,-0.03849758952856064,0.020867198705673218,-0.06112167611718178
1763700001534380000,2.113380126953125,-0.03463973477482796,0.024290425702929497,-0.06477340310811996
1763700001544331000,2.1233310546875,-0.02581482008099556,0.02630004659295082,-0.06035654991865158
1763700001554281000,2.133281005859375,-0.017076188698410988,0.0403631366789341,-0.04968845844268799
1763700001564232000,2.14323193359375,-0.009210542775690556,0.056779127568006516,-0.04051440209150314
1763700001574183000,2.153182861328125,-0.003555586328729987,0.07800212502479553,-0.03652605414390564
1763700001584132900,2.1631328125,-0.0028607675340026617,0.08970112353563309,-0.027344007045030594
1763700001594084000,2.173083984375,-0.0071005201898515224,0.06975457817316055,-0.010963968001306057
1763700001604034000,2.183033935546875,-0.01227291114628315,0.046172820031642914,0.001802960061468184
1763700001613985000,2.192985107421875,-0.007720770314335823,0.038720231503248215,0.007233145646750927
1763700001623935000,2.20293505859375,-0.004878112114965916,0.022219818085432053,0.013009275309741497
1763700001633886200,2.21288623046875,-0.004347078036516905,-0.020896758884191513,0.018217353150248528
1763700001643837000,2.2228369140625,-0.007936219684779644,-0.046367231756448746,0.020802482962608337
1763700001653787000,2.232786865234375,-0.011348261497914791,-0.03533908352255821,0.016113189980387688
1763700001663738000,2.242738037109375,-0.016288159415125847,-0.021575599908828735,0.014825285412371159
1763700001673687800,2.252687744140625,-0.02064136229455471,-0.026012958958745003,0.016454074531793594
1763700001683639000,2.26263916015625,-0.018673019483685493,-0.017729463055729866,0.013719274662435055
1763700001693589000,2.272589111328125,-0.014313957653939724,-0.0009920274605974555,0.01937716081738472
1763700001703540000,2.2825400390625,-0.015900935977697372,0.013084376230835915,0.02249865047633648
1763700001713491000,2.292490966796875,-0.017289508134126663,0.027699803933501244,0.02087891660630703
1763700001723441000,2.30244091796875,-0.021922076120972633,0.04803517088294029,0.01877182349562645
1763700001733392100,2.31239208984375,-0.020902885124087334,0.0643470287322998,0.01309183333069086
1763700001743341800,2.322341796875,-0.019781427457928658,0.061649516224861145,0.012057461775839329
1763700001753293000,2.33229296875,-0.013707823120057583,0.047696150839328766,0.013428989797830582
1763700001763244000,2.342244140625,-0.007668039761483669,0.03320162743330002,0.012571452185511589
1763700001773194000,2.352194091796875,-0.00649731419980526,0.0276795644313097,0.011391671374440193
1763700001783145000,2.36214501953125,-0.00296250032261014,0.021325262263417244,0.005014199763536453
1763700001793095000,2.372094970703125,-0.003935352899134159,0.013390906155109406,-0.002031459240242839
1763700001803046000,2.3820458984375,-0.009352223016321659,0.011701131239533424,-0.012510199099779129
1763700001812995800,2.391995849609375,-0.01278610248118639,0.0065383268520236015,-0.013961887918412685
1763700001822947000,2.401947021484375,-0.012646819464862347,-0.016389358788728714,-0.012206066399812698
1763700001832897800,2.411897705078125,-0.014346715062856674,-0.00923371221870184,-0.015500396490097046
1763700001842848000,2.421847900390625,-0.015548866242170334,0.026883279904723167,-0.016166985034942627
1763700001852799000,2.431799072265625,-0.019160911440849304,0.046300917863845825,-0.011050254106521606
1763700001862749200,2.441749267578125,-0.022848058491945267,0.0494740754365921,-0.003683684393763542
1763700001872700000,2.451699951171875,-0.02395327016711235,0.058934688568115234,0.0005930859479121864
1763700001882649900,2.46164990234375,-0.014333931729197502,0.07437942922115326,0.005587578285485506
1763700001892601000,2.47160107421875,-0.00395719101652503,0.06745653599500656,0.0014154701493680477
1763700001902551800,2.4815517578125,0.002691656816750765,0.05047116428613663,-0.00794127956032753
1763700001912502000,2.491501953125,0.005932191386818886,0.03260508179664612,-0.019043199717998505
1763700001922453000,2.501452880859375,0.002436792477965355,0.020357202738523483,-0.028369855135679245
1763700001932403200,2.5114033203125,-0.005289304070174694,0.012928315438330173,-0.03672259300947189
1763700001942354000,2.52135400390625,-0.00941826868802309,0.0006570018595084548,-0.03567304089665413
1763700001952305200,2.53130517578125,-0.011061972007155418,-0.017497766762971878,-0.026922693476080894
1763700001962255000,2.541255126953125,-0.008639294654130936,-0.0379636287689209,-0.0124809043481946
1763700001972205800,2.551205810546875,-0.009787649847567081,-0.059109125286340714,0.007276022341102362
1763700001982156000,2.561156005859375,-0.01673503778874874,-0.07789453119039536,0.021683724597096443
1763700001992107000,2.57110693359375,-0.02389308251440525,-0.08708509802818298,0.033313214778900146
1763700002002057000,2.581056884765625,-0.03393746167421341,-0.08174332976341248,0.04144970700144768
1763700002012008000,2.591008056640625,-0.04224945232272148,-0.06562082469463348,0.044988781213760376
1763700002021959200,2.600959228515625,-0.05421503633260727,-0.038179077208042145,0.045826345682144165
1763700002031908900,2.610908935546875,-0.06282982975244522,-0.007450459524989128,0.04280046001076698
1763700002041859800,2.62085986328125,-0.07119375467300415,0.015169098973274231,0.038306377828121185
1763700002051810000,2.63081005859375,-0.08582568913698196,0.03997671231627464,0.033784594386816025
1763700002061761000,2.640760986328125,-0.09820912778377533,0.06999559700489044,0.028423385694622993
1763700002071711000,2.6507109375,-0.10202090442180634,0.10912222415208817,0.028909945860505104
1763700002081662000,2.660661865234375,-0.10454452037811279,0.1430511623620987,0.028256671503186226
1763700002091613000,2.670613037109375,-0.10757226496934891,0.16007621586322784,0.03339444100856781
1763700002101563000,2.68056298828125,-0.11147087067365646,0.1676771491765976,0.04063211381435394
1763700002111514000,2.69051416015625,-0.11470421403646469,0.19611863791942596,0.04369102045893669
1763700002121464000,2.700464111328125,-0.12065824121236801,0.22847072780132294,0.03146045282483101
1763700002131414800,2.710414794921875,-0.11577294021844864,0.23739364743232727,0.012288091704249382
1763700002141365000,2.720364990234375,-0.11532232910394669,0.2314353585243225,0.005140966270118952
1763700002151316000,2.73031591796875,-0.12218769639730453,0.24652375280857086,-0.004054130055010319
1763700002161267000,2.740266845703125,-0.1314736008644104,0.2783392071723938,-0.007636614143848419
1763700002171217000,2.750216796875,-0.13920901715755463,0.32761433720588684,-0.0034016557037830353
1763700002181168000,2.760168212890625,-0.13838131725788116,0.4039650559425354,0.007948736660182476
1763700002191118000,2.7701181640625,-0.13012950122356415,0.487981379032135,0.013407152146100998
1763700002201068800,2.78006884765625,-0.115083709359169,0.5717455148696899,0.014839399605989456
1763700002211019000,2.79001904296875,-0.10422893613576889,0.6567802429199219,0.011897938326001167
1763700002220970000,2.799969970703125,-0.09218638390302658,0.7389201521873474,0.005167864263057709
1763700002230921000,2.8099208984375,-0.0696890652179718,0.8180530667304993,-0.014554974623024464
1763700002240871000,2.819870849609375,-0.042517632246017456,0.919023871421814,-0.03728718310594559
1763700002250822100,2.829822265625,-0.031081752851605415,1.0268235206604004,-0.0550781674683094
1763700002260772000,2.839772216796875,-0.004566788673400879,1.1165227890014648,-0.0777970626950264
1763700002270722800,2.849722900390625,0.06024416536092758,1.1945555210113525,-0.10554400086402893
1763700002280673000,2.859673095703125,0.07534695416688919,1.280971646308899,-0.10165631771087646
1763700002290624000,2.8696240234375,0.05627286061644554,1.3348455429077148,-0.07078681886196136
1763700002300575000,2.879574951171875,0.04574058949947357,1.372267723083496,-0.04092825949192047
1763700002310525000,2.88952490234375,0.05336495488882065,1.396769642829895,-0.01769537292420864
1763700002320476200,2.89947607421875,0.06250518560409546,1.4133933782577515,0.0009917612187564373
1763700002330425900,2.90942578125,0.05913469195365906,1.4166616201400757,0.00980336219072342
1763700002340377000,2.919377197265625,0.04249606281518936,1.385848879814148,0.016589628532528877
1763700002350327000,2.9293271484375,0.026164492592215538,1.3214898109436035,0.019565977156162262
1763700002360278000,2.939278076171875,0.011627893894910812,1.252870798110962,0.024146880954504013
1763700002370229000,2.94922900390625,0.0004881574132014066,1.203986406326294,0.026692330837249756
1763700002380179000,2.959178955078125,-0.0054307179525494576,1.1922577619552612,0.019172895699739456
1763700002390130000,2.9691298828125,-0.007109308615326881,1.2011327743530273,0.00044581317342817783
1763700002400080000,2.979079833984375,-0.011168764904141426,1.2241499423980713,-0.021166006103157997
1763700002410031000,2.989031005859375,-0.005532450973987579,1.2381645441055298,-0.03406236320734024
1763700002419981600,2.998981689453125,-0.01601571775972843,1.237471103668213,-0.01829564943909645
1763700002429932500,3.0089326171875,-0.052678655833005905,1.2229312658309937,0.021560952067375183
1763700002439883500,3.018883544921875,-0.09789833426475525,1.2024824619293213,0.08269354701042175
1763700002449833500,3.02883349609375,-0.14054779708385468,1.1743144989013672,0.1584908366203308
1763700002459784400,3.038784423828125,-0.2062050998210907,1.156690001487732,0.23182763159275055
1763700002469734400,3.048734375,-0.29761117696762085,0.7572629451751709,0.1343463510274887
1763700002479685600,3.058685546875,-0.26438450813293457,0.23356296122074127,-0.08260353654623032
1763700002489635600,3.068635498046875,-0.036123115569353104,0.1583387702703476,-0.16687846183776855
1763700002499586600,3.078586669921875,0.015529957599937916,0.17506955564022064,-0.10431522130966187
1763700002509537500,3.08853759765625,0.04536828026175499,0.3506179451942444,0.04030587896704674
1763700002519487500,3.098487548828125,0.12904426455497742,0.44146662950515747,0.19096383452415466
1763700002529438500,3.1084384765625,0.18322841823101044,0.482748806476593,0.30205467343330383
1763700002539388400,3.118388427734375,0.2036585807800293,0.7239283919334412,0.3757888078689575
1763700002549339600,3.128339599609375,0.19822227954864502,0.9277848601341248,0.43138203024864197
1763700002559289300,3.138289306640625,0.15882107615470886,1.018845558166504,0.4792843163013458
1763700002569240600,3.148240478515625,0.1267632693052292,1.039831280708313,0.524744987487793
1763700002579191600,3.158191650390625,0.06900276988744736,1.0294190645217896,0.5669076442718506
1763700002589141200,3.168141357421875,0.017135577276349068,1.0011035203933716,0.6013223528862
1763700002599092500,3.178092529296875,0.013925136998295784,1.0179997682571411,0.6225655674934387
1763700002609042400,3.18804248046875,0.04059935733675957,1.0581053495407104,0.621947169303894
1763700002618993400,3.197993408203125,0.05723559111356735,1.1689913272857666,0.603569507598877
1763700002628943400,3.207943359375,0.06406606733798981,1.3411359786987305,0.5695598721504211
1763700002638894600,3.21789453125,0.05336308851838112,1.4632275104522705,0.5283900499343872
1763700002648845300,3.22784521484375,0.0726718083024025,1.4407237768173218,0.4674079418182373
1763700002658795500,3.23779541015625,0.0852360650897026,1.356115460395813,0.39651432633399963
1763700002668746500,3.24774658203125,0.028971197083592415,1.1936568021774292,0.3585485517978668
1763700002678696400,3.257696533203125,-0.07870785892009735,0.8146018385887146,0.3179566562175751
1763700002688647400,3.2676474609375,-0.1892511546611786,0.3785814046859741,0.2673214375972748
1763700002698597400,3.277597412109375,-0.26831719279289246,0.44977542757987976,0.137144535779953
1763700002708548600,3.287548583984375,-0.30960899591445923,0.6461249589920044,-0.014140053652226925
1763700002718499300,3.297499267578125,-0.3219687044620514,0.7275777459144592,-0.08254946768283844
1763700002728449500,3.307449462890625,-0.3316594362258911,0.7880828976631165,-0.03027055412530899
1763700002738400500,3.317400390625,-0.3341923654079437,0.801494836807251,0.10337645560503006
1763700002748350500,3.3273505859375,-0.3109690546989441,0.7837775945663452,0.22650398313999176
1763700002758301400,3.337301513671875,-0.27467817068099976,0.7920145392417908,0.2628380060195923
1763700002768251400,3.34725146484375,-0.2586640417575836,0.8513609170913696,0.22003382444381714
1763700002778202600,3.35720263671875,-0.23989088833332062,0.8786671161651611,0.13401132822036743
1763700002788152600,3.367152587890625,-0.22769547998905182,0.9154655933380127,0.05963722988963127
1763700002798103600,3.377103515625,-0.20206308364868164,0.9412657618522644,-0.013699034228920937
1763700002808054500,3.387054443359375,-0.1687176525592804,0.9871070384979248,-0.054729025810956955
1763700002818004500,3.39700439453125,-0.13074363768100739,0.9643186330795288,-0.036562271416187286
1763700002827955500,3.40695556640625,-0.0777704268693924,0.9567669630050659,0.01272857841104269
1763700002837905400,3.416905517578125,-0.02540069818496704,0.9924741387367249,0.07469873875379562
1763700002847856600,3.426856689453125,-0.016085492447018623,1.0468699932098389,0.12012667208909988
1763700002857806300,3.436806396484375,-0.033059682697057724,1.1271430253982544,0.12412727624177933
1763700002867757600,3.446757568359375,-0.04224652424454689,1.235136866569519,0.0871516764163971
1763700002877708500,3.45670849609375,-0.034820832312107086,1.29746413230896,0.030063094571232796
1763700002887658500,3.466658447265625,-0.021195832639932632,1.3231135606765747,-0.0267767533659935
1763700002897609500,3.476609375,-0.012312326580286026,1.3165770769119263,-0.07653259485960007
1763700002907559400,3.486559326171875,-0.039988961070775986,1.2340270280838013,-0.10051675140857697
1763700002917510400,3.496510498046875,-0.07446172088384628,0.8755850195884705,-0.08453033119440079
1763700002927460400,3.50646044921875,-0.10966604202985764,0.22504669427871704,-0.017365673556923866
1763700002937411600,3.51641162109375,-0.12689164280891418,-0.4698122441768646,0.05488348752260208
1763700002947361500,3.526361572265625,-0.04187341406941414,-0.6630352139472961,-0.02220543660223484
1763700002957312500,3.5363125,0.13099929690361023,-0.5281344056129456,-0.1207415983080864
1763700002967263500,3.546263427734375,0.3231101334095001,-0.28903844952583313,-0.12138981372117996
1763700002977213400,3.55621337890625,0.4795921742916107,-0.04731851443648338,-0.029829800128936768
1763700002987164400,3.566164306640625,0.5016873478889465,0.2061619609594345,0.10650433599948883
1763700002997114400,3.5761142578125,0.36811038851737976,0.41126611828804016,0.22651436924934387
1763700003007065600,3.586065673828125,0.053052566945552826,0.571878969669342,0.3259109854698181
1763700003017015600,3.596015625,-0.33708882331848145,0.6592457890510559,0.4601966440677643
1763700003026966500,3.605966552734375,-0.7237622141838074,0.5408472418785095,0.6248665452003479
1763700003036917500,3.61591748046875,-1.0088187456130981,-0.004198207054287195,0.8546603322029114
1763700003046867500,3.625867431640625,-1.038129210472107,-0.773992121219635,1.2165954113006592
1763700003056818400,3.635818359375,-0.7488662600517273,-1.4129496812820435,1.7082138061523438
1763700003066768400,3.645768310546875,-0.19753864407539368,-1.5696895122528076,2.2783076763153076
1763700003076719600,3.6557197265625,0.42135122418403625,-1.2000187635421753,2.6168055534362793
1763700003086669600,3.665669677734375,0.7644273638725281,-0.6102649569511414,2.53454852104187
1763700003096620500,3.67562060546875,0.7286075949668884,0.04074956104159355,2.1807682514190674
1763700003106570500,3.685570556640625,0.4873158633708954,0.3766455352306366,1.61320960521698
1763700003116521500,3.695521484375,0.23592570424079895,0.7120445966720581,0.935616672039032
1763700003126471400,3.705471435546875,0.017071926966309547,1.138012170791626,0.41073668003082275
1763700003136422400,3.71542236328125,-0.1513034999370575,1.2706031799316406,0.13774508237838745
1763700003146373600,3.72537353515625,-0.15097060799598694,1.3529489040374756,-0.01062041986733675
1763700003156323300,3.7353232421875,0.008283495903015137,1.2769145965576172,-0.12045663595199585
1763700003166274600,3.745274658203125,0.25591620802879333,0.9757143259048462,-0.24474424123764038
1763700003176224500,3.755224609375,0.5611352324485779,0.4984460175037384,-0.4124346971511841
1763700003186175500,3.765175537109375,0.9012184739112854,0.19531197845935822,-0.5925772786140442
1763700003196125400,3.77512548828125,1.1881804466247559,-0.09211660921573639,-0.7576900720596313
1763700003206076400,3.785076416015625,1.3674410581588745,-0.21796828508377075,-0.8108611702919006
1763700003216027400,3.79502734375,1.3926441669464111,-0.06364209204912186,-0.6744213104248047
1763700003225977300,3.804977294921875,1.2037546634674072,0.10649129003286362,-0.430525541305542
1763700003235928600,3.814928466796875,0.8658397197723389,0.27148690819740295,-0.19568347930908203
1763700003245878500,3.82487841796875,0.4281042218208313,0.29570356011390686,-0.02965722791850567
1763700003255829500,3.83482958984375,-0.051204863935709,0.26727616786956787,0.014277206733822823
1763700003265779500,3.844779541015625,-0.4155101180076599,0.0850917249917984,-0.09607060253620148
1763700003275730400,3.85473046875,-0.5727593898773193,-0.06886322051286697,-0.20769619941711426
1763700003285680600,3.8646806640625,-0.5387617349624634,-0.1562894731760025,-0.19466988742351532
1763700003295631400,3.87463134765625,-0.3755134344100952,-0.17713803052902222,-0.12033279985189438
1763700003305582600,3.88458251953125,-0.19905877113342285,-0.16173537075519562,-0.09134110063314438
1763700003315532500,3.894532470703125,-0.08334815502166748,-0.14653457701206207,-0.13394714891910553
1763700003325483500,3.9044833984375,-0.019573967903852463,-0.11668027937412262,-0.22305358946323395
1763700003335433500,3.91443359375,0.07128456234931946,-0.3350871801376343,-0.2938646376132965
1763700003345384700,3.924384765625,0.1787889152765274,-0.2884903848171234,-0.2915247976779938
1763700003355334400,3.93433447265625,0.2655232846736908,-0.22153133153915405,-0.2858184278011322
1763700003365285400,3.944285400390625,0.3372877538204193,-0.12449052929878235,-0.2972162365913391
1763700003375235600,3.954235595703125,0.36740997433662415,0.011795406229794025,-0.29953426122665405
1763700003385186600,3.9641865234375,0.2851521074771881,0.2458377331495285,-0.2681443691253662
1763700003395137500,3.974137451171875,0.09895694255828857,0.3135627210140228,-0.08974293619394302
1763700003405087500,3.98408740234375,-0.03808240592479706,0.3692805767059326,0.01714516431093216
1763700003415038500,3.99403857421875,-0.1562442034482956,0.4224220812320709,0.08609786629676819
1763700003424988200,4.00398828125,-0.2448691427707672,0.4277009963989258,0.1294434815645218
1763700003434939100,4.013939208984375,-0.28629034757614136,0.45716995000839233,0.12485139071941376
1763700003444889300,4.023889404296875,-0.2805251479148865,0.4778733551502228,0.0847788006067276
1763700003454840000,4.033840087890625,-0.2201339602470398,0.5094768404960632,0.02123311720788479
1763700003464790300,4.043790283203125,-0.15237542986869812,0.5291964411735535,-0.01822640746831894
1763700003474741200,4.0537412109375,-0.09360611438751221,0.6137664914131165,-0.11851466447114944
1763700003484691200,4.063691162109375,-0.011003382503986359,0.5497656464576721,-0.2969491183757782
1763700003494642200,4.07364208984375,0.08569519966840744,0.3900849223136902,-0.41129034757614136
1763700003504593200,4.08359326171875,0.1529964655637741,0.149024099111557,-0.48101454973220825
1763700003514543400,4.09354345703125,0.1954914629459381,-0.144073024392128,-0.6363881826400757
1763700003524494000,4.103494140625,0.2656401991844177,-0.3913176953792572,-0.5736883282661438
1763700003534444300,4.1134443359375,0.38045254349708557,-0.31663280725479126,-0.4726114869117737
1763700003544395300,4.123395263671875,0.3383663296699524,0.643460214138031,0.45736753940582275
1763700003554345200,4.13334521484375,0.20382477343082428,0.1345045417547226,-0.15647563338279724
1763700003564296200,4.143296142578125,0.0009824400767683983,0.22282162308692932,0.15122973918914795
1763700003574247200,4.1532470703125,-0.16387388110160828,0.4110410809516907,0.27284324169158936
1763700003584197400,4.163197265625,-0.28850236535072327,0.4363293945789337,0.30092841386795044
1763700003594148000,4.173148193359375,-0.35025253891944885,0.3042203485965729,0.2802897095680237
1763700003604098300,4.183098388671875,-0.44731971621513367,0.0996275246143341,0.2302316129207611
1763700003614049300,4.19304931640625,-0.48184919357299805,0.07946979254484177,0.21436423063278198
1763700003623999200,4.202999267578125,-0.47233131527900696,0.15296638011932373,0.2567838430404663
1763700003633950200,4.2129501953125,-0.4570716619491577,0.23660029470920563,0.34095677733421326
1763700003643900200,4.222900146484375,-0.4361741244792938,0.32087281346321106,0.3957204222679138
1763700003653851400,4.232851318359375,-0.33284667134284973,0.6430495381355286,0.3558681011199951
1763700003663801000,4.242801025390625,-0.19796687364578247,0.4740690290927887,0.4151444733142853
1763700003673752300,4.25275244140625,-0.1455441564321518,0.5175765752792358,0.5267221331596375
1763700003683703300,4.262703369140625,-0.10512988269329071,0.489845871925354,0.6186818480491638
1763700003693653200,4.2726533203125,-0.11075607687234879,0.454097181558609,0.6665617823600769
1763700003703604200,4.282604248046875,-0.16994670033454895,0.4845139682292938,0.703464150428772
1763700003713554200,4.29255419921875,-0.19764330983161926,0.6068377494812012,0.7067379951477051
1763700003723505200,4.302505126953125,-0.2188953310251236,0.7330958247184753,0.6882710456848145
1763700003733455000,4.312455078125,-0.3025614619255066,0.8369183540344238,0.686433732509613
1763700003743406300,4.32240625,-0.33547067642211914,0.9889688491821289,0.6990203857421875
1763700003753356300,4.332356201171875,-0.33290737867355347,1.2434182167053223,0.6427560448646545
1763700003763307300,4.342307373046875,-0.35960158705711365,1.4276516437530518,0.5764231085777283
1763700003773257200,4.35225732421875,-0.42360347509384155,1.482557773590088,0.5497115850448608
1763700003783208200,4.362208251953125,-0.4183756709098816,1.519153356552124,0.5995470881462097
1763700003793159200,4.3721591796875,-0.4215025007724762,1.5201117992401123,0.6847333312034607
1763700003803109000,4.382109130859375,-0.41445496678352356,1.5067081451416016,0.801421582698822
1763700003813060400,4.392060302734375,-0.4197397530078888,1.2898842096328735,0.9405219554901123
1763700003823010300,4.40201025390625,-0.36685842275619507,0.9594303965568542,1.0908374786376953
1763700003832961300,4.411961181640625,-0.3366515338420868,0.6685924530029297,1.2463524341583252
1763700003842911200,4.4219111328125,-0.3273855745792389,0.4850234091281891,1.3996775150299072
1763700003852862200,4.4318623046875,-0.28182315826416016,0.3262215256690979,1.4399949312210083
1763700003862812200,4.441812255859375,-0.20389294624328613,0.19928407669067383,1.3140909671783447
1763700003872763100,4.45176318359375,-0.19328877329826355,0.249334454536438,1.1401482820510864
1763700003882713300,4.46171337890625,-0.23056450486183167,0.4603756070137024,1.0179299116134644
1763700003892664300,4.471664306640625,-0.2905077338218689,0.7282800078392029,0.9791241884231567
1763700003902615300,4.481615234375,-0.3057745695114136,0.8983933925628662,1.0030351877212524
1763700003912565200,4.491565185546875,-0.28422799706459045,1.1216334104537964,1.063889741897583
1763700003922516200,4.50151611328125,-0.10353890806436539,1.3337470293045044,1.0963523387908936
1763700003932466200,4.511466064453125,-0.014307034201920033,1.5779128074645996,1.0825510025024414
1763700003942417200,4.521417236328125,-0.022658973932266235,1.9044169187545776,1.0413297414779663
1763700003952367400,4.531367431640625,-0.13464117050170898,2.246532440185547,1.0149933099746704
1763700003962318000,4.541318115234375,-0.34447720646858215,2.5029056072235107,1.0034927129745483
1763700003972268300,4.551268310546875,-0.5455522537231445,2.5101165771484375,0.9717866778373718
1763700003982219300,4.56121923828125,-0.7054492831230164,2.4783883094787598,0.9687488079071045
1763700003992169200,4.571169189453125,-0.7281742691993713,2.4539971351623535,1.0478506088256836
1763700004002120200,4.5811201171875,-0.669026792049408,2.30134916305542,1.2150959968566895
1763700004012071200,4.5910712890625,-0.543720006942749,2.0166823863983154,1.4088058471679688
1763700004022021400,4.601021484375,-0.3333417475223541,1.7317692041397095,1.5661845207214355
1763700004031972000,4.61097216796875,-0.0760074183344841,1.4469811916351318,1.6635315418243408
1763700004041922300,4.62092236328125,0.18846552073955536,1.1216017007827759,1.6976282596588135
1763700004051873300,4.630873291015625,0.4249720573425293,0.7550415992736816,1.6620980501174927
1763700004061823200,4.6408232421875,0.6286290287971497,0.38078969717025757,1.5623031854629517
1763700004071774200,4.650774169921875,0.8162665963172913,0.08450369536876678,1.4286679029464722
1763700004081724200,4.66072412109375,0.9869956970214844,-0.285235732793808,1.2884037494659424
1763700004091675400,4.67067529296875,1.1428636312484741,-0.538641095161438,1.1700928211212158
1763700004101625000,4.680625,1.2613521814346313,-0.9492872357368469,1.0457130670547485
1763700004111576300,4.690576416015625,1.329971194267273,-1.202810287475586,0.9277592897415161
1763700004121527300,4.70052734375,1.3726669549942017,-1.3896914720535278,0.799479067325592
1763700004131477000,4.71047705078125,1.3814791440963745,-1.5197302103042603,0.6895321011543274
1763700004141428200,4.72042822265625,1.3542211055755615,-1.641771674156189,0.6234174966812134
1763700004151378200,4.730378173828125,1.2895915508270264,-1.765407919883728,0.5915107131004333
1763700004161329200,4.7403291015625,1.198469638824463,-1.806877851486206,0.5530903339385986
1763700004171279000,4.750279052734375,1.0700280666351318,-1.767751932144165,0.49659377336502075
1763700004181230300,4.760230224609375,0.8892417550086975,-1.6341580152511597,0.4302211403846741
1763700004191180300,4.77018017578125,0.6606788635253906,-1.393844723701477,0.3507755994796753
1763700004201131300,4.78013134765625,0.33616575598716736,-1.4735687971115112,0.1396188884973526
1763700004211081200,4.790081298828125,0.0385066457092762,-1.1430567502975464,-0.0938282236456871
1763700004221032200,4.8000322265625,-0.24219772219657898,-0.5062615871429443,-0.11433110386133194
1763700004230983200,4.809983154296875,-0.6399485468864441,-0.35386937856674194,-0.15071120858192444
1763700004240933000,4.81993310546875,-1.0269708633422852,0.014582404866814613,-0.24359162151813507
1763700004250884400,4.82988427734375,-1.3739069700241089,0.37021347880363464,-0.3661052882671356
1763700004260834300,4.839834228515625,-1.6383471488952637,0.5906994938850403,-0.437919557094574
1763700004270785300,4.849785400390625,-1.7913649082183838,0.7765953540802002,-0.3623155951499939
1763700004280735200,4.8597353515625,-1.8066762685775757,1.0209875106811523,-0.06736332923173904
1763700004290686200,4.869686279296875,-1.8311421871185303,1.1168655157089233,0.2060418426990509
1763700004300636400,4.879636474609375,-1.7661561965942383,1.2827123403549194,0.42023348808288574
1763700004310587100,4.889587158203125,-1.6478221416473389,1.443230152130127,0.5829076170921326
1763700004320537300,4.899537353515625,-1.5123828649520874,1.5041536092758179,0.7494431138038635
1763700004330488300,4.90948828125,-1.3981856107711792,1.5244101285934448,0.9468445777893066
1763700004340438000,4.91943798828125,-1.3708240985870361,1.5083997249603271,1.158210039138794
1763700004350389200,4.92938916015625,-1.3876153230667114,1.616214394569397,1.3815065622329712
1763700004360340200,4.93934033203125,-1.470302700996399,1.710048794746399,1.6186118125915527
1763700004370290200,4.949290283203125,-1.565687894821167,1.7632371187210083,1.8556057214736938
1763700004380241200,4.9592412109375,-1.5768795013427734,1.8828003406524658,2.0555050373077393
1763700004390191400,4.96919140625,-1.4958962202072144,2.0367393493652344,2.198629140853882
1763700004400142000,4.97914208984375,-1.4226300716400146,2.061964273452759,2.2958850860595703
1763700004410092000,4.989092041015625,-1.345430612564087,2.1425771713256836,2.403085231781006
1763700004420042500,4.99904248046875,-1.1648045778274536,2.213890314102173,2.434868812561035
1763700004429992400,5.008992431640625,-0.9237813353538513,2.2708773612976074,2.4387471675872803
1763700004439943700,5.018943603515625,-0.667747974395752,2.292630910873413,2.4590883255004883
1763700004449893400,5.028893310546875,-0.4175695478916168,2.3127527236938477,2.4697227478027344
1763700004459844600,5.0388447265625,-0.24433358013629913,2.2214581966400146,2.492203950881958
1763700004469794600,5.048794677734375,-0.09341996163129807,2.0529778003692627,2.508544445037842
1763700004479745300,5.058745361328125,0.05423367768526077,1.8633270263671875,2.484102487564087
1763700004489696500,5.068696533203125,0.19167888164520264,1.5788347721099854,2.404717206954956
1763700004499646500,5.078646484375,0.3181401491165161,1.2505881786346436,2.270054817199707
1763700004509597400,5.088597412109375,0.42563438415527344,0.8697396516799927,2.051503896713257
1763700004519547400,5.09854736328125,0.5077447295188904,0.39205512404441833,1.7310177087783813
1763700004529498600,5.10849853515625,0.5917466878890991,-0.1624765247106552,1.328474998474121
1763700004539448600,5.118448486328125,0.6952459216117859,-0.7588040828704834,0.8780695199966431
1763700004549399300,5.1283994140625,0.7632582187652588,-1.438156247138977,0.44205865263938904
1763700004559349500,5.138349609375,0.7710314393043518,-2.146878480911255,0.011002317070960999
1763700004569300500,5.148300537109375,0.7331069707870483,-2.8238425254821777,-0.43430963158607483
1763700004579250700,5.158250732421875,0.6754255890846252,-3.4493720531463623,-0.8805260062217712
1763700004589201400,5.168201416015625,0.6359506249427795,-4.072896480560303,-1.3030441999435425
1763700004599151400,5.1781513671875,0.6971226334571838,-4.593755722045898,-1.7163244485855103
1763700004609102600,5.1881025390625,0.8880475759506226,-4.834016799926758,-2.100020170211792
1763700004619052300,5.19805224609375,1.153872013092041,-4.910457611083984,-2.3598835468292236
1763700004629003500,5.20800341796875,1.4626448154449463,-4.840088367462158,-2.492187976837158
1763700004638954500,5.21795458984375,1.745847225189209,-4.543606281280518,-2.5426862239837646
1763700004648904400,5.227904541015625,1.9234038591384888,-4.162574291229248,-2.6076951026916504
1763700004658855400,5.23785546875,1.9827224016189575,-3.6511764526367188,-2.7670719623565674
1763700004668805600,5.2478056640625,1.9333113431930542,-2.9514594078063965,-3.0160295963287354
1763700004678756400,5.25775634765625,1.7749388217926025,-2.2245092391967773,-3.2777562141418457
1763700004688706300,5.267706298828125,1.5198843479156494,-1.4837405681610107,-3.5131819248199463
1763700004698657500,5.277657470703125,1.2249270677566528,-0.7403755784034729,-3.6758573055267334
1763700004708607500,5.287607421875,0.9287073612213135,-0.05798793584108353,-3.7129056453704834
1763700004718558500,5.297558349609375,0.6598170399665833,0.4920424520969391,-3.621645212173462
1763700004728508400,5.30750830078125,0.44176942110061646,0.8459706902503967,-3.4411704540252686
1763700004738459600,5.317459716796875,0.29692542552948,1.0620087385177612,-3.229003667831421
1763700004748409600,5.32740966796875,0.21873554587364197,1.1634037494659424,-3.027904510498047
1763700004758360300,5.3373603515625,0.18382735550403595,1.2023948431015015,-2.8648757934570312
1763700004768310500,5.347310546875,0.164975106716156,1.2003583908081055,-2.7524731159210205
1763700004778261500,5.357261474609375,0.13344967365264893,1.1683505773544312,-2.6802291870117188
1763700004788211700,5.367211669921875,0.09062018245458603,1.1310482025146484,-2.652888774871826
1763700004798162400,5.377162353515625,0.04001213237643242,1.118893027305603,-2.648958921432495
1763700004808113700,5.38711376953125,-0.024571388959884644,1.1091772317886353,-2.6438417434692383
1763700004818063600,5.397063720703125,-0.07488489151000977,1.0793187618255615,-2.6445529460906982
1763700004828014300,5.407014404296875,-0.09886985272169113,1.0311874151229858,-2.639514923095703
1763700004837964500,5.416964599609375,-0.089435875415802,0.9802784323692322,-2.6048219203948975
1763700004847915500,5.42691552734375,-0.0944942831993103,0.8887194991111755,-2.525787830352783
1763700004857865500,5.436865478515625,-0.09698966145515442,0.834449052810669,-2.3684515953063965
1763700004867816400,5.44681640625,-0.03491590544581413,0.6490882635116577,-2.1843149662017822
1763700004877766400,5.456766357421875,0.029388515278697014,0.5491611361503601,-2.0187387466430664
1763700004887717400,5.46671728515625,0.05751655623316765,0.4814574420452118,-1.8349286317825317
1763700004897667300,5.476667236328125,0.0230557844042778,0.4165777862071991,-1.6340203285217285
1763700004907618600,5.48661865234375,-0.07574509084224701,0.40232905745506287,-1.472970962524414
1763700004917568500,5.496568603515625,-0.23130884766578674,0.40867936611175537,-1.351407766342163
1763700004927519500,5.50651953125,-0.4110756814479828,0.38826093077659607,-1.2542364597320557
1763700004937469400,5.516469482421875,-0.5534911751747131,0.3473323881626129,-1.1870018243789673
1763700004947420700,5.526420654296875,-0.5960146188735962,0.325320303440094,-1.1436032056808472
1763700004957371400,5.536371337890625,-0.5476271510124207,0.2690778076648712,-1.1033849716186523
1763700004967321300,5.5463212890625,-0.45014718174934387,0.2048271745443344,-1.0640074014663696
1763700004977272600,5.5562724609375,-0.3288987874984741,0.18573231995105743,-1.0370337963104248
1763700004987222500,5.566222412109375,-0.2177179455757141,0.18628811836242676,-1.0150076150894165
1763700004997173500,5.576173583984375,-0.13517886400222778,0.19839298725128174,-0.9934703707695007
1763700005007123500,5.58612353515625,-0.09957399219274521,0.20928078889846802,-0.9731858968734741
1763700005017074700,5.59607470703125,-0.10055137425661087,0.19880524277687073,-0.9450176358222961
1763700005027024400,5.6060244140625,-0.13276471197605133,0.14208416640758514,-0.8970024585723877
1763700005036975400,5.615975341796875,-0.1690356284379959,0.06765174865722656,-0.8328226804733276
1763700005046925600,5.625925537109375,-0.198541060090065,-0.012524846941232681,-0.753535270690918
1763700005056876500,5.63587646484375,-0.21697358787059784,-0.10258762538433075,-0.649066686630249
1763700005066826500,5.645826416015625,-0.23183003067970276,-0.2579183578491211,-0.5062911510467529
1763700005076777500,5.655777587890625,-0.21953901648521423,-0.4450152814388275,-0.3462730050086975
1763700005086727400,5.6657275390625,-0.1845884919166565,-0.55283522605896,-0.2048863023519516
1763700005096678400,5.675678466796875,-0.15319886803627014,-0.5271458625793457,-0.0972096398472786
1763700005106628400,5.68562841796875,-0.150984987616539,-0.39816415309906006,-0.00897032581269741
1763700005116579600,5.69557958984375,-0.17141622304916382,-0.2509925365447998,0.07292773574590683
1763700005126529500,5.705529541015625,-0.19258356094360352,-0.1010134294629097,0.15428650379180908
1763700005136480500,5.71548046875,-0.18250642716884613,-0.011895807459950447,0.2272704392671585
1763700005146430500,5.725430419921875,-0.12665168941020966,0.04325266554951668,0.26628440618515015
1763700005156381400,5.73538134765625,-0.027045998722314835,0.10750115662813187,0.2600856423377991
1763700005166331600,5.74533154296875,0.12154188007116318,0.15006700158119202,0.23168621957302094
1763700005176282400,5.755282470703125,0.2880539000034332,0.17138613760471344,0.22615909576416016
1763700005186233600,5.765233642578125,0.40489980578422546,0.22240644693374634,0.2679896354675293
1763700005196183600,5.77518359375,0.4311375617980957,0.3677511215209961,0.3303363621234894
1763700005206134500,5.785134521484375,0.3502695858478546,0.5569626092910767,0.36092889308929443
1763700005216084500,5.79508447265625,0.20184524357318878,0.7158960700035095,0.3102627992630005
1763700005226035700,5.80503564453125,0.07217326015233994,0.803951621055603,0.20289425551891327
1763700005235985400,5.8149853515625,0.022012092173099518,0.8813055157661438,0.09762509167194366
1763700005245936400,5.824936279296875,0.09490574151277542,0.9023817777633667,0.00950721837580204
1763700005255886600,5.834886474609375,0.28046920895576477,0.8583335876464844,-0.04567960277199745
1763700005265837300,5.84483740234375,0.5334391593933105,0.8112593293190002,-0.06817825138568878
1763700005275787500,5.85478759765625,0.7409321665763855,0.7164188027381897,-0.08708829432725906
1763700005285738500,5.864738525390625,0.8120872974395752,0.5825595855712891,-0.1491207778453827
1763700005295688400,5.8746884765625,0.7913945317268372,0.5290931463241577,-0.31153419613838196
1763700005305639400,5.884639404296875,0.7310920357704163,0.5382269620895386,-0.5037893652915955
1763700005315589400,5.89458935546875,0.6632384061813354,0.5302436351776123,-0.6097946166992188
1763700005325540600,5.90454052734375,0.6518438458442688,0.48491421341896057,-0.6119470000267029
1763700005335490600,5.914490478515625,0.7244695425033569,0.47844940423965454,-0.5775264501571655
1763700005345441500,5.924441650390625,0.8296161890029907,0.5453343987464905,-0.5550587177276611
1763700005355391500,5.9343916015625,0.8541516661643982,0.7026758193969727,-0.5429983139038086
1763700005365342500,5.944342529296875,0.7942132353782654,0.7857952117919922,-0.5837132334709167
1763700005375292400,5.95429248046875,0.7217890620231628,0.7616485953330994,-0.7058846950531006
1763700005385243400,5.964243408203125,0.6373884677886963,0.5990322828292847,-0.8730859160423279
1763700005395194600,5.974194580078125,0.5330678820610046,0.269059956073761,-1.060085415840149
1763700005405144600,5.98414453125,0.4394434094429016,-0.05850166082382202,-1.2494821548461914
1763700005415095600,5.994095458984375,0.38858288526535034,-0.4204135239124298,-1.4089627265930176
1763700005425046300,6.00404638671875,0.5136614441871643,-1.1428899765014648,-1.633862853050232
1763700005434997000,6.0139970703125,0.7471559643745422,-1.4118067026138306,-1.8911117315292358
1763700005444947200,6.023947265625,0.8332964181900024,-1.5890413522720337,-2.089033365249634
1763700005454898200,6.033898193359375,0.794389009475708,-1.6357436180114746,-2.276874303817749
1763700005464848100,6.04384814453125,0.7013229727745056,-1.6247586011886597,-2.4678759574890137
1763700005474799000,6.053799072265625,0.5722951889038086,-1.5726536512374878,-2.6058578491210938
1763700005484749000,6.0637490234375,0.34684422612190247,-1.2776308059692383,-2.585106372833252
1763700005494700300,6.0737001953125,0.21136683225631714,-1.1510200500488281,-2.4726169109344482
1763700005504650200,6.083650146484375,0.3298865556716919,-1.4283068180084229,-2.474971294403076
1763700005514601200,6.093601318359375,0.533714234828949,-1.4472527503967285,-2.5282585620880127
1763700005524551200,6.10355126953125,0.5869367122650146,-1.4670912027359009,-2.4930200576782227
1763700005534502100,6.113502197265625,0.46973180770874023,-1.384652018547058,-2.423680543899536
1763700005544452000,6.1234521484375,0.3349420428276062,-1.1616836786270142,-2.4019463062286377
1763700005554403000,6.133403076171875,0.33871254324913025,-1.2519820928573608,-2.535776138305664
1763700005564353300,6.143353271484375,0.4023943245410919,-1.058897614479065,-2.635652542114258
1763700005574304000,6.153303955078125,0.4309585690498352,-1.0919239521026611,-2.5786385536193848
1763700005584254200,6.163254150390625,0.31312674283981323,-0.7396085858345032,-2.4383559226989746
1763700005594205200,6.173205078125,0.008500809781253338,0.023755397647619247,-2.2472760677337646
1763700005604155100,6.183155029296875,-0.26325106620788574,0.24042671918869019,-2.1015377044677734
1763700005614106000,6.193106201171875,-0.1752690225839615,-0.08918074518442154,-2.0585360527038574
1763700005624056000,6.20305615234375,0.34877264499664307,-1.0793722867965698,-1.8488527536392212
1763700005634007300,6.21300732421875,0.7075150609016418,-1.279624342918396,-1.3702021837234497
1763700005643957200,6.222957275390625,0.6386284232139587,-2.1024842262268066,-0.875983715057373
1763700005653908200,6.232908203125,0.15172001719474792,-1.7536393404006958,-0.41386348009109497
1763700005663858200,6.242858154296875,-0.5089665651321411,-0.858884871006012,-0.06698355823755264
1763700005673809200,6.25280908203125,-0.9806696772575378,-0.04964931309223175,0.052257876843214035
1763700005683760000,6.262760009765625,-0.9913063049316406,0.4226471185684204,-0.005766009911894798
1763700005693710000,6.2727099609375,-0.8349414467811584,0.7619455456733704,-0.09525620937347412
1763700005703661300,6.282661376953125,-0.5300604104995728,0.8668173551559448,-0.11862917989492416
1763700005713611000,6.292611083984375,-0.276978075504303,0.6596969366073608,-0.13422970473766327
1763700005723562200,6.302562255859375,-0.134007066488266,0.6763941645622253,-0.20855720341205597
1763700005733512200,6.31251220703125,-0.08659428358078003,0.4790073335170746,-0.3276068866252899
1763700005743463000,6.322462890625,0.006096774712204933,0.19449757039546967,-0.5287368297576904
1763700005753413000,6.3324130859375,0.06421440839767456,0.0846637561917305,-0.6857919096946716
1763700005763364000,6.342364013671875,0.06045562028884888,-0.00355851580388844,-0.7385608553886414
1763700005773314300,6.352314208984375,0.079246886074543,-0.06712470948696136,-0.7099566459655762
1763700005783265000,6.36226513671875,0.05545686557888985,-0.14006762206554413,-0.612984836101532
1763700005793215000,6.372215087890625,0.08134492486715317,-0.18496079742908478,-0.4845792055130005
1763700005803166200,6.382166259765625,0.11456093192100525,-0.14541871845722198,-0.35919278860092163
1763700005813116200,6.3921162109375,0.09026038646697998,-0.05149434879422188,-0.2550935447216034
1763700005823067100,6.402067138671875,0.024624120444059372,0.05390024930238724,-0.20432117581367493
1763700005833017000,6.41201708984375,-0.019030416384339333,0.12260927259922028,-0.18570542335510254
1763700005842968300,6.42196826171875,0.0029795446898788214,0.1364119052886963,-0.16572052240371704
1763700005852918300,6.431918212890625,0.08116649091243744,0.09802643209695816,-0.15596723556518555
1763700005862869200,6.441869140625,0.18007229268550873,0.013394635170698166,-0.15114477276802063
1763700005872819200,6.451819091796875,0.27177664637565613,-0.04838910326361656,-0.14558756351470947
1763700005882770200,6.461770263671875,0.31407830119132996,-0.13088370859622955,-0.11138378083705902
1763700005892720000,6.47172021484375,0.3690134584903717,-0.1476174145936966,-0.10354024171829224
1763700005902671000,6.481671142578125,0.42685064673423767,-0.1424868404865265,-0.08967289328575134
1763700005912621300,6.491621337890625,0.46385154128074646,-0.10077933967113495,-0.06334568560123444
1763700005922572000,6.501572021484375,0.45593398809432983,-0.0371263287961483,-0.019360382109880447
1763700005932522000,6.51152197265625,0.42938464879989624,0.0005608617211692035,0.03278031572699547
1763700005942473200,6.52147314453125,0.432125061750412,-0.005169195588678122,0.05786809325218201
1763700005952423200,6.531423095703125,0.4863070547580719,-0.046059902757406235,0.05582944303750992
1763700005962374100,6.5413740234375,0.5781956911087036,-0.1256285011768341,0.060202885419130325
1763700005972324000,6.551323974609375,0.6984667181968689,-0.2256919890642166,0.0807904526591301
1763700005982275300,6.561275390625,0.8286452293395996,-0.3471078872680664,0.1028004139661789
1763700005992225300,6.571225341796875,0.9522888660430908,-0.4653242826461792,0.11654738336801529
1763700006002176000,6.581176025390625,1.0339454412460327,-0.5414576530456543,0.14071211218833923
1763700006012126200,6.591126220703125,1.0649744272232056,-0.5781749486923218,0.19128607213497162
1763700006022077200,6.6010771484375,1.0480295419692993,-0.6396084427833557,0.24660472571849823
1763700006032027100,6.611027099609375,1.0380465984344482,-0.7317051291465759,0.3000842034816742
1763700006041978000,6.62097802734375,1.0038803815841675,-0.8147017359733582,0.3442116975784302
1763700006051928000,6.630927978515625,0.8509470820426941,-0.797540545463562,0.3611142635345459
1763700006061879000,6.640879150390625,0.7290757894515991,-0.7657269835472107,0.36345037817955017
1763700006071829000,6.6508291015625,0.5944516658782959,-0.7153024077415466,0.3915824294090271
1763700006081780200,6.6607802734375,0.45874813199043274,-0.5344250798225403,0.46556875109672546
1763700006091730200,6.670730224609375,0.47091931104660034,-0.30510106682777405,0.4572612941265106
1763700006101681200,6.68068115234375,0.4777282178401947,-0.22531966865062714,0.43695521354675293
1763700006111631000,6.690631103515625,0.5664476752281189,-0.1500731259584427,0.4475894868373871
1763700006121582000,6.70058203125,0.5234259366989136,-0.06844670325517654,0.5017765760421753
1763700006131532300,6.7105322265625,0.4172497093677521,0.04530516266822815,0.5636657476425171
1763700006141483000,6.72048291015625,0.30416440963745117,0.09893617033958435,0.6327881217002869
1763700006151434200,6.730434326171875,0.23570360243320465,0.09753800928592682,0.7425199151039124
1763700006161384200,6.74038427734375,0.2299186885356903,0.17986589670181274,0.7293303608894348
1763700006171335200,6.750335205078125,0.24949771165847778,0.21330001950263977,0.5566155910491943
1763700006181285000,6.76028515625,0.30087727308273315,0.21824684739112854,0.26185426115989685
1763700006191236400,6.770236328125,0.40273547172546387,0.14955966174602509,-0.00430260319262743
1763700006201186300,6.780186279296875,0.5119226574897766,0.04682210087776184,-0.1605585217475891
1763700006211137000,6.790136962890625,0.5989499688148499,-0.033725474029779434,-0.25402161478996277
1763700006221087200,6.800087158203125,0.6622525453567505,-0.1694667935371399,-0.3385242521762848
1763700006231038200,6.8100380859375,0.7345592379570007,-0.3292921483516693,-0.42800354957580566
1763700006240988200,6.81998828125,0.7825043797492981,-0.4437268376350403,-0.46466541290283203
1763700006250939100,6.829939208984375,0.8109610676765442,-0.5441716909408569,-0.4378646910190582
1763700006260889000,6.83988916015625,0.8354261517524719,-0.6479638814926147,-0.3498978316783905
1763700006270840000,6.849840087890625,0.8334418535232544,-0.6856915354728699,-0.21526464819908142
1763700006280790000,6.8597900390625,0.7664268612861633,-0.6674976348876953,-0.050091661512851715
1763700006290741200,6.8697412109375,0.6473942399024963,-0.6624940633773804,0.15361087024211884
1763700006300691200,6.879691162109375,0.5157927870750427,-0.5633187294006348,0.3937779366970062
1763700006310642200,6.88964208984375,0.3777709901332855,-0.4394471347332001,0.6429283618927002
1763700006320592100,6.899592041015625,0.3243405222892761,-0.3718808889389038,0.8669931292533875
1763700006330543000,6.909543212890625,0.35407790541648865,-0.31264179944992065,1.0713204145431519
1763700006340493300,6.919493408203125,0.38955333828926086,-0.30796128511428833,1.3062174320220947
1763700006350444000,6.929444091796875,0.4086061418056488,-0.36750665307044983,1.5942939519882202
1763700006360394200,6.939394287109375,0.37249553203582764,-0.3856523633003235,1.9259240627288818
1763700006370345200,6.94934521484375,0.2146470546722412,-0.3168945908546448,2.2438812255859375
1763700006380295000,6.959294921875,-0.005494900047779083,-0.12951484322547913,2.502227306365967
1763700006390246100,6.96924609375,-0.2836463749408722,0.15205398201942444,2.653080940246582
1763700006400196000,6.979196044921875,-0.594145655632019,0.4605902433395386,2.656888961791992
1763700006410147000,6.98914697265625,-0.8127560019493103,0.622088611125946,2.5437982082366943
1763700006420096800,6.9990966796875,-0.8657337427139282,0.6103405952453613,2.3660550117492676
1763700006430047700,7.0090478515625,-0.8787598013877869,0.5069196820259094,2.142603635787964
1763700006439997700,7.018997802734375,-0.9934443235397339,0.38804492354393005,1.937333345413208
1763700006449948700,7.02894873046875,-1.0707262754440308,0.18278685212135315,1.7451276779174805
1763700006459898600,7.038898681640625,-1.047075867652893,0.17031341791152954,1.4424092769622803
1763700006469849900,7.048849853515625,-0.8861082792282104,0.14594149589538574,1.0806816816329956
1763700006479799800,7.0587998046875,-0.5898081660270691,0.12889832258224487,0.7180878520011902
1763700006489750800,7.068750732421875,-0.25767120718955994,0.2428605854511261,0.24366378784179688
1763700006499700700,7.07870068359375,-0.04122546687722206,0.04368995502591133,-0.1176544576883316
1763700006509651700,7.088651611328125,0.11840759962797165,-0.00395772373303771,-0.37442871928215027
1763700006519602000,7.098601806640625,0.18767482042312622,-0.05621453747153282,-0.572928249835968
1763700006529552600,7.108552734375,0.20685358345508575,-0.13342490792274475,-0.8579285740852356
1763700006539502800,7.1185029296875,0.25092437863349915,-0.19354896247386932,-1.2088418006896973
1763700006549453800,7.128453857421875,0.3703945577144623,-0.20716063678264618,-1.490669846534729
1763700006559403800,7.13840380859375,0.504489004611969,-0.10583429038524628,-1.6785304546356201
1763700006569354800,7.148354736328125,0.5468862652778625,0.08204160630702972,-1.7710500955581665
1763700006579304700,7.1583046875,0.5510852336883545,0.1509580910205841,-1.7947428226470947
1763700006589256000,7.168255859375,0.3187367022037506,0.20131473243236542,-1.8043088912963867
1763700006599205600,7.17820556640625,0.1947665512561798,0.40936407446861267,-1.7685296535491943
1763700006609156900,7.188156982421875,0.12489506602287292,0.43305128812789917,-1.6802862882614136
1763700006619106800,7.19810693359375,-0.015168299898505211,0.14188815653324127,-1.4451510906219482
1763700006629057800,7.208057861328125,-0.09441038966178894,0.555152952671051,-1.2308568954467773
1763700006639007700,7.2180078125,-0.11698654294013977,0.33639025688171387,-1.0020519495010376
1763700006648958700,7.227958740234375,-0.045817289501428604,0.2333003729581833,-0.891670286655426
1763700006658909000,7.237908935546875,-0.0005696501466445625,0.07678665965795517,-0.8465938568115234
1763700006668859600,7.247859619140625,-0.06862539798021317,0.07431897521018982,-0.8689771890640259
1763700006678809900,7.257809814453125,-0.23723705112934113,-0.0350746288895607,-0.8521752953529358
1763700006688760800,7.2677607421875,-0.34050244092941284,-0.024026505649089813,-0.8663606643676758
1763700006698710800,7.277710693359375,-0.34572651982307434,-0.0994403064250946,-0.8556517958641052
1763700006708661800,7.287661865234375,-0.32377779483795166,-0.10744602978229523,-0.7722141742706299
1763700006718611700,7.29761181640625,-0.404671847820282,0.048054344952106476,-0.7373155951499939
1763700006728563000,7.30756298828125,-0.6033157110214233,0.4210202097892761,-0.5834333300590515
1763700006738512600,7.3175126953125,-0.7256261706352234,0.3788658082485199,-0.5091612339019775
1763700006748463900,7.3274638671875,-0.6732452511787415,0.2865489423274994,-0.39432492852211
1763700006758413800,7.337413818359375,-0.5748316049575806,0.18515893816947937,-0.3571280241012573
1763700006768364500,7.347364501953125,-0.5135149955749512,0.01215493306517601,-0.3328157663345337
1763700006778314800,7.357314697265625,-0.46583613753318787,-0.08633408695459366,-0.3159542381763458
1763700006788265700,7.367265625,-0.42024868726730347,-0.1615430861711502,-0.30619028210639954
1763700006798216000,7.3772158203125,-0.37550783157348633,-0.18710410594940186,-0.2997901737689972
1763700006808166700,7.387166748046875,-0.36192864179611206,-0.11378568410873413,-0.30701640248298645
1763700006818116600,7.39711669921875,-0.41800975799560547,-0.04662875458598137,-0.29237914085388184
1763700006828067800,7.40706787109375,-0.47902998328208923,0.028482241556048393,-0.24486061930656433
1763700006838017800,7.417017822265625,-0.4910152554512024,0.015270299278199673,-0.15796779096126556
1763700006847968800,7.42696875,-0.4298645555973053,-0.0772407278418541,-0.07435359060764313
1763700006857918700,7.436918701171875,-0.3364001214504242,-0.18802982568740845,-0.012190353125333786
1763700006867870000,7.446869873046875,-0.23599281907081604,-0.2969309985637665,0.014376542530953884
1763700006877820000,7.45681982421875,-0.15974785387516022,-0.3288969397544861,-0.001525991247035563
1763700006887771000,7.46677099609375,-0.11087538301944733,-0.33238112926483154,-0.03891757130622864
1763700006897720800,7.476720947265625,-0.06734335422515869,-0.3326317369937897,-0.08913147449493408
1763700006907671800,7.486671875,-0.017042100429534912,-0.30033451318740845,-0.14409911632537842
1763700006917621800,7.496621826171875,0.005166266113519669,-0.29499754309654236,-0.19185784459114075
1763700006927572700,7.50657275390625,-0.017696438357234,-0.27886438369750977,-0.22504137456417084
1763700006937523000,7.51652294921875,-0.05300036817789078,-0.2892129123210907,-0.260162353515625
1763700006947473700,7.5264736328125,-0.1344478279352188,-0.33288687467575073,-0.2746904194355011
1763700006957423600,7.536423583984375,-0.21867269277572632,-0.5004692077636719,-0.22613513469696045
1763700006967374800,7.546374755859375,-0.19224533438682556,-0.5274630188941956,-0.23022840917110443
1763700006977324800,7.55632470703125,-0.11768375337123871,-0.5426792502403259,-0.29489263892173767
1763700006987275800,7.56627587890625,-0.014516890980303288,-0.6784629225730896,-0.3831116855144501
1763700006997225700,7.576225830078125,0.09196454286575317,-0.7175951600074768,-0.4561004340648651
1763700007007175700,7.58617578125,0.1532321572303772,-0.7783548831939697,-0.48982882499694824
1763700007017127000,7.596126953125,0.146073579788208,-0.7705891132354736,-0.5020018815994263
1763700007027076600,7.60607666015625,0.10038066655397415,-0.6965165138244629,-0.5155099630355835
1763700007037027800,7.61602783203125,0.05740310624241829,-0.6542755365371704,-0.49817728996276855
1763700007046977800,7.625977783203125,0.05013826861977577,-0.7242503762245178,-0.4671837091445923
1763700007056928800,7.6359287109375,0.09307827800512314,-0.791026771068573,-0.4425973892211914
1763700007066878700,7.645878662109375,0.15459837019443512,-0.8634684681892395,-0.4204652011394501
1763700007076829700,7.65582958984375,0.197235569357872,-0.9487426280975342,-0.40706655383110046
1763700007086780000,7.66577978515625,0.2085856944322586,-1.0307592153549194,-0.41350317001342773
1763700007096730600,7.675730712890625,0.17484265565872192,-1.0366047620773315,-0.42910289764404297
1763700007106680800,7.685680908203125,0.0642000213265419,-0.9859618544578552,-0.43063315749168396
1763700007116631800,7.6956318359375,0.02479216456413269,-0.7846468687057495,-0.4452754855155945
1763700007126581800,7.705581787109375,-0.007128749508410692,-0.7814041972160339,-0.4884849786758423
1763700007136532700,7.71553271484375,-0.051532432436943054,-0.8319552540779114,-0.542887806892395
1763700007146482700,7.725482666015625,-0.034029871225357056,-0.8065082430839539,-0.5456073880195618
1763700007156434000,7.735433837890625,-0.0036610474344342947,-0.7695038914680481,-0.4982343018054962
1763700007166383600,7.745383544921875,0.01516004465520382,-0.7133522033691406,-0.4236074686050415
1763700007176334800,7.7553349609375,-0.007157245185226202,-0.5980961918830872,-0.34481385350227356
1763700007186284800,7.765284912109375,-0.013403689488768578,-0.46472853422164917,-0.257405161857605
1763700007196235800,7.77523583984375,-0.006473345682024956,-0.4307495355606079,-0.1995847523212433
1763700007206185700,7.785185791015625,-0.04422472044825554,-0.3507191240787506,-0.1602218896150589
1763700007216136700,7.79513671875,-0.08609813451766968,-0.20163138210773468,-0.04848098382353783
1763700007226087000,7.8050869140625,-0.11710691452026367,-0.078032486140728,0.07988151907920837
1763700007236037600,7.81503759765625,-0.12284816056489944,0.022217154502868652,0.16364246606826782
1763700007245987800,7.82498779296875,-0.10577010363340378,0.1182081326842308,0.12820696830749512
1763700007255938800,7.834938720703125,-0.05471038445830345,0.22578252851963043,0.025440111756324768
1763700007265888800,7.844888671875,0.0012112056137993932,0.2945581376552582,-0.054183077067136765
1763700007275839700,7.85483984375,0.01799444667994976,0.31385672092437744,-0.07508489489555359
1763700007285789700,7.864789794921875,-0.008865396492183208,0.34696274995803833,-0.048218127340078354
1763700007295741000,7.874740966796875,-0.05967504903674126,0.4445503056049347,-0.014072941616177559
1763700007305691000,7.88469091796875,-0.11006604880094528,0.5695912837982178,0.0140156839042902
1763700007315641900,7.894641845703125,-0.12652865052223206,0.6262878775596619,0.047395478934049606
1763700007325591800,7.904591796875,-0.11600170284509659,0.6607366800308228,0.07409632951021194
1763700007335542800,7.914542724609375,-0.10756507515907288,0.7228990793228149,0.09519389271736145
1763700007345492700,7.92449267578125,-0.15299753844738007,0.758901059627533,0.1108359694480896
1763700007355443700,7.934443603515625,-0.253815233707428,0.8050480484962463,0.16517430543899536
1763700007365394000,7.944393798828125,-0.3460197150707245,0.9536585211753845,0.17679022252559662
1763700007375344600,7.9543447265625,-0.4590032696723938,1.1288455724716187,0.15148353576660156
1763700007385294600,7.964294677734375,-0.5682312250137329,1.2303519248962402,0.13130316138267517
1763700007395245800,7.974245849609375,-0.6777976751327515,1.2532238960266113,0.1289001852273941
1763700007405195800,7.98419580078125,-0.7646305561065674,1.1929326057434082,0.1541416347026825
1763700007415146800,7.994146728515625,-0.8429206013679504,1.0779876708984375,0.21070797741413116
1763700007425097200,8.00409716796875,-1.0642303228378296,0.9975863099098206,0.24321557581424713
1763700007435048400,8.01404833984375,-1.4118919372558594,0.9760400056838989,0.2098592221736908
1763700007444998100,8.023998046875,-1.836715817451477,0.9889403581619263,0.1235128864645958
1763700007454949000,8.03394921875,-2.3323726654052734,0.9577310681343079,0.05535140633583069
1763700007464899300,8.0438994140625,-2.823482036590576,0.8655773997306824,0.018489528447389603
1763700007474850300,8.053850341796876,-3.0662970542907715,0.7722994089126587,0.027845745906233788
1763700007484800300,8.06380029296875,-2.4853103160858154,0.588629424571991,-0.026380740106105804
1763700007494750200,8.073750244140625,-1.7313021421432495,0.20141753554344177,0.0018298579379916191
1763700007504701200,8.083701171875,-0.9138714671134949,-0.0918460339307785,-0.014551245607435703
1763700007514651400,8.0936513671875,-0.36731037497520447,-0.2780872881412506,-0.09682135283946991
1763700007524602000,8.10360205078125,-0.42434728145599365,-0.03779451549053192,-0.06190677732229233
1763700007534552300,8.11355224609375,-0.892584502696991,0.4314081370830536,0.143641859292984
1763700007544503300,8.12350341796875,-1.3557718992233276,0.9053778052330017,0.31669512391090393
1763700007554453200,8.133453369140625,-1.784340262413025,1.2653751373291016,0.3841090500354767
1763700007564404200,8.143404296875,-2.0204579830169678,1.3293207883834839,0.47208869457244873
1763700007574354200,8.153354248046876,-2.2038075923919678,1.3248432874679565,0.5280108451843262
1763700007584305400,8.163305419921874,-2.240602970123291,1.3543872833251953,0.5013195872306824
1763700007594255000,8.173255126953125,-2.239137887954712,1.2846745252609253,0.42850261926651
1763700007604206300,8.183206298828125,-2.231975793838501,1.1202456951141357,0.3585190176963806
1763700007614156300,8.19315625,-2.2312376499176025,0.9048398733139038,0.29472750425338745
1763700007624107000,8.20310693359375,-2.260885000228882,0.6492182016372681,0.29072263836860657
1763700007634057200,8.21305712890625,-2.236423969268799,0.6573150157928467,0.21680554747581482
1763700007644008200,8.22300830078125,-2.1507198810577393,0.09478003531694412,0.24568113684654236
1763700007653958400,8.23295849609375,-2.0532779693603516,-0.10651259124279022,0.42737025022506714
1763700007663909000,8.2429091796875,-1.9147957563400269,-0.2991566061973572,0.4546860158443451
1763700007673859000,8.252859130859376,-1.3560975790023804,-0.7856152057647705,0.3421384394168854
1763700007683810300,8.262810302734374,-1.025341510772705,-1.0225728750228882,0.4230457842350006
1763700007693760300,8.27276025390625,-0.8804178833961487,-0.9333207607269287,0.5372692942619324
1763700007703711200,8.282711181640625,-0.823905885219574,-0.7827483415603638,0.6062153577804565
1763700007713661200,8.2926611328125,-0.843631386756897,-0.6478773355484009,0.6646270155906677
1763700007723612400,8.3026123046875,-0.9156799912452698,-0.284221351146698,0.6657007932662964
1763700007733562000,8.31256201171875,-0.7218697667121887,-0.36830371618270874,0.6387059092521667
1763700007743513300,8.322513427734375,-0.5491187572479248,-0.45386257767677307,0.619631290435791
1763700007753463300,8.33246337890625,-0.2892051637172699,-0.49375486373901367,0.5496484637260437
1763700007763414300,8.342414306640626,-0.1579534113407135,-0.7290562987327576,0.5307493805885315
1763700007773364200,8.3523642578125,-0.1201823353767395,-0.882479727268219,0.49071937799453735
1763700007783315200,8.362315185546874,-0.23337040841579437,-0.937624454498291,0.4413241446018219
1763700007793265400,8.372265380859375,-0.4671086072921753,-0.8230845332145691,0.37414324283599854
1763700007803215400,8.38221533203125,-0.6560673117637634,-0.6561810374259949,0.31983739137649536
1763700007813166000,8.392166015625,-0.9016547203063965,-0.2369060218334198,0.13849982619285583
1763700007823116300,8.4021162109375,-1.0160162448883057,0.22105355560779572,-0.08137235045433044
1763700007833067300,8.4120673828125,-0.9758389592170715,0.44095873832702637,-0.2219369262456894
1763700007843017200,8.422017333984375,-0.9302477836608887,0.561508059501648,-0.2760595381259918
1763700007852968200,8.43196826171875,-1.094007968902588,0.7236288189888,-0.3485228419303894
1763700007862918100,8.441918212890625,-1.4280178546905518,0.747016966342926,-0.34174907207489014
1763700007872869400,8.451869384765626,-1.6805566549301147,0.9163976907730103,-0.27192527055740356
1763700007882819000,8.461819091796874,-1.807034969329834,1.0169062614440918,-0.2014492303133011
1763700007892770300,8.471770263671875,-1.5976364612579346,0.9860678911209106,-0.050940945744514465
1763700007902720300,8.48172021484375,-1.3358652591705322,0.7868288159370422,-0.029695311561226845
1763700007912671200,8.491671142578125,-0.8858650922775269,0.16026610136032104,-0.20931300520896912
1763700007922621200,8.50162109375,-0.5168788433074951,-0.1465095430612564,-0.22516414523124695
1763700007932572200,8.511572265625,-0.7193642854690552,-0.20771591365337372,-0.12186145782470703
1763700007942522400,8.5215224609375,-0.8947136998176575,-0.250002920627594,0.09970235824584961
1763700007952473000,8.53147314453125,-0.8897093534469604,-0.2027006447315216,0.2910110652446747
1763700007962423300,8.54142333984375,-0.9097496867179871,-0.1982124149799347,0.41068926453590393
1763700007972374300,8.551374267578124,-0.9435867071151733,-0.2520271837711334,0.5433136224746704
1763700007982324200,8.56132421875,-1.0067685842514038,-0.3419743776321411,0.6789422631263733
1763700007992275200,8.571275146484375,-1.0163354873657227,-0.41153401136398315,0.767277717590332
1763700008002225200,8.58122509765625,-0.8357734680175781,-0.4646614193916321,0.7568274736404419
1763700008012176400,8.59117626953125,-0.6196100115776062,-0.5948290228843689,0.6887139678001404
1763700008022126000,8.6011259765625,-0.38840019702911377,-0.5613051652908325,0.5904891490936279
1763700008032077300,8.611077392578125,-0.23500904440879822,-0.44748055934906006,0.4597971439361572
1763700008042027300,8.62102734375,-0.2421519160270691,-0.19291885197162628,0.34000152349472046
1763700008051978200,8.630978271484375,-0.30096569657325745,0.13861221075057983,0.26891615986824036
1763700008061928200,8.64092822265625,-0.3634549081325531,0.3964328169822693,0.2725857198238373
1763700008071879200,8.650879150390624,-0.49806705117225647,0.5453948974609375,0.32548436522483826
1763700008081829400,8.660829345703124,-0.6662611365318298,0.6087304353713989,0.3630647659301758
1763700008091780000,8.670780029296875,-0.7058468461036682,0.3231458365917206,0.2604997754096985
1763700008101730300,8.680730224609375,-0.7073840498924255,0.25425970554351807,0.3138143718242645
1763700008111680300,8.69068017578125,-0.5700685381889343,0.0071007865481078625,0.49084216356277466
1763700008121631200,8.70063134765625,-0.384380966424942,-0.13798236846923828,0.6945620179176331
1763700008131581200,8.710581298828124,-0.3244459927082062,-0.32245928049087524,0.8411346673965454
1763700008141532200,8.7205322265625,-0.06961849331855774,-0.6701186895370483,0.9091590046882629
1763700008151482400,8.730482421875,0.16941246390342712,-0.9575483798980713,0.8669787645339966
1763700008161433300,8.740433349609376,0.16084879636764526,-0.9605627655982971,0.7947266697883606
1763700008171383000,8.750383056640626,0.1317625641822815,-0.7509786486625671,0.6225277781486511
1763700008181334300,8.760334228515624,0.23184388875961304,-0.6027367115020752,0.43818268179893494
1763700008191284200,8.7702841796875,0.3109416365623474,-0.4771766662597656,0.34372594952583313
1763700008201235200,8.780235107421875,0.36921611428260803,-0.29730623960494995,0.3073394298553467
1763700008211185200,8.79018505859375,0.171010360121727,0.029045766219496727,0.20535102486610413
1763700008221136400,8.800136474609374,0.08851761370897293,0.1524779498577118,-0.000017310547264060006
1763700008231086300,8.81008642578125,0.45509693026542664,-0.056957025080919266,-0.18836644291877747
1763700008241037000,8.820037109375,0.4046204388141632,0.10867295414209366,-0.2690618336200714
1763700008250987300,8.8299873046875,0.7137830853462219,0.274102121591568,-0.3127323389053345
1763700008260938200,8.839938232421876,1.0685853958129883,0.5750694274902344,-0.4784619212150574
1763700008270888400,8.849888427734374,1.239553451538086,0.16927717626094818,-0.5287994146347046
1763700008280839200,8.859839111328125,0.7970675826072693,-0.382211297750473,-0.32070183753967285
1763700008290789000,8.8697890625,0.14441870152950287,-0.9346140027046204,0.03749384731054306
1763700008300740400,8.879740234375,-0.6230502724647522,-1.2530626058578491,0.2846176028251648
1763700008310690000,8.88968994140625,-0.9162267446517944,-0.9857951402664185,0.3654102087020874
1763700008320641300,8.899641357421874,-0.8236395716667175,-0.6827926635742188,0.2605232000350952
1763700008330591200,8.90959130859375,-0.5947299599647522,-0.1477378010749817,0.10661006718873978
1763700008340541200,8.919541259765625,-0.10831422358751297,0.028918733820319176,-0.09674731642007828
1763700008350492200,8.9294921875,0.13315778970718384,0.2548986077308655,0.04607348516583443
1763700008360442000,8.939442138671875,0.02738741599023342,0.05981193482875824,0.22462113201618195
1763700008370393300,8.949393310546874,-0.2248389720916748,0.19993868470191956,0.43900957703590393
1763700008380343300,8.95934326171875,-0.26356106996536255,0.3344117999076843,0.6824187636375427
1763700008390294300,8.969294189453125,-0.17715400457382202,0.12558695673942566,0.7243918180465698
1763700008400244200,8.979244140625,-0.1109749898314476,-0.18517358601093292,0.45399677753448486
1763700008410195500,8.989195556640626,-0.04969298839569092,-0.12896651029586792,0.11887632310390472
1763700008420144600,8.99914453125,-0.014082529582083225,-0.01619388349354267,-0.12107795476913452
1763700008430095400,9.009095458984374,-0.010541857220232487,0.032704949378967285,-0.124162957072258
1763700008440045600,9.019045654296875,-0.018810439854860306,0.020667994394898415,0.008949819020926952
1763700008449996500,9.02899658203125,-0.018754512071609497,0.02021419070661068,0.12092269212007523
1763700008459946800,9.03894677734375,-0.006733802612870932,0.042499788105487823,0.13207069039344788
1763700008469897500,9.0488974609375,0.00036938043194822967,0.04867805540561676,0.09321649372577667
1763700008479847400,9.058847412109374,-0.004526575095951557,0.05188663303852081,0.0695178285241127
1763700008489798700,9.068798583984375,-0.0316639207303524,0.03646719828248024,0.1034262552857399
1763700008499748400,9.078748291015625,-0.13877733051776886,-0.025346102192997932,0.2572768032550812
1763700008509698600,9.088698486328125,-0.6352083683013916,0.18717893958091736,0.6158530712127686
1763700008519649500,9.0986494140625,-0.3691908121109009,0.333731085062027,0.6728838682174683
1763700008529599500,9.108599609375,-0.261697918176651,0.12176398187875748,0.4590749144554138
1763700008539550500,9.118550537109375,-0.16263578832149506,0.23132163286209106,0.09290623664855957
1763700008549500400,9.12850048828125,-0.011864649131894112,0.059605274349451065,-0.2492724061012268
1763700008559451600,9.13845166015625,0.09631002694368362,0.14695322513580322,-0.3356515169143677
1763700008569401600,9.148401611328126,0.17935830354690552,0.15024010837078094,-0.3040754795074463
1763700008579352600,9.1583525390625,0.20736117660999298,0.10062620788812637,-0.21762900054454803
1763700008589302500,9.168302490234375,0.20977666974067688,0.025183383375406265,-0.07224037498235703
1763700008599253500,9.17825341796875,0.19882388412952423,-0.05014359578490257,0.11040773242712021
1763700008609203500,9.188203369140625,0.17092274129390717,-0.057244379073381424,0.21032580733299255
1763700008619154400,9.198154541015626,0.13269652426242828,0.005250155925750732,0.12895798683166504
1763700008629104600,9.208104736328124,0.06795641034841537,0.02502625808119774,0.0021640846971422434
1763700008639055600,9.2180556640625,0.020908476784825325,0.05251647159457207,-0.015842612832784653
1763700008649005300,9.22800537109375,-0.0313001312315464,0.04427585005760193,-0.033008549362421036
1763700008658956500,9.23795654296875,-0.08712504804134369,0.06413983553647995,-0.07897284626960754
1763700008668906500,9.247906494140626,-0.18222706019878387,0.14089053869247437,-0.17656384408473969
1763700008678856700,9.257856689453124,-0.19059151411056519,0.4713030755519867,-0.24493038654327393
1763700008688807400,9.267807373046875,-0.1777188628911972,0.7134171724319458,-0.15162281692028046
1763700008698757400,9.27775732421875,-0.25996580719947815,0.5856900811195374,0.032468728721141815
1763700008708708600,9.28770849609375,-0.33725231885910034,0.2721657454967499,0.3436276614665985
1763700008718658600,9.297658447265626,-0.44735538959503174,-0.06513692438602448,0.5982823371887207
1763700008728609500,9.307609619140624,-0.31383994221687317,-0.34828341007232666,0.6976701617240906
1763700008738559500,9.3175595703125,0.03431909158825874,-0.29896754026412964,0.5545673370361328
1763700008748510700,9.3275107421875,0.017370201647281647,-0.18690569698810577,0.36932849884033203
1763700008758460400,9.33746044921875,0.14504320919513702,-0.19595113396644592,0.2731921076774597
1763700008768411600,9.34741162109375,0.2006572037935257,-0.17936310172080994,0.23772521317005157
1763700008778361600,9.357361572265624,0.1431259959936142,-0.23247452080249786,0.32318446040153503
1763700008788312300,9.367312255859375,0.025918683037161827,-0.32543614506721497,0.37513312697410583
1763700008798262500,9.377262451171875,-0.09991461038589478,-0.3865154981613159,0.31004413962364197
1763700008808213500,9.387213623046875,-0.1814904361963272,-0.3082481026649475,0.2127831131219864
1763700008818163700,9.397163818359376,-0.20620828866958618,-0.15560370683670044,0.1622363030910492
1763700008828113700,9.40711376953125,-0.1315590888261795,-0.1279963105916977,0.16130687296390533
1763700008838064400,9.417064453125,-0.10630353540182114,-0.14578543603420258,0.1846015304327011
1763700008848014600,9.4270146484375,-0.12718512117862701,-0.07398128509521484,0.17150171101093292
1763700008857965600,9.436965576171875,-0.14756496250629425,0.14780063927173615,0.1363125741481781
1763700008867915500,9.44691552734375,-0.1591867208480835,0.17672337591648102,0.033258356153964996
1763700008877866500,9.456866455078124,-0.022421419620513916,0.08131323009729385,-0.030433006584644318
1763700008887816400,9.46681640625,0.10068772733211517,0.09089235216379166,-0.05030364915728569
1763700008897767400,9.476767333984375,0.16859114170074463,0.09179143607616425,-0.06769515573978424
1763700008907717400,9.48671728515625,0.33219659328460693,-0.037101030349731445,-0.08883453160524368
1763700008917668600,9.496668701171876,0.2887348532676697,0.07969429343938828,-0.13350532948970795
1763700008927618600,9.50661865234375,0.28209054470062256,0.04602954164147377,-0.1325889378786087
1763700008937569500,9.516569580078125,0.23851749300956726,-0.09696409851312637,-0.1506315916776657
1763700008947519500,9.52651953125,0.23039458692073822,0.08744356036186218,-0.07906951755285263
1763700008957470500,9.536470458984375,0.24494583904743195,-0.08919139206409454,-0.15080735087394714
1763700008967420700,9.546420654296876,0.4490087032318115,-0.1661365032196045,-0.15083637833595276
1763700008977370600,9.55637060546875,0.46210557222366333,0.1038728654384613,-0.12805037200450897
1763700008987321600,9.566321533203125,0.2804122269153595,0.3401687443256378,-0.1851714551448822
1763700008997271600,9.576271484375,0.17166496813297272,0.28805094957351685,-0.24493971467018127
1763700009007222500,9.586222412109375,0.11714419722557068,0.21817174553871155,-0.23536059260368347
1763700009017172500,9.59617236328125,0.004546015989035368,0.22637587785720825,-0.20509909093379974
1763700009027123500,9.60612353515625,0.0795893669128418,0.26798245310783386,-0.13349947333335876
1763700009037073700,9.61607373046875,-0.02063417248427868,-0.10290161520242691,-0.06087107211351395
1763700009047024400,9.6260244140625,-0.17928773164749146,-0.10542469471693039,0.11628106981515884
1763700009056974300,9.635974365234375,-0.25402402877807617,0.08816181868314743,0.1707211434841156
1763700009066925600,9.645925537109376,-0.26464203000068665,0.3650866150856018,0.14024339616298676
1763700009076875500,9.65587548828125,-0.090725377202034,0.41658496856689453,0.06703788787126541
1763700009086826500,9.665826416015625,0.2708176374435425,0.13530190289020538,-0.039992690086364746
1763700009096776400,9.6757763671875,0.1911899298429489,-0.15981070697307587,-0.15633288025856018
1763700009106726400,9.685726318359375,-0.10159533470869064,-0.21901969611644745,-0.11286822706460953
1763700009116677600,9.695677734375,-0.4060998260974884,-0.15753476321697235,-0.11604271829128265
1763700009126627300,9.70562744140625,-0.6219088435173035,-0.2269468605518341,-0.14672978222370148
1763700009136578600,9.71557861328125,-0.7052796483039856,-0.19951070845127106,-0.1299167275428772
1763700009146528500,9.725528564453125,-0.7397555708885193,-0.14989548921585083,-0.10765455663204193
1763700009156479500,9.7354794921875,-0.7337871789932251,-0.18131360411643982,-0.07678212970495224
1763700009166429400,9.745429443359376,-0.7181477546691895,-0.1719299554824829,-0.04351472109556198
1763700009176380700,9.755380615234374,-0.7279135584831238,-0.15084996819496155,-0.024029701948165894
1763700009186330600,9.76533056640625,-0.7255942225456238,-0.15782424807548523,-0.008762332610785961
1763700009196281300,9.77528125,-0.7416104674339294,-0.19055582582950592,-0.000018109494703821838
1763700009206231600,9.7852314453125,-0.7781231999397278,-0.22433936595916748,0.04627881571650505
1763700009216182500,9.7951826171875,-0.8265959024429321,-0.297155499458313,0.13173246383666992
1763700009226132700,9.8051328125,-0.8746044635772705,-0.3698028028011322,0.195890411734581
1763700009236083500,9.81508349609375,-0.9581542015075684,-0.5141469240188599,0.13541455566883087
1763700009246033400,9.825033447265625,-1.0102342367172241,-0.5711724162101746,0.03644908592104912
1763700009255983600,9.834983642578125,-1.0636683702468872,-0.6061652898788452,-0.03407860919833183
1763700009265934600,9.8449345703125,-1.1245988607406616,-0.7394887208938599,0.04140975698828697
1763700009275884500,9.854884521484376,-1.1112377643585205,-0.5862501859664917,0.2520847022533417
1763700009285835500,9.86483544921875,-0.8969595432281494,-0.5650527477264404,0.324421226978302
1763700009295785500,9.874785400390625,-0.7181706428527832,-0.5089311599731445,0.39016640186309814
1763700009305736400,9.884736328125,-0.5996091365814209,-0.5676919221878052,0.5022823214530945
1763700009315686400,9.894686279296875,-0.5044996738433838,-0.841914713382721,0.5825574398040771
1763700009325637600,9.9046376953125,-0.5464529395103455,-1.0814934968948364,0.7021520137786865
1763700009335587600,9.914587646484375,-0.6573648452758789,-1.3213587999343872,0.8186442852020264
1763700009345538600,9.92453857421875,-0.7746869325637817,-1.1075652837753296,0.6384092569351196
1763700009355488500,9.934488525390625,-0.8810096383094788,-0.5368099212646484,0.22226502001285553
1763700009365439500,9.944439453125,-0.9439723491668701,0.09870500862598419,-0.1643551141023636
1763700009375389700,9.9543896484375,-0.8688826560974121,0.42439761757850647,-0.11768855154514313
1763700009385339400,9.96433935546875,-0.6920940279960632,-0.05964735150337219,-0.07796856760978699
1763700009395290600,9.97429052734375,-0.5774598717689514,-0.04996383190155029,-0.21700581908226013
1763700009405240600,9.984240478515625,-0.4104711413383484,0.15031786262989044,-0.41206878423690796
1763700009415191300,9.99419140625,-0.2651408612728119,-0.030979754403233528,-0.6367631554603577
1763700009425142300,10.004142333984374,-0.2124965488910675,-0.011352256871759892,-0.6942253708839417
1763700009435093200,10.01409326171875,-0.5039616823196411,0.3061668574810028,-0.44534364342689514
1763700009445043200,10.024043212890625,-0.743879497051239,-0.13088132441043854,0.02780846133828163
1763700009454994200,10.033994140625,-0.4852311313152313,-0.11985956132411957,0.23351821303367615
1763700009464944000,10.043944091796876,0.38023629784584045,0.19302192330360413,0.0329291895031929
1763700009474895400,10.053895263671874,0.7849656343460083,0.01176584605127573,0.03543362393975258
1763700009484845000,10.063844970703125,0.45337653160095215,-0.6451699733734131,0.13176308572292328
1763700009494796300,10.07379638671875,0.1317143589258194,-0.5021699070930481,0.19334442913532257
1763700009504746200,10.083746337890625,0.07118362933397293,-0.22330471873283386,0.042387936264276505
1763700009514696200,10.0936962890625,0.16092070937156677,0.07993584126234055,-0.10749077051877975
1763700009524647200,10.103647216796874,0.2763058841228485,0.1254415512084961,-0.17622722685337067
1763700009534597000,10.11359716796875,0.3489135205745697,0.015027418732643127,-0.177791029214859
1763700009544548400,10.12354833984375,0.4013493061065674,-0.17541976273059845,-0.21584361791610718
1763700009554498300,10.133498291015625,0.4761921167373657,-0.14344531297683716,-0.2646937072277069
1763700009564449300,10.14344921875,0.5518897771835327,-0.12264389544725418,-0.3679617643356323
1763700009574399200,10.153399169921874,0.5261969566345215,-0.10548461228609085,-0.4726210832595825
1763700009584350500,10.1633505859375,0.5099990963935852,-0.06136322394013405,-0.4881044328212738
1763700009594300200,10.173300048828125,0.38436445593833923,0.02586222253739834,-0.45742267370224
1763700009604251100,10.183251220703125,0.2044905573129654,0.09362182766199112,-0.4697672426700592
1763700009614201300,10.193201416015626,0.009966347366571426,0.11194464564323425,-0.471206933259964
1763700009624152000,10.203152099609374,-0.20460480451583862,0.10884765535593033,-0.5053966045379639
1763700009634102300,10.213102294921875,-0.43216100335121155,0.16668085753917694,-0.6030980944633484
1763700009644052200,10.22305224609375,-0.657074511051178,0.35765987634658813,-0.6711637377738953
1763700009654003200,10.233003173828125,-0.8886188268661499,0.45817768573760986,-0.6077219247817993
1763700009663953400,10.242953369140626,-1.0826575756072998,0.3706291913986206,-0.3273389935493469
1763700009673904000,10.252904052734374,-1.1681662797927856,0.12471849471330643,0.15723462402820587
1763700009683854300,10.262854248046875,-1.1003409624099731,-0.32818666100502014,0.6326701045036316
1763700009693805300,10.272805419921875,-0.929340660572052,-0.5861391425132751,0.9536172747612
1763700009703755300,10.28275537109375,-0.7825685739517212,-0.6915896534919739,1.0233651399612427
1763700009713706200,10.292706298828126,-0.6149497032165527,-0.5904926061630249,0.938682496547699
1763700009723656200,10.30265625,-0.3923720419406891,-0.3314892649650574,0.7930286526679993
1763700009733607200,10.312607177734375,-0.1198078915476799,-0.09854254871606827,0.6735438108444214
1763700009743557000,10.32255712890625,0.16599775850772858,0.030254041776061058,0.5972575545310974
1763700009753508400,10.33250830078125,0.42944058775901794,0.14873914420604706,0.5039891004562378
1763700009763458300,10.342458251953126,0.6170373558998108,0.1895614117383957,0.4628733694553375
1763700009773408300,10.352408203125,0.6893549561500549,0.18490274250507355,0.47022902965545654
1763700009783359200,10.362359130859375,0.6734010577201843,0.18212799727916718,0.4682596027851105
1763700009793309200,10.37230908203125,0.6047341227531433,0.21207231283187866,0.480392724275589
1763700009803260400,10.382260498046875,0.486673504114151,0.20938678085803986,0.4929790794849396
1763700009813210400,10.39221044921875,0.28790101408958435,0.2666945457458496,0.40171733498573303
1763700009823161000,10.4021611328125,0.027231620624661446,0.33457478880882263,0.5498197078704834
1763700009833111300,10.412111328125,-0.1391003578901291,0.19853386282920837,0.6551735997200012
1763700009843062300,10.422062255859375,-0.16678152978420258,0.12292565405368805,0.6556487083435059
1763700009853012200,10.43201220703125,-0.1554793417453766,0.1466115415096283,0.571511447429657
1763700009862963200,10.441963134765626,-0.1147172600030899,0.1710716187953949,0.4748117923736572
1763700009872913200,10.4519130859375,-0.0773448571562767,0.11297502368688583,0.4009926915168762
1763700009882863400,10.46186328125,-0.04663461446762085,0.015844477340579033,0.3344973027706146
1763700009892814000,10.47181396484375,0.01446895394474268,-0.12031123042106628,0.31733134388923645
1763700009902764300,10.481764404296875,0.0958130806684494,-0.1972811073064804,0.31933510303497314
1763700009912715300,10.49171533203125,0.16587018966674805,-0.11854502558708191,0.28010302782058716
1763700009922665200,10.501665283203126,0.21049651503562927,0.013283581472933292,0.21239028871059418
1763700009932616200,10.5116162109375,0.1472427099943161,0.02309706248342991,0.16016490757465363
1763700009942566100,10.521566162109375,0.0470639131963253,-0.0374981053173542,0.11212467402219772
1763700009952517400,10.531517333984375,-0.005216067191213369,-0.0741376131772995,0.05705875903367996
1763700009962467000,10.541467041015625,-0.025559954345226288,-0.10140331834554672,0.005405418109148741
1763700009972418300,10.551418212890624,-0.06108039990067482,-0.12271100282669067,-0.036969467997550964
1763700009982368300,10.5613681640625,-0.0935232937335968,-0.11373242735862732,-0.06548899412155151
1763700009992318200,10.571318115234375,-0.11939803510904312,-0.09508150815963745,-0.06770660728216171
1763700010002269200,10.581269287109375,-0.0889732837677002,-0.09202553331851959,-0.07454720139503479
1763700010012219100,10.59121923828125,-0.1128876656293869,-0.09867038577795029,-0.12734383344650269
1763700010022170400,10.60117041015625,-0.14617131650447845,-0.13409096002578735,-0.1200164183974266
1763700010032120300,10.611120361328124,-0.17933513224124908,-0.2017027586698532,-0.10446222871541977
1763700010042071300,10.6210712890625,-0.2072053849697113,-0.19621984660625458,-0.12347692996263504
1763700010052021200,10.631021240234375,-0.21720261871814728,-0.19676552712917328,-0.1542673259973526
1763700010061972200,10.64097216796875,-0.23573316633701324,-0.23024651408195496,-0.1947825402021408
1763700010071922200,10.650922119140626,-0.2657826840877533,-0.26742425560951233,-0.20913830399513245
1763700010081873200,10.660873046875,-0.27280837297439575,-0.2872253954410553,-0.19240246713161469
1763700010091823400,10.6708232421875,-0.2604507505893707,-0.23779737949371338,-0.16186346113681793
1763700010101774300,10.6807744140625,-0.23698671162128448,-0.2188420593738556,-0.13095402717590332
1763700010111724000,10.69072412109375,-0.22859695553779602,-0.18194955587387085,-0.10966258496046066
1763700010121674200,10.70067431640625,-0.188980832695961,-0.15215304493904114,-0.11385120451450348
1763700010131625200,10.710625244140624,-0.18026991188526154,-0.09948983788490295,-0.10461588948965073
1763700010141575400,10.720575439453125,-0.21574907004833221,-0.0695793405175209,-0.07311975210905075
1763700010151526100,10.730526123046875,-0.24103285372257233,-0.10091223567724228,-0.036003272980451584
1763700010161476000,10.74047607421875,-0.21860957145690918,-0.13248027861118317,-0.01489346195012331
1763700010171427300,10.75042724609375,-0.18727268278598785,-0.12318690866231918,-0.011995144188404083
1763700010181377300,10.760377197265624,-0.1396535038948059,-0.07647719979286194,-0.034448519349098206
1763700010191328300,10.770328369140625,-0.10938215255737305,-0.02154550515115261,-0.05560600385069847
1763700010201278200,10.7802783203125,-0.1044347956776619,0.022359900176525116,-0.06169638782739639
1763700010211229400,10.7902294921875,-0.09366710484027863,0.05417428910732269,-0.07167737931013107
1763700010221179100,10.80017919921875,-0.07782848179340363,0.07649610936641693,-0.08740654587745667
1763700010231129000,10.810129150390624,-0.052743904292583466,0.08873119950294495,-0.10491763055324554
1763700010241080300,10.820080322265625,-0.030550984665751457,0.123207688331604,-0.11831385642290115
1763700010251030300,10.8300302734375,-0.020431239157915115,0.16840365529060364,-0.13369254767894745
1763700010260981200,10.839981201171875,-0.012438293546438217,0.19321659207344055,-0.13915975391864777
1763700010270931200,10.84993115234375,-0.015329421497881413,0.18388594686985016,-0.13006798923015594
1763700010280882200,10.859882080078124,-0.02027357928454876,0.14693352580070496,-0.11295371502637863
1763700010290832400,10.869832275390625,-0.03395237401127815,0.08121921867132187,-0.08391327410936356
1763700010300783000,10.879783203125,-0.05404432490468025,0.017892181873321533,-0.054363638162612915
1763700010310733300,10.8897333984375,-0.07573071122169495,-0.03388392925262451,-0.031920913606882095
1763700010320684300,10.899684326171876,-0.10391627997159958,-0.06623201817274094,-0.006681604776531458
1763700010330634200,10.90963427734375,-0.13152606785297394,-0.10081715881824493,0.016643691807985306
1763700010340584200,10.919584228515625,-0.15047100186347961,-0.09329985082149506,0.030675621703267097
1763700010350535200,10.92953515625,-0.17733456194400787,-0.14834100008010864,-0.002133724745362997
1763700010360485400,10.9394853515625,-0.2084307074546814,-0.2012537568807602,-0.05362434685230255
1763700010370436000,10.94943603515625,-0.05446377396583557,-0.4564567506313324,0.12114639580249786
1763700010380386000,10.959385986328124,-0.1172480657696724,-0.5795230269432068,-0.015152321197092533
1763700010390337300,10.969337158203125,-0.16071298718452454,-0.20057544112205505,0.1845480054616928
1763700010400287200,10.979287353515625,-0.09726716578006744,0.014524614438414574,0.33722278475761414
1763700010410238200,10.98923828125,-0.043165046721696854,0.24974484741687775,0.3767435550689697
1763700010420188200,10.999188232421876,0.039746880531311035,0.2793264389038086,0.4823133945465088
1763700010430139000,11.009138916015624,0.10825856029987335,0.21631047129631042,0.62949538230896
1763700010440088800,11.0190888671875,0.15857206284999847,0.263040155172348,0.788497805595398
1763700010450038800,11.029038818359375,0.192508727312088,0.3707900643348694,0.9287561178207397
1763700010459989800,11.03898974609375,0.20113258063793182,0.44764700531959534,1.036546230316162
1763700010469940000,11.04893994140625,0.21145711839199066,0.459358274936676,1.1036072969436646
1763700010479891000,11.058890869140624,0.2146555781364441,0.3781592845916748,1.143306016921997
1763700010489840600,11.068840576171874,0.22880308330059052,0.2717747986316681,1.1798712015151978
1763700010499792000,11.0787919921875,0.24768143892288208,0.13975682854652405,1.2110499143600464
1763700010509741800,11.088741943359375,0.28031715750694275,-0.011255051009356976,1.2130807638168335
1763700010519692800,11.09869287109375,0.29611527919769287,-0.13125762343406677,1.1901360750198364
1763700010529642800,11.108642822265624,0.30852988362312317,-0.21997123956680298,1.1528496742248535
1763700010539592700,11.1185927734375,0.34808793663978577,-0.30449411273002625,1.0911945104599
1763700010549544000,11.1285439453125,0.4039256274700165,-0.43528541922569275,1.0446337461471558
1763700010559494000,11.138493896484375,0.4649924635887146,-0.5450457334518433,1.028638482093811
1763700010569444900,11.14844482421875,0.5070733428001404,-0.534076452255249,1.0122283697128296
1763700010579394800,11.158394775390626,0.49858182668685913,-0.4508124589920044,0.9550633430480957
1763700010589346000,11.168345947265625,0.4484978914260864,-0.35530591011047363,0.8628596663475037
1763700010599295700,11.178295654296875,0.38909369707107544,-0.27850407361984253,0.7597301006317139
1763700010609247000,11.1882470703125,0.30993974208831787,-0.22399847209453583,0.6574923992156982
1763700010619197000,11.198197021484376,0.2154417335987091,-0.22416386008262634,0.5648841857910156
1763700010629147600,11.208147705078124,0.14161385595798492,-0.24882979691028595,0.48393285274505615
1763700010639097900,11.218097900390624,0.07871931046247482,-0.27042537927627563,0.40512752532958984
1763700010649048800,11.228048828125,-0.002094576135277748,-0.288667231798172,0.31762057542800903
1763700010658999000,11.2379990234375,-0.09106865525245667,-0.2064698189496994,0.2141226828098297
1763700010668949000,11.247948974609375,-0.16614876687526703,-0.02315804921090603,0.08860869705677032
1763700010678899700,11.257899658203126,-0.22326530516147614,0.17110410332679749,-0.04927700012922287
1763700010688850000,11.267849853515624,-0.26420342922210693,0.35654348134994507,-0.20245669782161713
1763700010698801000,11.27780078125,-0.290130615234375,0.48080283403396606,-0.36174941062927246
1763700010708750800,11.287750732421875,-0.36824700236320496,0.40072372555732727,-0.4748448133468628
1763700010718701800,11.297701904296876,-0.4506087303161621,-0.004786499310284853,-0.24874670803546906
1763700010728651800,11.30765185546875,-0.4401840269565582,-0.2851153612136841,0.08067940175533295
1763700010738602800,11.317602783203125,-0.3564172387123108,-0.1425584852695465,0.03539767116308212
1763700010748552700,11.327552734375,-0.3886641263961792,0.10726253688335419,-0.1164802759885788
1763700010758503000,11.3375029296875,-0.5320220589637756,0.1993836760520935,-0.048341166228055954
1763700010768454000,11.347453857421876,-0.5032588839530945,0.21495278179645538,0.12444712221622467
1763700010778403800,11.35740380859375,-0.2844735383987427,0.12525299191474915,0.2506047785282135
1763700010788354800,11.367354736328124,-0.09678353369235992,-0.04693661630153656,0.3646424114704132
1763700010798304800,11.3773046875,0.016638631001114845,-0.1504715234041214,0.42551854252815247
1763700010808256000,11.387256103515625,0.12110591679811478,0.01643436774611473,0.33265331387519836
1763700010818206000,11.3972060546875,0.15448518097400665,0.28525224328041077,0.1789950430393219
1763700010828157000,11.407156982421874,0.07733260840177536,0.3720627725124359,0.08419077843427658
1763700010838107000,11.41710693359375,0.02291703410446644,0.3261687755584717,0.052200887352228165
1763700010848057900,11.427057861328125,-0.006343916058540344,0.1504049450159073,0.027242006734013557
1763700010858007800,11.4370078125,-0.05674716830253601,-0.08185092359781265,0.005315669346600771
1763700010867957800,11.446957763671875,-0.08617643266916275,-0.29156234860420227,-0.009474728256464005
1763700010877909000,11.456908935546876,-0.09366949647665024,-0.4208279252052307,0.005592638161033392
1763700010887859000,11.46685888671875,-0.06536436080932617,-0.4684510827064514,0.04332084208726883
1763700010897809700,11.4768095703125,-0.0316506028175354,-0.4622270166873932,0.07545986771583557
1763700010907759900,11.486759765625,-0.01506816502660513,-0.41473087668418884,0.09658379852771759
1763700010917710800,11.4967109375,-0.012015916407108307,-0.3731677234172821,0.10325208306312561
1763700010927661000,11.5066611328125,-0.02269252948462963,-0.36818602681159973,0.11388795077800751
1763700010937611800,11.51661181640625,-0.03924008086323738,-0.3895014226436615,0.12046942114830017
1763700010947561700,11.526561767578125,-0.061713699251413345,-0.44442805647850037,0.1103518083691597
1763700010957513000,11.536512939453125,-0.07321429252624512,-0.4987834393978119,0.08305999636650085
1763700010967462700,11.546462646484375,-0.056349292397499084,-0.501875102519989,0.028416460379958153
1763700010977412900,11.556412841796876,-0.03552603721618652,-0.4884093701839447,-0.026575684547424316
1763700010987363800,11.56636376953125,-0.0078102522529661655,-0.4912504255771637,-0.0409381128847599
1763700010997314000,11.57631396484375,0.006045109126716852,-0.49087250232696533,-0.030858047306537628
1763700011007264800,11.5862646484375,-0.0002348908019484952,-0.4717329144477844,-0.010041182860732079
1763700011017214700,11.596214599609375,-0.011246529407799244,-0.41758713126182556,0.0025920546613633633
1763700011027166000,11.606166015625,-0.029761623591184616,-0.3777795135974884,0.010639328509569168
1763700011037116000,11.616115966796874,-0.04573925957083702,-0.3407338857650757,0.01248330157250166
1763700011047067000,11.62606689453125,-0.043951746076345444,-0.31524476408958435,0.00018349179299548268
1763700011057016800,11.636016845703125,-0.0516890287399292,-0.32129520177841187,-0.015165637247264385
1763700011066966800,11.645966796875,-0.056881923228502274,-0.31441280245780945,-0.03353479132056236
1763700011076917800,11.655917724609376,-0.04662342742085457,-0.29518476128578186,-0.04740346968173981
1763700011086867700,11.66586767578125,-0.040039293467998505,-0.2752520740032196,-0.06801846623420715
1763700011096819000,11.67581884765625,-0.038553785532712936,-0.26349902153015137,-0.09415233135223389
1763700011106769000,11.685768798828125,-0.033427998423576355,-0.26038551330566406,-0.118277907371521
1763700011116719900,11.695719970703125,-0.0296750720590353,-0.25032275915145874,-0.1266396939754486
1763700011126669800,11.705669921875,-0.02352290228009224,-0.26454269886016846,-0.13705265522003174
1763700011136620800,11.715620849609374,-0.017422666773200035,-0.2882016897201538,-0.15563246607780457
1763700011146571000,11.725571044921875,-0.02389201708137989,-0.3359394073486328,-0.16398361325263977
1763700011156521700,11.735521728515625,-0.018633872270584106,-0.41046103835105896,-0.164790540933609
1763700011166472000,11.745471923828125,-0.016994962468743324,-0.502918541431427,-0.14743153750896454
1763700011176422000,11.755421875,-0.024058464914560318,-0.5849276185035706,-0.11598412692546844
1763700011186372900,11.765372802734374,-0.05302007496356964,-0.6347324848175049,-0.08505763858556747
1763700011196322800,11.77532275390625,-0.07013008743524551,-0.6059554219245911,-0.04683355242013931
1763700011206273800,11.785273681640625,-0.10770915448665619,-0.520862877368927,0.002784334821626544
1763700011216224000,11.79522412109375,-0.12412301450967789,-0.3965713083744049,0.030490797013044357
1763700011226174700,11.8051748046875,-0.1721203625202179,-0.2728975713253021,0.046673230826854706
1763700011236124700,11.815124755859374,-0.20757369697093964,-0.1756991147994995,0.04194531962275505
1763700011246076000,11.825075927734375,-0.23030084371566772,-0.10446568578481674,0.02936055138707161
1763700011256025900,11.83502587890625,-0.23697419464588165,-0.059843093156814575,0.020956147462129593
1763700011265976000,11.84497607421875,-0.2294268012046814,-0.018091652542352676,0.023078687489032745
1763700011275926800,11.8549267578125,-0.21534693241119385,0.023980433121323586,0.031153125688433647
1763700011285876700,11.864876708984376,-0.19502408802509308,0.030466562137007713,0.031032217666506767
1763700011295828000,11.874827880859375,-0.17931756377220154,0.02719247154891491,0.024331439286470413
1763700011305777700,11.884777587890625,-0.1579856425523758,0.017915884032845497,0.012300875037908554
1763700011315729000,11.89472900390625,-0.13753388822078705,0.01446895394474268,-0.00061279337387532
1763700011325678800,11.904678955078126,-0.12065717577934265,0.012248942628502846,-0.012855344451963902
1763700011335629800,11.9146298828125,-0.10214341431856155,0.004563592839986086,-0.028718464076519012
1763700011345579800,11.924579833984374,-0.09596115350723267,-0.0005328985280357301,-0.04141455143690109
1763700011355529700,11.93452978515625,-0.08995332568883896,-0.010320814326405525,-0.0503193624317646
1763700011365481000,11.94448095703125,-0.0895455926656723,-0.03431429713964462,-0.05835225433111191
1763700011375431000,11.954430908203125,-0.08647097647190094,-0.0613349974155426,-0.06946855783462524
1763700011385382000,11.9643818359375,-0.08312205225229263,-0.08826328068971634,-0.08048765361309052
1763700011395331800,11.974331787109374,-0.08237823098897934,-0.1171543225646019,-0.08768031746149063
1763700011405283000,11.984282958984375,-0.0838746577501297,-0.13748489320278168,-0.09328653663396835
1763700011415233000,11.99423291015625,-0.0866190493106842,-0.1510494351387024,-0.09774386882781982
1763700011425183700,12.004183837890626,-0.09544289857149124,-0.1628704071044922,-0.10576558113098145
1763700011435134000,12.014134033203124,-0.10181397944688797,-0.1744823306798935,-0.11703474074602127
1763700011445085000,12.0240849609375,-0.1105390265583992,-0.16951605677604675,-0.12631240487098694
1763700011455035000,12.034034912109375,-0.1064329668879509,-0.13793842494487762,-0.11975649744272232
1763700011464984800,12.04398486328125,-0.09824241697788239,-0.07852143794298172,-0.09627912938594818
1763700011474936000,12.05393603515625,-0.08682730793952942,-0.008923454210162163,-0.05967957526445389
1763700011484886000,12.063885986328126,-0.07248219102621078,0.04946475476026535,-0.021469606086611748
1763700011494837000,12.0738369140625,-0.059908606112003326,0.09606847912073135,0.010448379442095757
1763700011504787000,12.083786865234375,-0.05215827748179436,0.12435737252235413,0.02731870673596859
1763700011514738200,12.09373828125,-0.048656485974788666,0.13784468173980713,0.03165486454963684
1763700011524688100,12.103688232421876,-0.055456601083278656,0.1330254226922989,0.027293939143419266
1763700011534638800,12.113638916015624,-0.06204978749155998,0.11656229943037033,0.020416591316461563
1763700011544589000,12.123589111328124,-0.06853458285331726,0.0944543331861496,0.014602644369006157
1763700011554539000,12.1335390625,-0.07199110090732574,0.07467343658208847,0.008735435083508492
1763700011564490000,12.143489990234375,-0.0748356282711029,0.06498432904481888,0.007869641296565533
1763700011574440000,12.15343994140625,-0.07621434330940247,0.05564408749341965,0.010548247955739498
1763700011584391000,12.163390869140626,-0.07682926952838898,0.05032522231340408,0.017787519842386246
1763700011594341000,12.173341064453124,-0.07420338690280914,0.04248594120144844,0.024351146072149277
1763700011604291800,12.183291748046875,-0.07301721721887589,0.038423821330070496,0.025585521012544632
1763700011614242000,12.193241943359375,-0.07327660918235779,0.02984924241900444,0.028497155755758286
1763700011624193000,12.203193115234376,-0.07427210360765457,0.025018533691763878,0.03151505067944527
1763700011634143000,12.21314306640625,-0.07583537697792053,0.02448510378599167,0.031431958079338074
1763700011644094000,12.223093994140624,-0.07895926386117935,0.025179123505949974,0.026500316336750984
1763700011654044000,12.2330439453125,-0.07926339656114578,0.031156854704022408,0.02003868855535984
1763700011663994000,12.242994140625,-0.07990068942308426,0.03755722939968109,0.012350409291684628
