time,seconds_elapsed,z,y,x
1763694524958093300,0.05009326171875,9.797671743774414,2.498947982788086,1.0743979949951172
1763694524968053200,0.06005322265625,9.430610701751709,2.529324416351318,1.2886790435791016
1763694524978013400,0.070013427734375,9.063400022125244,2.6001030029296874,1.3775637802124023
1763694524987973400,0.079973388671875,8.965686666870116,2.6904841156005856,1.2873323051452636
1763694524997933300,0.089933349609375,8.677634279632567,2.867655038452148,1.0673650276184081
1763694525007893200,0.099893310546875,8.378957622528075,2.961028903198242,0.8969277969360351
1763694525017853400,0.109853515625,8.271817098236083,2.9836241813659665,0.7647977928161621
1763694525027812600,0.1198125,8.340500758361816,3.03899009475708,0.7103297050476074
1763694525037772500,0.1297724609375,8.514379653930664,3.118746937561035,0.6977601463317871
1763694525047732500,0.139732421875,8.63169553527832,3.089417967224121,0.7766191635131835
1763694525057692400,0.1496923828125,8.670302037048339,3.0138509773254394,0.8268973983764648
1763694525067652400,0.15965234375,8.709357451629637,2.995595189666748,0.8022071937561035
1763694525077612300,0.1696123046875,8.771457057189942,3.0410850212097165,0.723348176574707
1763694525087572200,0.179572265625,8.828768259429932,3.1153052726745605,0.6937199310302734
1763694525097532400,0.189532470703125,8.8482211479187,3.143586779785156,0.7308300567626953
1763694525107492400,0.199492431640625,8.8229323928833,3.1485248207092282,0.7523778717041015
1763694525117452300,0.209452392578125,8.83639977722168,3.186383134460449,0.7594108390808105
1763694525127412200,0.219412109375,8.821735292053223,3.2619501243591307,0.7436988906860351
1763694525137372400,0.229372314453125,8.818443264770508,3.2939725715637205,0.7640496047973633
1763694525147332400,0.239332275390625,8.842834194183348,3.327341757202148,0.783352855682373
1763694525157292300,0.249292236328125,8.898798657989502,3.3711855751037594,0.8282441368103027
1763694525167252200,0.259252197265625,9.045293872070312,3.39018955078125,0.859967308807373
1763694525177212400,0.26921240234375,9.075520668029785,3.376572528839111,0.8574234695434569
1763694525187171600,0.279171630859375,9.184756118774413,3.3819594825744628,0.8444049980163574
1763694525197131500,0.289131591796875,9.252841228485106,3.4229601860046386,0.8110358123779297
1763694525207091500,0.299091552734375,9.349357482910156,3.425204750061035,0.7986158912658691
1763694525217051400,0.309051513671875,9.503484214782715,3.4510920555114746,0.7872434333801269
1763694525227011300,0.31901123046875,9.404424121093749,3.362057681274414,0.8493430389404296
1763694525236971300,0.32897119140625,9.49405704574585,3.5966894439697263,0.8243535591125488
1763694525246931200,0.33893115234375,9.496750522613524,3.731363287353515,0.7899369102478027
1763694525256891400,0.348891357421875,9.522188915252684,3.5268086830139156,0.8819640365600585
1763694525266851300,0.358851318359375,9.495254146575927,3.4769793609619137,0.852934341430664
1763694525276811300,0.368811279296875,9.427917224884032,3.5136405738830563,0.828693049621582
1763694525286771200,0.378771240234375,9.348758932495116,3.5390789665222164,0.8672995513916015
1763694525296731400,0.3887314453125,9.267804988861084,3.695300624847412,0.7652467056274413
1763694525306691300,0.39869140625,9.128193104553223,3.750067987823486,0.7704840217590332
1763694525316651300,0.4086513671875,9.01386997528076,3.771017252349853,0.8113350875854491
1763694525326611500,0.418611572265625,8.948179067230225,3.8296751930236814,0.7371148361206055
1763694525336571400,0.4285712890625,8.979004413604736,3.9044939949035644,0.6762123313903808
1763694525346531300,0.43853125,8.877849393463134,3.9591117202758785,0.7356184600830078
1763694525356491300,0.4484912109375,8.643067993164061,3.8979099403381343,0.8158242156982422
1763694525366450400,0.458450439453125,8.493580027008056,3.848379893493652,0.8268973983764648
1763694525376410400,0.468410400390625,8.51632494277954,3.848379893493652,0.821061531829834
1763694525386370300,0.478370361328125,8.541015147399902,3.866186768341064,0.7058405769348144
1763694525396330200,0.488330322265625,8.621220903015136,3.9496845512390135,0.6042366439819336
1763694525406290200,0.498290283203125,8.756642934417725,3.9565678810119627,0.5714660087585449
1763694525416250400,0.50825048828125,8.851064262390135,3.9094320358276367,0.5666776054382324
1763694525426210300,0.518210205078125,8.874707003784179,3.765630298614502,0.6634931350708008
1763694525436170200,0.528170166015625,8.844330570220947,3.5933974166870115,0.7015010864257812
1763694525446130400,0.53813037109375,9.020005117034911,3.541473168182373,0.6980594215393066
1763694525456090400,0.54809033203125,9.181464091491698,3.5633202583312986,0.6410474945068358
1763694525466050300,0.55805029296875,9.154230047607422,3.5324949119567868,0.5351040710449219
1763694525476010200,0.56801025390625,9.06534531097412,3.5941456047058105,0.4212298545837402
1763694525485970400,0.577970458984375,9.049184449768067,3.703381055450439,0.32501287536621093
1763694525495930400,0.587930419921875,9.131335494232177,3.67120897064209,0.21113865890502928
1763694525505890300,0.597890380859375,9.134627521514892,3.594893792724609,0.13826514587402344
1763694525515850200,0.607850341796875,9.112181880950928,3.5399767921447753,0.12330138549804687
1763694525525810400,0.617810546875,9.063400022125244,3.5645173591613766,0.17357962036132812
1763694525535769300,0.627769287109375,9.114576082611084,3.6674680305480956,0.3051110740661621
1763694525545729300,0.637729248046875,9.16201120300293,3.744980309295654,0.49200844116210934
1763694525555689200,0.647689208984375,9.087940589141844,3.7542578407287595,0.6979097839355468
1763694525565649400,0.6576494140625,9.050830463409424,3.745878134918213,0.8628104232788085
1763694525575609300,0.667609375,9.044096771240234,3.74767378616333,0.9189245246887207
1763694525585569300,0.6775693359375,9.042001844787597,3.7825393478393554,0.8424597091674804
1763694525595529200,0.687529296875,9.028833735656738,3.8521208335876462,0.690128628540039
1763694525605489400,0.697489501953125,9.025541708374023,3.961505921936035,0.5551555099487304
1763694525615449300,0.707449462890625,8.993369623565673,4.0632594924926755,0.4607341819763183
1763694525625409300,0.7174091796875,8.8619878074646,4.056825075531005,0.47749359359741206
1763694525635369200,0.727369140625,8.7853733543396,4.054430873870849,0.5217863243103027
1763694525645329400,0.737329345703125,8.812607398223877,4.092887738037109,0.5485714553833008
1763694525655289300,0.747289306640625,8.76651901626587,4.115034103393555,0.5538087715148925
1763694525665249300,0.757249267578125,8.673294789123535,4.16231958618164,0.534355883026123
1763694525675209500,0.76720947265625,8.660126679992675,4.14391416091919,0.6075286712646484
1763694525685169400,0.77716943359375,8.783278427886962,4.044255516815185,0.7127239067077636
1763694525695129300,0.78712939453125,9.0780645072937,3.930680575561523,0.6504746635437011
1763694525705088300,0.797088134765625,9.326762204742431,3.8935704498291015,0.3311480171203613
1763694525715048200,0.807048095703125,9.499443999481201,4.27140539932251,0.36047698745727536
1763694525725008400,0.81700830078125,9.784353997039794,4.482394420623779,0.48452656097412106
1763694525734968300,0.82696826171875,9.706243167877197,4.423287567138671,0.8201637062072753
1763694525744928300,0.83692822265625,9.527725506591796,4.282777857208251,1.3623007446289062
1763694525754888200,0.84688818359375,9.239224206542968,4.312555740356445,1.8460791175842284
1763694525764848400,0.856848388671875,8.770259956359864,4.527435339355469,1.956810944366455
1763694525774808300,0.866808349609375,8.514828566741944,4.7758337615966795,1.84503165435791
1763694525784768300,0.876768310546875,8.473977500915527,4.813093524932861,1.6502034942626953
1763694525794728400,0.886728515625,7.907898445892333,4.164414512634277,1.9518729034423827
1763694525804688400,0.8966884765625,7.274632106781006,4.1280525749206545,1.759438945007324
1763694525814648300,0.9066484375,7.209240473937988,4.305672410583496,1.5013140785217285
1763694525824608300,0.916608154296875,7.212981414031982,4.649689261627197,1.215655892944336
1763694525834568400,0.926568359375,7.581538832092285,5.0854339637756345,0.8722375923156738
1763694525844528400,0.9365283203125,8.159738533020018,5.455487757873535,0.6866869636535644
1763694525854488300,0.94648828125,8.790161757659911,5.580435157012939,0.4798877952575683
1763694525864447200,0.956447265625,9.414300202941893,5.521477941131591,0.23822306518554687
1763694525874407400,0.966407470703125,9.726444244384766,5.090372004699707,0.32935236587524414
1763694525884367400,0.976367431640625,9.805602536773682,4.471021962738037,0.6513724891662598
1763694525894327300,0.986327392578125,9.997138669586182,4.012981257629394,1.083376251220703
1763694525904287200,0.996287353515625,10.338611681365967,3.797802383422851,1.5652093353271483
1763694525914247400,1.006247314453125,10.463110167694092,3.695899175262451,1.6192285102844237
1763694525924207400,1.016207275390625,9.926210445404053,3.6851252677917476,1.642721614074707
1763694525934167300,1.026167236328125,9.230395587921143,3.6736031723022458,1.622221262359619
1763694525944127500,1.03612744140625,8.722375923156738,3.7319618377685546,1.4872481437683105
1763694525954087700,1.046087646484375,8.240243563842773,3.848379893493652,1.4456488899230957
1763694525964047600,1.056047607421875,7.995586081695556,4.056226525115966,1.3774141426086426
1763694525974007600,1.066007568359375,7.927949884796142,4.305822048187256,1.077690022277832
1763694525983967500,1.075967529296875,7.874828535461425,4.570381331634521,0.7246949150085449
1763694525993927700,1.085927734375,7.7121724601745605,4.876839144134522,0.44277766952514647
1763694526003887600,1.0958876953125,7.492504457855224,4.789450783538818,0.05521627578735351
1763694526013847600,1.10584765625,7.6170029441833496,4.323778560638427,0.07870937957763671
1763694526023807700,1.115807861328125,7.819911534881592,3.8040871627807613,0.18944120635986328
1763694526033766700,1.1257666015625,7.950994075775146,2.6261399459838866,0.1514332550048828
1763694526043726600,1.1357265625,8.222137413787841,2.8986300224304196,0.13332710494995118
1763694526053686500,1.1456865234375,8.256254787445068,3.1762077774047848,0.48632221221923827
1763694526063646500,1.155646484375,7.913883950042724,1.82587804107666,0.9014169250488281
1763694526073606700,1.165606689453125,8.243535591125488,1.890970398712158,1.5083470458984374
1763694526083566600,1.175566650390625,8.743774100494385,2.7352257591247557,1.5068506698608397
1763694526093526500,1.185526611328125,8.799140013885497,3.2426468734741207,1.6198270606994627
1763694526103486700,1.19548681640625,9.223661895751952,3.7283705352783203,1.4903905334472656
1763694526113446700,1.20544677734375,9.562291793060302,3.952527665710449,1.0313023651123046
1763694526123406600,1.215406494140625,9.48702407836914,3.928735286712646,0.5659294174194336
1763694526133366500,1.225366455078125,9.05367357788086,4.010587055969238,0.15158289260864258
1763694526143326700,1.23532666015625,8.53009160232544,4.355950645446777,-0.1571194839477539
1763694526153286700,1.24528662109375,7.800159371185302,4.860528645324707,-0.7656956184387207
1763694526163246600,1.25524658203125,7.00977354812622,4.719869297790527,-1.6549918975830078
1763694526173206500,1.26520654296875,6.358550696563721,3.6619314392089843,-1.9589058708190916
1763694526183166700,1.275166748046875,7.064391273498535,2.6625018836975096,-2.1033061584472654
1763694526193126700,1.285126708984375,9.611372927093505,2.4838345848083496,-2.4302643226623535
1763694526203085600,1.29508544921875,10.236409197998046,2.321477784729004,-3.0373440811157226
1763694526213045500,1.30504541015625,9.138967012023926,2.4769512550354,-3.7478234237670898
1763694526223005700,1.315005615234375,8.289923248291014,2.658461668395996,-3.9920319931030273
1763694526232965600,1.324965576171875,8.905382712554932,3.028515462493896,-4.26422279434204
1763694526242925600,1.334925537109375,9.419836794281006,3.197905229949951,-4.251054685211181
1763694526252885500,1.344885498046875,9.12325506362915,2.9611785408020017,-4.053682685852051
1763694526262845700,1.354845703125,9.48178676223755,2.5008932716369627,-3.6510078941345214
1763694526272805600,1.3648056640625,10.033051694488524,2.1254525238037107,-3.0927099945068357
1763694526282765600,1.374765625,10.46325980529785,1.7986439971923827,-2.3301567657470703
1763694526292725500,1.3847255859375,10.694898815917968,1.6689081947326658,-1.6716016716003417
1763694526302685700,1.394685791015625,10.385747526550292,1.8206407249450682,-1.6793828269958495
1763694526312645600,1.404645751953125,10.190021540832518,2.1101894882202146,-2.107944924163818
1763694526322605600,1.41460546875,10.33591820449829,2.3777415237426758,-2.377142973327637
1763694526332565500,1.4245654296875,9.694272159576416,2.562543964385986,-2.66878666305542
1763694526342525700,1.434525634765625,9.305513665008544,2.4568998161315916,-2.6699837638854977
1763694526352485600,1.444485595703125,9.371054935455321,2.634220376586914,-2.5842414169311523
1763694526362445600,1.454445556640625,9.739612353515625,2.6280852348327635,-2.268954985809326
1763694526372404500,1.464404541015625,10.058938999938965,1.8994997421264648,-1.8694225837707519
1763694526382364700,1.47436474609375,9.76130980606079,1.987337015533447,-2.4206875160217285
1763694526392324600,1.48432470703125,9.211690887451171,2.399139701080322,-2.9544448486328125
1763694526402284500,1.494284423828125,9.028684098052977,2.372354570007324,-3.133561060333252
1763694526412244500,1.504244384765625,8.6183777885437,2.0293851821899414,-3.2775124351501463
1763694526422204700,1.51420458984375,8.242937040710448,1.7839795120239257,-3.570652500915527
1763694526432164600,1.52416455078125,8.237250811767577,2.061257991790771,-3.9597102706909175
1763694526442124500,1.53412451171875,8.52964268951416,1.9675848518371581,-3.847332430267334
1763694526452084700,1.544084716796875,9.20585502090454,1.4519336692810059,-3.533692012786865
1763694526462044700,1.554044677734375,9.599252281188964,1.2369044326782226,-3.1530139488220215
1763694526472004600,1.564004638671875,10.471040960693358,1.6491560310363769,-1.8228852890014646
1763694526481964500,1.573964599609375,11.0700402885437,1.6928502113342283,-1.2886790435791016
1763694526491924700,1.5839248046875,10.896011755371093,1.6246154640197752,-1.8204910873413085
1763694526501884700,1.593884765625,9.756970315551758,2.1652561264038086,-2.5617957763671875
1763694526511844600,1.6038447265625,8.514678929138183,2.0886416732788087,-2.4533085136413573
1763694526521804500,1.613804443359375,7.981220871734618,1.6181810470581053,-2.180219886779785
1763694526531764700,1.6237646484375,7.681197476196289,2.0121768577575683,-2.3493103790283203
1763694526541723600,1.6337236328125,7.660397849273681,3.207332398986816,-2.9505542709350583
1763694526551683600,1.64368359375,8.801833490753173,2.542193250274658,-2.043600754547119
1763694526561643500,1.6536435546875,9.836128607940672,1.8435352783203125,-1.1849801841735839
1763694526571603700,1.663603759765625,10.383652600097655,2.284367658996582,-0.8505401397705078
1763694526581563600,1.673563720703125,10.892121177673339,2.357839722442627,-0.2533364631652832
1763694526591523600,1.683523681640625,9.954342314910889,2.6843489738464354,-0.6970119583129882
1763694526601483500,1.6934833984375,10.52715506210327,2.094627177429199,-0.7652467056274413
1763694526611443700,1.703443603515625,9.973944841003417,2.842964833831787,-1.956810944366455
1763694526621403600,1.713403564453125,8.405892391204834,4.065204781341553,-2.5828946784973144
1763694526631363600,1.723363525390625,9.717914900970458,1.1801917808532714,0.3233668617248535
1763694526641323500,1.733323486328125,8.91899973449707,2.3172879318237305,-1.138293251800537
1763694526651283700,1.74328369140625,8.970774345397949,3.3188124137878416,-1.7392378684997558
1763694526661243600,1.75324365234375,9.762806182098387,2.5878327194213866,-1.4302362167358398
1763694526671203600,1.76320361328125,9.892841259765625,2.4371476524353026,-1.5119383483886717
1763694526681163500,1.77316357421875,9.706243167877197,2.78355870513916,-2.8612206214904785
1763694526691123700,1.783123779296875,9.4618849609375,0.7644985176086425,-0.8035539321899413
1763694526701083600,1.793083740234375,9.636661682128906,-0.4339490509033203,-0.006733692169189453
1763694526711042600,1.80304248046875,9.127444916534424,3.259855197906494,-2.0958242782592773
1763694526721002500,1.81300244140625,8.980051876831054,5.446509501647949,-3.7249288703918455
1763694526730962700,1.822962646484375,10.193612843322754,3.3125276344299315,-1.6341922706604004
1763694526740922600,1.832922607421875,9.758466691589355,1.5363292778015136,-0.38367081604003905
1763694526750882600,1.842882568359375,9.210643424224854,2.223764429473877,-0.6009446166992187
1763694526760842500,1.852842529296875,9.298331060028076,2.555810272216797,-1.0525509048461914
1763694526770802700,1.862802734375,8.860790706634521,2.7697920455932614,-1.2446855880737304
1763694526780762600,1.8727626953125,8.501959732818603,2.5240871002197265,-0.7567173622131347
1763694526790722600,1.88272265625,8.579771286773681,2.381931376647949,-0.25842414169311523
1763694526800682500,1.8926826171875,7.868394118499755,3.303100465393066,-1.693748036956787
1763694526810642700,1.902642578125,8.383446750640868,2.3946505729675294,0.5933130989074706
1763694526820602600,1.9126025390625,8.769511768341063,1.4480430915832518,0.5588964500427246
1763694526830562600,1.9225625,9.917082551574707,2.707991715240478,-1.1605892547607422
1763694526840522800,1.932522705078125,10.159794744873047,2.9337948593139647,-1.0311527275085448
1763694526850482700,1.942482666015625,9.993098454284667,2.3834277526855465,-0.8087912483215332
1763694526860442600,1.952442626953125,9.916035088348387,1.5144821876525878,-0.6139630882263183
1763694526870401500,1.962401611328125,9.24984847640991,0.5520131202697753,-0.5463268913269043
1763694526880361500,1.972361572265625,8.889371488952635,2.2252608055114744,-1.0586860466003418
1763694526890321700,1.98232177734375,9.522039277648926,3.061435735321045,-1.2639888389587401
1763694526900281600,1.992281494140625,10.083778842163085,2.6301801612854003,-0.6507739387512207
1763694526910241500,2.002241455078125,9.99833577041626,1.5460557220458984,0.19303250885009765
1763694526920201700,2.01220166015625,9.447519750976562,1.5129858116149901,0.6540659660339355
1763694526930161700,2.02216162109375,9.562291793060302,1.9699790534973143,0.5702689079284667
1763694526940121600,2.03212158203125,9.686640641784667,1.666962905883789,0.5217863243103027
1763694526950081500,2.04208154296875,9.638008420562743,1.5017629913330077,0.35793314819335936
1763694526960041700,2.052041748046875,9.671227968597412,1.6283564041137695,0.06793547210693358
1763694526970001700,2.062001708984375,12.172270877838134,1.260247898864746,0.8476970252990722
1763694526979961600,2.071961669921875,15.644162560272216,1.3976152191162108,4.659864618682861
1763694526989921800,2.081921875,6.731597242736816,3.6885669326782224,-0.531812043762207
1763694526999881700,2.0918818359375,9.451559966278076,1.0084078117370605,2.7180174346923827
1763694527009841700,2.101841552734375,11.175235523986816,0.7703343841552734,2.8727427169799804
1763694527019801600,2.111801513671875,8.013392956542969,1.7943045066833494,-0.4192845657348633
1763694527029761800,2.12176171875,11.203068118286133,2.244863331604004,1.6774375381469726
1763694527039721700,2.1317216796875,10.793809272003173,2.320879234313965,3.0276176368713377
1763694527049680600,2.1416806640625,8.620323077392577,1.294664547729492,2.295740116882324
1763694527059640600,2.151640625,10.154407791137695,0.7092822418212891,3.47937356262207
1763694527069600800,2.161600830078125,7.534702262115478,1.3316250358581543,1.5580267303466795
1763694527079560700,2.171560791015625,5.47119970626831,0.7646481552124023,0.7146691955566405
1763694527089520600,2.181520751953125,6.879588832855224,0.45489831542968745,2.6210522674560544
1763694527099480600,2.19148046875,7.415590729522704,1.392377902984619,3.2740707702636715
1763694527109440800,2.201440673828125,6.833201175689696,1.163881282043457,3.177853791046142
1763694527119400700,2.211400634765625,16.08409711532593,0.5066729263305664,3.97123236618042
1763694527129360600,2.221360595703125,7.015759052276611,0.05027823486328125,4.721515311431885
1763694527139320600,2.231320556640625,11.304372776031494,1.0705074172973632,3.84972663192749
1763694527149280800,2.24128076171875,11.844115612792969,1.2256816123962402,2.2061071922302244
1763694527159240700,2.25124072265625,9.458742571258544,0.502483073425293,1.9093758239746093
1763694527169200600,2.26120068359375,10.506355435180664,0.15771803436279297,1.3407529296874998
1763694527179160600,2.27116064453125,10.41268229522705,0.3298012786865234,1.0850222648620604
1763694527189120800,2.281120849609375,10.421211638641356,0.5312134933471679,1.0880150169372558
1763694527199080700,2.291080810546875,9.67900912399292,0.7263409286499023,0.9897031112670898
1763694527209040600,2.30104052734375,8.743624462890624,1.0257657737731933,1.1245265922546386
1763694527218999600,2.31099951171875,8.173205917358398,1.416619194793701,1.3769652297973631
1763694527228959700,2.320959716796875,7.48262837600708,1.3069348312377929,1.3172598258972168
1763694527238919700,2.330919677734375,7.032518463897705,1.159392153930664,1.7344494651794433
1763694527248879600,2.340879638671875,7.057059030914306,1.1049240661621094,2.205807917022705
1763694527258839600,2.350839599609375,8.0184806350708,1.1921627891540527,2.0067899040222166
1763694527268799700,2.3607998046875,8.621071265411377,1.3307272102355956,1.4903905334472656
1763694527278759700,2.370759765625,9.688436293029785,1.6282067665100097,0.8927379440307617
1763694527288719600,2.3807197265625,10.646715507507324,1.4155717315673828,0.46731823654174803
1763694527298679600,2.390679443359375,11.01257944869995,0.9629179801940917,0.005536591339111328
1763694527308639700,2.4006396484375,10.62322240371704,0.3275567146301269,-0.3678092300415039
1763694527318599700,2.410599609375,10.368539202117919,-0.23702596435546874,-0.03965396499633789
1763694527328559600,2.4205595703125,10.510096375274658,-0.7179612228393554,0.22954408416748046
1763694527338519800,2.430519775390625,10.462511617279052,-1.0836755264282225,0.26336218261718747
1763694527348479700,2.440479736328125,10.635043774414061,-1.1724106254577635,0.21682488784790038
1763694527358439700,2.450439697265625,10.845583882904052,-1.014542953491211,0.34237083740234375
1763694527368399600,2.460399658203125,10.876109954071044,-0.8001122673034667,0.062249243164062495
1763694527378358500,2.470358642578125,10.706121636199951,-0.6488286499023437,-0.3628711891174316
1763694527388318700,2.480318603515625,10.554239468383788,-0.7508814956665039,-0.8672995513916015
1763694527398278700,2.490278564453125,11.078120719146728,-0.7498340324401855,-1.7175404159545897
1763694527408238600,2.500238525390625,11.4278237991333,-0.08125321884155273,-3.4659061782836913
1763694527418198500,2.510198486328125,11.426477060699462,0.7773673515319823,-4.994005387878418
1763694527428158700,2.52015869140625,9.632771104431152,1.7663222747802734,-6.330718102264404
1763694527438118700,2.53011865234375,8.524854286193847,1.9831471626281738,-6.736684921264648
1763694527448078600,2.54007861328125,8.9761612991333,1.5553332534790039,-6.262782630157471
1763694527458038800,2.550038818359375,9.756371765136718,1.2657844902038573,-5.868188269042968
1763694527467998700,2.559998779296875,9.797971018981933,1.0260650489807128,-5.045480723571777
1763694527477958700,2.569958740234375,9.707140993499756,0.2545335639953613,-4.468029210662841
1763694527487918600,2.579918701171875,9.442731347656249,0.08828618621826172,-4.096329402923584
1763694527497878800,2.589878662109375,9.381080654907226,0.20006547622680662,-3.590404664611816
1763694527507838700,2.599838623046875,9.312396994781494,0.13332710494995118,-3.521122454071045
1763694527517798700,2.609798583984375,9.134477883911133,0.1548749198913574,-3.545962296295166
1763694527527758600,2.619758544921875,8.658031753540039,0.21562778701782226,-3.5687072120666503
1763694527537718800,2.62971875,8.308927223968505,0.1001075569152832,-3.8639422042846676
1763694527547677700,2.639677734375,8.042123376464843,-0.006883329772949218,-4.467729935455322
1763694527557637600,2.6496376953125,7.632714892578124,-0.11148001480102539,-5.417330168914795
1763694527567597600,2.65959765625,6.9539587219238275,0.3184288208007812,-6.720075147247314
1763694527577557800,2.669557861328125,9.823858324432372,0.74055650100708,-4.277839816284179
1763694527587517700,2.679517578125,8.334664891815185,1.3911808021545409,-3.549104685974121
1763694527597477600,2.6894775390625,7.78205322113037,1.6102502540588377,-4.797980126953124
1763694527607437600,2.6994375,7.290493692779541,1.2122142280578612,-5.120898075866699
1763694527617397800,2.709397705078125,6.7836711288452145,0.5493196434020996,-5.1690813842773435
1763694527627357700,2.719357666015625,6.961590239715576,0.16385317611694336,-5.283554151153564
1763694527637317600,2.729317626953125,8.212111694335936,-0.13198036651611328,-5.746682534790039
1763694527647277600,2.739277587890625,7.644236988067626,-0.25752631607055665,-5.898115789794922
1763694527657237800,2.74923779296875,8.174403018188476,0.18779519271850584,-5.600187320709228
1763694527667197700,2.75919775390625,8.591891932678221,0.5163993705749511,-5.488258393096923
1763694527677157600,2.76915771484375,7.331494396209717,-0.2632125450134277,-5.409100100708008
1763694527687117800,2.779117919921875,7.29109224319458,-0.5617395645141601,-5.162946242523193
1763694527697077800,2.789077880859375,7.23946726989746,-0.30256723480224607,-5.43977580947876
1763694527707037700,2.79903759765625,6.863577609252929,-0.25947160491943355,-5.706579656982422
1763694527716997600,2.80899755859375,6.975207261657714,-0.4408323806762695,-5.814767644500732
1763694527726956500,2.81895654296875,7.127538342285156,-0.5538087715148925,-5.883002391815185
1763694527736916700,2.828916748046875,6.763470052337646,-0.5137058937072754,-6.724713912963867
1763694527746876700,2.838876708984375,6.318447818756103,-0.47884033203125,-7.333888597869873
1763694527756836600,2.848836669921875,6.259789878082275,-0.7230489013671875,-7.452700855255126
1763694527766796500,2.858796630859375,6.281337693023681,-1.2662334030151365,-7.396137841033935
1763694527776756700,2.8687568359375,5.619041658782959,-1.9749170944213865,-7.6367551078796385
1763694527786716700,2.878716552734375,5.476287384796143,-2.3196821334838864,-7.940669081115722
1763694527796676600,2.888676513671875,6.240037714385986,-2.4343045379638673,-7.370998723602295
1763694527806636800,2.89863671875,6.35840105895996,-1.986289552307129,-6.627000557708739
1763694527816596700,2.9085966796875,6.273556537628173,-1.5454571716308594,-6.68386284713745
1763694527826556700,2.918556640625,6.068253745269775,-1.3236942428588867,-6.594379560089111
1763694527836516600,2.9285166015625,5.798457145690918,-1.2005424949645995,-6.568492254638672
1763694527846476800,2.938476806640625,5.703736542510986,-1.2900257820129393,-6.447136157989502
1763694527856436700,2.948436767578125,5.515642074584961,-1.3831003715515136,-6.093243225097656
1763694527866396700,2.958396728515625,4.976946701049805,-1.402702897644043,-5.475389559173584
1763694527876356600,2.968356689453125,4.2706572113037105,-1.3280337333679197,-4.921431150054931
1763694527886316800,2.97831689453125,3.7475241485595703,-1.1385925270080566,-4.508730638885498
1763694527896275700,2.988275634765625,3.0832828254699707,-0.6877344268798827,-4.317643418884277
1763694527906235600,2.998235595703125,2.540098323822021,-0.29403789138793945,-4.368220928955078
1763694527916195600,3.008195556640625,2.371756019592285,-0.09726444244384765,-4.654776940155029
1763694527926155800,3.01815576171875,2.4536077888488768,0.10295067138671875,-5.2171150550842285
1763694527936115700,3.02811572265625,2.5439889015197754,0.296881005859375,-5.652859757232665
1763694527946075100,3.0380751953125,2.334795531463623,0.2950853546142578,-5.905896945190429
1763694527956035300,3.048035400390625,2.11318224029541,0.11073182678222655,-6.027701954650879
1763694527965995300,3.057995361328125,2.1077952865600587,-0.3006219459533691,-6.169408765411377
1763694527975955200,3.067955078125,2.274042664337158,-0.6663362495422362,-6.46060354232788
1763694527985915100,3.0779150390625,2.250998473358154,-0.9389759635925292,-6.666953797912598
1763694527995875300,3.087875244140625,2.5200468849182127,-1.456273159790039,-6.997952177429199
1763694528005835300,3.097835205078125,2.7531822715759278,-1.9490297889709471,-7.519289588928222
1763694528015795200,3.107795166015625,2.784905443572998,-2.120364845275879,-8.056039673614501
1763694528025755400,3.11775537109375,2.8431144714355465,-2.103006883239746,-8.680477394104003
1763694528035715300,3.12771533203125,3.1953613906860348,-2.061557266998291,-9.434800554656983
1763694528045675300,3.13767529296875,3.5268086830139156,-2.3611317497253417,-9.890746333312988
1763694528055634200,3.14763427734375,3.705326344299316,-3.1434371421813965,-10.052055670166014
1763694528065594000,3.157593994140625,4.060266740417481,-4.177881896972656,-10.245986004638672
1763694528075554300,3.16755419921875,4.433462924194336,-5.248090039062499,-10.340556970214843
1763694528085514200,3.17751416015625,4.509778102111816,-5.936722291564941,-10.468646759033202
1763694528095474200,3.18747412109375,4.233995998382568,-6.035333472442627,-10.669909336090088
1763694528105434000,3.19743408203125,3.8084266532897946,-5.627421364593506,-10.848875910186766
1763694528115394300,3.207394287109375,3.5366847648620605,-5.099350260925292,-11.219378617095947
1763694528125354200,3.217354248046875,3.6400843490600585,-4.76281529006958,-11.67622222137451
1763694528135314200,3.227314208984375,3.84987626953125,-4.69248561630249,-11.917886951446533
1763694528145274400,3.2372744140625,4.105756571960449,-4.761318914031982,-11.820472871398925
1763694528155234300,3.247234375,4.312256465148925,-4.932803607940674,-11.551274822235106
1763694528165194200,3.2571943359375,4.399495188140869,-5.124639015960693,-11.237035854339599
1763694528175154200,3.267154296875,4.209156156158447,-5.351489623260497,-10.901697984313964
1763694528185114400,3.2771142578125,3.8685809700012204,-5.494692810058593,-10.585962640380858
1763694528195074300,3.28707421875,3.6839281669616697,-5.566369222259521,-10.33651675491333
1763694528205034200,3.2970341796875,3.7761049308776853,-5.414487054443359,-10.225934565734862
1763694528214994200,3.306994140625,3.9709330909729004,-5.144989730072021,-10.058938999938965
1763694528224953000,3.316953125,4.121618157958984,-5.110722718811035,-9.918878202819824
1763694528234913300,3.326913330078125,4.348768040466308,-5.284751251983642,-9.854384395599364
1763694528244873200,3.336873291015625,4.421043003082275,-5.6051253616333,-9.827599264526366
1763694528254833200,3.346833251953125,4.337245944976806,-5.954529166412353,-9.892093071746826
1763694528264793300,3.35679345703125,4.0075943038940425,-6.215946060180664,-9.98456911087036
1763694528274753300,3.366753173828125,3.7747581924438474,-6.412270596313476,-10.077344425201415
1763694528284713200,3.376713134765625,3.687519469451904,-6.632387511444091,-10.287285983276366
1763694528294673200,3.386673095703125,3.665822016906738,-7.051971352386474,-10.473435162353516
1763694528304633300,3.39663330078125,3.724629595184326,-7.581987744903564,-10.634594861602782
1763694528314593300,3.40659326171875,3.750067987823486,-7.861810063934326,-10.87955161895752
1763694528324553200,3.41655322265625,3.6351463081359863,-7.920019091796875,-11.194538774871825
1763694528334513200,3.42651318359375,3.3080385063171387,-7.917175977325439,-11.47331363067627
1763694528344473300,3.436473388671875,2.8568811309814452,-7.952789727020263,-11.611129863739013
1763694528354433300,3.446433349609375,2.452859600830078,-8.166322587585448,-11.64479832458496
1763694528364393200,3.456393310546875,1.911470750427246,-8.436268824768065,-11.52329259033203
1763694528374353200,3.466353271484375,1.5286977600097655,-8.678382467651367,-11.311405743408203
1763694528384313300,3.476313232421875,1.034893667602539,-8.43297679748535,-11.68983924331665
1763694528394272300,3.486272216796875,0.058657940673828124,-7.8724343338012694,-12.208932090759276
1763694528404232200,3.496232177734375,0.03651157531738281,-8.545953188323974,-10.869825174713133
1763694528414192000,3.506192138671875,0.232387198638916,-9.400683180999755,-8.722076647949219
1763694528424152300,3.51615234375,-0.6619967590332031,-8.85555339050293,-8.505850310516356
1763694528434112300,3.5261123046875,0.04563946914672851,-7.607126862335204,-9.2956375831604
1763694528444072200,3.536072265625,1.8121113815307617,-7.022492744445801,-8.868871137237548
1763694528454032100,3.5460322265625,3.2415994102478027,-6.165817462921142,-8.871115701293945
1763694528463992300,3.555992431640625,2.6226982810974118,-5.480028324890136,-8.573037594604491
1763694528473952300,3.5659521484375,1.2738649208068846,-4.675576567077637,-7.8992194648742675
1763694528483912200,3.575912109375,-0.32306758651733397,-4.122216708374023,-7.857919486236572
1763694528493872400,3.585872314453125,-0.6168062026977539,-4.41131655883789,-7.6939166725158685
1763694528503832300,3.595832275390625,-0.31708208236694335,-4.585494729614258,-7.156119124603271
1763694528513792300,3.605792236328125,-1.333121411895752,-4.370465493011475,-6.8296098731994626
1763694528523752200,3.615752197265625,-2.225560080718994,-3.9778164207458495,-7.2072951850891105
1763694528533712400,3.62571240234375,-2.5752631607055663,-3.0846295639038086,-8.226626541900634
1763694528543672300,3.63567236328125,-2.3409306732177733,-2.468721186828613,-8.149563175964355
1763694528553631200,3.64563134765625,-1.9247884971618652,-2.371157469177246,-6.983287692260742
1763694528563591200,3.655591064453125,-2.6197055290222164,-2.1697452545166014,-6.348225701904297
1763694528573551000,3.665551025390625,-3.460818499755859,-1.8960580772399902,-6.886172887420654
1763694528583511300,3.67551123046875,-2.927809355163574,-1.9737199935913086,-6.7550903465270995
1763694528593471200,3.68547119140625,-3.533542375183105,-1.5976806953430174,-6.285078633117675
1763694528603431200,3.69543115234375,-3.47922392501831,-1.5842133110046386,-5.691316621398926
1763694528613391400,3.705391357421875,-3.195810303497314,-1.933916390991211,-4.624250868988037
1763694528623351300,3.715351318359375,-2.0904373245239256,-2.6048914062499997,-3.7503672630310056
1763694528633311200,3.725311279296875,-1.3358148887634276,-3.416825044250488,-3.35816710357666
1763694528643271200,3.735271240234375,-1.2147580673217773,-4.146158724975586,-3.5907039398193357
1763694528653231400,3.7452314453125,-1.3108254089355469,-4.314052116394043,-4.135085542297363
1763694528663191300,3.75519140625,-1.7483657623291016,-4.014477633666992,-5.462969638061523
1763694528673151200,3.765151123046875,-2.1918916198730467,-5.641188024139404,-5.902904193115234
1763694528683111200,3.775111083984375,-2.2571336151123047,-7.331644033813476,-6.068403382873535
1763694528693071400,3.7850712890625,-1.6916531105041503,-7.034164477539062,-6.739827310943603
1763694528703031300,3.79503125,-0.7140706451416016,-5.813121630859374,-7.773523877716064
1763694528712991200,3.8049912109375,-0.6208464179992675,-5.219209981536865,-8.346336624908448
1763694528722950100,3.8149501953125,-0.7888894470214843,-4.619312828063965,-8.930821105194092
1763694528732910300,3.824910400390625,-1.3600561805725098,-4.2874166229248045,-9.139565562438964
1763694528742870300,3.834870361328125,-2.300977433013916,-4.019415674591064,-8.679429930877685
1763694528752830200,3.844830322265625,-2.1576246086120605,-3.8563106864929195,-8.736292220306396
1763694528762790100,3.8547900390625,-3.149422646331787,-4.056076887512207,-8.402001813507079
1763694528772750300,3.864750244140625,-2.581099027252197,-3.565714459991455,-8.538172032928466
1763694528782710300,3.874710205078125,-1.8408418014526367,-2.8069021713256834,-8.826673332977295
1763694528792670200,3.884670166015625,-2.6056395942687987,-2.2821230949401854,-9.050381550598145
1763694528802630100,3.894630126953125,-3.5755905418395995,-1.8275240547180174,-9.849895267486572
1763694528812590300,3.90459033203125,-4.082562743377685,-1.5924433792114256,-10.779743337249755
1763694528822550300,3.91455029296875,-3.1118636077880857,-1.0268132369995118,-11.622352684020996
1763694528832510200,3.92451025390625,-1.6084546028137205,-0.2109890213012695,-11.774384489440918
1763694528842470100,3.93447021484375,-0.9214683639526366,0.08903437423706054,-10.792761808776854
1763694528852430300,3.944430419921875,-1.0561422073364257,-0.4348468765258789,-8.686013985443115
1763694528862390300,3.954390380859375,-0.9153332221984862,-0.5189432098388671,-6.730849054718017
1763694528872350200,3.96435009765625,-0.3573345977783203,-0.2319382858276367,-4.963928229522705
1763694528882310400,3.974310302734375,0.0713771369934082,-0.3163338943481445,-4.626944345855713
1763694528892269300,3.984269287109375,1.3871405868530273,-0.9156324974060058,-5.731569136810302
1763694528902229200,3.994229248046875,0.4221276802062988,-2.2418705795288085,-7.669675380706787
1763694528912189200,4.004189208984375,-1.0184335311889647,-4.465335733795166,-9.080159433746337
1763694528922149000,4.014149169921875,-1.5753846923828123,-6.899340996551513,-11.787702236175537
1763694528932109300,4.024109375,-3.328838133239746,-7.6282257644653315,-14.05845287322998
1763694528942069200,4.0340693359375,-3.580678220367431,-7.719504702758789,-12.579285160064696
1763694528952029400,4.044029541015625,-2.776376100158691,-7.765144171905517,-10.492439138031004
1763694528961989400,4.0539892578125,-1.5936404800415038,-6.786963156127929,-8.257002975463866
1763694528971949300,4.06394921875,-0.9979331794738769,-6.168211664581299,-4.7658080421447755
1763694528981909500,4.073909423828125,-0.14499883804321287,-6.382492713165282,-1.450586930847168
1763694528991869400,4.083869384765625,-0.4433762199401855,-5.992836392974853,-0.09861118087768554
1763694529001829400,4.093829345703125,-5.539883366394043,-7.6014406333923334,-6.4275336318969725
1763694529011789600,4.10378955078125,-4.8515503890991205,-6.331017377471923,-6.79908380203247
1763694529021749500,4.11374951171875,-0.6181529411315918,-7.508515681457519,-8.167669326019286
1763694529031709400,4.12370947265625,0.7320271575927734,-9.144353965759278,-12.083236503601073
1763694529041669400,4.13366943359375,-1.565358972930908,-8.966584492492675,-13.597120140838623
1763694529051628300,4.143628173828125,-5.042787246704101,-7.530811684417724,-11.98881517562866
1763694529061588500,4.15358837890625,-5.143942266845703,-5.740697030639648,-9.715371061706543
1763694529071548400,4.16354833984375,-3.0151977157592773,-5.232078815460205,-6.6337342498779295
1763694529081508400,4.17350830078125,0.19632453613281248,-3.7743092796325683,-5.957821193695068
1763694529091468300,4.18346826171875,1.648407843017578,-1.7164929527282713,-7.22061293182373
1763694529101428500,4.193428466796875,1.4079402137756347,-0.11462240447998046,-8.629600608825683
1763694529111388400,4.203388427734375,0.6504746635437011,0.1322796417236328,-8.933813857269287
1763694529121348400,4.213348388671875,-0.39444472351074217,-0.9783306533813476,-7.434744342803954
1763694529131308500,4.22330859375,-1.0944494338989257,-2.309357138824463,-8.259397177124024
1763694529141268500,4.2332685546875,-0.49814358291625976,-3.384054409027099,-8.80377877960205
1763694529151228400,4.243228515625,1.2075754623413084,-3.2332197044372557,-8.780884226226807
1763694529161188400,4.253188232421875,0.9831190567016601,-2.15777424621582,-7.146542317962646
1763694529171148500,4.2631484375,0.5014356101989745,-2.0587141525268553,-6.425887618255615
1763694529181108500,4.2731083984375,1.077540384674072,-0.6383540176391601,-5.904699844360351
1763694529191068400,4.283068359375,0.44412440795898434,0.03950432739257812,-7.065438736724853
1763694529201028400,4.2930283203125,-1.624914739227295,0.011821370697021483,-7.5445783439636225
1763694529210988500,4.302988525390625,-2.7416601760864254,-4.9363949104309075,-6.832303350067138
1763694529220947500,4.312947509765625,-1.9921254188537596,-10.193463205718993,-5.908141509246826
1763694529230907400,4.322907470703125,-2.0856489212036133,-13.806313510894775,-4.93534744720459
1763694529240867300,4.332867431640625,-2.699163096618652,-16.669180146026612,-3.7235821319580076
1763694529250827500,4.34282763671875,-3.541473168182373,-18.399140483093262,-3.21780703125
1763694529260787500,4.352787353515625,-4.404133953857421,-18.644695790863036,-1.793406681060791
1763694529270747400,4.362747314453125,-4.797531214141846,-18.146402570343017,-2.4293664970397946
1763694529280707300,4.372707275390625,-2.6307787117004393,-18.276587285614013,-4.682908809661865
1763694529290667500,4.38266748046875,-0.6305728622436523,-17.350929068756102,-5.071068753814697
1763694529300627500,4.39262744140625,-0.11462240447998046,-13.59921506729126,-5.216965417480468
1763694529310587400,4.40258740234375,-0.3295020034790039,-10.439018513488769,-6.08411533126831
1763694529320547300,4.41254736328125,-0.6001964286804199,-8.558672384643554,-6.490531063079834
1763694529330507500,4.422507568359375,-0.016909049224853513,-7.287500940704345,-5.808183589935302
1763694529340467500,4.432467529296875,0.028880057525634766,-6.460753179931641,-5.0288709495544435
1763694529350427400,4.442427490234375,-0.03920505218505859,-6.281337693023681,-5.144840092468262
1763694529360387600,4.4523876953125,0.043544542694091797,-6.6011132522583,-5.896020863342285
1763694529370347500,4.462347412109375,-0.4951508308410644,-7.164349192810058,-6.874800429534912
1763694529380306400,4.472306396484375,-1.4294880287170408,-7.774720978546142,-6.213252583312988
1763694529390266400,4.482266357421875,-2.0361188743591305,-6.998700365447998,-6.075436350250244
1763694529400226300,4.492226318359375,-1.5957354064941405,-6.604255641937256,-6.1267620483398435
1763694529410186500,4.5021865234375,-1.28957686920166,-6.937947498321533,-5.522226129150391
1763694529420146400,4.512146484375,-1.229572190093994,-7.744643820190429,-4.49436542892456
1763694529430106400,4.5221064453125,-1.1852794593811034,-8.386589140319824,-3.4338837310791015
1763694529440066300,4.53206640625,-1.2029366966247559,-9.156923524475097,-2.8482021499633787
1763694529450026500,4.542026611328125,-1.0344447547912596,-9.678260935974121,-3.008912936401367
1763694529459986400,4.551986328125,-1.0283096130371092,-9.899275676727294,-3.3710359375
1763694529469946400,4.5619462890625,-1.243039574432373,-9.878176774597167,-3.604620236968994
1763694529479906600,4.571906494140625,-1.2126631408691406,-9.66673884048462,-3.8832454551696776
1763694529489866500,4.581866455078125,-1.1891700370788574,-9.214683639526367,-4.1177275802612305
1763694529499826400,4.591826416015625,-1.107767180633545,-8.189516416168212,-4.313303928375244
1763694529509786400,4.601786376953125,-0.6468833610534668,-6.940940250396728,-4.4656350090026855
1763694529519746600,4.61174658203125,-1.2639888389587401,-6.6711436508178705,-3.937713542938232
1763694529529706500,4.62170654296875,-1.7470190238952636,-7.477989610290527,-3.7862802879333493
1763694529539665400,4.63166552734375,-0.4418798439025879,-7.787140899658203,-3.91362188873291
1763694529549625300,4.641625244140625,0.5731120223999023,-7.532906610870361,-4.010587055969238
1763694529559585500,4.65158544921875,-0.3630208267211914,-7.295132458496093,-3.7141549629211426
1763694529569545500,4.66154541015625,-1.0402806213378906,-7.151629996490478,-3.418919970703125
1763694529579505400,4.67150537109375,-0.6720224784851074,-7.115567333984375,-3.0142998901367184
1763694529589465300,4.68146533203125,-0.49245735397338863,-7.057956856536864,-2.9336452217102047
1763694529599425500,4.691425537109375,-1.2204442962646485,-6.9810431282043455,-2.8507459892272946
1763694529609385500,4.701385498046875,-1.0154407791137694,-6.890213102722168,-2.9219734886169433
1763694529619345400,4.711345458984375,-0.6560112548828124,-6.310816300964355,-2.7027543991088865
1763694529629305300,4.721305419921875,-1.5670049865722655,-6.029198330688476,-2.247856083679199
1763694529639265500,4.731265625,-1.1252747802734375,-4.774187747955322,-1.8400936134338377
1763694529649225500,4.7412255859375,-0.14320318679809568,-4.045452617645264,-1.5123872611999511
1763694529659185400,4.751185302734375,-0.6316203254699707,-4.291157563018799,-0.9382277755737304
1763694529669145300,4.761145263671875,-0.3238157745361328,-4.810699323272705,-1.0200795448303221
1763694529679105500,4.77110546875,-0.5211877738952636,-5.392041413879395,-1.1119570335388183
1763694529689065500,4.7810654296875,-0.4112041351318359,-5.975328793334961,-0.9955389778137207
1763694529699024400,4.7910244140625,0.22565350646972654,-7.363367205810547,-0.6862380508422851
1763694529708984300,4.800984375,1.8950106140136718,-10.271574034881592,-4.114136277770996
1763694529718944500,4.810944580078125,1.9277812492370605,-13.848660952758788,-5.114463658905029
1763694529728904400,4.820904541015625,-1.0030208580017088,-13.776236352539062,-3.6454713027954098
1763694529738864400,4.830864501953125,-1.3121721473693846,-14.377031331634521,-3.8085762908935545
1763694529748824300,4.84082421875,2.0681413215637208,-19.818902067565915,-6.580463262939452
1763694529758784500,4.850784423828125,1.7616835090637206,-18.89114892425537,-6.182576874542236
1763694529768744400,4.860744384765625,-0.0818517692565918,-16.34985349960327,-4.482992971038818
1763694529778704400,4.870704345703125,-0.7751227874755859,-12.29033494720459,-2.867056488037109
1763694529788664300,4.880664306640625,-1.5055039314270018,-7.650521767425537,-1.0856208152770996
1763694529798624500,4.89062451171875,-0.17043723068237304,-7.301417237854004,0.12464812393188476
1763694529808584400,4.90058447265625,1.629254229736328,-9.425672660827637,1.2587515228271484
1763694529818544400,4.91054443359375,1.9985598358154295,-10.65584340133667,2.0979192047119137
1763694529828504600,4.920504638671875,1.5780781692504882,-10.748169802856445,1.986139914703369
1763694529838464500,4.930464599609375,1.137096150970459,-9.81338369216919,1.3723264640808104
1763694529848424400,4.940424560546875,0.9962871658325195,-9.824905787658691,1.042525185394287
1763694529858383400,4.95038330078125,0.9650129066467285,-11.309310816955566,0.8948328704833984
1763694529868343300,4.96034326171875,0.6262333717346191,-13.152247544860838,0.6153098266601562
1763694529878303500,4.970303466796875,0.48991351470947264,-13.172298983764648,0.06793547210693358
1763694529888263400,4.980263427734375,-0.3612251754760742,-12.712612265014648,-0.5280711036682129
1763694529898223400,4.990223388671875,-1.501014803314209,-13.002460303497314,-0.8032546569824218
1763694529908183300,5.000183349609375,-0.7254431030273437,-12.810175982666015,-2.0917840629577635
1763694529918143500,5.0101435546875,0.2558803024291992,-12.630760495758055,-3.067720514678955
1763694529928103400,5.020103515625,0.6576572685241698,-13.058873680114745,-3.2734722198486326
1763694529938063400,5.0300634765625,-0.0626981559753418,-9.996240843963623,-2.366817978668213
1763694529948023000,5.04002294921875,-0.8788216468811034,-8.865878385162352,-1.1017816764831543
1763694529957983200,5.049983154296875,-1.758241844177246,-7.285406014251708,0.9304466201782225
1763694529967943200,5.059943115234375,-1.6985364402770995,-2.956689412689209,3.448697853851318
1763694529977903000,5.069903076171875,-0.06599018325805664,-9.267954626464844,4.257189826965332
1763694529987863000,5.079863037109375,0.7636006919860839,-11.437101330566406,3.3701381118774414
1763694529997823200,5.0898232421875,0.4330512252807617,-11.45954697113037,2.450465399169922
1763694530007783200,5.099783203125,-0.34326866302490233,-11.461791535186768,1.4158710067749023
1763694530017742000,5.1097421875,-0.7586626510620117,-10.688763674163818,0.405368268585205
1763694530027702000,5.119701904296875,-0.23956980361938476,-9.41699367980957,-1.1149497856140136
1763694530037662200,5.129662109375,-0.4538508522033691,-9.276633607482909,-1.4980220512390137
1763694530047622100,5.1396220703125,-1.1909656883239745,-9.910947409820556,-0.8162731285095214
1763694530057582000,5.14958203125,-1.0663175643920897,-10.473435162353516,-0.20769699401855468
1763694530067542000,5.1595419921875,-0.6280290229797363,-10.9298298538208,0.3221697608947754
1763694530077502200,5.169502197265625,-0.4207809417724609,-11.341782176971435,1.031003089904785
1763694530087462100,5.179462158203125,-0.28356325912475583,-11.493514707183838,1.641374875640869
1763694530097422000,5.189422119140625,0.18390461502075195,-11.309161179351806,1.8587983139038085
1763694530107382000,5.199382080078125,0.6417956825256347,-10.961104113006591,1.8049287765502928
1763694530117342200,5.20934228515625,1.0223241088867188,-10.537928969573974,1.5234604438781738
1763694530127302100,5.21930224609375,1.3462895210266113,-10.171466477966309,1.1145008728027344
1763694530137262000,5.229261962890625,1.4532804077148436,-9.919177478027343,0.7986158912658691
1763694530147222300,5.23922216796875,1.46195938873291,-9.739013803100585,0.43933600463867184
1763694530157182200,5.24918212890625,1.4538789581298828,-9.574711714172363,0.08768763580322265
1763694530167142100,5.25914208984375,1.4012065216064453,-9.479242922973633,-0.09591770401000976
1763694530177101000,5.26910107421875,1.2611457244873046,-9.422081358337401,-0.12330138549804687
1763694530187061000,5.27906103515625,1.129314995574951,-9.411906001281737,-0.031124621582031248
1763694530197021200,5.289021240234375,1.0702081420898437,-9.459041846466064,0.12375029830932617
1763694530206981000,5.298981201171875,1.0824784255981446,-9.597456629943848,0.32830490264892576
1763694530216941000,5.308941162109375,1.1198878265380858,-9.807547825622558,0.6003460662841796
1763694530226901000,5.31890087890625,1.0712556053161622,-10.03050785522461,1.0006266563415527
1763694530236861200,5.328861083984375,1.103876602935791,-10.31092872467041,1.495777487182617
1763694530246821000,5.338821044921875,1.216254443359375,-10.523264484405518,1.9457377616882323
1763694530256781000,5.348781005859375,1.384147834777832,-10.633547398376464,2.201767701721191
1763694530266741200,5.3587412109375,1.3557166900634765,-10.631602109527588,2.3039701850891112
1763694530276701200,5.368701171875,1.196502279663086,-10.505457609558105,2.3364415451049805
1763694530286661000,5.3786611328125,1.04057989654541,-10.233266808319092,2.2631191192626954
1763694530296621000,5.38862109375,0.953790086364746,-9.985317298889159,2.1116858642578125
1763694530306581200,5.398581298828125,1.0613795234680174,-9.83837317199707,1.843834553527832
1763694530316541200,5.408541259765625,1.3000515014648437,-9.665990652465819,1.5729904907226562
1763694530326501000,5.418501220703125,1.6494553062438964,-9.529072245025635,1.3600561805725098
1763694530336460000,5.4284599609375,2.097769567108154,-9.47445451965332,1.2196961082458495
1763694530346420000,5.438419921875,2.3437737876892086,-9.361328491210937,1.0871171913146973
1763694530356380200,5.448380126953125,2.4155998374938963,-9.241319132995605,0.8812158485412597
1763694530366340000,5.458340087890625,2.387168692779541,-9.157222799682616,0.6672340751647949
1763694530376300000,5.468300048828125,2.384624853515625,-9.189544522094726,0.5502174690246582
1763694530386260200,5.47826025390625,2.446275546264648,-9.189993434906006,0.20694880599975585
1763694530396220200,5.48822021484375,2.4551041648864746,-9.239523481750489,-0.05192424850463867
1763694530406180000,5.49818017578125,2.3719056571960446,-9.319729237365722,-0.07511807708740234
1763694530416140000,5.50814013671875,2.195482922363281,-9.294590119934082,0.07885901718139648
1763694530426100200,5.518100341796875,2.2577321655273437,-9.279626359558105,0.24226328048706053
1763694530436060200,5.52806005859375,2.3083096755981445,-9.170989459228515,0.3603273498535156
1763694530446020000,5.53802001953125,2.148197439575195,-8.953865296173095,0.5294178421020508
1763694530455980000,5.54797998046875,1.9590555084228514,-8.761132062530518,0.7445967163085937
1763694530465940200,5.557940185546875,1.8487725944519042,-8.557026371002197,0.9593266777038574
1763694530475900200,5.567900146484375,1.8433856407165525,-8.406341304016113,1.1561001266479491
1763694530485859000,5.577859130859375,1.9897312171936035,-8.269871809387206,1.330427935028076
1763694530495819000,5.587819091796875,2.3000796073913574,-8.19759684677124,1.4378677345275879
1763694530505779200,5.597779296875,2.5303718795776367,-8.198793947601319,1.5394716674804687
1763694530515739100,5.6077392578125,2.6677391998291013,-8.266430144500731,1.6098013412475585
1763694530525699000,5.617698974609375,2.7536311843872068,-8.421903614807128,1.5955857688903807
1763694530535659000,5.627658935546875,2.8679543136596677,-8.68990456314087,1.514931100463867
1763694530545619200,5.637619140625,3.077746234130859,-8.969577244567871,1.338807640838623
1763694530555579100,5.6475791015625,3.15391177444458,-9.284564400482177,1.163881282043457
1763694530565539000,5.6575390625,3.155258512878418,-9.567678746795654,1.004217958831787
1763694530575499000,5.6674990234375,3.132812872314453,-9.737218151855469,0.8315361640930176
1763694530585459200,5.677459228515625,3.100191874694824,-9.778218855285644,0.7146691955566405
1763694530595419100,5.687419189453125,3.096899847412109,-9.66628992767334,0.5964554885864257
1763694530605379000,5.697379150390625,3.146878807067871,-9.523086740875243,0.4923077163696289
1763694530615339300,5.70733935546875,3.1967081291198727,-9.377489352416992,0.4917091659545898
1763694530625299200,5.71729931640625,3.231723328399658,-9.250147751617432,0.6028899055480956
1763694530635259100,5.727259033203125,3.35188232421875,-9.12280615081787,0.7218518005371093
1763694530645218000,5.737218017578125,3.538929328918457,-8.97661021194458,0.8499415893554687
1763694530655178000,5.747177978515625,3.7339071266174315,-8.806771531677246,0.9175777862548827
1763694530665138200,5.75713818359375,3.922450507354736,-8.59293939590454,0.888697728729248
1763694530675098000,5.76709814453125,4.008641767120361,-8.434622811126708,0.8527847038269043
1763694530685058000,5.77705810546875,3.9571664314270016,-8.39526812133789,0.8101379867553711
1763694530695018000,5.78701806640625,4.017769660949707,-8.404096739959716,0.6856395004272461
1763694530704978200,5.796978271484375,4.132840978240966,-8.362796761322022,0.4020762413024902
1763694530714938000,5.806938232421875,4.150797490692138,-8.208670029449463,0.07990648040771484
1763694530724898000,5.81689794921875,4.038270012664794,-7.941417269134521,-0.2581248664855957
1763694530734858200,5.826858154296875,3.9598599082946775,-7.76289960784912,-0.6031891807556152
1763694530744818200,5.836818115234375,3.9887399658203124,-7.709927896118163,-0.9448118301391601
1763694530754778000,5.846778076171875,3.946093248748779,-7.826345951843261,-1.2063783615112305
1763694530764738000,5.856738037109375,3.7413890068054196,-8.026561065673828,-1.402702897644043
1763694530774698200,5.8666982421875,3.567061198425293,-8.307730123138427,-1.5355810897827147
1763694530784658200,5.876658203125,3.6242227630615234,-8.661772693634033,-1.5349825393676757
1763694530794617000,5.8866171875,3.7011364913940428,-8.979602964019774,-1.3415011177062988
1763694530804577000,5.896576904296875,3.799298759460449,-9.18700068283081,-0.9919476753234863
1763694530814537000,5.906536865234375,4.002356987762451,-9.275286869049072,-0.5762544120788574
1763694530824497200,5.9164970703125,4.150498215484619,-9.221716606903076,-0.1083376251220703
1763694530834457000,5.92645703125,4.24506918106079,-9.06564458618164,0.42706572113037106
1763694530844417000,5.9364169921875,4.106504759979248,-8.843432744598388,0.9804255798339843
1763694530854377200,5.946377197265625,3.6119524795532225,-8.602516202545166,1.50026661529541
1763694530864337200,5.956337158203125,3.1371523628234863,-8.514678929138183,1.9665373886108397
1763694530874297000,5.966297119140625,2.5769091743469237,-8.76592046585083,2.4850316856384276
1763694530884257000,5.976257080078125,1.9301754508972166,-9.323170902252198,2.9937995384216305
1763694530894217200,5.98621728515625,1.7299603370666503,-10.10667339553833,3.2398037590026854
1763694530904177200,5.99617724609375,2.2279542823791503,-10.98729069366455,3.2763153343200684
1763694530914137000,6.00613720703125,2.9415760147094723,-11.725452993011475,3.205387110137939
1763694530924097000,6.016096923828125,3.608959727478027,-12.161646607971191,2.68779063873291
1763694530934057200,6.02605712890625,3.872022634887695,-12.127678871917723,1.3639467582702636
1763694530944016100,6.03601611328125,3.219602682495117,-11.610232038116454,-0.4510077377319336
1763694530953976000,6.04597607421875,2.129792014312744,-10.721235034179687,-2.103755071258545
1763694530963936000,6.05593603515625,1.3245920684814452,-9.816526081848144,-2.9970915657043453
1763694530973896200,6.065896240234375,1.1956044540405273,-8.91825154647827,-2.813635863494873
1763694530983856000,6.075856201171875,1.682824491882324,-8.212710244750976,-1.5707459266662598
1763694530993816000,6.085816162109375,2.052429373168945,-7.794772417449951,-0.029927520751953124
1763694531003776300,6.0957763671875,2.082506531524658,-7.662343138122558,1.249473991394043
1763694531013736200,6.105736083984375,1.8894740226745603,-7.784746697998046,2.045396405792236
1763694531023696100,6.115696044921875,1.7577929313659666,-8.170662078094482,2.099565218353271
1763694531033656000,6.125656005859375,1.5822680221557617,-8.798840738677978,1.5682020874023437
1763694531043616300,6.1356162109375,1.1930606147766112,-9.482834225463867,0.8209118942260741
1763694531053576200,6.145576171875,0.6455366226196289,-10.081683915710448,0.09846154327392577
1763694531063536000,6.1555361328125,0.19348142166137694,-10.591199956512451,-0.49245735397338863
1763694531073496000,6.16549609375,0.15128361740112303,-10.964545777893067,-0.9299977073669433
1763694531083456300,6.175456298828125,0.5309142181396485,-11.115979032897949,-1.1189900009155274
1763694531093415200,6.185415283203125,1.1481693336486816,-11.037419290924072,-0.9614216041564941
1763694531103375000,6.195375,1.5300444984436035,-10.733355680084228,-0.47315410308837885
1763694531113335000,6.2053349609375,1.584512586212158,-10.338462043762206,0.15098434219360352
1763694531123295200,6.215295166015625,1.4030021728515625,-9.901520240783691,0.6863876884460449
1763694531133255200,6.225255126953125,1.0441711990356444,-9.438840769958496,1.0217255584716796
1763694531143215000,6.235215087890625,0.632667788696289,-9.083002548217772,1.210418576812744
1763694531153175000,6.245175048828125,0.19482816009521484,-8.825326594543457,1.3037924415588378
1763694531163135200,6.25513525390625,-0.056114101409912104,-8.75305163192749,1.3218985916137695
1763694531173095200,6.26509521484375,-0.019602526092529295,-8.870517150878905,1.3290811965942382
1763694531183055000,6.27505517578125,0.1444002876281738,-9.158270262908935,1.274313833618164
1763694531193015000,6.28501513671875,0.4082113830566406,-9.561094692230224,1.1761515655517578
1763694531202975200,6.294975341796875,0.6549637916564941,-9.994744467926024,1.014542953491211
1763694531212935200,6.30493505859375,0.7890390846252441,-10.319308430480957,0.8274959487915039
1763694531222895000,6.31489501953125,0.840813695526123,-10.429740982055664,0.7082347785949706
1763694531232855300,6.324855224609375,0.8503905021667479,-10.340257695007324,0.6163572898864745
1763694531242815200,6.334815185546875,0.9654618194580078,-10.110713610839843,0.560542463684082
1763694531252774100,6.344774169921875,1.0628758995056151,-9.85019454269409,0.6163572898864745
1763694531262734000,6.354734130859375,0.9968857162475585,-9.605387422943116,0.6274304725646972
1763694531272694000,6.364694091796875,0.8607154968261719,-9.464428800201416,0.5542576843261718
1763694531282654200,6.374654296875,0.6774094322204589,-9.48044002380371,0.4252700698852539
1763694531292614100,6.3846142578125,0.47973815765380856,-9.648782328033446,0.3049614364624023
1763694531302574000,6.394573974609375,0.4695628005981445,-9.947010072326659,0.1640028137207031
1763694531312534000,6.404533935546875,0.5436334144592285,-10.226383478546142,0.03755903854370117
1763694531322494200,6.414494140625,0.5258265396118164,-10.356418556213379,-0.03950432739257812
1763694531332454100,6.4244541015625,0.3176806327819824,-10.25990230178833,-0.09337386474609374
1763694531342414000,6.4344140625,0.10579378585815429,-10.063128852844237,-0.12808978881835936
1763694531352374300,6.444374267578125,0.05386953735351562,-9.905560456085205,-0.06823474731445311
1763694531362334200,6.454334228515625,0.18869301834106444,-9.911545960235594,0.17702128524780272
1763694531372294100,6.464294189453125,0.3553893089294433,-9.991003527832031,0.5804442649841308
1763694531382254000,6.474254150390625,0.40447044296264645,-9.947907897949218,0.9163806854248047
1763694531392214300,6.48421435546875,0.25842414169311523,-9.740659816741942,1.006163247680664
1763694531402173200,6.494173095703125,0.052073886108398436,-9.439888233184814,0.8026561065673827
1763694531412133000,6.504133056640625,-0.029927520751953124,-9.375693701171874,0.531812043762207
1763694531422093000,6.514093017578125,-0.1292868896484375,-9.496451247406005,0.32441432495117184
1763694531432053000,6.524052978515625,-0.2512415367126465,-9.662997900390625,0.1005564697265625
1763694531442013200,6.53401318359375,-0.40970775909423823,-9.805452899169921,-0.1197100830078125
1763694531451973000,6.54397314453125,-0.47285482788085936,-9.798270294189452,-0.33010055389404297
1763694531461933000,6.55393310546875,-0.29179332733154295,-9.903615167236328,-0.3586813362121582
1763694531471893200,6.563893310546875,-0.3323451179504394,-9.875932210540771,-0.13287819213867186
1763694531481853200,6.573853271484375,-0.2567781280517578,-9.869048880767822,0.04713584518432617
1763694531491813000,6.583813232421875,-0.19228432083129882,-10.014346994018554,0.25348610076904293
1763694531501773000,6.59377294921875,-0.2819172454833984,-10.039186836242676,0.28745383682250975
1763694531511733200,6.603733154296875,-0.20096330184936523,-9.939079279327393,0.09846154327392577
1763694531521693200,6.613693115234375,-0.007930792999267577,-9.866505041503906,-0.1158195053100586
1763694531531653000,6.623653076171875,0.051774610900878905,-9.872340908050537,-0.18106150054931638
1763694531541613000,6.633613037109375,0.027383681488037107,-9.874286196899414,-0.22535423126220702
1763694531551572000,6.643572021484375,-0.03980360260009765,-9.852139831542969,-0.33788170928955075
1763694531561532200,6.6535322265625,-0.1370680450439453,-9.681403325653076,-0.5166986457824707
1763694531571492000,6.6634921875,-0.20739771881103514,-9.491662844085694,-0.7281365798950195
1763694531581452000,6.6734521484375,-0.18959084396362302,-9.32751039276123,-0.9449614677429199
1763694531591412200,6.683412109375,-0.18734627990722655,-9.316437210083008,-1.0657190139770507
1763694531601372200,6.6933720703125,-0.2141314109802246,-9.486575165557861,-1.0402806213378906
1763694531611332000,6.70333203125,-0.1867477294921875,-9.803208335113524,-0.8942343200683593
1763694531621292000,6.7132919921875,-0.07990648040771484,-10.141239682006836,-0.6813000099182128
1763694531631252200,6.723252197265625,0.02124853973388672,-10.359261670684814,-0.4460696968078613
1763694531641212200,6.733212158203125,0.03247136001586914,-10.357017106628417,-0.18659809188842771
1763694531651172000,6.743172119140625,-0.04773439559936523,-10.237007748413085,0.003591302490234375
1763694531661132000,6.753132080078125,-0.04249707946777344,-10.117148027801512,0.1131260284423828
1763694531671092200,6.76309228515625,-0.007781155395507812,-9.981426721191406,0.13332710494995118
1763694531681052200,6.77305224609375,-0.022445640563964843,-9.841365924072266,0.0848445213317871
1763694531691012000,6.78301220703125,-0.07721300354003906,-9.702651865386962,0.001197100830078125
1763694531700971000,6.792970947265625,-0.18734627990722655,-9.497648348236083,-0.09083002548217772
1763694531710931200,6.80293115234375,-0.32576106338500976,-9.373598774719238,-0.16205752487182618
1763694531720891100,6.81289111328125,-0.39923312683105466,-9.41654476699829,-0.14350246200561523
1763694531730851000,6.82285107421875,-0.4278139091491699,-9.65955623550415,-0.057610477447509766
1763694531740811000,6.83281103515625,-0.3781342247009277,-10.025719451904296,0.026485855865478514
1763694531750771200,6.842771240234375,-0.3067570877075195,-10.29102692337036,0.023343466186523436
1763694531760731100,6.852731201171875,-0.3607762626647949,-10.291924748992919,-0.10878653793334961
1763694531770691000,6.862691162109375,-0.44636897201538084,-10.028412928771973,-0.27293898925781246
1763694531780651000,6.872651123046875,-0.5149029945373534,-9.713725048065186,-0.4171896392822265
1763694531790611200,6.882611083984375,-0.5198410354614258,-9.529670795440673,-0.4134486991882324
1763694531800571100,6.892571044921875,-0.41689036407470703,-9.573963526153564,-0.2959831802368164
1763694531810531000,6.902531005859375,-0.21158757171630857,-9.80605144958496,-0.09831190567016601
1763694531820491300,6.9124912109375,-0.1183633445739746,-10.022128149414062,0.04548983154296875
1763694531830451200,6.922451171875,-0.2075473564147949,-9.968408249664305,0.07511807708740234
1763694531840411100,6.9324111328125,-0.36496611557006836,-9.741108729553222,-0.03456628646850586
1763694531850370000,6.9423701171875,-0.41090485992431636,-9.617358431243895,-0.07107786178588867
1763694531860330000,6.952330078125,-0.36047698745727536,-9.627084875488281,0.0008978256225585938
1763694531870290200,6.962290283203125,-0.30271687240600587,-9.748141696929931,0.10235212097167969
1763694531880250000,6.97225,-0.23044190979003906,-9.798719207000731,0.14679448928833008
1763694531890210000,6.9822099609375,-0.18599954147338865,-9.674968908691406,0.1131260284423828
1763694531900170000,6.992169921875,-0.25258827514648435,-9.51964507598877,0.08379705810546874
1763694531910130200,7.002130126953125,-0.24211364288330076,-9.504082765197753,0.07122749938964844
1763694531920090000,7.012090087890625,-0.19767127456665037,-9.713276135253906,0.11851298217773437
1763694531930050000,7.022050048828125,-0.17223288192749023,-10.028113653564452,0.15472528228759766
1763694531940010200,7.03201025390625,-0.2305915473937988,-10.091859272766113,0.05746083984375
1763694531949970400,7.041970458984375,-0.24974516067504882,-9.929951385498047,-0.0953191535949707
1763694531959930400,7.051930419921875,-0.2397194412231445,-9.72345149230957,-0.21592706222534178
1763694531969890600,7.061890625,-0.2736871772766113,-9.597905542755127,-0.2723404388427734
1763694531979850500,7.0718505859375,-0.31169512863159177,-9.649081603240965,-0.29403789138793945
1763694531989810400,7.081810546875,-0.3525461944580078,-9.76789386062622,-0.27174188842773433
1763694531999769300,7.091769287109375,-0.37005379409790035,-9.788394212341307,-0.29493571701049803
1763694532009729500,7.1017294921875,-0.38187516479492184,-9.682450788879393,-0.3324947555541992
1763694532019689500,7.111689453125,-0.3935468978881836,-9.533112460327148,-0.3634697395324707
1763694532029649400,7.1216494140625,-0.40462008056640625,-9.428066862487793,-0.4129997863769531
1763694532039609300,7.131609375,-0.3929483474731445,-9.478345097351074,-0.3908534210205078
1763694532049569500,7.141569580078125,-0.4352957893371582,-9.642647186279296,-0.35942952423095703
1763694532059529500,7.151529541015625,-0.5105635040283203,-9.868151055145264,-0.33803134689331055
1763694532069489400,7.161489501953125,-0.5940612869262695,-9.999682508850096,-0.3538929328918457
1763694532079449600,7.17144970703125,-0.7079355033874511,-9.881618439483642,-0.42975919799804685
1763694532089409500,7.181409423828125,-0.8138789268493651,-9.590573300170897,-0.5333084197998047
1763694532099369500,7.191369384765625,-0.8325836273193359,-9.46757118988037,-0.5989993278503417
1763694532109329400,7.201329345703125,-0.7071873153686523,-9.769689511871338,-0.5117606048583984
1763694532119289600,7.21128955078125,-0.557998624420166,-10.277260263824463,-0.35404257049560545
1763694532129249500,7.22124951171875,-0.47764323120117186,-10.601375313568115,-0.35658640975952144
1763694532139208400,7.23120849609375,-0.40761283264160153,-10.518775356292725,-0.5677250686645507
1763694532149168400,7.24116845703125,-0.43724107818603514,-10.153809240722655,-0.8400655075073241
1763694532159128300,7.25112841796875,-0.5066729263305664,-9.782259070587157,-1.012597664642334
1763694532169088500,7.261088623046875,-0.5948094749450683,-9.546280569458007,-1.0262146865844726
1763694532179048400,7.27104833984375,-0.6594529197692871,-9.55720411453247,-0.9074024291992187
1763694532189008400,7.28100830078125,-0.689530078125,-9.871742357635497,-0.6955155822753906
1763694532198968600,7.290968505859375,-0.6031891807556152,-10.310180536651611,-0.48198272171020506
1763694532208928500,7.300928466796875,-0.5027823486328125,-10.55992569732666,-0.30570962448120115
1763694532218888400,7.310888427734375,-0.45340193939208984,-10.634295586395263,-0.16385317611694336
1763694532228848400,7.320848388671875,-0.4312555740356445,-10.644470943450926,-0.07242460021972656
1763694532238808600,7.33080859375,-0.3708019821166992,-10.63654015045166,0.06015431671142578
1763694532248768500,7.3407685546875,-0.3082534637451172,-10.648361521148681,0.28999767608642574
1763694532258728400,7.350728515625,-0.1728314323425293,-10.689811137390135,0.5707178207397461
1763694532268688400,7.3606884765625,-0.02902969512939453,-10.693402439880371,0.8280944992065429
1763694532278648600,7.370648681640625,0.16953940505981444,-10.708515837860107,1.0598831474304198
1763694532288607500,7.380607421875,0.36436756515502927,-10.714650979614257,1.2726678199768067
1763694532298567400,7.3905673828125,0.579696076965332,-10.686668747711181,1.4107833282470703
1763694532308527400,7.40052734375,0.7900865478515624,-10.680683243560791,1.459415549468994
1763694532318487600,7.410487548828125,0.9909002120971679,-10.715249530029297,1.350329736328125
1763694532328447500,7.420447509765625,1.101931314086914,-10.701931783294677,1.1641805572509765
1763694532338407400,7.430407470703125,1.1116577583312988,-10.638485439300537,1.0296563514709471
1763694532348367400,7.440367431640625,1.0492588775634766,-10.430638807678221,0.9427169036865234
1763694532358327600,7.45032763671875,1.0435726486206054,-10.154108515930176,0.812083275604248
1763694532368287500,7.46028759765625,1.1655272956848144,-10.01689083328247,0.6742670425415038
1763694532378247400,7.470247314453125,1.2882301307678221,-10.011803154754638,0.5538087715148925
1763694532388207400,7.480207275390625,1.3069348312377929,-10.070161820220946,0.49545010604858397
1763694532398167600,7.49016748046875,1.2783540489196776,-10.194061756134033,0.47165772705078124
1763694532408127500,7.50012744140625,1.3896844261169432,-10.36195514755249,0.42242695541381836
1763694532418087400,7.51008740234375,1.6370353851318358,-10.541969184875487,0.3960907371520996
1763694532428046600,7.520046630859375,1.622819812774658,-10.630554646301269,0.5891232460021972
1763694532438006500,7.530006591796875,1.3025953407287596,-10.586710828399658,0.9509469718933105
1763694532447966500,7.539966552734375,1.0518027168273925,-10.389189191436767,1.2865841171264647
1763694532457926400,7.549926513671875,0.9837176071166992,-10.161440758514404,1.5493477493286132
1763694532467886300,7.55988623046875,1.1367968757629394,-10.040982487487792,1.7717092285156248
1763694532477846500,7.569846435546875,1.3576619789123534,-9.85124200592041,2.070834798431396
1763694532487806500,7.579806396484375,1.7161936775207518,-9.695469260406494,2.356343346405029
1763694532497766400,7.589766357421875,2.0786159538269042,-9.534309561157226,2.4136545486450194
1763694532507726300,7.599726318359375,2.4220342544555664,-9.39694224090576,1.8685247581481932
1763694532517686500,7.6096865234375,2.3000796073913574,-9.534758473968505,1.197699380493164
1763694532527646500,7.619646484375,1.8825906929016112,-9.707589906311034,0.685040950012207
1763694532537606400,7.6296064453125,1.5692495506286621,-9.919476753234862,0.3072060005187988
1763694532547566600,7.639566650390625,1.6428712516784667,-10.15710126800537,0.009277531433105468
1763694532557526500,7.649526611328125,1.9615993476867675,-10.3422029838562,-0.1470937644958496
1763694532567486500,7.659486572265625,2.044199304962158,-10.385148976135254,-0.0661398208618164
1763694532577445600,7.669445556640625,2.0048446151733397,-10.345644648742676,0.20515315475463866
1763694532587405600,7.679405517578125,2.0594623405456542,-10.319009155273436,0.5621884773254394
1763694532597365500,7.689365478515625,2.076820302581787,-10.110863248443604,0.838269856262207
1763694532607325400,7.699325439453125,2.0943279022216794,-9.760112705230712,1.1055226165771483
1763694532617285400,7.709285400390625,2.192789445495605,-9.36566798171997,1.2376526206970213
1763694532627245300,7.719245361328125,2.349011103820801,-8.881291058349609,1.2081740127563476
1763694532637205500,7.72920556640625,2.6135703872680662,-8.467393446350098,1.0857704528808594
1763694532647165400,7.73916552734375,2.8215666564941406,-8.176198669433592,0.9808744926452636
1763694532657125400,7.74912548828125,2.9768904891967773,-7.937975604248046,0.914884309387207
1763694532667085600,7.75908544921875,3.0386908195495606,-7.839065148162842,0.9308955329895019
1763694532677045500,7.76904541015625,3.039439007568359,-7.793425679016113,0.9714473236083984
1763694532687005400,7.77900537109375,3.0684687026977535,-7.845200289916992,1.0268132369995118
1763694532696965400,7.78896533203125,3.0288147377014156,-7.978377757263183,1.1367968757629394
1763694532706925600,7.798925537109375,2.980781066894531,-8.137592167663573,1.3009493270874022
1763694532716884700,7.808884765625,2.9809307044982907,-8.28648158340454,1.3626000198364256
1763694532726844700,7.8188447265625,2.8790274963378906,-8.380753273773193,1.3064859184265136
1763694532736804600,7.8288046875,2.769492770385742,-8.405443478393554,1.1890203994750976
1763694532746764500,7.8387646484375,2.7166706962585447,-8.364891687774657,0.9516951599121093
1763694532756724500,7.848724365234375,2.752882996368408,-8.265083406066895,0.699705435180664
1763694532766684400,7.858684326171875,2.8980314720153806,-8.097489289855957,0.4553472282409668
1763694532776644400,7.868644287109375,3.132663234710693,-7.889941933441162,0.22355858001708984
1763694532786604500,7.8786044921875,3.3625065940856933,-7.670872481536865,0.15233108062744138
1763694532796564500,7.888564453125,3.509600358581543,-7.528567120361328,0.15637129592895507
1763694532806524400,7.8985244140625,3.640982174682617,-7.454346868896484,0.1149216796875
1763694532816484400,7.908484375,3.7633857345581054,-7.467215702819824,0.05461772537231445
1763694532826444500,7.918444580078125,3.9164650032043453,-7.561487393188476,-0.10384849700927734
1763694532836404500,7.928404541015625,4.02210915145874,-7.652915969085693,-0.32142157287597656
1763694532846364400,7.938364501953125,4.097676141357422,-7.800309008789062,-0.5321113189697265
1763694532856323600,7.948323486328125,4.094384114074707,-7.935132489776611,-0.7490858444213867
1763694532866283800,7.95828369140625,4.043956241607666,-8.002469411468505,-0.9741408004760742
1763694532876243700,7.96824365234375,3.9784149711608885,-7.998728471374511,-1.1445780311584473
1763694532886203600,7.97820361328125,3.921253406524658,-7.969100225830077,-1.2687772422790526
1763694532896163600,7.98816357421875,3.846434604644775,-7.940669081115722,-1.3804068946838377
1763694532906123500,7.99812353515625,3.806331726837158,-7.9001172904968255,-1.4369699089050292
1763694532916083500,8.00808349609375,3.8132150566101073,-7.817367695617675,-1.4411597618103027
1763694532926043400,8.01804345703125,3.9044939949035644,-7.819462622070312,-1.4101847778320311
1763694532936003300,8.02800341796875,4.04096348953247,-7.816619507598877,-1.381005445098877
1763694532945963500,8.037963623046876,4.267514821624756,-7.757363016510009,-1.3789105186462403
1763694532955923500,8.04792333984375,4.543596200561523,-7.7304282478332516,-1.395071379852295
1763694532965883400,8.05788330078125,4.850203650665283,-7.775618804168701,-1.4463970779418944
1763694532975843600,8.067843505859376,5.041141233062744,-7.913135762023925,-1.5429133323669433
1763694532985803500,8.077803466796874,5.239261420440673,-8.201337786865233,-1.624914739227295
1763694532995762700,8.0877626953125,5.487959117889404,-8.684218334197997,-1.7043723068237304
1763694533005722600,8.09772265625,5.738751741790771,-9.29593685836792,-1.7660229995727539
1763694533015682600,8.1076826171875,5.923554182434081,-9.993248091888427,-1.7630302474975585
1763694533025642800,8.117642822265625,6.037578036499023,-10.741585748291016,-1.6865654319763184
1763694533035602700,8.127602783203125,6.101323655700683,-11.395352439117431,-1.5671546241760252
1763694533045562600,8.137562744140626,5.99493131942749,-11.785756947326659,-1.464652865600586
1763694533055522600,8.1475224609375,5.763292308807372,-11.720963864898682,-1.358559804534912
1763694533065482500,8.157482421875,5.539883366394043,-11.201571742248534,-1.2741641960144041
1763694533075442400,8.1674423828125,5.33757332611084,-10.308085610198974,-1.197100830078125
1763694533085402400,8.17740234375,4.914248545074463,-9.123853614044188,-1.02142628326416
1763694533095362600,8.187362548828125,4.21334600906372,-7.963862909698486,-0.7525275093078613
1763694533105322500,8.197322509765625,3.635295945739746,-7.048828962707519,-0.4038718925476074
1763694533115282400,8.207282470703126,3.1555577880859373,-6.57597413482666,0.0909796630859375
1763694533125242400,8.217242431640624,2.5616461387634275,-6.8505591377258295,0.7760206130981445
1763694533135201800,8.227201904296875,2.2200234893798827,-7.709927896118163,1.37906015625
1763694533145161700,8.23716162109375,2.316839019012451,-8.69544115447998,1.8695722213745116
1763694533155121700,8.24712158203125,2.52169289855957,-9.623493572998047,2.324470536804199
1763694533165081600,8.25708154296875,2.6696844886779783,-10.480767404937744,2.6657939109802244
1763694533175041800,8.267041748046875,2.7635072662353513,-11.369016220855713,2.653822902679443
1763694533185001700,8.277001708984375,2.6795605705261227,-12.562675386047362,2.439392216491699
1763694533194961700,8.286961669921874,2.5067291381835934,-14.171129988861082,2.1440075866699217
1763694533204921600,8.296921630859375,2.6122236488342283,-15.880589974212645,1.7347487403869628
1763694533214881500,8.306881591796875,3.161992205047607,-17.016189749145507,1.2645873893737791
1763694533224841500,8.316841552734376,3.752611827087402,-16.859668815612793,0.7070376777648926
1763694533234801400,8.326801513671874,3.9291841995239256,-14.65176597213745,0.030526071166992186
1763694533244761300,8.33676123046875,3.454533720397949,-11.426177785491943,-0.22595278167724608
1763694533254721500,8.346721435546876,2.3418284988403317,-8.630498434448242,0.1696890426635742
1763694533264681500,8.356681396484374,0.9416694404602051,-6.279841316986084,0.7998129920959473
1763694533274640600,8.366640625,-0.027533319091796873,-4.621557392120361,1.3111246841430664
1763694533284600600,8.3766005859375,-0.6976105087280273,-3.903296894073486,1.81944362411499
1763694533294560800,8.386560791015626,-1.336862351989746,-3.9553707801818847,2.2486042716979977
1763694533304520700,8.396520751953124,-1.6738462356567383,-4.5233951240539545,2.4262241073608397
1763694533314480600,8.406480712890625,-1.4393641105651855,-5.372588525390625,2.299780332183838
1763694533324440600,8.416440673828125,-0.6845920372009276,-6.599018325805663,1.9135656768798828
1763694533334400800,8.42640087890625,0.203656778717041,-8.12083275604248,1.4155717315673828
1763694533344360700,8.436360595703125,0.8738836059570312,-9.769390236663817,0.7752724250793457
1763694533354320600,8.446320556640625,1.3224971420288085,-11.349563332366943,-0.08544307174682617
1763694533364280600,8.456280517578126,1.586457875061035,-12.566715601348877,-1.059134959411621
1763694533374240500,8.466240478515624,1.620425611114502,-13.163320727539062,-2.1691467041015624
1763694533384200400,8.476200439453125,1.4577695358276366,-12.99123748321533,-3.2321722412109373
1763694533394160400,8.486160400390625,1.2164040809631347,-12.16808102493286,-3.8974610275268553
1763694533404120600,8.49612060546875,0.8658031753540039,-10.919355221557616,-3.6586394119262695
1763694533414079700,8.506079833984375,0.45459904022216796,-9.649530516052245,-2.644994284057617
1763694533424039700,8.516039794921875,0.12180500946044921,-8.72117882232666,-1.433827519226074
1763694533433999600,8.52599951171875,-0.08259995727539061,-8.17844323348999,-0.32187048568725585
1763694533443959600,8.53595947265625,-0.19871873779296872,-8.041524826049804,0.48512511138916015
1763694533453919700,8.545919677734375,-0.3323451179504394,-8.317905480194092,1.0702081420898437
1763694533463879700,8.555879638671875,-0.5059247383117675,-8.864830921936035,1.3811550827026366
1763694533473839600,8.565839599609374,-0.4836287353515625,-9.450961415863036,1.3763666793823242
1763694533483799800,8.5757998046875,-0.5250783515930175,-9.951199925231933,1.206079086303711
1763694533493759700,8.585759765625,-0.5440823272705078,-10.38724390258789,0.9724947868347167
1763694533503719700,8.5957197265625,-0.3226186737060547,-10.735001693725586,0.8113350875854491
1763694533513679600,8.6056796875,0.029927520751953124,-10.864887133789061,0.6953659446716308
1763694533523639600,8.6156396484375,0.3999813148498535,-10.844686057281493,0.5657797798156738
1763694533533599500,8.625599609375,0.4791396072387695,-10.686070197296141,0.5044283622741699
1763694533543558700,8.63555859375,0.32995091629028317,-10.365247174835204,0.493504817199707
1763694533553518600,8.6455185546875,0.03441664886474609,-9.94042601776123,0.5376479103088379
1763694533563478500,8.655478515625,-0.29014731369018554,-9.508721530914306,0.6217442436218261
1763694533573438700,8.665438720703126,-0.5159504577636719,-9.134178608703612,0.6486790122985839
1763694533583398700,8.675398681640624,-0.5398924743652344,-8.981847528076171,0.5976525894165039
1763694533593358600,8.685358642578125,-0.42586862030029293,-8.864980559539795,0.44592005920410155
1763694533603318800,8.69531884765625,-0.3274070770263672,-8.681973770141601,0.17642273483276366
1763694533613278700,8.70527880859375,-0.21622633743286132,-8.500612994384765,-0.16205752487182618
1763694533623238700,8.71523876953125,-0.07287351303100585,-8.43297679748535,-0.5412392127990723
1763694533633198600,8.725198486328125,0.0626981559753418,-8.685565072631835,-0.7944260383605957
1763694533643158800,8.73515869140625,0.1131260284423828,-9.206603208923338,-0.939125601196289
1763694533653118700,8.74511865234375,0.0383072265625,-9.77358008956909,-1.0070610733032226
1763694533663078700,8.75507861328125,-0.13676876983642577,-10.089165795898436,-1.1148001480102538
1763694533673038600,8.76503857421875,-0.29358897857666016,-10.09949079055786,-1.1893196746826171
1763694533682997500,8.77499755859375,-0.270694425201416,-9.997138669586182,-1.1746551895141601
1763694533692957700,8.784957763671875,-0.12419921112060546,-9.904961905670165,-0.9772831901550293
1763694533702917600,8.794917724609375,0.06449380722045898,-9.885509017181397,-0.5894225212097167
1763694533712877600,8.804877685546876,0.23612813873291014,-9.926360083007811,-0.12150573425292968
1763694533722837800,8.814837646484374,0.45819034271240233,-9.8572275100708,0.177470198059082
1763694533732797700,8.824797607421875,0.6070797584533691,-9.623194297790526,0.203656778717041
1763694533742757600,8.834757568359375,0.5644330413818359,-9.419537519073486,0.10085574493408203
1763694533752717600,8.844717529296876,0.3941454483032226,-9.35938320236206,-0.008230068206787108
1763694533762677800,8.854677734375,0.17462708358764648,-9.406369409942627,-0.08334814529418945
1763694533772637700,8.8646376953125,0.017208324432373044,-9.514407759857177,-0.11896189498901366
1763694533782597600,8.87459765625,-0.06703764648437499,-9.623643210601806,-0.2241571304321289
1763694533792557600,8.8845576171875,-0.010773907470703125,-9.628880526733397,-0.39010523300170896
1763694533802517800,8.894517822265625,0.09756371765136718,-9.583989245605467,-0.5457283409118652
1763694533812476700,8.9044765625,0.14350246200561523,-9.520542901611327,-0.6775590698242188
1763694533822436600,8.9144365234375,0.053719899749755856,-9.451709603881836,-0.8283937744140625
1763694533832396500,8.924396484375,-0.1452981132507324,-9.34741219406128,-1.0057143348693847
1763694533842356700,8.934356689453125,-0.3324947555541992,-9.228749574279785,-1.1703156990051269
1763694533852316700,8.944316650390626,-0.48407764816284177,-9.16111337738037,-1.2220903099060059
1763694533862276600,8.954276611328124,-0.4914098907470703,-9.227402835845947,-1.1155483360290526
1763694533872236500,8.964236572265625,-0.3573345977783203,-9.385869058227538,-0.9343371978759765
1763694533882196700,8.97419677734375,-0.08604162216186523,-9.556755201721192,-0.795473501586914
1763694533892156700,8.98415673828125,0.24405893173217771,-9.679308399200439,-0.6995557975769042
1763694533902116600,8.99411669921875,0.5187935722351074,-9.76145944366455,-0.6536170532226562
1763694533912076500,9.00407666015625,0.6385036552429199,-9.814131880187988,-0.712424631500244
1763694533922036700,9.01403662109375,0.5681739814758301,-9.846453602600096,-0.9144353965759277
1763694533931996700,9.02399658203125,0.3634697395324707,-9.944316595458984,-1.2593500732421874
1763694533941956600,9.03395654296875,0.2723404388427734,-10.160393295288085,-1.5840636734008788
1763694533951915000,9.0439150390625,0.37020343170166015,-10.468497121429444,-1.8930653251647949
1763694533961875000,9.053875,0.4964975692749023,-10.683227082824706,-2.1028572456359864
1763694533971835100,9.063835205078124,0.7237970893859863,-10.886285311126707,-2.1556793197631836
1763694533981795000,9.073795166015625,0.9216180015563964,-10.918756671142578,-2.1059996353149413
1763694533991755000,9.083755126953125,0.9898527488708495,-10.829423021697997,-1.9958663589477539
1763694534001715000,9.09371484375,1.069310316467285,-10.914866093444823,-2.028337718963623
1763694534011675100,9.103675048828125,1.305588092803955,-11.416900254058838,-2.2451626068115234
1763694534021635000,9.113635009765625,1.7178396911621092,-12.269535320281982,-2.539050860595703
1763694534031595000,9.123594970703126,1.9506758026123046,-13.045705570983886,-2.818124991607666
1763694534041555000,9.133554931640624,1.8691233085632324,-13.294552906036376,-3.148075907897949
1763694534051515100,9.14351513671875,1.790713204193115,-12.99123748321533,-3.481917401885986
1763694534061475000,9.15347509765625,1.9161095161437987,-12.598139498138426,-3.539677516937256
1763694534071435000,9.16343505859375,1.9967641845703124,-12.445808417510985,-3.117549836730957
1763694534081394000,9.173393798828124,1.8649334556579589,-12.61474927215576,-2.3874679679870603
1763694534091354000,9.18335400390625,1.7332523643493651,-12.80628540496826,-1.7067665084838866
1763694534101314000,9.19331396484375,1.7004817291259764,-12.783390851593017,-1.16193599319458
1763694534111274000,9.20327392578125,1.652896971130371,-12.439972550964354,-0.3350385948181152
1763694534121234000,9.21323388671875,1.652896971130371,-11.98327858428955,1.010652375793457
1763694534131194000,9.223194091796875,1.9535189170837401,-11.634473329925536,2.704998963165283
1763694534141154000,9.233154052734376,2.1498434532165525,-11.30571951446533,4.44962378540039
1763694534151114000,9.243114013671875,1.5927426544189451,-10.9045410987854,5.904849481964111
1763694534161074000,9.253073974609375,0.4783914192199707,-10.60990465698242,6.833051538085937
1763694534171034000,9.2630341796875,-0.738012661743164,-10.514585503387451,7.147140868377685
1763694534180994000,9.272994140625,-1.786972264099121,-10.409839180755615,6.382941625976562
1763694534190954000,9.2829541015625,-1.8924667747497557,-10.420613088226318,4.510376652526856
1763694534200914200,9.2929140625,-1.0944494338989257,-10.581623149871826,2.156427507781982
1763694534210873000,9.302873046875,-0.036062662506103516,-10.754604219818114,-0.22430676803588867
1763694534220833000,9.3128330078125,0.8735843307495117,-11.248707587432861,-1.6959926010131834
1763694534230793000,9.32279296875,1.6686089195251463,-11.65781679611206,-2.55371534576416
1763694534240753000,9.3327529296875,2.1718401809692383,-11.901576452636718,-2.908057191467285
1763694534250713000,9.342713134765624,2.8057050704956055,-12.076053898620605,-2.8048072448730466
1763694534260673000,9.352673095703125,3.0645781249999997,-11.962179682159423,-2.4548048896789547
1763694534270633000,9.362633056640625,2.722955475616455,-11.319785449218749,-2.1351789680480957
1763694534280593000,9.372593017578126,2.180219886779785,-10.43767177505493,-1.884535981750488
1763694534290553000,9.382552978515625,2.069637697601318,-9.765649296569825,-1.3836989219665528
1763694534300513000,9.392512939453125,1.7533038032531738,-8.972569996643067,-0.7760206130981445
1763694534310473000,9.402472900390626,1.5363292778015136,-8.030601280975342,-0.11417349166870117
1763694534320433200,9.41243310546875,1.5894506271362303,-7.198765841674804,0.6854898628234863
1763694534330393000,9.42239306640625,1.578826357269287,-6.489184324645996,1.6163853958129881
1763694534340352000,9.43235205078125,1.6711527587890624,-5.887491519927978,2.3331495178222657
1763694534350312000,9.44231201171875,1.820191812133789,-5.547365246582031,2.6987141838073727
1763694534360272000,9.45227197265625,1.875707363128662,-5.468206954193115,2.762459803009033
1763694534370232000,9.462232177734375,1.6620248649597167,-5.591358702087402,2.65576819152832
1763694534380192000,9.47219189453125,1.5212158798217772,-5.850979944610596,2.27927998046875
1763694534390152000,9.48215185546875,1.4028525352478027,-6.138583419036864,1.8079215286254882
1763694534400112000,9.492112060546875,1.1873743858337402,-6.363488737487793,1.470937644958496
1763694534410072000,9.502072021484375,0.9941922393798828,-6.498761131286621,1.223885961151123
1763694534420032000,9.512031982421876,0.8409633331298828,-6.5020531585693355,1.1616367179870606
1763694534429992000,9.521991943359374,0.8279448616027831,-6.355857219696045,1.2587515228271484
1763694534439952100,9.5319521484375,1.0877157417297363,-6.073341423797607,1.3588590797424316
1763694534449912000,9.541912109375,1.5496470245361327,-5.79696076965332,1.4731822090148925
1763694534459872000,9.5518720703125,2.11946701965332,-5.587767399597167,1.5976806953430174
1763694534469831000,9.561830810546875,2.8184242668151853,-5.520879390716552,1.5705962890624998
1763694534479790800,9.571790771484375,3.558831130218506,-5.71421117477417,1.3497311859130858
1763694534489751000,9.5817509765625,4.339789784240723,-6.222829389953613,0.8794201972961425
1763694534499711000,9.5917109375,4.9917608238220215,-6.906373963928222,0.19348142166137694
1763694534509671000,9.6016708984375,5.498284112548828,-7.61640439376831,-0.605882657623291
1763694534519631000,9.611631103515625,5.914575926208496,-8.27421129989624,-1.5090952339172363
1763694534529591000,9.621591064453124,6.147561675262451,-8.77923821258545,-2.3732523956298825
1763694534539551000,9.631551025390625,6.334608679962158,-9.10978767929077,-3.059490446472168
1763694534549511000,9.641510986328125,6.916399683380127,-9.404873033905028,-3.49239203414917
1763694534559471000,9.65147119140625,7.76364779586792,-9.687239192199707,-3.5338416503906247
1763694534569431000,9.66143115234375,8.23006820678711,-9.92217023010254,-3.15376213684082
1763694534579391000,9.671390869140625,8.377760521697997,-10.057442623901366,-2.6036943054199218
1763694534589351000,9.681350830078125,8.281842817687988,-10.129119036102294,-2.070236248016357
1763694534599309800,9.691309814453126,7.7504796867370604,-10.210222617340087,-1.6195277854919432
1763694534609270000,9.70127001953125,6.931812356567383,-10.407893891906738,-1.3307272102355956
1763694534619230000,9.71122998046875,6.049698682403564,-10.792911446380614,-1.0634744499206543
1763694534629190000,9.72118994140625,5.3883004737854,-11.304223138427734,-0.6385036552429199
1763694534639150000,9.731150146484374,5.329043982696533,-11.635520793151855,-0.17941548690795897
1763694534649110000,9.741110107421875,5.658396348571777,-11.587038209533691,0.19482816009521484
1763694534659070000,9.751070068359375,6.134393566131592,-10.917709207916259,0.3871124809265136
1763694534669030000,9.76102978515625,6.603208178710937,-9.766547122192382,0.489015689086914
1763694534678990000,9.770989990234375,6.491578526306152,-8.348730826568604,0.7076362281799315
1763694534688950000,9.780949951171875,5.949591125488281,-6.833500450897216,1.0351929428100586
1763694534698910000,9.790909912109376,5.60557427444458,-5.536890614318847,1.303044253540039
1763694534708870000,9.800869873046874,5.239560695648193,-4.688295763397217,1.6306009681701659
1763694534718829000,9.8108291015625,4.515913243865967,-4.777928688049316,2.0923826133728025
1763694534728789000,9.8207890625,3.7587469688415527,-6.4655415832519525,2.7084406280517577
1763694534738749000,9.8307490234375,4.585943642425537,-8.915707707214356,2.85388837890625
1763694534748708900,9.840708984375,5.98849690246582,-11.049539936828612,2.43235924911499
1763694534758669000,9.8506689453125,5.916970127868652,-12.71680211791992,1.9720739799499512
1763694534768629000,9.86062890625,5.52282467956543,-14.285453118133544,1.2437877624511717
1763694534778589000,9.8705888671875,5.657648160552978,-16.051775392913818,0.5155015449523925
1763694534788548900,9.880548828125,5.524021780395508,-17.463755821990965,0.16160861206054686
1763694534798509000,9.890509033203125,3.783287535858154,-17.13470273132324,-0.09995791931152344
1763694534808469000,9.900468994140626,1.7621324218749999,-14.821006101989745,0.2389712532043457
1763694534818429000,9.910428955078125,1.0102034629821777,-11.385476357269287,1.1016320388793945
1763694534828388900,9.920388916015625,0.5853823059082031,-7.859715137481689,2.1089923873901366
1763694534838349000,9.93034912109375,-0.053719899749755856,-4.845115972137451,2.935440872955322
1763694534848308000,9.940307861328124,-0.2790741310119629,-2.7938836997985836,3.4668040039062498
1763694534858268000,9.950267822265625,-0.07870937957763671,-2.131886940765381,3.552845626068115
1763694534868227800,9.960227783203125,-0.21966800231933592,-2.5357588333129883,2.982576718139648
1763694534878188000,9.97018798828125,-0.7936778503417968,-3.710563660430908,1.953070004272461
1763694534888148000,9.98014794921875,-1.3485340850830076,-5.595997467803954,0.8321347145080565
1763694534898108000,9.99010791015625,-1.471536195373535,-7.659649661254883,-0.19692308654785154
1763694534908067800,10.00006787109375,-1.3418003929138183,-9.536254850006102,-1.1264718811035155
1763694534918028000,10.010028076171874,-0.7921814743041992,-11.40941837387085,-1.9641431869506836
1763694534927988000,10.019988037109375,0.09352350234985352,-13.1256120513916,-2.663399709320068
1763694534937948000,10.029947998046875,0.9068038787841797,-14.155418040466309,-3.3143232856750484
1763694534947908400,10.039908447265624,1.3159130874633789,-13.998148918914794,-3.856909236907959
1763694534957868300,10.049868408203125,1.223885961151123,-12.672060474395751,-4.3263223999023435
1763694534967828200,10.059828125,0.9907505744934082,-10.792911446380614,-4.420743727874756
1763694534977787100,10.069787109375,1.0459668502807618,-9.292495193481445,-3.4488474914550777
1763694534987747300,10.079747314453124,1.3262380821228026,-8.410231881713866,-1.7338509147644041
1763694534997707300,10.089707275390625,1.4217068733215332,-8.042273014068604,0.1657984649658203
1763694535007667200,10.099667236328125,1.5120879859924317,-7.996184632110595,1.8408418014526367
1763694535017627100,10.109627197265626,1.6817770286560059,-8.317456567382813,3.019088293457031
1763694535027587300,10.11958740234375,2.013523596191406,-8.958354424285888,3.459022848510742
1763694535037547300,10.12954736328125,1.9533692794799804,-9.578003741455078,3.4201170715332028
1763694535047507200,10.139507080078126,1.4377180969238281,-9.89568437423706,2.6939257804870604
1763694535057467100,10.149467041015624,0.9029133010864258,-9.901071327972412,1.218050094604492
1763694535067427300,10.15942724609375,0.18300678939819334,-9.828646727752686,-0.37978023834228514
1763694535077387300,10.16938720703125,-0.4198831161499023,-9.85752678527832,-1.779340746307373
1763694535087347200,10.17934716796875,-0.7029974624633789,-9.791087689208984,-2.9358897857666015
1763694535097306400,10.189306396484374,-0.6341641647338867,-9.573514613342285,-3.6921582351684568
1763694535107266300,10.199266357421875,-0.20245967788696287,-9.36581761932373,-3.7475241485595703
1763694535117226200,10.209226318359375,0.521636686706543,-9.248801013183593,-3.300107713317871
1763694535127186200,10.219186279296874,1.0574889457702636,-9.139415924835205,-2.442085693359375
1763694535137146000,10.22914599609375,1.3645453086853025,-9.05921016921997,-1.5218144302368164
1763694535147106300,10.239106201171875,1.458218448638916,-8.967033405303955,-0.7978677032470702
1763694535157066200,10.249066162109376,1.3572130661010742,-8.809614646148681,-0.36092590026855464
1763694535167026200,10.259026123046874,1.2071265495300292,-8.734496569061278,-0.14050970993041992
1763694535176986000,10.268986083984375,1.0245686729431152,-8.745719389343261,-0.10160393295288085
1763694535186946300,10.2789462890625,0.8755296195983886,-8.814552687072753,-0.19946692581176756
1763694535196906200,10.28890625,0.8981248977661133,-8.909422927856445,-0.43843817901611326
1763694535206866200,10.2988662109375,0.9382277755737304,-9.015216713714599,-0.7389104873657226
1763694535216826400,10.308826416015625,0.8462006492614745,-9.124601802062987,-0.9599252281188965
1763694535226785500,10.31878564453125,0.7739256866455078,-9.264961874389648,-1.1065700798034668
1763694535236745500,10.328745361328124,0.6911760917663574,-9.334543360137939,-1.0839748016357422
1763694535246705400,10.338705322265625,0.6043862815856933,-9.409960712432861,-0.9138368461608887
1763694535256665300,10.348665283203125,0.6105214233398437,-9.400383905792236,-0.6685808135986328
1763694535266625300,10.358625244140624,0.6175543907165527,-9.30850641708374,-0.43978491744995113
1763694535276585200,10.368585205078125,0.6200982299804687,-9.230844500732422,-0.3167828071594238
1763694535286545200,10.378545166015625,0.7038952880859375,-9.27588541946411,-0.3142389678955078
1763694535296505000,10.388505126953126,0.856824919128418,-9.418490055847167,-0.4644751220703125
1763694535306465300,10.39846533203125,1.061080248260498,-9.640851535034178,-0.7242460021972655
1763694535316425200,10.40842529296875,1.1804910560607909,-9.810390940093994,-1.1245265922546386
1763694535326385200,10.41838525390625,1.1701660614013671,-9.861866275787353,-1.7229273696899412
1763694535336345300,10.428345458984374,1.2026374214172362,-9.903615167236328,-2.5074773262023924
1763694535346304500,10.438304443359375,1.1207856521606445,-9.86994670639038,-3.180547267913818
1763694535356264400,10.448264404296875,0.9356839363098144,-9.83792425918579,-3.5871126373291014
1763694535366224400,10.458224365234376,1.0139444030761717,-9.922469505310058,-3.727771984863281
1763694535376184300,10.468184326171874,1.3839981971740722,-10.155155979156493,-3.527856146240234
1763694535386144500,10.47814453125,1.6775871757507324,-10.575039095306396,-3.111713970184326
1763694535396104400,10.4881044921875,1.712303099822998,-11.106851139068603,-2.63676421585083
1763694535406064400,10.498064453125,1.6603788513183593,-11.61232696456909,-2.1815666252136228
1763694535416024300,10.5080244140625,1.6614263145446777,-12.00228255996704,-1.913416039276123
1763694535425984300,10.517984375,1.813757395172119,-12.47498775024414,-2.0115783073425293
1763694535435944200,10.527944091796876,2.5739164222717283,-13.306075001525878,-2.5845406921386718
1763694535445904100,10.537904052734374,3.6783915756225585,-14.284555292510985,-3.450044592285156
1763694535455864300,10.5478642578125,3.6824317909240722,-14.976180297088622,-3.929333837127685
1763694535465823500,10.557823486328125,3.452588431549072,-14.961964724731445,-4.224718466949462
1763694535475783400,10.567783447265626,2.9454665924072265,-14.239813648986816,-4.173243131256103
1763694535485743400,10.577743408203125,2.286761860656738,-13.334506146240233,-3.5932477790832515
1763694535495703300,10.587703369140625,1.9598036964416503,-12.77560969619751,-2.7314848190307615
1763694535505663500,10.59766357421875,1.9228432083129883,-12.498780129241943,-1.922244657897949
1763694535515623400,10.60762353515625,1.9418471839904785,-12.46181964111328,-0.9726444244384765
1763694535525583400,10.617583251953125,1.8019360244750975,-12.600683337402343,0.5313631309509277
1763694535535543600,10.62754345703125,1.6282067665100097,-12.699294518280029,2.8664579376220702
1763694535545503500,10.63750341796875,1.3108254089355469,-12.839953865814207,5.740248117828369
1763694535555463400,10.64746337890625,0.4599859939575195,-12.93392628097534,8.402600363922119
1763694535565423400,10.65742333984375,-0.3076549133300781,-13.121571836090087,9.985766211700438
1763694535575382300,10.66738232421875,-0.865054987335205,-13.327772454071043,10.18224038543701
1763694535585342500,10.677342529296874,-1.7034744812011717,-13.333757958221435,9.126098178100586
1763694535595302400,10.687302490234375,-1.454926421356201,-13.045107020568848,6.724564275360107
1763694535605262300,10.697262451171875,0.035464112091064454,-12.35991643295288,3.4712931320190425
1763694535615222300,10.70722216796875,1.122431665802002,-11.71587618637085,0.6009446166992187
1763694535625182500,10.717182373046874,1.7353472908020018,-11.334749209594726,-0.9464578437805176
1763694535635142400,10.727142333984375,2.1926398078918456,-10.980108088684082,-2.429216859436035
1763694535645102300,10.737102294921876,2.3861212295532224,-10.831368310546875,-3.6412814498901365
1763694535655062500,10.7470625,2.3062147491455076,-10.52805288772583,-4.176984071350097
1763694535665022500,10.7570224609375,2.1136311531066894,-10.01674119567871,-4.14346524810791
1763694535674982400,10.766982421875,1.8161515968322752,-9.430012151336669,-3.6182372589111327
1763694535684942300,10.7769423828125,1.9470845001220702,-9.163806854248046,-2.6906337532043456
1763694535694901200,10.7869013671875,1.7655740867614744,-8.979902239227295,-1.432031867980957
1763694535704861400,10.796861328125,1.0366893188476562,-8.34394242324829,-0.1470937644958496
1763694535714821400,10.8068212890625,0.6262333717346191,-7.413645440673828,0.912340470123291
1763694535724781300,10.81678125,0.7438485282897949,-6.444442681121826,1.7422306205749511
1763694535734741200,10.8267412109375,0.9590274024963379,-5.52207649154663,2.369810730743408
1763694535744701400,10.836701416015625,1.0663175643920897,-4.774935935974121,2.712630480957031
1763694535754661400,10.846661376953126,0.8375216682434081,-4.257938014984131,2.8350340408325194
1763694535764621300,10.856621337890624,0.6847416748046875,-3.8597523513793943,2.639308055114746
1763694535774581500,10.86658154296875,0.7158662963867187,-3.7392940803527828,2.254889051055908
1763694535784541400,10.87654150390625,0.7787140899658203,-3.8112697677612304,1.8418892646789549
1763694535794501400,10.88650146484375,0.8237550086975097,-3.8890813217163083,1.456871710205078
1763694535804461300,10.89646142578125,0.7083844161987304,-3.9451954231262203,1.1550526634216307
1763694535814421500,10.90642138671875,0.5054758255004882,-4.00938995513916,1.0229226593017577
1763694535824380400,10.91638037109375,0.28490999755859375,-4.0092403175354,1.1183914505004882
1763694535834340400,10.92634033203125,0.2867056488037109,-3.929483474731445,1.3364134391784668
1763694535844300300,10.93630029296875,0.6558616172790527,-3.7280712600708004,1.5402198554992674
1763694535854260500,10.946260498046875,1.3986626823425292,-3.571849601745605,1.589001714324951
1763694535864220400,10.956220458984374,2.309357138824463,-3.6092590026855467,1.409137314605713
1763694535874180400,10.966180419921875,3.310881620788574,-3.911526962280273,1.0667664772033691
1763694535884140300,10.976140380859375,4.547337140655517,-4.60270305404663,0.47494975433349607
1763694535894100500,10.9861005859375,6.151302615356445,-5.681141264343261,-0.33518823242187495
1763694535904060400,10.996060302734374,8.431480421447754,-7.187991934204101,-1.1194389137268066
1763694535914020400,11.006020263671875,11.426177785491943,-9.150339469909667,-1.6795324645996093
1763694535923980300,11.015980224609375,13.648595476531982,-11.395352439117431,-2.0060417160034176
1763694535933939200,11.025939208984376,14.069974968719482,-13.561955303955077,-2.4883237129211424
1763694535943899400,11.0358994140625,13.103764961242675,-15.319299322509766,-3.2908301818847656
1763694535953858800,11.04585888671875,11.694328371429442,-16.52148783111572,-4.178181172180175
1763694535963819000,11.055819091796875,9.988160413360594,-16.80430290222168,-4.640860643005371
1763694535973779000,11.065779052734374,8.335263442230223,-16.001497158050537,-3.9872435897827145
1763694535983739000,11.07573876953125,6.95904640045166,-14.724789122772217,-1.9062334342956542
1763694535993698800,11.08569873046875,6.247220319366455,-12.811223445892333,0.11611878051757812
1763694536003659000,11.095658935546876,6.281337693023681,-10.014496631622315,1.0586860466003418
1763694536013619000,11.105618896484375,7.063643085479736,-6.9153522201538085,1.3831003715515136
1763694536023579000,11.115578857421875,7.375787126922607,-4.4662335594177245,2.0364181495666505
1763694536033538800,11.125538818359376,6.404040528106689,-3.4570775596618653,3.184587483215332
1763694536043499000,11.1354990234375,4.842572132873535,-4.378246648406982,4.3819875885009765
1763694536053458000,11.1454580078125,4.1660605262756345,-6.814795750427246,5.10772996673584
1763694536063417900,11.15541796875,3.378517817687988,-9.318831411743163,5.059546658325195
1763694536073377800,11.165377685546876,2.0950760902404784,-12.052261519622801,4.894346743774414
1763694536083338000,11.175337890625,2.95609086227417,-15.643414372253417,4.674229828643798
1763694536093298000,11.1852978515625,5.495291360473632,-18.772037391662597,3.619135084533691
1763694536103257900,11.1952578125,3.672406071472168,-18.314295961761474,1.847575493621826
1763694536113217800,11.2052177734375,1.1575965026855468,-13.759476940917969,0.5940612869262695
1763694536123178000,11.215177978515625,-0.07900865478515624,-9.159168088531494,0.09666589202880858
1763694536133138000,11.225137939453125,-1.9717747047424314,-6.459256803894043,0.08678981018066406
1763694536143097900,11.235097900390626,-3.727921622467041,-5.021089794158935,-0.17163433151245117
1763694536153057800,11.245057861328124,-4.651784188079834,-4.320636170959473,-0.9135375709533691
1763694536163016700,11.2550166015625,-4.472667976379395,-4.210802169799805,-1.9831471626281738
1763694536172977000,11.264976806640625,-2.982576718139648,-5.177161814880371,-2.8070518089294434
1763694536182936800,11.274936767578126,-1.1339537612915038,-7.088482927703857,-3.425803300476074
1763694536192896800,11.284896728515625,0.1701379554748535,-9.581894319152832,-3.5181297019958495
1763694536202857000,11.29485693359375,0.783352855682373,-11.863269226074218,-3.2460885383605955
1763694536212817000,11.30481689453125,0.8225579078674315,-13.148057691955566,-3.1069255668640134
1763694536222776800,11.31477685546875,0.5681739814758301,-13.692588932037353,-2.9414263771057128
1763694536232736800,11.32473681640625,0.5015852478027344,-13.545495167541503,-2.648136673736572
1763694536242697000,11.334697021484375,0.6845920372009276,-12.757054633331299,-1.9297265380859374
1763694536252657000,11.344656982421874,1.2268787132263184,-11.439645169830321,-0.650624301147461
1763694536262616800,11.354616943359375,1.7586907569885253,-9.815777893829345,0.5738602104187012
1763694536272576800,11.36457666015625,1.9393033447265624,-8.247276531219482,1.5230115310668944
1763694536282536000,11.374535888671875,2.05572140045166,-7.20774409790039,2.0138228713989257
1763694536292496000,11.384495849609374,1.7521067024230956,-6.779630913543701,2.3527520439147946
1763694536302455800,11.394455810546875,1.0640730003356933,-6.69688131866455,2.46423205871582
1763694536312415700,11.404415771484375,0.30795418853759765,-6.85684391708374,2.312499528503418
1763694536322376000,11.4143759765625,-0.1815104133605957,-7.325209616851806,1.7791911087036132
1763694536332335900,11.4243359375,-0.49365445480346676,-7.959972332000732,1.0754454582214354
1763694536342295800,11.4342958984375,-0.47165772705078124,-8.764274452209472,0.24660277099609373
1763694536352255700,11.444255859375,0.047584757995605464,-9.40472339630127,-0.6621463966369628
1763694536362216000,11.4542158203125,0.8462006492614745,-9.676614922332764,-1.5330372505187988
1763694536372176000,11.46417578125,1.4959271247863768,-9.784802909851074,-2.0632032806396485
1763694536382135800,11.4741357421875,1.876305913543701,-9.831489842224121,-2.2563854270935058
1763694536392095000,11.484094970703126,1.9883844787597655,-9.856479322052001,-2.244863331604004
1763694536402055000,11.494054931640624,1.6054618507385252,-9.739612353515625,-2.0504840843200682
1763694536412014800,11.504014892578125,1.0021230323791503,-9.443180260467528,-1.677736813354492
1763694536421974800,11.513974853515625,0.5449801528930663,-9.023596419525147,-1.1822867073059082
1763694536431934700,11.523934814453124,0.3526958320617676,-8.659528129577636,-0.6751648681640625
1763694536441895000,11.53389501953125,0.3625719139099121,-8.507645961761474,-0.28745383682250975
1763694536451854800,11.543854736328125,0.5238812507629395,-8.476521340179444,-0.08274959487915039
1763694536461814800,11.553814697265626,0.7553706237792969,-8.504802847290039,-0.20679916839599607
1763694536471774700,11.563774658203124,0.9817723182678222,-8.57393542022705,-0.5530605834960938
1763694536481735000,11.57373486328125,1.0402806213378906,-8.685116159820556,-0.9316437210083007
1763694536491694800,11.58369482421875,1.0766425590515136,-8.930072917175293,-1.1915642387390135
1763694536501654800,11.59365478515625,1.1589432411193847,-9.33978067626953,-1.2849381034851073
1763694536511614000,11.603614013671875,1.4229039741516112,-10.043077413940429,-1.1016320388793945
1763694536521574100,11.61357421875,1.7902642913818358,-10.919355221557616,-0.5238812507629395
1763694536531534000,11.6235341796875,1.7980454467773437,-11.455357118225097,0.0962169792175293
1763694536541494000,11.633493896484374,1.6823755790710448,-11.342979277801513,0.20530279235839843
1763694536551454000,11.643453857421875,1.5101426971435545,-10.69385135269165,-0.5599439132690429
1763694536561414000,11.653413818359375,1.1272200691223144,-9.804704711151123,-2.2144868980407715
1763694536571373800,11.663373779296874,0.8880991783142089,-8.965686666870116,-4.103811283111572
1763694536581333800,11.673333740234375,0.734870272064209,-8.591592657470702,-5.544821407318115
1763694536591293700,11.683293701171875,0.744447078704834,-8.970175794982909,-6.354660118865967
1763694536601254000,11.69325390625,0.8711901290893554,-9.898677126312256,-6.637924102783202
1763694536611213800,11.7032138671875,1.144727668762207,-11.065700798034667,-6.2584431396484375
1763694536621173000,11.713173095703125,1.4085387641906737,-12.262951265716552,-5.421968934631347
1763694536631133000,11.7231328125,1.730708525085449,-13.392864811706541,-4.599560664367676
1763694536641093000,11.733093017578126,2.3259669128417966,-14.615703309631346,-3.8489784439086914
1763694536651053000,11.743052978515625,3.440467785644531,-15.996110204315185,-3.08343246307373
1763694536661013000,11.753012939453125,4.828206922912598,-17.035493000030517,-2.4817396583557128
1763694536670973000,11.762972900390626,4.321533996582031,-16.697760928344724,-1.8011878364562988
1763694536680933000,11.77293310546875,3.2472856391906735,-15.136142895507811,-1.5964835945129394
1763694536690893000,11.78289306640625,3.1311668586730956,-13.910461283111571,-1.828421880340576
1763694536700853000,11.79285302734375,3.123086428070068,-13.18277361602783,-2.025045691680908
1763694536710813000,11.80281298828125,2.831891651153564,-12.77516078338623,-1.9963152717590331
1763694536720772900,11.81277294921875,2.6536732650756836,-12.814216197967529,-1.1342530364990233
1763694536730732000,11.82273193359375,2.2896049751281735,-13.097779457092285,1.016937155151367
1763694536740692000,11.83269189453125,1.1575965026855468,-13.474566943359374,4.169951103973388
1763694536750652000,11.84265185546875,-0.7056909393310546,-13.65577808151245,7.237073068237304
1763694536760612000,11.852612060546875,-1.808669716644287,-13.8151421295166,9.081506172180175
1763694536770572000,11.862572021484375,-2.276436865997314,-14.375385317993164,9.826551801300049
1763694536780532000,11.872531982421876,-2.7629087158203123,-14.924704961395262,9.833734406280517
1763694536790492000,11.882491943359375,-1.6623241401672362,-14.643685541534422,8.068010681915283
1763694536800452000,11.8924521484375,0.9513958847045898,-13.507187940979003,4.406677793121338
1763694536810412000,11.902412109375,2.8796260467529295,-12.614300359344481,1.0332476539611817
1763694536820372000,11.9123720703125,3.0454245117187497,-12.035053195190429,-0.5759551368713378
1763694536830332000,11.922331787109375,2.373102758026123,-11.104905850219726,-2.0519804603576657
1763694536840291000,11.932291015625,1.4808137268066406,-10.132859976196288,-3.769221601104736
1763694536850251000,11.9422509765625,1.0172364303588866,-9.431209252166747,-4.690540327453613
1763694536860211000,11.9522109375,0.9720458740234375,-8.805424793243407,-4.74321276397705
1763694536870171000,11.9621708984375,1.2012906829833985,-8.14073455734253,-4.479700943756103
1763694536880131000,11.972131103515625,1.3293804718017577,-7.830386167144775,-3.802590786743164
1763694536890091000,11.982091064453124,1.1035773277282714,-7.478139247894287,-2.5775077247619627
1763694536900051000,11.992051025390625,0.6919242797851562,-6.8216790802001945,-1.2533645690917967
1763694536910011000,12.002010986328125,0.47749359359741206,-5.923554182434081,-0.010175357055664061
1763694536919971000,12.01197119140625,0.6652887863159179,-5.04383470993042,1.1384428894042968
1763694536929931000,12.021930908203124,0.8288426872253417,-4.313154290771484,2.072181536865234
1763694536939891000,12.031890869140625,0.7517793212890624,-3.699640115356445,2.672976515960693
1763694536949849900,12.041849853515625,0.7543231605529784,-3.2843957649230955,2.8848633628845213
1763694536959810000,12.05181005859375,0.8134300140380859,-3.1712697364807125,2.7896938468933103
1763694536969770000,12.06177001953125,0.8617629600524902,-3.2071827613830566,2.5674820053100587
1763694536979730000,12.07172998046875,0.9302969825744628,-3.301903364562988,2.162413011932373
1763694536989689900,12.08168994140625,0.8961796089172362,-3.3710359375,1.6322469818115233
1763694536999650000,12.091650146484374,0.6404489440917969,-3.426551488494873,1.1483189712524413
1763694537009610000,12.10160986328125,0.37918168792724605,-3.3373674766540526,0.7830535804748535
1763694537019570000,12.11156982421875,0.2632125450134277,-3.193416101837158,0.6262333717346191
1763694537029529900,12.12152978515625,0.34715924072265625,-3.1274259185791013,0.7567173622131347
1763694537039490000,12.131489990234375,0.7882908966064452,-3.169025172424316,0.9943418769836425
1763694537049450000,12.141449951171875,1.6747440612792968,-3.4563293716430663,1.1782464920043945
1763694537059409000,12.151408935546876,2.7060464263916013,-3.9841012001037597,1.1272200691223144
1763694537069368800,12.161368896484374,3.7282208976745603,-4.740519287109374,0.8134300140380859
1763694537079329000,12.1713291015625,4.790647884368896,-5.810278516387939,0.4944026428222656
1763694537089289000,12.1812890625,6.615628099822998,-7.305756728363036,0.23388357467651366
1763694537099249000,12.191248779296876,10.312275463104248,-9.326313291931152,-0.13826514587402344
1763694537109208800,12.201208740234375,13.982885883331297,-11.787851873779296,-0.5826888290405273
1763694537119169000,12.2111689453125,15.71883172454834,-14.40890414123535,-1.2063783615112305
1763694537129129000,12.22112890625,15.292963104248045,-16.944513336944578,-2.082656169128418
1763694537139089000,12.2310888671875,13.612383176422119,-18.8962366027832,-3.430292428588867
1763694537149048800,12.241048828125,11.39520280151367,-19.379266787719725,-4.686350474548339
1763694537159009000,12.251009033203125,8.817695076751708,-18.120215989685057,-4.830750762176513
1763694537168968000,12.260968017578126,6.133495740509033,-16.112079347229002,-3.0391397323608396
1763694537178927900,12.270927978515624,4.862324296569824,-13.660566484832763,-0.805050308227539
1763694537188887800,12.2808876953125,5.163844068145751,-10.404452227020263,0.3003226707458496
1763694537198848000,12.290847900390625,6.185419989013671,-6.940341699981689,0.5189432098388671
1763694537208808000,12.300807861328124,6.71648384475708,-3.9728783798217773,0.6498761131286621
1763694537218768000,12.310767822265625,6.379948873901367,-2.2279542823791503,1.2657844902038573
1763694537228727800,12.320727783203125,4.8494554626464845,-2.272247013092041,2.493710666656494
1763694537238688000,12.33068798828125,2.8262054222106934,-4.1934442077636715,3.3411084167480465
1763694537248648000,12.34064794921875,0.8770259956359863,-6.629694034576415,3.525162669372558
1763694537258607900,12.35060791015625,-0.38456864166259763,-9.363573055267333,4.069843547058105
1763694537268567800,12.36056787109375,1.3588590797424316,-13.582006742858885,5.530905110168456
1763694537278527000,12.37052685546875,5.4327428421020505,-18.40153468475342,6.617124475860595
1763694537288487000,12.38048681640625,6.326079336547851,-21.111022776031493,5.4321442916870115
1763694537298446800,12.39044677734375,2.2834698333740233,-19.202395140075684,2.7459996665954587
1763694537308406800,12.40040673828125,0.003890577697753906,-13.945925395202636,0.45235447616577146
1763694537318367000,12.410366943359374,-1.485602130126953,-9.386766883850097,-0.7317278823852539
1763694537328327000,12.420326904296875,-3.3467946456909177,-6.400299588012695,-1.0609306106567382
1763694537338286800,12.430286865234375,-4.146458000183105,-4.716277995300293,-1.4908394462585448
1763694537348246800,12.440246826171874,-4.04769718170166,-4.0075943038940425,-1.7227777320861815
1763694537358207000,12.45020703125,-2.7741315361022947,-4.175936608123779,-1.7890671905517577
1763694537368167000,12.4601669921875,-1.2722189071655272,-5.4029649589538575,-2.0491373458862303
1763694537378125800,12.470125732421875,-0.4215291297912597,-7.307402742004394,-2.258031440734863
1763694537388085800,12.480085693359374,-0.2962824554443359,-9.151237295532226,-2.5192986968994138
1763694537398046000,12.4900458984375,-0.20260931549072264,-10.878354518127441,-2.6210522674560544
1763694537408006000,12.500005859375,0.20994155807495116,-12.300809579467773,-2.47725053024292
1763694537417965800,12.5099658203125,0.4676175117492676,-13.216741352081298,-2.2158336364746094
1763694537427925800,12.51992578125,0.8511386901855468,-13.69378603286743,-1.599925259399414
1763694537437886000,12.529885986328125,1.3637971206665038,-12.99228494644165,-0.33907881011962887
1763694537447846000,12.539845947265626,1.8960580772399902,-11.105354763031006,0.5873275947570801
1763694537457805800,12.549805908203124,2.436249826812744,-9.197325677490234,1.2141595169067383
1763694537467765800,12.559765869140625,2.5082255142211913,-7.940070530700683,1.915361328125
1763694537477725000,12.569724853515625,2.2468086204528808,-7.493402283477783,2.401833177947998
1763694537487684900,12.579684814453126,1.6594810256958006,-7.388805598449706,2.516754857635498
1763694537497644800,12.589644775390624,0.8641571617126464,-7.362170104980469,2.124704335784912
1763694537507604700,12.599604736328125,0.03426701126098632,-7.4877160545349115,1.4475941787719726
1763694537517565000,12.60956494140625,-0.41419688720703124,-7.85866767425537,0.6699275520324707
1763694537527524900,12.61952490234375,-0.23567922592163085,-8.418162674713134,-0.5276221908569335
1763694537537484800,12.62948486328125,0.24750059661865234,-9.108590578460692,-1.7673697380065916
1763694537547444700,12.63944482421875,0.8432078971862792,-9.650129066467285,-3.040187195587158
1763694537557405000,12.649405029296876,1.1635820068359375,-9.923965881347655,-4.144512711334229
1763694537567364900,12.65936474609375,1.2219406723022461,-9.944466233062743,-4.857086980438232
1763694537577324800,12.66932470703125,1.3365630767822265,-9.944765508270264,-4.904372463226318
1763694537587284000,12.679283935546875,1.4782698875427245,-9.861567000579834,-4.3071687866210935
