time,seconds_elapsed,z,y,x
1763697196310634500,0.044634521484375,9.528174419403076,1.3551181396484375,1.4803648139953614
1763697196320595500,0.054595458984375,9.622595747375488,1.3727753768920898,1.3670891479492187
1763697196330556700,0.064556640625,9.769988787078857,1.4598644622802734,1.30229606552124
1763697196340517600,0.074517578125,9.849745629882811,1.4589666366577148,1.2479776153564452
1763697196350478600,0.084478515625,9.903465529632568,1.4324807807922362,1.1900678627014158
1763697196360439600,0.094439453125,9.928903922271727,1.4356231704711913,1.1819874320983885
1763697196370400800,0.10440087890625,9.853037657165526,1.407042388153076,1.210418576812744
1763697196380361500,0.114361572265625,9.713276135253906,1.3596072677612303,1.2728174575805664
1763697196390321400,0.1243212890625,9.627683425903319,1.322796417236328,1.3512275619506835
1763697196400282600,0.13428271484375,9.549422959136962,1.310077220916748,1.4296376663208008
1763697196410243600,0.14424365234375,9.447519750976562,1.322796417236328,1.4947300239562988
1763697196420204500,0.15420458984375,9.443479535675047,1.3407529296874998,1.4966753128051757
1763697196430165500,0.16416552734375,9.49315922012329,1.3467384338378905,1.418714121246338
1763697196440126700,0.174126708984375,9.600299744415283,1.365592771911621,1.307533381652832
1763697196450087400,0.18408740234375,9.72285294189453,1.3741221153259278,1.2300211029052734
1763697196460049400,0.19404931640625,9.72958663406372,1.3907318893432616,1.1900678627014158
1763697196470010600,0.2040107421875,9.688735568237304,1.433827519226074,1.1813888816833495
1763697196479970600,0.213970458984375,9.604938510131836,1.4884452445983887,1.1997943069458008
1763697196489931500,0.223931640625,9.519345800781249,1.5228618934631346,1.2196961082458495
1763697196499892500,0.233892578125,9.451111053466796,1.5198691413879393,1.2228384979248046
1763697196509853400,0.243853515625,9.4496146774292,1.483806478881836,1.2458826889038086
1763697196519814400,0.253814453125,9.585036708831787,1.4674959800720213,1.2862848419189452
1763697196529775400,0.263775390625,9.677063835144043,1.3952210174560546,1.2964601989746094
1763697196539736600,0.273736572265625,9.70444751663208,1.3165116378784179,1.3117232345581054
1763697196549697300,0.283697265625,9.69112976989746,1.2758102096557618,1.361851831817627
1763697196559657500,0.293657470703125,9.709535195159912,1.2865841171264647,1.4015057968139648
1763697196569618400,0.303618408203125,9.76130980606079,1.318307289123535,1.3865420364379881
1763697196579579600,0.31357958984375,9.815777893829345,1.3392565536499024,1.322197866821289
1763697196589540600,0.32354052734375,9.833285493469237,1.310077220916748,1.256357321166992
1763697196599501300,0.333501220703125,9.851990193939208,1.311872872161865,1.243039574432373
1763697196609462500,0.343462646484375,9.82565397567749,1.2817957138061522,1.2693757926940916
1763697196619423500,0.353423583984375,9.78779566192627,1.273116732788086,1.2442366752624512
1763697196629384400,0.363384521484375,9.808445651245117,1.2901754196166992,1.2279261764526366
1763697196639345400,0.373345458984375,9.748740247344971,1.3256395317077636,1.1887211242675781
1763697196649305600,0.3833056640625,9.721356565856933,1.3717279136657714,1.1426327423095703
1763697196659266600,0.3932666015625,9.75547393951416,1.4788684379577637,1.1225813034057617
1763697196669227300,0.403227294921875,9.771185887908935,1.5267524711608886,1.1685200477600097
1763697196679188500,0.4131884765625,9.759813430023193,1.5141829124450683,1.2288240020751953
1763697196689149400,0.4231494140625,9.939079279327393,1.3617021942138672,1.3335703247070312
1763697196699110400,0.4331103515625,10.01689083328247,1.134402674102783,1.5153800132751465
1763697196709071400,0.4430712890625,10.140641131591796,0.9665092826843261,1.497124225616455
1763697196719032600,0.453032470703125,10.101286441802978,0.8698433906555175,1.393724641418457
1763697196728992500,0.462992431640625,9.658808047485351,1.0353425804138183,1.690007096862793
1763697196738953500,0.472953369140625,9.710433020782471,1.3633482078552246,2.8948890823364257
1763697196748914400,0.48291455078125,8.973767097473145,1.2738649208068846,2.4179940391540526
1763697196758875400,0.49287548828125,8.849717523956299,1.5855600494384765,2.4115596221923825
1763697196768836600,0.502836669921875,9.580996493530273,1.786224076080322,2.555211721801758
1763697196778797300,0.51279736328125,10.294019675445556,1.6563386360168455,2.5053823997497555
1763697196788758500,0.522758544921875,10.262745416259765,1.8875287338256834,-1.237951895904541
1763697196798719500,0.532719482421875,10.633098485565185,2.813635863494873,-3.6209307357788085
1763697196808679700,0.5426796875,9.589974749755859,4.693084166717529,-3.0015806938171385
1763697196818640400,0.552640380859375,9.230844500732422,5.840505312347411,-3.0960020217895505
1763697196828601300,0.562601318359375,8.770110318756103,6.340893459320068,-1.6632219657897949
1763697196838562600,0.5725625,7.822904286956787,6.356306132507324,0.15876549758911132
1763697196848523300,0.582523193359375,6.841730519104003,6.05209288406372,1.2900257820129393
1763697196858484500,0.592484375,6.050297232818603,5.523123954772949,1.8915689491271972
1763697196868445400,0.602445556640625,5.302408489227295,5.088725991058349,2.232443410491943
1763697196878406400,0.612406494140625,5.259013584136962,4.09213955001831,2.3301567657470703
1763697196888366300,0.622366455078125,5.502773240661621,2.851793452453613,2.0542250244140625
1763697196898327600,0.63232763671875,6.1836243377685545,1.62162271194458,1.6157868453979491
1763697196908288500,0.64228857421875,10.556035119628906,0.4730044654846191,1.1742062767028807
1763697196918249500,0.65224951171875,17.24947477340698,1.0709563301086424,1.4935329231262207
1763697196928210400,0.66221044921875,13.314305069732665,1.8751088127136228,3.077746234130859
1763697196938171400,0.67217138671875,9.586533084869384,1.2328642173767088,3.126528092956543
1763697196948132600,0.682132568359375,9.988609326171874,0.6530185028076172,3.1090204933166503
1763697196958093300,0.69209326171875,9.643245736694336,0.5832873794555664,2.931251020050049
1763697196968053500,0.702053466796875,9.631125090789794,0.6911760917663574,2.9595325271606443
1763697196978014500,0.712014404296875,9.629628714752197,0.6636427726745605,3.23696064453125
1763697196987975400,0.721975341796875,9.693075058746338,0.6597521949768066,3.7304654617309567
1763697196997936400,0.731936279296875,10.289231272125244,0.5536591339111328,4.077325427246094
1763697197007897300,0.7418974609375,9.322123439025878,0.25827450408935543,4.220378976440429
1763697197017858600,0.751858642578125,9.405920497131348,0.5192424850463867,3.877409588623047
1763697197027819500,0.761819580078125,10.851719024658202,0.9036614891052246,3.3533787002563473
1763697197037780500,0.771780517578125,9.600000469207764,0.8602665840148925,3.8717233596801757
1763697197047740400,0.781740478515625,9.82535470046997,0.91293902053833,3.5160347755432126
1763697197057701600,0.79170166015625,8.996212738037109,0.6572083557128906,3.486855442810058
1763697197067662600,0.80166259765625,8.645462194824217,0.5274725532531738,3.178003428649902
1763697197077623300,0.811623291015625,8.438214113616944,0.41404724960327144,3.059490446472168
1763697197087584500,0.82158447265625,8.84313346939087,0.581641365814209,3.1105168693542478
1763697197097545500,0.83154541015625,8.426542380523681,1.2801497001647948,1.942745009613037
1763697197107506400,0.84150634765625,7.734019550323486,2.570175482177734,-0.601992079925537
1763697197117466400,0.85146630859375,7.620743884277343,3.512742748260498,0.012719196319580078
1763697197127427600,0.861427490234375,8.019378460693359,3.9127240631103515,1.4878466941833495
1763697197137388500,0.871388427734375,8.362048573303221,3.8455367790222166,1.6479589302062987
1763697197147349500,0.881349609375,8.533533267211913,3.467252916717529,0.9859621711730956
1763697197157310500,0.891310546875,8.485948509216309,3.0303111137390135,0.5731120223999023
1763697197167271400,0.901271484375,8.14672006149292,2.6843489738464354,0.7879916213989258
1763697197177232400,0.911232421875,8.030451643371581,2.110788038635254,1.568651000213623
1763697197187193300,0.921193359375,7.775169891357422,1.5068506698608397,2.1926398078918456
1763697197197153500,0.931153564453125,7.644835538482665,1.2852373786926268,2.3656208778381345
1763697197207114500,0.941114501953125,7.86540136642456,1.3147159866333007,2.742857276916504
1763697197217075700,0.95107568359375,7.917175977325439,1.5044564682006836,3.136104899597168
1763697197227036400,0.961036376953125,8.091054872894286,1.4668974296569823,3.214963916778564
1763697197236997400,0.970997314453125,8.712050928497314,0.9976339042663573,3.079242610168457
1763697197246958600,0.98095849609375,9.04649097290039,0.35658640975952144,2.5034371109008786
1763697197256919300,0.990919189453125,9.018059828186034,0.022146365356445312,2.0575170516967773
1763697197266879500,1.00087939453125,8.68257232055664,-0.0626981559753418,2.1461025131225586
1763697197276840400,1.01084033203125,6.889315277099609,-0.184503165435791,2.199373500061035
1763697197286801700,1.0208017578125,3.7755063804626463,-0.4830301849365234,2.583343591308594
1763697197296762400,1.030762451171875,4.250456134796142,-0.04025251541137695,3.168276984405517
1763697197306723600,1.0407236328125,8.999205490112304,0.8114847251892089,3.708169458770752
1763697197316684500,1.0506845703125,9.315689022064209,0.047285482788085934,3.9653964996337887
1763697197326645200,1.060645263671875,9.872789820861815,0.512658430480957,4.099022879791259
1763697197336606500,1.0706064453125,10.297012427520752,0.7119757186889648,3.957016793823242
1763697197346566400,1.08056640625,9.605686698150635,0.39713820037841796,3.567061198425293
1763697197356527600,1.090527587890625,8.586355341339111,-0.14200608596801756,3.6845267173767087
1763697197366488600,1.100488525390625,10.122534981536864,-0.626981559753418,3.69036258392334
1763697197376449500,1.110449462890625,11.081263108825683,-1.2641384765625,3.125779904937744
1763697197386410500,1.120410400390625,10.002675260925292,-1.6077064147949218,2.141912660217285
1763697197396371500,1.130371337890625,8.665064720916748,-1.5071499450683592,1.4435539634704588
1763697197406332400,1.14033251953125,9.431209252166747,-1.094299796295166,1.2229881355285643
1763697197416292400,1.150292236328125,11.398794104003905,-1.0989385620117187,0.7170633972167968
1763697197426253600,1.160253662109375,10.943297238159179,-0.6177040283203125,-0.1318307289123535
1763697197436214500,1.170214599609375,10.724527061462402,-0.09202712631225586,-0.29269115295410153
1763697197446175500,1.180175537109375,12.593800007629394,0.24390929412841794,-0.5843348426818847
1763697197456136200,1.19013623046875,13.252953652191161,-0.2045546043395996,-1.1113584831237793
1763697197466097400,1.200097412109375,9.743203656005859,-0.26051906814575193,-1.039981346130371
1763697197476058400,1.210058349609375,8.021623024749756,0.323666136932373,-1.2993033134460448
1763697197486018300,1.220018310546875,8.573636145019531,0.8476970252990722,-2.1555296821594236
1763697197495979300,1.229979248046875,9.185055393981933,1.1725602630615233,-3.2046389221191403
1763697197505940200,1.239940185546875,9.112780431365966,1.296759474182129,-4.764610941314697
1763697197515901400,1.2499013671875,9.396792603302002,1.387290224456787,-5.424512773895263
1763697197525862100,1.259862060546875,8.30563519668579,0.9814730430603027,-5.231929177856445
1763697197535823400,1.2698232421875,7.921964380645751,1.1119570335388183,-5.659443811798095
1763697197545784300,1.279784423828125,7.29737702255249,1.1655272956848144,-4.648791436004639
1763697197555744500,1.28974462890625,7.240514733123779,1.1465233200073242,-3.435978657531738
1763697197565705200,1.299705322265625,8.597578161621094,0.6530185028076172,-3.271078018188476
1763697197575666400,1.30966650390625,10.735600244140624,0.020649989318847654,-3.402160559082031
1763697197585627400,1.31962744140625,12.422016038513183,-0.5662286926269531,-4.378695561218262
1763697197595588000,1.329588134765625,11.136180109405517,-1.0316016403198243,-6.401795964050293
1763697197605549300,1.33954931640625,6.840683055877685,-0.0896329246520996,-7.2252516975402825
1763697197615510300,1.34951025390625,5.478232673645019,0.7523778717041015,-7.037905417633056
1763697197625470500,1.359470458984375,5.622184048461913,0.766743081665039,-7.915081050872803
1763697197635431200,1.36943115234375,5.443067836761474,0.7851485069274902,-7.5519105865478515
1763697197645392400,1.379392333984375,6.088005908966064,0.7947253135681152,-7.113472407531738
1763697197655353300,1.389353271484375,6.574178483581543,0.8252513847351074,-7.802553572845459
1763697197665314300,1.399314208984375,6.246771406555175,0.6287772109985351,-8.432078971862792
1763697197675275300,1.409275146484375,5.921459255981445,0.4438251327514648,-8.32613554840088
1763697197685236200,1.419236328125,6.031293257141113,0.8046013954162597,-7.7030445663452145
1763697197695196400,1.429196533203125,6.669198361968994,1.1412860038757324,-7.158064413452148
1763697197705157400,1.439157470703125,7.1312792823791495,0.900818374633789,-7.843105363464355
1763697197715118300,1.449118408203125,7.702146740722656,0.3597287994384765,-8.28079535446167
1763697197725079300,1.459079345703125,7.794473142242431,-0.14155717315673827,-8.780884226226807
1763697197735040500,1.46904052734375,7.942913645172118,-0.6030395431518555,-9.66524246444702
1763697197745001200,1.479001220703125,7.86540136642456,-0.5174468338012695,-10.673500638580322
1763697197754962200,1.488962158203125,7.387907772827148,-0.222810391998291,-11.138125398254394
1763697197764922400,1.49892236328125,6.8511576881408685,-0.6168062026977539,-10.27845736465454
1763697197774883300,1.50888330078125,6.472574550628662,0.35134909362792965,-8.686612535858155
1763697197784844300,1.51884423828125,6.577021598052978,0.850989052581787,-8.003067961883545
1763697197794805200,1.52880517578125,6.905775413513183,0.842758984375,-7.368005971527099
1763697197804766500,1.538766357421875,7.098807922363281,0.6560112548828124,-7.085490175628662
1763697197814727400,1.5487275390625,7.16285281677246,0.3350385948181152,-6.658274816894531
1763697197824687400,1.558687255859375,7.044040559387207,0.5346551582336425,-6.5020531585693355
1763697197834648300,1.5686484375,6.5482911781311035,0.44547114639282226,-8.167519688415528
1763697197844609300,1.578609375,5.261707061004638,-0.04234744186401367,-8.672546601104736
1763697197854570500,1.588570556640625,4.12446127243042,-0.43978491744995113,-8.647257846069335
1763697197864531200,1.59853125,3.775805655670166,-1.0452186622619628,-8.493280751800537
1763697197874492400,1.608492431640625,4.192845657348633,-1.157446865081787,-7.821557548522949
1763697197884453400,1.618453369140625,5.024082546234131,-1.194407353210449,-7.369801622772217
1763697197894413300,1.628413330078125,5.9503393135070795,-1.3564648780822752,-6.793547210693359
1763697197904374300,1.638374267578125,6.192153681182861,-1.6754922492980957,-6.299892755889892
1763697197914335200,1.648335205078125,5.96245995941162,-2.1281460006713866,-6.09728344039917
1763697197924296400,1.65829638671875,5.313182396697997,-2.274192301940918,-6.032340720367431
1763697197934257200,1.668257080078125,4.501996946716308,-2.249801372528076,-6.105663146209716
1763697197944218400,1.67821826171875,4.249857584381103,-2.2717981002807615,-6.45461803817749
1763697197954179300,1.688179443359375,4.337844495391845,-2.3329998802185057,-6.4837973709106445
1763697197964139300,1.69813916015625,4.698171845245361,-2.3183353950500485,-6.792050834655761
1763697197974100200,1.708100341796875,5.588814862823486,-2.511367903900146,-7.0944684318542475
1763697197984061200,1.718061279296875,5.648819541931152,-2.618957341003418,-6.96533117980957
1763697197994022400,1.7280224609375,5.884349130249023,-2.267757884979248,-6.764966428375244
1763697198003983400,1.7379833984375,5.36929649810791,-1.8168997848510742,-6.246172856140136
1763697198013944300,1.7479443359375,5.735010801696777,-1.4151228187561034,-6.0802247535705565
1763697198023904300,1.757904296875,5.2718824180603026,-1.8441338287353515,-5.3405660781860345
1763697198033865200,1.767865234375,4.586691830444336,-2.165555401611328,-5.140650239562988
1763697198043826400,1.777826416015625,3.9079356597900388,-2.3127988037109373,-5.4056584358215325
1763697198053787100,1.787787109375,3.277063522338867,-2.247856083679199,-6.1085062606811515
1763697198063748400,1.797748291015625,3.210624426269531,-2.040458364868164,-6.947225029754638
1763697198073709300,1.807709228515625,3.4653076278686523,-2.0157681602478026,-7.250989365386962
1763697198083669500,1.81766943359375,3.130119395446777,-2.372204932403564,-7.645284451293945
1763697198093630200,1.827630126953125,3.620481822967529,-2.5092729774475098,-8.217797923278809
1763697198103591200,1.837591064453125,3.9543233169555663,-2.608033795928955,-8.368034077453613
1763697198113552400,1.847552490234375,3.620481822967529,-2.9881133094787597,-8.364293137359619
1763697198123513300,1.857513427734375,3.8804023406982417,-3.1784523414611816,-8.654889363861084
1763697198133474300,1.867474365234375,3.9547722297668453,-2.7527333587646483,-9.213336901092529
1763697198143435300,1.877435302734375,3.5303999855041504,-2.833986577606201,-9.575459902191161
1763697198153395500,1.8873955078125,3.182642194366455,-3.0330045906066894,-10.019434672546387
1763697198163356400,1.8973564453125,2.6542718154907226,-3.1735143005371094,-10.294618225860596
1763697198173317000,1.907317138671875,2.38118318862915,-3.2028432708740233,-10.429292069244385
1763697198183278300,1.9172783203125,2.7693431327819824,-3.0802900733947753,-10.71869119491577
1763697198193239300,1.9272392578125,3.1859342216491697,-3.2134675407409667,-10.914866093444823
1763697198203200300,1.9372001953125,3.566911560821533,-3.3069910430908203,-11.039813492584228
1763697198213160200,1.94716015625,3.747075235748291,-3.209277687835693,-11.061959857940673
1763697198223121400,1.957121337890625,3.863194016265869,-3.216310655212402,-10.970381644439696
1763697198233082400,1.967082275390625,4.060266740417481,-3.3143232856750484,-10.829572659301757
1763697198243043300,1.977043212890625,4.178480447387695,-3.4638112518310544,-10.64357311782837
1763697198253004300,1.98700439453125,4.185962327575683,-3.725826696014404,-10.435876123809814
1763697198262965200,1.99696533203125,4.146458000183105,-3.8735190109252926,-10.331578713989257
1763697198272926200,2.00692626953125,4.082562743377685,-3.8468835174560545,-10.301202280426025
1763697198282886100,2.01688623046875,4.0057986526489255,-3.7138556877136226,-10.17625488128662
1763697198292847400,2.026847412109375,4.053383410644531,-3.5811271331787107,-9.955539415740967
1763697198302808300,2.036808349609375,4.291456838226318,-3.5173815139770506,-9.701305126953125
1763697198312769500,2.04676953125,4.632780212402343,-3.374477602386474,-9.23144305114746
1763697198322730200,2.056730224609375,5.24794040145874,-3.1636382186889644,-8.77849002456665
1763697198332691200,2.066691162109375,6.021866088104248,-2.977638677215576,-8.743923738098143
1763697198342651400,2.0766513671875,6.9421373512268065,-2.413953823852539,-8.825925144958495
1763697198352612400,2.0866123046875,7.536946826171874,-2.182763726043701,-9.089586602783202
1763697198362573300,2.0965732421875,7.570764924621582,-2.38118318862915,-9.517250874328612
1763697198372534300,2.1065341796875,7.222558220672607,-2.57930337600708,-10.002525623321533
1763697198382495500,2.11649560546875,6.891559841156005,-2.8036101440429686,-10.25376716003418
1763697198392456200,2.126456298828125,6.623259617614746,-2.923320227050781,-9.957933617401123
1763697198402416000,2.136416015625,6.2678703086853025,-2.9843723693847655,-9.2948893951416
1763697198412377300,2.14637744140625,5.519831927490234,-3.068319065093994,-8.423848903656005
1763697198422338300,2.15633837890625,4.737975447845459,-3.2900819938659667,-7.790432926940918
1763697198432299300,2.16629931640625,4.082712380981445,-3.733607851409912,-7.475445771026611
1763697198442260200,2.17626025390625,3.480720301055908,-4.043058415985107,-7.330895845794677
1763697198452221400,2.186221435546875,3.047669075775146,-4.153191692352294,-7.319673025512695
1763697198462181000,2.19618115234375,2.6969185325622558,-4.386775991821289,-7.35468822479248
1763697198472142000,2.20614208984375,2.427870121002197,-4.6636055587768555,-7.388955236053467
1763697198482103000,2.21610302734375,2.3132477165222167,-4.761019638824463,-7.572111663055419
1763697198492064000,2.22606396484375,2.251746661376953,-4.844218146514892,-7.636605470275878
1763697198502025200,2.236025146484375,2.203862628173828,-4.883572836303711,-7.601290995788574
1763697198511986000,2.24598583984375,2.1211130332946775,-4.910208329772949,-7.6367551078796385
1763697198521945900,2.25594580078125,2.114080065917969,-5.013308638763427,-7.672069582366943
1763697198531907000,2.265906982421875,2.019359462738037,-5.060444483947753,-7.695861961364746
1763697198541868000,2.275867919921875,2.0184616371154784,-5.1051861274719235,-7.765293809509277
1763697198551829000,2.2858291015625,2.360832474517822,-5.148431394958496,-8.014440419769286
1763697198561790000,2.2957900390625,2.7052982383728024,-5.262305611419677,-8.281393904876708
1763697198571751200,2.305751220703125,3.085377751922607,-5.416581980895995,-8.310423600006104
1763697198581711000,2.315711181640625,3.526659045410156,-5.73336478805542,-8.597877436828613
1763697198591672000,2.325672119140625,3.558831130218506,-6.157737032318115,-8.960299713134765
1763697198601633000,2.335633056640625,3.3131261848449705,-6.545597701263428,-9.117269559478759
1763697198611594000,2.345593994140625,2.7736826232910157,-6.7848682296752925,-9.205256470489502
1763697198621555200,2.35555517578125,2.145803237915039,-6.799981627655029,-9.260772021484375
1763697198631516000,2.365515869140625,1.7272668601989745,-6.802675104522705,-9.234435803222656
1763697198641476000,2.37547607421875,1.4591162742614745,-6.835445739746094,-9.286808964538574
1763697198651437000,2.38543701171875,1.3664905975341797,-6.778733087921142,-9.334842635345458
1763697198661398300,2.395398193359375,1.57044665145874,-6.524199523925781,-9.44288098526001
1763697198671359000,2.40535888671875,1.8953098892211913,-6.293907251739501,-9.746794958496093
1763697198681320000,2.41531982421875,2.067243495941162,-6.130951901245117,-10.030208580017089
1763697198691281200,2.42528125,2.156427507781982,-6.104017132568359,-10.322151544952392
1763697198701241000,2.435240966796875,2.198326036834717,-6.056282736968994,-10.494085151672362
1763697198711202000,2.4452021484375,2.172588368988037,-5.960215395355224,-10.471639511108398
1763697198721163000,2.4551630859375,2.1149778915405273,-5.712265885925293,-10.52131919555664
1763697198731124200,2.465124267578125,1.931222914123535,-5.441421823120117,-10.582371337890624
1763697198741085000,2.4750849609375,1.80672442779541,-5.224148022460938,-10.595389809417725
1763697198751046000,2.4850458984375,1.8049287765502928,-5.189132823181152,-10.47672718963623
1763697198761006000,2.495006103515625,1.8050784141540526,-5.210231725311279,-10.311227999877929
1763697198770967000,2.504967041015625,1.7067665084838866,-5.149179582977295,-10.078242250823974
1763697198780928300,2.51492822265625,1.7184382415771484,-5.0109144371032714,-9.855431858825684
1763697198790889000,2.524888916015625,1.7383400428771971,-4.846313072967529,-9.647734864807129
1763697198800850200,2.53485009765625,1.7708114028930664,-4.656722229003906,-9.568875847625732
1763697198810811100,2.54481103515625,1.8574515754699705,-4.442890093231201,-9.460388584899901
1763697198820771000,2.55477099609375,2.2738930267333983,-4.2515035980224605,-9.321674526214599
1763697198830732000,2.56473193359375,2.7482442306518555,-4.071938473510742,-9.161711927795409
1763697198840693000,2.57469287109375,2.680009483337402,-3.8654385803222655,-9.042450757598877
1763697198850654200,2.584654296875,2.252494849395752,-3.75395856552124,-8.959102612304687
1763697198860615000,2.594614990234375,3.2131682655334473,-3.8373067108154295,-8.476820615386963
1763697198870574800,2.604574951171875,4.950909757995605,-3.6219781990051265,-8.04406866531372
1763697198880536000,2.6145361328125,3.7749078300476073,-3.345896820068359,-8.142530208587646
1763697198890497000,2.6244970703125,3.4338837310791015,-3.360860580444336,-8.210914593505859
1763697198900458000,2.6344580078125,2.5393501358032227,-3.1952117530822752,-8.327033374023436
1763697198910419000,2.6444189453125,1.6319477066040038,-3.161543292236328,-8.845976583862305
1763697198920380200,2.654380126953125,2.89219560546875,-3.2855928657531734,-8.659827404785156
1763697198930340000,2.664340087890625,4.097526503753662,-3.0602386344909664,-8.290970711517334
1763697198940301000,2.674301025390625,4.535066857147217,-2.711283742523193,-7.849090867614746
1763697198950262000,2.684261962890625,3.1775545158386227,-2.260724917602539,-7.801356472015381
1763697198960223000,2.694222900390625,1.7190367919921874,-2.076221752166748,-8.977807312774658
1763697198970184200,2.70418408203125,1.1013327636718748,-2.0774188529968263,-8.926930527496337
1763697198980145000,2.714144775390625,1.2318167541503906,-2.2188263885498047,-8.057685687255859
1763697198990105000,2.72410498046875,2.1040543464660644,-2.4563012657165526,-6.816292126464844
1763697199000066000,2.734066162109375,2.4329577995300293,-2.578704825592041,-5.982661035919189
1763697199010027300,2.74402734375,2.323123798370361,-2.343624150085449,-5.742043769073486
1763697199019988000,2.753988037109375,2.1273978126525876,-2.3056161987304686,-6.057928750610351
1763697199029949000,2.763948974609375,1.6862661567687987,-2.1752818458557126,-6.9205895362854
1763697199039910100,2.77391015625,1.7477672119140624,-1.8477251312255858,-7.944110746002197
1763697199049870000,2.7838701171875,2.851943090057373,-2.1871032165527344,-7.601590270996093
1763697199059831000,2.7938310546875,3.353677975463867,-2.021903302001953,-6.892756941986083
1763697199069792000,2.8037919921875,3.547009759521484,-1.6377835731506347,-6.644657794952392
1763697199079753200,2.813753173828125,3.873369373321533,-1.3254898941040039,-6.622062516784667
1763697199089714200,2.823714111328125,4.2892122741699215,-1.2722189071655272,-6.965031904602051
1763697199099674000,2.833674072265625,4.479252030944824,-1.4917372718811035,-7.413046890258789
1763697199109635000,2.843635009765625,4.288464086151123,-1.992424694061279,-7.322216864776611
1763697199119596000,2.853595947265625,3.7120600364685057,-2.105550722503662,-7.568370722961426
1763697199129557200,2.86355712890625,3.0660745010375976,-2.0424036537170407,-7.963862909698486
1763697199139518000,2.87351806640625,3.1726164749145505,-2.372504207611084,-8.01294404373169
1763697199149479200,2.883479248046875,4.241028965759277,-1.7440262718200683,-9.826402163696288
1763697199159439000,2.893439208984375,4.348917678070068,-1.334917063140869,-10.008810402679442
1763697199169400000,2.903400146484375,3.5984850952148437,-0.5449801528930663,-10.383951875305176
1763697199179361000,2.913361083984375,0.9310451705932616,-0.08274959487915039,-10.159046556854248
1763697199189322000,2.923322021484375,0.01750759963989258,-0.6464344482421874,-6.645705258178711
1763697199199283200,2.933283203125,3.601926760101318,-1.3640963958740233,-4.080467816925049
1763697199209243100,2.9432431640625,5.733963338470459,-1.298555125427246,-3.8271313537597655
1763697199219203800,2.953203857421875,7.23976654510498,-1.3025953407287596,-4.773439559936524
1763697199229165000,2.9631650390625,7.06109924621582,-1.4380173721313476,-5.615599993896484
1763697199239126000,2.9731259765625,6.395960097503662,-2.0329764846801757,-5.983558861541748
1763697199249087000,2.9830869140625,6.424540879821777,-2.6752210800170895,-5.7511716629028315
1763697199259048000,2.9930478515625,6.772897221374511,-3.0780455093383785,-4.716128357696533
1763697199269008100,3.003008056640625,7.2252516975402825,-3.4466029273986813,-3.5824738716125486
1763697199278969000,3.012968994140625,7.270591891479492,-4.4476784965515135,-3.4070986000061034
1763697199288930300,3.022930419921875,7.407659936523437,-5.375132364654541,-3.978115695953369
1763697199298891000,3.03289111328125,7.841160074615478,-5.9503393135070795,-3.0692168907165525
1763697199308852000,3.04285205078125,7.681347113800048,-7.07980394668579,-2.50253928527832
1763697199318813200,3.052813232421875,3.5399767921447753,-7.895478524780273,-6.982689141845703
1763697199328773000,3.062773193359375,-0.7003039855957031,-6.935852571868896,-15.774048000335693
1763697199338734000,3.072734130859375,-4.014776908874511,-9.382128118133544,-18.055871820068358
1763697199348695000,3.082695068359375,-6.947225029754638,-13.033285649871825,-14.974534283447264
1763697199358656300,3.09265625,-0.3381809844970703,-12.115408588409423,-7.303212889099121
1763697199368617000,3.102616943359375,5.8454433532714845,-11.28177749786377,-5.485415278625488
1763697199378577000,3.112576904296875,7.794473142242431,-9.933093775177001,-4.2402807777404785
1763697199388538000,3.1225380859375,6.173149705505371,-3.302501914978027,-8.719383171081542
1763697199398499000,3.1324990234375,5.7974096824645995,-1.4270938270568847,-10.270975484466552
1763697199408460000,3.1424599609375,6.023811376953125,-0.8945335952758788,-11.493813982391357
1763697199418421000,3.1524208984375,6.442497392272949,-1.3341688751220702,-12.78219375076294
1763697199428381000,3.162380859375,5.882403841400146,-2.549675130462646,-12.000337271118163
1763697199438342100,3.172342041015625,4.29669415435791,-3.7376480667114254,-8.891167140197753
1763697199448303000,3.18230322265625,4.956745624542236,-3.6207810981750486,-7.779210106658935
1763697199458264000,3.19226416015625,6.526444087982178,-3.547009759521484,-8.502259008026122
1763697199468225300,3.202225341796875,9.106794927215576,-2.405574118041992,-7.690475007629394
1763697199478186200,3.212186279296875,9.72958663406372,0.2976291938781738,-6.726060651397705
1763697199488146400,3.222146484375,8.058284237670899,-1.6864157943725584,-7.302614338684082
1763697199498107100,3.232107177734375,6.699275520324707,-4.465485371398925,-7.726986582946777
1763697199508068000,3.242068115234375,6.171054779052734,-5.903502743530273,-7.736563389587402
1763697199518029300,3.252029296875,5.427655163574219,-6.1930515068054195,-6.460753179931641
1763697199527990000,3.261989990234375,3.743184658050537,-6.857143192291259,-5.727977834320068
1763697199537950200,3.2719501953125,2.039859814453125,-7.387907772827148,-4.584746541595459
1763697199547911200,3.2819111328125,1.2392986343383787,-7.732373536682128,-3.445106551361084
1763697199557872400,3.291872314453125,1.5102923347473143,-7.353640761566162,-3.5889082885742187
1763697199567833000,3.3018330078125,3.206135298156738,-8.619874164581299,-3.3617584060668944
1763697199577794000,3.3117939453125,4.547636415863037,-11.163713428497314,-3.8706758964538572
1763697199587754200,3.321754150390625,4.163815962219238,-12.10373685531616,-4.0475475440979
1763697199597715200,3.331715087890625,2.1472996139526366,-14.264653491210936,-4.69847112045288
1763697199607676200,3.34167626953125,-0.25483283920288086,-17.602769155883788,-5.993883856201172
1763697199617637000,3.35163720703125,-0.8526350662231444,-18.31713907623291,-4.9066170272827145
1763697199627598300,3.361598388671875,2.955193036651611,-17.356166384887693,-4.223671003723144
1763697199637559300,3.371559326171875,4.3734582450866695,-14.085686917114257,-3.901501242828369
1763697199647519200,3.381519287109375,3.4186206954956053,-11.64509759979248,-3.2421979606628417
1763697199657480200,3.391480224609375,2.414552374267578,-11.114033744049072,-2.750339157104492
1763697199667441200,3.401441162109375,1.8504186080932616,-9.84435867614746,-2.1918916198730467
1763697199677402400,3.41140234375,2.549675130462646,-8.565555714416503,-2.642450444793701
1763697199687363000,3.421363037109375,2.7555764732360837,-8.457816639709472,-4.060715653228759
1763697199697323000,3.431322998046875,3.09001651763916,-7.483526201629639,-5.1219455390930175
1763697199707284200,3.4412841796875,2.9755437507629394,-5.9582701065063475,-4.592228421783447
1763697199717245200,3.4512451171875,2.218078200531006,-3.9285856491088866,-4.345625650787353
1763697199727206100,3.4612060546875,0.7034463752746581,-4.172345305633545,-5.48406854019165
1763697199737167000,3.4711669921875,1.0851719024658202,-4.572925170898437,-6.871957315063476
1763697199747127300,3.481127197265625,3.3725323135375973,-4.352060067749023,-7.416638192749023
1763697199757088300,3.491088134765625,3.2556653450012205,-4.912452893829346,-6.592284633636474
1763697199767049000,3.501049072265625,2.9222727638244628,-5.437980158233643,-5.657199247741699
1763697199777010200,3.51101025390625,3.336918563842773,-5.767182886505126,-4.0429087783813475
1763697199786971100,3.52097119140625,3.6296097167968746,-6.8128504615783685,-2.605190681457519
1763697199796931300,3.530931396484375,3.993977281951904,-7.340173377227782,-2.7910405853271483
1763697199806892000,3.54089208984375,4.022857339477539,-7.777564093017578,-3.012803514099121
1763697199816853200,3.550853271484375,2.860622071075439,-8.230217844390868,-3.0852281143188476
1763697199826814200,3.560814208984375,1.7533038032531738,-8.481010468292236,-3.124582804107666
1763697199836775400,3.570775390625,1.4820108276367188,-8.677783917236328,-3.2926258331298826
1763697199846735400,3.5807353515625,1.6698060203552245,-9.009979397583008,-3.2439936119079587
1763697199856696000,3.590696044921875,1.7999907356262206,-9.244910435485838,-2.8924948806762694
1763697199866657300,3.6006572265625,1.6778864509582518,-9.069235888671875,-2.553116795349121
1763697199876618200,3.6106181640625,2.007987004852295,-8.426542380523681,-2.6165631393432616
1763697199886579200,3.6205791015625,3.5693057624816893,-8.055141847991942,-1.7206828056335448
1763697199896540200,3.6305400390625,1.3305775726318358,-6.729651953887939,-2.594566411590576
1763697199906500000,3.6405,0.6197989547729492,-5.125387203979492,-2.6431986328124997
1763697199916461300,3.65046142578125,1.7600374954223632,-6.137535955810547,-1.937657331085205
1763697199926422000,3.660422119140625,1.8769044639587402,-6.843675807952881,-2.2334908737182615
1763697199936383200,3.67038330078125,2.2463597076416013,-7.198616204071045,-2.2755390403747557
1763697199946344200,3.68034423828125,2.3503578422546387,-4.742763851165771,-2.531269705200195
1763697199956304100,3.69030419921875,2.4506150367736814,8.954912759399413,-2.9110499435424804
1763697199966265000,3.70026513671875,0.4391863670349121,4.307617699432373,-0.7387608497619629
1763697199976226000,3.71022607421875,-0.181959326171875,-0.694617756652832,-1.4223054237365722
1763697199986187300,3.720187255859375,1.3723264640808104,-0.5695207199096679,-0.5732616600036621
1763697199996148200,3.730148193359375,3.2166099304199216,-3.7428853828430175,-0.5653308670043945
1763697200006108200,3.740108154296875,2.348113278198242,-4.319738345336914,-0.34177228698730466
1763697200016069000,3.750069091796875,1.1430816551208496,-3.3660978965759276,-0.17342998275756835
1763697200026030300,3.7600302734375,1.4516343940734862,-5.425111324310302,-0.04638765716552734
1763697200035991300,3.7699912109375,1.890371848297119,-12.95427699508667,0.17567454681396483
1763697200045952000,3.779951904296875,6.666654522705078,-34.11468018035888,-2.4691700996398924
1763697200055912200,3.789912109375,6.625504181671142,-37.730373600006104,-4.131643877410888
1763697200069608200,3.803608154296875,2.8591256950378416,-20.19494136581421,-4.663156645965576
1763697200079569200,3.813569091796875,-2.2931962776184083,-17.039533215332032,-4.035875811004638
1763697200089530000,3.823530029296875,-3.6450223899841308,-10.555137294006347,-1.3512275619506835
1763697200099491000,3.833490966796875,0.7224503509521484,-8.941744650268554,1.7770961822509765
1763697200109451300,3.843451171875,4.197783698272705,-9.420584982299804,2.2845172966003418
1763697200119412200,3.853412109375,3.169174810028076,-7.781005757904052,0.26231471939086914
1763697200129373200,3.863373291015625,2.526331664276123,-7.2620625480651855,0.28969840087890625
1763697200139334100,3.873334228515625,1.9231424835205078,-9.743203656005859,0.029628245544433593
1763697200149295000,3.883295166015625,1.1797428680419921,-12.499528317260742,-0.05835866546630859
1763697200159255300,3.89325537109375,0.38666356811523434,-13.076530917358397,-0.26261399459838863
1763697200169216300,3.90321630859375,0.23508067550659179,-11.282974598693848,-0.5683236190795898
1763697200179177200,3.91317724609375,0.7845499565124511,-10.464456906127928,-0.6148609138488769
1763697200189138200,3.92313818359375,1.40464818649292,-10.550648165893554,-0.18959084396362302
1763697200199099400,3.933099365234375,1.7736545173645017,-10.582820250701904,0.5208884986877441
1763697200209059300,3.943059326171875,1.9641431869506836,-10.411784469604491,1.328632283782959
1763697200219020000,3.95302001953125,2.1844097396850586,-10.224737464904784,2.058414877319336
1763697200228981200,3.962981201171875,1.839943975830078,-9.77507646560669,2.34287596206665
1763697200238942200,3.972942138671875,1.6256629272460936,-8.556128545379638,2.15148946685791
1763697200248903200,3.982903076171875,1.2786533241271971,-7.62283881072998,2.1622633743286133
1763697200258863000,3.992863037109375,1.3428478561401367,-7.0567597557067865,2.479046181488037
1763697200268824000,4.002823974609375,1.9645920997619628,-6.928370691680907,2.7635072662353513
1763697200278785300,4.012785400390625,2.4154501998901368,-5.967398000335693,2.3216274223327638
1763697200288746200,4.022746337890625,1.9903297676086424,-5.257966120910644,2.318933945465088
1763697200298707200,4.032707275390625,1.5720926651000975,-5.629665928649902,2.6307787117004393
1763697200308667100,4.042667236328125,1.7024270179748535,-8.908525102233886,2.7090391784667966
1763697200318628000,4.052628173828125,0.4171896392822265,-10.843189681243896,2.8775311203002927
1763697200328589300,4.06258935546875,-1.1519102737426756,-11.432911477661133,2.8713959785461425
1763697200338550000,4.072550048828125,0.27308862686157226,-11.950657586669921,1.593490842437744
1763697200348511200,4.08251123046875,1.4986206016540526,-12.164639360046387,0.6759130561828612
1763697200358471200,4.09247119140625,2.1871032165527344,-12.07246259613037,0.60648120803833
1763697200368432400,4.102432373046875,2.1185691940307616,-11.347019493103026,1.1558008514404297
1763697200378393000,4.11239306640625,1.6243161888122557,-10.487501097106932,1.8402432510375974
1763697200388354300,4.122354248046875,1.5849614990234373,-9.652074355316161,2.214636535644531
1763697200398314200,4.132314208984375,1.5692495506286621,-8.992322160339356,2.399738251495361
1763697200408275200,4.142275146484375,1.4311340423583983,-8.664166895294189,2.3774422485351563
1763697200418236200,4.152236083984375,1.3664905975341797,-8.706663974761963,2.18336227645874
1763697200428197000,4.162197021484375,1.3666402351379394,-8.998158026885985,1.8875287338256834
1763697200438158300,4.172158447265625,1.3784616058349608,-9.366865082550047,1.5538368774414062
1763697200448118300,4.1821181640625,1.3103764961242674,-9.60867945022583,1.190666413116455
1763697200458079000,4.192078857421875,1.232714579772949,-9.721655841064452,0.9356839363098144
1763697200468039400,4.202039306640625,1.1417349166870117,-9.817274269866942,0.9069535163879394
1763697200478000600,4.212000732421875,0.9686042091369629,-9.91438907470703,1.0723030685424804
1763697200487961600,4.221961669921875,0.8925883064270019,-9.936685077667235,1.2146084297180175
1763697200497921800,4.231921875,0.8316858016967773,-9.865008665466307,1.3307272102355956
1763697200507882500,4.241882568359375,0.7722796730041503,-9.789890588378906,1.4113818786621093
1763697200517843500,4.251843505859375,0.7978677032470702,-9.779415956115722,1.4309844047546385
1763697200527804700,4.2618046875,0.8776245460510254,-9.83837317199707,1.4194623092651366
1763697200537765400,4.271765380859375,0.9186252494812012,-9.910199221801758,1.3804068946838377
1763697200547725600,4.2817255859375,0.9524433479309081,-9.97873324432373,1.309478670501709
1763697200557686500,4.2916865234375,1.0817302375793456,-10.037391184997558,1.2452841384887694
1763697200567647700,4.301647705078125,1.235408056640625,-10.0104564163208,1.210418576812744
1763697200577608700,4.311608642578125,1.2446855880737304,-9.898677126312256,1.2122142280578612
1763697200587569700,4.321569580078125,1.1323077476501464,-9.74200655517578,1.264737026977539
1763697200597529600,4.331529541015625,0.9886556480407714,-9.572616787719726,1.2918214332580567
1763697200607490600,4.341490478515625,0.9105448188781737,-9.407716148376464,1.2536638442993164
1763697200617451800,4.35145166015625,0.8635586112976074,-9.30207200012207,1.1218331153869627
1763697200627412500,4.36141259765625,0.8119336380004882,-9.257779269409179,0.9599252281188965
1763697200637372400,4.371372314453125,0.7820061172485351,-9.280374547576903,0.8307879760742187
1763697200647333600,4.381333740234375,0.8445546356201171,-9.375843338775635,0.7643488800048828
1763697200657294600,4.391294677734375,0.9308955329895019,-9.524433479309081,0.8105868995666503
1763697200667255600,4.401255615234375,0.9689034843444824,-9.628281976318359,0.932691184234619
1763697200677216500,4.411216552734375,1.042525185394287,-9.69112976989746,1.0549451065063475
1763697200687176700,4.4211767578125,1.1938088027954101,-9.712228672027587,1.2204442962646485
1763697200697137700,4.4311376953125,1.3156138122558594,-9.700706576538085,1.3428478561401367
1763697200707098400,4.441098388671875,1.356015965270996,-9.624241761016846,1.4263456390380858
1763697200717059600,4.4510595703125,1.3808558074951172,-9.532064997100829,1.4380173721313476
1763697200727020500,4.4610205078125,1.3748703033447265,-9.427468312072753,1.4130278923034667
1763697200736980700,4.470980712890625,1.3862427612304686,-9.400533543395996,1.3801076194763182
1763697200746941400,4.48094140625,1.3748703033447265,-9.419088606262207,1.3530232131958007
1763697200756902700,4.490902587890625,1.3530232131958007,-9.521291089630127,1.3504793739318848
1763697200766863600,4.500863525390625,1.3009493270874022,-9.681403325653076,1.3623007446289062
1763697200776824800,4.510824951171875,1.1954548164367675,-9.794529354095458,1.417965933227539
1763697200786784800,4.52078466796875,1.064970825958252,-9.824007962036132,1.4567220726013184
1763697200796745500,4.530745361328125,1.0727519813537596,-9.73527286300659,1.4450503395080565
1763697200806706700,4.540706787109375,1.0983400115966797,-9.549572596740722,1.3989619575500487
1763697200816667600,4.550667724609375,1.1079168182373047,-9.331700245666504,1.2789525993347166
1763697200826627600,4.560627685546875,1.1302128211975098,-9.207351396942139,1.1546037506103515
1763697200836588500,4.570588623046875,1.1879729362487792,-9.198223503112793,1.0538976432800293
1763697200846549500,4.580549560546875,1.237951895904541,-9.235333628845215,0.9804255798339843
1763697200856510700,4.5905107421875,1.261444999694824,-9.284863675689696,0.9510966094970703
1763697200866471400,4.600471435546875,1.2816460762023925,-9.339631038665772,0.9793781166076659
1763697200876431600,4.610431640625,1.2927192588806151,-9.400982456207275,1.052850180053711
1763697200886392600,4.620392578125,1.3009493270874022,-9.460238947296142,1.1228805786132812
1763697200896353800,4.630353759765625,1.2654852149963378,-9.540145427703857,1.2364555198669434
1763697200906314500,4.640314453125,1.2042834350585936,-9.638008420562743,1.3784616058349608
1763697200916274400,4.6502744140625,1.0797849487304687,-9.733626849365233,1.534832901763916
1763697200926235600,4.660235595703125,0.9911994873046874,-9.744849669647216,1.5873557006835937
1763697200936196600,4.670196533203125,0.9017162002563476,-9.741258367156982,1.6066589515686034
1763697200946157600,4.680157470703125,0.8325836273193359,-9.702502227783203,1.5952864936828612
1763697200956118500,4.690118408203125,0.7306804191589356,-9.636512044525146,1.5753846923828123
1763697200966078500,4.700078369140625,0.6268319221496582,-9.548375495910644,1.5755343299865723
1763697200976039700,4.710039794921875,0.5511152946472168,-9.45470235595703,1.6096517036437987
1763697200986000600,4.720000732421875,0.48886605148315426,-9.407416873168945,1.711554911804199
1763697200995961600,4.729961669921875,0.44891281127929683,-9.360580303192139,1.8628385292053222
1763697201005922600,4.739922607421875,0.397736750793457,-9.390507823944091,2.040458364868164
1763697201015882500,4.749882568359375,0.3172317199707031,-9.508871168518066,2.189198143005371
1763697201025843700,4.75984375,0.2742857276916504,-9.636811319732665,2.2939444656372068
1763697201035804400,4.769804443359375,0.2784755805969238,-9.788543849945068,2.3874679679870603
1763697201045765600,4.779765625,0.23927052841186522,-9.842712662506102,2.373102758026123
1763697201055725600,4.7897255859375,0.14305354919433594,-9.827299989318847,2.2890064247131345
1763697201065686800,4.799686767578125,0.030825346374511717,-9.767145672607422,2.15163910446167
1763697201075647500,4.8096474609375,-0.05252279891967773,-9.69127940750122,2.0444985801696776
1763697201085608700,4.819608642578125,-0.08664017257690429,-9.580996493530273,2.045546043395996
1763697201095569700,4.829569580078125,-0.061949967956542965,-9.488071541595458,2.1232079597473144
1763697201105529600,4.839529541015625,0.01092354507446289,-9.418340418243409,2.2098481323242187
1763697201115490600,4.849490478515625,0.058657940673828124,-9.428815050506591,2.2813749069213864
1763697201125451500,4.859451416015625,0.08349778289794921,-9.521889640045165,2.282422370147705
1763697201135412700,4.869412841796875,0.04683656997680664,-9.61526350479126,2.1703438049316404
1763697201145372700,4.87937255859375,-0.04863222122192382,-9.654318919372558,1.9678841270446776
1763697201155333600,4.889333740234375,-0.10594342346191406,-9.627084875488281,1.7489643127441405
1763697201165294600,4.899294677734375,-0.12419921112060546,-9.633369654846192,1.6086042404174803
1763697201175255600,4.909255615234375,-0.12300211029052734,-9.689633393859863,1.5403694931030272
1763697201185216800,4.919216796875,-0.1475426773071289,-9.788244574737549,1.5155296508789062
1763697201195176700,4.9291767578125,-0.15652093353271485,-9.861567000579834,1.5502455749511719
1763697201205137400,4.939137451171875,-0.20919337005615232,-9.872640183258056,1.6115969924926756
1763697201215098600,4.9490986328125,-0.27129297561645505,-9.81951883392334,1.6882114456176758
1763697201225059600,4.9590595703125,-0.35793314819335936,-9.786448923492431,1.825279490661621
1763697201235019800,4.969019775390625,-0.4836287353515625,-9.772532626342773,2.03656778717041
1763697201244980500,4.97898046875,-0.5919663604736328,-9.7170170753479,2.2589292663574216
1763697201254941700,4.988941650390625,-0.6619967590332031,-9.672724344635009,2.471414663696289
1763697201264902700,4.998902587890625,-0.6826467483520507,-9.616161330413817,2.6753707176208494
1763697201274863600,5.008863525390625,-0.6774094322204589,-9.572766425323486,2.813486225891113
1763697201284823600,5.018823486328125,-0.7119757186889648,-9.485826977539062,2.8899510414123535
1763697201294784500,5.028784423828125,-0.7550713485717773,-9.414150565338135,2.9186814613342285
1763697201304745700,5.038745849609375,-0.7727285858154297,-9.362675229644775,2.9242180526733397
1763697201314706700,5.048706787109375,-0.6883329772949218,-9.357288275909424,2.8794764091491696
1763697201324666600,5.05866650390625,-0.5885246955871581,-9.412504551696777,2.768744582366943
1763697201334627600,5.068627685546875,-0.5252279891967773,-9.502586389160156,2.5667338172912597
1763697201344588500,5.078588623046875,-0.4857236618041992,-9.561842880249023,2.3196821334838864
1763697201354549800,5.0885498046875,-0.44322658233642576,-9.596708441925049,2.0593127029418943
1763697201364509700,5.098509765625,-0.4177881896972656,-9.584288520812988,1.8359037605285644
1763697201374470700,5.108470703125,-0.3800795135498047,-9.576058452606201,1.6597803009033203
1763697201384431600,5.118431640625,-0.2985270195007324,-9.592069676208496,1.490689808654785
1763697201394392600,5.128392578125,-0.22176292877197265,-9.553163899230956,1.3031938911437988
1763697201404353500,5.138353515625,-0.1475426773071289,-9.44303062286377,1.11734398727417
1763697201414313500,5.1483134765625,-0.061650692749023434,-9.36626653213501,0.9937433265686034
1763697201424274700,5.158274658203125,0.006434416961669922,-9.342474153137207,1.0173860679626465
1763697201434235600,5.168235595703125,0.015861585998535155,-9.397241516113281,1.1080664558410644
1763697201444196600,5.178196533203125,-0.0469862075805664,-9.495553421783447,1.1417349166870117
1763697201454156500,5.188156494140625,-0.16774375381469725,-9.605985973358154,1.1791443176269532
1763697201464117800,5.19811767578125,-0.20575170516967772,-9.770288062286376,1.235408056640625
1763697201474079000,5.208078857421875,-0.3224690361022949,-9.917082551574707,1.2816460762023925
1763697201484039700,5.218039794921875,-0.46731823654174803,-9.998635045623779,1.24498486328125
1763697201494001000,5.2280009765625,-0.5253776268005371,-10.071957471466064,1.1846809089660644
1763697201503960800,5.2379609375,-0.46806642456054687,-10.139743305969239,1.177199028778076
1763697201513921800,5.247921875,-0.2684498611450195,-10.225485652923583,1.3557166900634765
1763697201523882800,5.2578828125,-0.03067570877075195,-10.285191056823729,1.5867571502685547
1763697201533843700,5.26784375,0.19258359603881836,-10.354173992156982,1.7857751632690428
1763697201543804000,5.277803955078125,0.41314942398071286,-10.376170719909668,1.8552070114135741
1763697201553764900,5.287764892578125,0.43020811080932614,-10.319458068084716,1.8532617225646972
1763697201563725800,5.297725830078125,0.261117618560791,-10.225186377716064,1.8161515968322752
1763697201573686800,5.307686767578125,0.07870937957763671,-10.087968695068358,1.6487071182250976
1763697201583646700,5.317646728515625,-0.07362170104980469,-10.016142645263672,1.3863923988342284
1763697201593608000,5.32760791015625,-0.22505495605468748,-9.979631069946288,1.0766425590515136
1763697201603569000,5.33756884765625,-0.3504512680053711,-9.885957929992676,0.8282441368103027
1763697201613529900,5.34752978515625,-0.3534440200805664,-9.690381581878661,0.6311714126586914
1763697201623490800,5.35749072265625,-0.28954876327514645,-9.495254146575927,0.5756558616638183
1763697201633450800,5.36745068359375,-0.2314893730163574,-9.350255308532715,0.5933130989074706
1763697201643412000,5.377411865234375,-0.2516904495239258,-9.286808964538574,0.6590040069580078
1763697201653372700,5.38737255859375,-0.3265092514038086,-9.200468067169188,0.7817068420410156
1763697201663334000,5.397333984375,-0.4113537727355957,-9.120711224365234,0.9112930068969726
1763697201673293800,5.4072939453125,-0.45400048980712887,-9.114875357818603,1.041926634979248
1763697201683254800,5.4172548828125,-0.4155436256408691,-9.158569538116454,1.1752537399291991
1763697201693215700,5.4272158203125,-0.41045594711303707,-9.187299958038329,1.2831424522399901
1763697201703176700,5.4371767578125,-0.3716998077392578,-9.336339011383057,1.386093123626709
1763697201713137000,5.447136962890625,-0.30346506042480464,-9.55690483932495,1.4841057540893554
1763697201723097900,5.457097900390625,-0.25348610076904293,-9.773280814361572,1.5798738204956053
1763697201733058800,5.467058837890625,-0.15322890625,-9.929652110290526,1.6638205162048338
1763697201743019800,5.477019775390625,-0.01945288848876953,-9.987112950134277,1.7066168708801268
1763697201752979700,5.486979736328125,0.047584757995605464,-9.928754284667969,1.6832734046936033
1763697201762941000,5.49694091796875,0.06494272003173827,-9.8189202835083,1.5670049865722655
1763697201772902000,5.50690185546875,0.053420624542236325,-9.722104753875731,1.3682862487792968
1763697201782862800,5.51686279296875,0.017956512451171875,-9.664195001220703,1.1680711349487305
1763697201792823800,5.52682373046875,0.03890577697753906,-9.700108026123047,0.9484031326293945
1763697201802783700,5.53678369140625,0.06239888076782226,-9.733776486968994,0.7228992637634277
1763697201812745000,5.546744873046875,0.07930792999267577,-9.729287358856201,0.5099649536132812
1763697201822705700,5.55670556640625,0.07018003616333007,-9.728539170837402,0.4107552223205566
1763697201832667000,5.5666669921875,0.05162497329711914,-9.744400756835937,0.4112041351318359
1763697201842626800,5.576626708984375,0.09142857589721679,-9.726893157196045,0.5078700271606446
1763697201852587800,5.586587890625,0.16774375381469725,-9.603591771697998,0.6477811866760254
1763697201862548700,5.596548828125,0.23792378997802732,-9.431358889770507,0.7640496047973633
1763697201872509700,5.606509765625,0.2570774032592773,-9.241169495391846,0.8464999244689941
1763697201882470000,5.616469970703125,0.23119009780883787,-9.105747463989257,0.943614729309082
1763697201892430800,5.626430908203125,0.2171241630554199,-9.050231912994384,1.0099041877746582
1763697201902391800,5.636391845703125,0.18944120635986328,-9.070133714294434,1.0486603271484374
1763697201912352800,5.646352783203125,0.10773907470703124,-9.185205031585692,1.023371572113037
1763697201922312700,5.656312744140625,-0.027383681488037107,-9.368211820983886,0.9929951385498046
1763697201932274000,5.66627392578125,-0.12015899581909179,-9.568726210021971,0.9795277542114257
1763697201942235000,5.67623486328125,-0.15786767196655271,-9.72360112991333,1.0624269866943359
1763697201952195800,5.68619580078125,-0.18180968856811522,-9.843311212921142,1.2249334243774412
1763697201962156800,5.69615673828125,-0.2871545616149902,-9.88281554031372,1.4246996253967283
1763697201972116700,5.70611669921875,-0.43350013809204097,-9.815927531433104,1.6157868453979491
1763697201982078000,5.716077880859375,-0.5615899269104003,-9.80051485824585,1.8306664443969725
1763697201992038700,5.72603857421875,-0.6299743118286133,-9.885658654785155,2.118269918823242
1763697202002000000,5.735999755859375,-0.7460930923461914,-9.987112950134277,2.306065111541748
1763697202011959800,5.745959716796875,-0.9036614891052246,-10.01689083328247,2.2291513832092282
1763697202021921000,5.755921142578125,-1.1174936248779297,-10.045920528411864,1.8351555725097655
1763697202031881700,5.7658818359375,-1.3555670524597168,-10.070012182617187,1.4043489112854004
1763697202041842700,5.7758427734375,-1.4279916526794432,-9.977386505889893,1.2131120536804199
1763697202051803000,5.785802978515625,-1.2551602203369139,-9.832537305450439,1.4062942001342773
1763697202061763800,5.795763916015625,-1.0290578010559082,-9.718363813781737,1.7679682884216308
1763697202071724800,5.805724853515625,-0.9172785110473632,-9.62169792175293,2.0596119781494138
1763697202081685800,5.815685791015625,-0.8396165946960449,-9.669581954956055,2.1739351074218747
1763697202091645700,5.825645751953125,-0.7758709754943848,-9.794230078887939,2.081907981109619
1763697202101607000,5.83560693359375,-0.7188590484619141,-9.88296517791748,1.7666215499877929
1763697202111567600,5.845567626953125,-0.62563482131958,-9.871443082427978,1.3401543792724608
1763697202121528800,5.85552880859375,-0.5041290870666504,-9.896731837463378,0.946757118988037
1763697202131488800,5.86548876953125,-0.4191349281311035,-9.932195949554442,0.6934206558227539
1763697202141450000,5.875449951171875,-0.4125508735656738,-9.872191270446777,0.6251859085083007
1763697202151411000,5.885410888671875,-0.3935468978881836,-9.674220720672606,0.7583633758544921
1763697202161371600,5.89537158203125,-0.26336218261718747,-9.474903432464599,1.0308534523010253
1763697202171331800,5.905331787109375,-0.0661398208618164,-9.297582872009277,1.348384447479248
1763697202181292800,5.915292724609375,0.05596446380615234,-9.231143775939941,1.5910966407775877
1763697202191254000,5.92525390625,-0.008678981018066407,-9.217526753997802,1.6356886466979979
1763697202201214700,5.935214599609375,-0.2371756019592285,-9.251494490051268,1.3386580032348632
1763697202211174700,5.945174560546875,-0.426467170715332,-9.342923065948487,0.879120922088623
1763697202221136000,5.955135986328125,-0.42811318435668944,-9.51919616317749,0.46462475967407224
1763697202231096800,5.965096923828125,-0.3721487205505371,-9.692775783538817,0.20575170516967772
1763697202241057800,5.975057861328125,-0.378583137512207,-9.81248586654663,0.050727147674560547
1763697202251018800,5.985018798828125,-0.43080666122436523,-9.891793796539305,0.01780687484741211
1763697202260978700,5.994978759765625,-0.49904140853881834,-9.918130014801024,0.053719899749755856
1763697202270940000,6.00493994140625,-0.6235398948669433,-9.913640886688231,0.1927332336425781
1763697202280900600,6.014900634765625,-0.7003039855957031,-9.881319164276123,0.41374797439575195
1763697202290861800,6.02486181640625,-0.7231985389709472,-9.898976401519775,0.6953659446716308
1763697202300821800,6.03482177734375,-0.6899789909362792,-9.99683939437866,0.9472060317993164
1763697202310783000,6.044782958984375,-0.6494272003173828,-10.161291120910644,1.0978910987854003
1763697202320743700,6.05474365234375,-0.7010521736145019,-10.370634128570556,1.1471218704223631
1763697202330705000,6.064704833984375,-0.8198644309997558,-10.563965912628174,1.1098621070861816
1763697202340664800,6.074664794921875,-0.9871592720031738,-10.727819088745116,1.0941501586914062
1763697202350625800,6.084625732421875,-1.1390414398193358,-10.91067624053955,1.2020388710021972
1763697202360587000,6.0945869140625,-1.2418424736022948,-11.182867041778564,1.4381670097351074
1763697202370547700,6.104547607421875,-1.2988544006347655,-11.550526634216308,1.796549070739746
1763697202380507600,6.114507568359375,-1.3057377304077147,-12.004527124023436,2.2635680320739744
1763697202390468900,6.12446875,-1.2271779884338379,-12.667571346282958,2.8139351387023925
1763697202400429800,6.134429931640625,-1.0541969184875488,-13.372514097595214,3.3372178390502927
1763697202410390800,6.144390869140625,-0.8110358123779297,-13.953407275390624,3.7371991539001463
1763697202420350700,6.154350830078125,-0.6052841072082519,-14.332140050506592,4.051138846588135
1763697202430312000,6.16431201171875,-0.35464112091064454,-14.400374797821044,4.228010494232177
1763697202440273000,6.17427294921875,-0.16684592819213867,-14.144045582580565,4.162918136596679
1763697202450233600,6.184233642578125,-0.07317278823852538,-13.729549420166014,3.9107787742614746
1763697202460193800,6.19419384765625,-0.06479308242797852,-13.26058516998291,3.586663724517822
1763697202470154800,6.20415478515625,-0.0037409400939941405,-12.700491619110107,3.187580235290527
1763697202480116000,6.214115966796875,0.10743979949951171,-12.095955699920653,2.8348844032287595
1763697202490076700,6.22407666015625,0.21353286056518553,-11.48528463897705,2.5656863540649413
1763697202500036600,6.23403662109375,0.3190273712158203,-10.858751992034911,2.337339370727539
1763697202509997800,6.243997802734375,0.4896142395019531,-10.257657737731932,2.120963395690918
1763697202519958800,6.253958740234375,0.7417536018371581,-9.76894132385254,1.9188029930114745
1763697202529919700,6.263919677734375,1.1161468864440918,-9.450213227844237,1.7347487403869628
1763697202539879700,6.273879638671875,1.5930419296264648,-9.32107597579956,1.5460557220458984
1763697202549841000,6.2838408203125,2.064101106262207,-9.35863501434326,1.299153675842285
1763697202559801900,6.2938017578125,2.5029881980895996,-9.488819729614256,0.9838672447204589
1763697202569762800,6.3037626953125,2.873790180206299,-9.700556938934326,0.5720645591735839
1763697202579723000,6.313722900390625,3.0955531089782715,-10.031106405639648,0.1406593475341797
1763697202589683700,6.32368359375,3.148075907897949,-10.485106895446776,-0.3051110740661621
1763697202599645000,6.33364501953125,3.012204963684082,-10.828674833679198,-0.7577648254394531
1763697202609606000,6.34360595703125,2.6261399459838866,-11.019762053680418,-1.1004349380493164
1763697202619565800,6.35356591796875,1.9379566062927245,-10.98744033126831,-1.2140098793029785
1763697202629526800,6.36352685546875,1.301098964691162,-10.691008238220213,-1.0658686515808105
1763697202639487700,6.37348779296875,0.9846154327392578,-10.230722969055176,-0.6908768165588378
1763697202649449000,6.383448974609375,0.9362824867248535,-9.750386260986328,-0.23747487716674803
1763697202659409000,6.393408935546875,1.0705074172973632,-9.384522319793701,0.31543606872558594
1763697202669369600,6.40336962890625,1.2674305038452147,-9.15527751083374,0.9906009368896483
1763697202679330800,6.413330810546875,1.6437690773010254,-9.101707248687744,1.7393875061035156
1763697202689291800,6.423291748046875,2.116324629974365,-9.117119921875,2.4015339027404785
1763697202699252000,6.433251953125,2.6542718154907226,-9.197774590301513,2.9109003059387204
1763697202709212700,6.443212646484375,3.0660745010375976,-9.256731806182861,3.1663316955566403
1763697202719174000,6.453173828125,3.334673999786377,-9.288305340576171,3.142240041351318
1763697202729134800,6.463134765625,3.51139600982666,-9.281571648406981,3.0199861190795896
1763697202739094800,6.4730947265625,3.4867058052062987,-9.113229344177245,2.647687760925293
1763697202749055700,6.4830556640625,3.2378584701538085,-9.024494245147704,1.9638439117431639
1763697202759016700,6.4930166015625,2.863914098358154,-9.037213441467285,1.5243582695007323
1763697202768978000,6.50297802734375,2.2800281684875485,-9.02060366744995,1.0532990928649901
1763697202778937900,6.512937744140625,1.8436849159240722,-8.965088116455078,0.6878840644836426
1763697202788898800,6.52289892578125,1.7253215713500976,-8.851213899993896,0.40671500701904295
1763697202798859800,6.53285986328125,1.892317137145996,-8.652046249389647,0.14469956283569335
1763697202808820700,6.54282080078125,2.407369769287109,-8.426243105316162,-0.05716156463623046
1763697202818781000,6.552781005859375,3.049015814208984,-8.226027991485596,-0.14948796615600585
1763697202828742000,6.562741943359375,3.5700539505004882,-8.034491858673094,-0.10609306106567382
1763697202838702800,6.572702880859375,4.026299004364013,-7.844601739501953,0.022146365356445312
1763697202848663800,6.582663818359375,4.178330809783935,-7.689577182006835,0.21248539733886718
1763697202858623700,6.592623779296875,4.115034103393555,-7.538892115020752,0.35404257049560545
1763697202868585000,6.6025849609375,4.120720332336425,-7.430704127502441,0.448164623260498
1763697202878545700,6.612545654296875,4.214243834686279,-7.353491123962402,0.42931028518676756
1763697202888507000,6.6225068359375,4.278139091491699,-7.317877374267578,0.270694425201416
1763697202898466800,6.632466796875,4.307617699432373,-7.277924134063721,0.0005985504150390625
1763697202908427800,6.642427734375,4.407276343536377,-7.223007133483886,-0.26695348510742184
1763697202918388700,6.652388671875,4.593275885009765,-7.187393383789062,-0.38307226562499996
1763697202928349700,6.662349609375,4.771793546295166,-7.1309800071716305,-0.4149450752258301
1763697202938310000,6.672309814453125,4.851400751495361,-7.106888352966308,-0.23074118499755858
1763697202948270800,6.682270751953125,4.8226703315734865,-7.071124965667724,-0.08948328704833984
1763697202958231800,6.692231689453125,4.922628250885009,-7.008576447296142,-0.029179332733154296
1763697202968192800,6.70219287109375,5.091419467926025,-6.940341699981689,-0.04159925384521484
1763697202978152700,6.712152587890625,5.122394451904297,-6.874052241516113,-0.06404489440917968
1763697202988114000,6.722114013671875,5.1611505912780755,-6.774992147827148,-0.018255787658691406
1763697202998075000,6.732074951171875,5.17761072769165,-6.743119338226318,-0.0028431144714355467
1763697203008035800,6.742035888671875,5.180753117370605,-6.798784526824951,0.01975216369628906
1763697203017995800,6.751995849609375,5.329043982696533,-6.870760214233398,0.058957215881347655
1763697203027956700,6.761956787109375,5.569810887145996,-6.910863092041015,0.13422493057250975
1763697203037918000,6.77191796875,5.7900774398803705,-6.924929026794433,0.1988683753967285
1763697203047878700,6.781878662109375,5.849184293365478,-6.974459073638916,0.2558803024291992
1763697203057838800,6.7918388671875,5.832574519348144,-6.991966673278808,0.2642600082397461
1763697203067799800,6.8017998046875,5.841253500366211,-7.015908689880371,0.39279870986938475
1763697203077760800,6.8117607421875,5.8610056640625,-7.033715564727783,0.6325181510925293
1763697203087721700,6.8217216796875,5.904550206756592,-7.057507943725586,0.9150339469909667
1763697203097681700,6.831681640625,5.90499911956787,-7.017105790710449,1.1809399688720703
1763697203107643000,6.841642822265625,5.837811835479736,-6.938845323944092,1.3576619789123534
1763697203117603800,6.851603759765625,5.830030680084228,-6.776787799072265,1.4384662849426268
1763697203127564800,6.861564697265625,5.98236176071167,-6.5571197967529296,1.4472949035644531
1763697203137524700,6.871524658203125,6.163423261260986,-6.296600728607177,1.502960092163086
1763697203147485700,6.881485595703125,6.1744964439392085,-6.049249769592285,1.610848804473877
1763697203157447000,6.891447021484375,6.269665959930419,-5.823446625518798,1.5893009895324706
1763697203167407900,6.901407958984375,6.3621419990539545,-5.663783302307128,1.5141829124450683
1763697203177367800,6.911367919921875,6.359747797393799,-5.5090580200195305,1.3842974723815917
1763697203187328800,6.921328857421875,6.36483547592163,-5.345055206298828,1.2514192802429198
1763697203197289700,6.931289794921875,6.405686541748047,-5.194070864105225,1.0896610305786132
1763697203207250000,6.94125,6.439803915405273,-5.057601369476318,0.8583212951660156
1763697203217211000,6.9512109375,6.3998506752014155,-4.989516259765625,0.4661211357116699
1763697203227171800,6.961171875,6.464793395233154,-4.958990188598633,0.14694412689208983
1763697203237132800,6.9711328125,6.676979517364502,-4.973953948974609,0.13437456817626953
1763697203247092700,6.9810927734375,6.648398735046387,-4.891503629302978,0.22774843292236327
1763697203257054000,6.991053955078125,6.635230625915527,-4.805162731933594,0.21772271347045896
1763697203267014700,7.0010146484375,6.714239280700683,-4.736479071807861,0.1788169364929199
1763697203276975900,7.010975830078125,6.721870798492431,-4.616918626403808,0.2609679809570312
1763697203286935800,7.020935791015625,6.713491092681885,-4.466981747436523,0.3051110740661621
1763697203296896800,7.030896728515625,6.853252614593505,-4.295347415924072,0.38142625198364255
1763697203306857700,7.040857666015625,6.92088881149292,-4.124610910034179,0.42003275375366206
1763697203316818700,7.050818603515625,7.072022791290283,-4.112639901733398,0.2609679809570312
1763697203326779000,7.06077880859375,7.189787585449218,-4.358494484710693,0.08978256225585937
1763697203336739800,7.07073974609375,7.136666236114501,-4.6450504959106445,0.023792378997802732
1763697203346700800,7.08070068359375,7.011569199371338,-4.887463414001465,-0.05776011505126953
1763697203356661800,7.090661865234375,6.777386349487304,-5.072116217041016,-0.29658173065185545
1763697203366621700,7.10062158203125,6.628197658538818,-5.161300228881836,-0.4999392341613769
1763697203376583000,7.1105830078125,6.637924102783202,-5.169829572296142,-0.5377975479125976
1763697203386543900,7.1205439453125,6.759878749847411,-5.202151294708251,-0.505026912689209
1763697203396504800,7.1305048828125,6.810306622314453,-5.29911646194458,-0.3435679382324219
1763697203406464800,7.14046484375,6.858340293121337,-5.425260961914062,-0.14484920043945312
1763697203416425700,7.15042578125,6.947075392150879,-5.594950004577637,-0.07197568740844726
1763697203426387000,7.160386962890625,7.183053893280029,-5.842001688385009,-0.056413376617431635
1763697203436347600,7.17034765625,8.019827373504638,-6.207865629577636,-0.14724340209960937
1763697203446307800,7.180307861328125,9.290699542236327,-7.154024198150634,-0.0020949264526367185
1763697203456268800,7.190268798828125,10.498873554992675,-9.225607184600829,0.2813186950683594
1763697203466230300,7.200230224609375,11.532570121765136,-11.84366669998169,0.2620154441833496
1763697203476191200,7.210191162109375,11.34447565383911,-13.392415898895264,-0.1249473991394043
1763697203486151200,7.220151123046875,9.629479077148437,-12.343456296539307,-0.5702689079284667
1763697203496112000,7.230112060546875,7.879168025970459,-9.107243840026856,-0.22565350646972654
1763697203506073300,7.2400732421875,6.756885997772216,-5.770175638580322,0.5178957466125488
1763697203516033300,7.250033203125,5.968146188354492,-3.584718435668945,1.1703156990051269
1763697203525994200,7.259994140625,5.384110620880127,-2.6131214744567868,1.5891513519287108
1763697203535955200,7.269955078125,5.269937129211425,-2.7920880485534667,1.559074193572998
1763697203545916200,7.279916259765625,5.316474423980712,-3.6481647796630856,1.221342121887207
1763697203555876400,7.28987646484375,5.380070405578613,-4.656123678588867,0.8379705810546875
1763697203565837000,7.299837158203125,5.512350047302246,-5.612756879425048,0.6453869850158691
1763697203575798300,7.30979833984375,5.739350292205811,-6.3241340476989745,0.6832452987670898
1763697203585759200,7.31975927734375,6.082768592834472,-6.753145057678222,0.9371803123474121
1763697203595719200,7.32971923828125,6.6891001632690426,-6.92687431564331,1.3404536544799803
1763697203605680000,7.33968017578125,7.3760864021301265,-6.9436337272644035,1.7881693649291992
1763697203615641000,7.34964111328125,7.973290078735351,-7.020547455596923,2.1230583221435544
1763697203625602300,7.359602294921875,8.406790216827392,-7.2270473487854,2.255038688659668
1763697203635562200,7.369562255859375,8.772354882812499,-7.56567724609375,2.0829554443359375
1763697203645523000,7.37952294921875,8.84837078552246,-7.830086891937255,1.7028759307861328
1763697203655484200,7.389484130859375,8.49762024230957,-7.788188362884521,1.196502279663086
1763697203665445000,7.399445068359375,7.882310415649414,-7.39269617614746,0.7766191635131835
1763697203675405300,7.4094052734375,7.238868719482421,-6.801478003692626,0.6192004043579101
1763697203685366300,7.4193662109375,6.969521032714844,-6.2684688591003415,0.7279869422912597
1763697203695327200,7.4293271484375,7.084891625213623,-5.947496199035644,0.9814730430603027
1763697203705287200,7.439287109375,7.50178198928833,-5.8840498550415035,1.185578734588623
1763697203715248000,7.449248046875,8.038232798767089,-6.018125148010253,1.4233528869628906
1763697203725209300,7.459209228515625,8.46574743270874,-6.234052210235595,1.6138415565490722
1763697203735170000,7.469170166015625,8.61852742614746,-6.46105245513916,1.7229273696899412
1763697203745130200,7.479130126953125,8.541464060211181,-6.534524518585204,1.7292121490478514
1763697203755091200,7.48909130859375,8.486397422027588,-6.518214019775391,1.5740379539489746
1763697203765052200,7.49905224609375,8.378059796905518,-6.444741956329345,1.468992356109619
1763697203775013000,7.50901318359375,8.398410511016845,-6.382343075561523,1.4914379966735838
1763697203784973000,7.51897314453125,8.525602474212645,-6.319345644378662,1.6587328376770019
1763697203794934300,7.528934326171875,8.523657185363769,-6.248866333007812,1.904437783050537
1763697203804895200,7.538895263671875,8.601618376922607,-6.171653329467773,2.0331261222839356
1763697203814856200,7.548856201171875,8.739284972381592,-6.073191786193847,1.9270330612182616
1763697203824816000,7.558816162109375,8.649502410125733,-6.029198330688476,1.6454150909423828
1763697203834777000,7.568777099609375,8.259247539520263,-6.003011750030518,1.2253823371887207
1763697203844738300,7.57873828125,7.7024460159301755,-5.9771244445800775,0.8387187690734863
1763697203854699000,7.588698974609375,7.94830059890747,-6.089502285003662,0.8179191421508789
1763697203864659000,7.598658935546875,8.520514795684814,-6.477362953948974,1.1540052001953125
1763697203874620200,7.6086201171875,8.40215145111084,-6.992116310882568,1.5575778175354003
1763697203884581000,7.6185810546875,8.061725902557372,-7.560589567565917,1.7525556152343749
1763697203894541300,7.628541259765625,7.586177597808837,-8.10901138534546,1.716792227935791
1763697203904502300,7.638502197265625,7.222109307861328,-8.615385036468505,1.4754267730712889
1763697203914463200,7.648463134765625,6.9253779396057125,-8.985289192962647,1.265335577392578
1763697203924424200,7.658424072265625,6.821828717803955,-9.320028512573241,1.2535142066955565
1763697203934384000,7.668384033203125,6.5291375648498535,-9.51814869995117,1.1299135459899903
1763697203944345300,7.678345458984375,6.686705961608887,-9.511714282989502,0.8019079185485839
1763697203954306000,7.68830615234375,6.666953797912598,-9.300126711273192,0.5735609352111816
1763697203964267300,7.698267333984375,5.843797339630127,-8.826673332977295,0.3585316986083984
1763697203974227200,7.708227294921875,5.277718284606934,-8.31221925125122,0.2337339370727539
1763697203984188200,7.718188232421875,5.335029486846923,-7.9104422851562495,0.29553426742553707
1763697203994149000,7.728149169921875,5.364807369995117,-7.630470328521728,0.4616320075988769
1763697204004110000,7.738110107421875,4.937292736053466,-7.425466811370849,0.6444891593933105
1763697204014070300,7.7480703125,4.41775097579956,-7.324012516021728,0.8758288948059082
1763697204024031200,7.75803125,4.14975002746582,-7.414692903900146,1.1866261978149413
1763697204033992200,7.7679921875,4.261379679870605,-7.6659344406127925,1.5301941360473632
1763697204043952000,7.7779521484375,4.408473444366455,-8.096441826629638,1.856553749847412
1763697204053913000,7.7879130859375,4.229806145477295,-8.586953891754149,2.1452046874999997
1763697204063874300,7.797874267578125,3.910329861450195,-9.130437668609618,2.3977929626464842
1763697204073835000,7.8078349609375,3.669114044189453,-9.633369654846192,2.5758617111206052
1763697204083795000,7.817794921875,3.531297811126709,-10.031555318450927,2.5972598884582516
1763697204093756200,7.827756103515625,3.460968137359619,-10.300454092407225,2.463633508300781
1763697204103717000,7.837717041015625,3.3445500816345213,-10.38754317779541,2.261173830413818
1763697204113678300,7.84767822265625,3.2894834434509277,-10.279504827880858,1.966986301422119
1763697204123638300,7.85763818359375,3.441814524078369,-10.081683915710448,1.6787842765808105
1763697204133599200,7.86759912109375,3.235613906097412,-9.874735109710693,1.4018050720214843
1763697204143560200,7.877560302734375,2.728492066955566,-9.672724344635009,1.1813888816833495
1763697204153521400,7.887521484375,2.503137835693359,-9.510217906951905,1.0702081420898437
1763697204163481300,7.8974814453125,2.497750881958008,-9.284115487670897,1.0090063621520995
1763697204173442000,7.907442138671875,2.5100211654663083,-9.019406566619873,0.9811737678527831
1763697204183403300,7.9174033203125,2.5644892532348633,-8.884583085632324,1.0598831474304198
1763697204193363200,7.92736328125,2.6508301506042478,-8.844629845428466,1.2381015335083008
1763697204203324200,7.93732421875,2.6167127769470215,-8.780285675811767,1.4806640892028808
1763697204213285000,7.94728515625,2.5103204406738278,-8.718634983062744,1.5851111366271973
1763697204223246000,7.95724609375,2.461837857055664,-8.67658681640625,1.4791677131652832
1763697204233206300,7.967206298828125,2.511517541503906,-8.598176712036132,1.3037924415588378
1763697204243167200,7.977167236328125,2.4875755249023435,-8.377610884094238,1.1164461616516113
1763697204253128200,7.987128173828125,2.4283190338134766,-8.102128055572509,0.9231143775939941
1763697204263089200,7.997089111328125,2.465429159545898,-7.857470573425292,0.6880337020874023
1763697204273049000,8.007049072265625,2.5288755035400388,-7.7401546920776365,0.45774142990112304
1763697204283010300,8.01701025390625,2.578704825592041,-7.759757218170166,0.32576106338500976
1763697204292971000,8.026970947265625,2.6768670936584473,-7.798962270355224,0.2467524085998535
1763697204302931000,8.036930908203125,2.731784094238281,-7.810933278656005,0.2723404388427734
1763697204312892200,8.04689208984375,2.7454011161804197,-7.9104422851562495,0.32306758651733397
1763697204322853000,8.05685302734375,2.795080800628662,-8.05693749923706,0.3459621398925781
1763697204332814300,8.066814453125,2.8021137680053707,-8.225429441070556,0.30361469802856444
1763697204342774300,8.076774169921874,2.703652224731445,-8.419210137939453,0.3022679595947265
1763697204352735200,8.0867353515625,2.7302877182006835,-8.674342252349852,0.3941454483032226
1763697204362696200,8.0966962890625,2.8048072448730466,-8.925733426666259,0.4804863456726074
1763697204372657400,8.106657470703125,2.8311434631347656,-9.128642017364502,0.509516040802002
1763697204382617300,8.116617431640625,2.788646383666992,-9.232340876770019,0.4676175117492676
1763697204392578000,8.126578125,2.589329095458984,-9.213187263488768,0.4563946914672851
1763697204402539300,8.136539306640625,2.483984222412109,-9.163208303833008,0.49530046844482417
1763697204412499200,8.146499267578125,2.5528175201416015,-9.143755415344238,0.5973533142089843
1763697204422460200,8.156460205078124,2.719064897918701,-9.08494783706665,0.6953659446716308
1763697204432421000,8.166421142578125,2.7446529281616208,-9.014019612884521,0.733523533630371
1763697204442382000,8.176382080078126,2.5188497840881348,-8.990227233886719,0.6726210289001464
1763697204452342300,8.18634228515625,2.3219266975402832,-9.042750032806396,0.5352537086486816
1763697204462303200,8.19630322265625,2.155380044555664,-9.146299254608154,0.3173813575744629
1763697204472264200,8.20626416015625,2.0573674140930174,-9.272743029785156,0.13198036651611328
1763697204482225400,8.216225341796875,1.9319711021423338,-9.414300202941893,-0.04833294601440429
1763697204492185300,8.226185302734375,1.771559590911865,-9.610924014282226,-0.15517419509887695
1763697204502146300,8.236146240234374,1.7893664657592772,-9.846752877807617,-0.15083470458984374
1763697204512107300,8.246107177734375,1.970128691101074,-9.94656115951538,-0.14021043472290037
1763697204522068200,8.256068115234376,1.9883844787597655,-9.894038360595703,-0.02693476867675781
1763697204532028200,8.266028076171875,1.8710685974121093,-9.758167416381836,0.13467384338378904
1763697204541989400,8.2759892578125,1.7969979835510252,-9.628581251525878,0.4460696968078613
1763697204551950300,8.285950439453124,1.712303099822998,-9.502885664367675,0.8153753028869628
1763697204561910300,8.29591015625,1.6735469604492186,-9.416245491790772,1.0516530792236327
1763697204571871200,8.305871337890625,1.7732056045532225,-9.293991569519042,1.2051812606811523
1763697204581832400,8.31583251953125,1.8038813133239746,-9.216329653167724,1.2630910133361815
1763697204591793400,8.32579345703125,1.8381483245849608,-9.214683639526367,1.316362000274658
1763697204601753300,8.33575341796875,1.8596961395263671,-9.21857421722412,1.2901754196166992
1763697204611714300,8.34571435546875,1.7521067024230956,-9.274239405822753,1.1270704315185547
1763697204621675300,8.35567529296875,1.6102502540588377,-9.433753091430663,0.9626187049865722
1763697204631635500,8.365635498046874,1.5318401496887206,-9.645191025543213,0.8848071510314941
1763697204641596400,8.375596435546875,1.5294459480285643,-9.712527947235106,0.8328829025268554
1763697204651557000,8.38555712890625,1.502960092163086,-9.588029460906982,0.75971011428833
1763697204661518300,8.395518310546874,1.434575707244873,-9.405022671508789,0.713771369934082
1763697204671478300,8.405478271484375,1.3831003715515136,-9.269002089691162,0.7173626724243164
1763697204681439500,8.415439453125,1.4155717315673828,-9.137769911193848,0.6989572471618652
1763697204691400200,8.425400146484375,1.493383285522461,-9.005190994262694,0.6028899055480956
1763697204701361400,8.435361328125,1.4668974296569823,-8.99486599960327,0.565031591796875
1763697204711321300,8.4453212890625,1.387888774871826,-9.086593850708008,0.49589901885986326
1763697204721282300,8.4552822265625,1.255758770751953,-9.222913707733154,0.26979659957885743
1763697204731243300,8.4652431640625,1.0886135673522948,-9.493757770538329,-0.08828618621826172
1763697204741203200,8.475203125,0.7686883705139159,-9.97783541870117,-0.4478653480529785
1763697204751164200,8.4851640625,0.4682160621643066,-10.612448496246337,-0.5612906517028808
1763697204761125400,8.49512548828125,0.5041290870666504,-10.951676943969726,-0.37274727096557614
1763697204771086300,8.50508642578125,0.5547065971374512,-10.699088668823242,0.07586626510620116
1763697204781046300,8.51504638671875,0.4869207626342773,-10.27277113571167,0.7592612014770508
1763697204791007200,8.52500732421875,0.5014356101989745,-10.047865817260742,1.5134347244262694
1763697204800968400,8.534968505859375,0.6021417175292968,-9.925462257385254,2.1838111892700196
1763697204810929400,8.544929443359376,0.6730699417114258,-9.839570272827148,2.684498611450195
1763697204820889300,8.554889404296874,0.6865373260498047,-9.899724589538573,3.0789433349609374
1763697204830850300,8.564850341796875,0.6738181297302246,-10.062829577636718,3.187430597686767
1763697204840811300,8.574811279296876,0.5331587821960448,-10.151415039062499,2.6595091316223143
1763697204850771500,8.584771484375,0.3221697608947754,-10.184784224700927,1.7311574378967285
1763697204860732400,8.594732421875,0.1001075569152832,-10.295815326690674,0.8670002761840819
1763697204870693000,8.604693115234374,-0.11701660614013672,-10.472836611938476,0.26830022354125976
1763697204880654300,8.614654296875,-0.2690484115600586,-10.639981815338134,-0.05431845016479492
1763697204890614300,8.6246142578125,-0.31663316955566406,-10.826130994415282,-0.2284966209411621
1763697204900575500,8.634575439453124,-0.3408744613647461,-11.161468864440918,-0.256628490447998
1763697204910536200,8.6445361328125,-0.3963900123596191,-11.752986312103271,-0.02259527816772461
1763697204920497400,8.654497314453126,-0.5455787033081054,-12.497882303619384,0.45070846252441404
1763697204930457300,8.664457275390625,-0.6367080039978027,-13.363535841369629,1.115997248840332
1763697204940418300,8.674418212890625,-0.5333084197998047,-14.293683186340331,1.8613421531677246
1763697204950379300,8.684379150390624,-0.26126725616455077,-14.982165801239013,2.4925135658264157
1763697204960339200,8.694339111328125,0.1083376251220703,-15.259593918609617,2.8899510414123535
1763697204970300200,8.704300048828125,0.44891281127929683,-15.072247638702391,2.9870658462524413
1763697204980261400,8.714261474609375,0.6498761131286621,-14.580089559936523,2.855085479736328
1763697204990222300,8.724222412109375,0.7820061172485351,-13.977798204803467,2.6370634910583495
1763697205000182300,8.734182373046876,0.8961796089172362,-13.33061556854248,2.4135049110412594
1763697205010143200,8.744143310546875,1.010652375793457,-12.60951195602417,2.1951836471557615
1763697205020104400,8.7541044921875,1.1854290969848633,-11.912948910522461,2.018760912322998
1763697205030064400,8.764064453125,1.3690344367980956,-11.34507420425415,2.0150199722290036
1763697205040025300,8.774025390625,1.5879542510986326,-10.83421142501831,2.079214504241943
1763697205049986300,8.783986328125,1.8894740226745603,-10.416722510528563,2.189347780609131
1763697205059947300,8.793947265625,2.2897546127319335,-10.142436782836914,2.3042694602966307
1763697205069907500,8.803907470703125,2.8227637573242186,-10.090811809539794,2.4034791915893554
1763697205079868400,8.813868408203126,3.412335916137695,-10.248230568695067,2.4076690444946287
1763697205089829000,8.8238291015625,3.9661446876525877,-10.563217724609375,2.156577145385742
1763697205099789300,8.833789306640625,4.339490509033203,-10.966042153930664,1.6938976745605467
1763697205109750300,8.843750244140624,4.418349526214599,-11.339687250518798,1.1465233200073242
1763697205119711500,8.85371142578125,4.230404695892334,-11.572672999572752,0.5975029518127442
1763697205129672200,8.863672119140626,3.706224169921875,-11.583297269439697,0.04638765716552734
1763697205139632000,8.873632080078124,3.017143004608154,-11.40881982345581,-0.3338414939880371
1763697205149593300,8.88359326171875,2.4040777420043944,-11.157279011535644,-0.48108489608764643
1763697205159554300,8.89355419921875,1.9111714752197264,-10.865635321807861,-0.426467170715332
1763697205169514500,8.903514404296875,1.5218144302368164,-10.503811595916748,-0.2284966209411621
1763697205179475200,8.91347509765625,1.2859855667114257,-10.063877040863037,0.17088614349365233
1763697205189436200,8.923436279296874,1.2618939125061035,-9.695768535614013,0.6798036338806152
1763697205199397400,8.9333974609375,1.5055039314270018,-9.440935696411133,1.1288660827636718
1763697205209357300,8.943357421875,2.1487959899902345,-9.32137525100708,1.5286977600097655
1763697205219318300,8.953318359375,3.028665100097656,-9.324517640686034,1.9578584075927734
1763697205229279200,8.963279296875,3.782090435028076,-9.325714741516112,2.3460183517456055
1763697205239240400,8.973240478515624,4.111143525695801,-9.228300661468506,2.3790882621765137
1763697205249200400,8.983200439453125,3.8206969367980954,-9.04664061050415,2.037914525604248
1763697205259161300,8.993161376953125,3.0502129150390624,-8.894908080291748,1.5939397552490233
1763697205269122300,9.003122314453124,2.211344508361816,-8.788815019226075,1.2279261764526366
1763697205279082200,9.013082275390625,1.6572364616394042,-8.63768103942871,0.8022071937561035
1763697205289043500,9.02304345703125,1.5439607955932617,-8.456619538879394,0.28640637359619137
1763697205299004400,9.03300439453125,1.753752716064453,-8.285434120178222,-0.15203180541992187
1763697205308965000,9.042965087890625,2.2294506584167477,-8.114847251892089,-0.3603273498535156
1763697205318925300,9.05292529296875,2.924666965484619,-7.919121266174316,-0.28431144714355466
1763697205328886300,9.06288623046875,3.679289401245117,-7.806294512939453,0.1331774673461914
1763697205338847500,9.072847412109375,4.349665866088867,-7.732523174285888,0.8363245674133301
1763697205348807400,9.082807373046874,4.569782781219482,-7.558345003509521,1.4193126716613769
1763697205358768000,9.09276806640625,4.321833271789551,-7.356633513641357,1.698835715484619
1763697205368729300,9.102729248046876,3.9119758750915525,-7.288398766326904,1.7114052742004393
1763697205378690300,9.112690185546874,3.7098154724121093,-7.271190441894531,1.48754741897583
1763697205388650500,9.122650390625,3.838952724456787,-7.289146954345703,1.0913070442199706
1763697205398611200,9.132611083984376,4.16306777420044,-7.3280527313232415,0.6652887863159179
1763697205408572200,9.142572265625,4.434510387420654,-7.2894462295532225,0.22101474075317382
1763697205418532400,9.152532470703125,4.630535648345947,-7.235127779388427,-0.07900865478515624
1763697205428493300,9.162493408203124,4.77568412399292,-7.101052486419677,-0.14215572357177733
1763697205438454300,9.172454345703125,4.668693237304687,-6.8022261917114255,-0.044292730712890624
1763697205448415200,9.182415283203126,4.637718253326415,-6.534823793792724,0.14110826034545898
1763697205458375200,9.192375244140624,4.810250410461426,-6.298097104644775,0.28700492401123046
1763697205468335900,9.2023359375,5.046827462005615,-6.156240656280517,0.5198410354614258
1763697205478296800,9.212296875,5.148730670166016,-6.025457390594482,0.9072527915954589
1763697205488256800,9.2222568359375,5.044433260345459,-5.859509288024902,1.2560580459594726
1763697205498217700,9.2322177734375,5.015553202819824,-5.595398917388915,1.4034510856628417
1763697205508178700,9.2421787109375,5.133467634582519,-5.327248331451416,1.4226046989440917
1763697205518140000,9.252139892578125,5.319167900848388,-5.181950218200683,1.4618097511291503
1763697205528099800,9.262099853515625,5.5659203094482415,-5.1982607170104975,1.495777487182617
1763697205538060800,9.272060791015624,5.750722750091552,-5.237316131591797,1.4806640892028808
1763697205548021800,9.282021728515625,5.786186862182617,-5.222801284027099,1.3482348098754882
1763697205557981700,9.291981689453126,5.980566109466553,-5.1243397407531734,1.1800421432495116
1763697205567943000,9.30194287109375,6.178985572052001,-4.90946014175415,1.0465654006958007
1763697205577903900,9.31190380859375,6.167762751770019,-4.522347660827636,0.985064345550537
1763697205587864800,9.32186474609375,6.152499716186523,-4.099471792602539,0.9168295982360839
1763697205597824800,9.33182470703125,6.2392895263671875,-3.775207105255127,0.9142857589721679
1763697205607785700,9.34178564453125,6.399102487182617,-3.6242227630615234,0.8128314636230468
1763697205617747000,9.351746826171874,6.511031414794921,-3.6420296379089354,0.5975029518127442
1763697205627707000,9.361706787109375,6.622212154388428,-3.8148610702514647,0.2624643569946289
1763697205637667800,9.371667724609376,6.635978813934326,-3.9962218460083005,0.020500351715087888
1763697205647628800,9.38162890625,6.5960255737304685,-4.1481040138244625,0.044292730712890624
1763697205657590000,9.391590087890625,6.565798777770996,-4.086752596282959,0.08604162216186523
1763697205667550000,9.401550048828126,6.59512774810791,-3.749469437408447,-0.01840542526245117
1763697205677510700,9.4115107421875,6.642113955688476,-3.4281975021362303,-0.25962124252319335
1763697205687471900,9.421471923828125,6.630741497802734,-3.1543606872558594,-0.5746083984375
1763697205697431800,9.431431884765624,6.668300536346435,-3.015496990966797,-0.7447463539123534
1763697205707392800,9.441392822265625,6.724863550567626,-3.0728081932067868,-0.49320554199218747
1763697205717353700,9.451353759765626,6.922834100341796,-3.2769138847351074,-0.11641805572509765
1763697205727314700,9.461314697265625,7.257573419952392,-3.5161844131469726,0.06329670639038086
1763697205737275000,9.47127490234375,7.409904500579834,-3.7542578407287595,-0.0010474632263183592
1763697205747235800,9.48123583984375,7.307702017211914,-3.8865374824523924,-0.09831190567016601
1763697205757196800,9.49119677734375,7.070676052856445,-3.8914755233764646,-0.3489548919677734
1763697205767156700,9.50115673828125,6.913855844116211,-3.884292918395996,-0.716913759613037
1763697205777117700,9.51111767578125,6.884526873779296,-3.950582376861572,-1.038784245300293
1763697205787079000,9.521078857421875,6.883629048156738,-4.074332675170898,-1.2065279991149902
1763697205797039900,9.531039794921876,6.986878994750976,-4.2402807777404785,-1.1752537399291991
1763697205806999800,9.540999755859374,7.004985144805908,-4.4184991638183595,-1.0471639511108397
1763697205816960800,9.550960693359375,6.842179431915283,-4.560056336975097,-0.8783727340698242
1763697205826921700,9.560921630859376,6.757634185791015,-4.7022120605468745,-0.5524620330810547
1763697205836882000,9.5708818359375,6.955455097961425,-4.670039975738525,-0.11926117019653319
1763697205846843000,9.5808427734375,8.595782510375976,-4.981286191558838,0.6804021842956542
1763697205856803800,9.590803955078124,12.147431035614012,-6.50549482345581,2.123357597351074
1763697205866764800,9.600764892578125,16.59271533050537,-9.889698870086669,3.8153099830627437
1763697205876724700,9.610724853515626,19.50556092529297,-14.334384614562987,4.5976153755187985
1763697205886686000,9.62068603515625,17.999458443450926,-17.423802581787108,3.1610943794250486
1763697205896646700,9.630646728515625,12.495937014770506,-17.369633769226073,0.5847837554931641
1763697205906606800,9.64060693359375,7.243357847595214,-14.228890103912352,-1.9853917266845702
1763697205916567800,9.65056787109375,4.24536845626831,-9.387066159057616,-3.53069926071167
1763697205926528800,9.66052880859375,3.5212720916748044,-5.032911164855957,-2.921524575805664
1763697205936489000,9.670489013671874,5.0285716743469235,-1.8668787445068358,-0.618003303527832
1763697205946449700,9.68044970703125,7.220014381408691,0.05162497329711914,1.605012937927246
1763697205956411000,9.690410888671876,8.443601067352294,0.2947860794067383,2.302922721862793
1763697205966371800,9.700371826171875,8.199093222808838,-0.7978677032470702,1.8697218589782714
1763697205976331800,9.710331787109375,7.76289960784912,-3.5728970649719236,1.5797241828918456
1763697205986292700,9.720292724609376,7.803301760864257,-7.353341486358642,1.8330606460571288
1763697205996253700,9.730253662109375,7.386261759185791,-10.638784714508056,1.8174983352661132
1763697206006214000,9.7402138671875,6.126013860321045,-13.054234914398192,1.5186720405578613
1763697206016174800,9.7501748046875,5.69505756149292,-14.567520001220702,1.4164695571899413
1763697206026135800,9.7601357421875,6.160580146789551,-14.635455473327635,1.2630910133361815
1763697206036096800,9.7700966796875,6.985981169128418,-12.93392628097534,0.7785644523620605
1763697206046056700,9.780056640625,7.464821501159667,-10.385897164154052,0.3833715408325195
1763697206056018000,9.790017822265625,7.26505530014038,-8.230517119598389,0.3329436683654785
1763697206065979000,9.799978759765626,6.324582960510254,-6.6976295066833496,0.37319618377685543
1763697206075938800,9.809938720703125,5.3101896446228025,-5.695955387115478,0.37125089492797847
1763697206085899800,9.819899658203125,4.508581001281738,-5.0775031707763665,0.37918168792724605
1763697206095860700,9.82986083984375,3.8609494522094723,-4.838681555175781,0.39160160903930663
1763697206105821000,9.839821044921875,3.5954923431396484,-5.053561154174805,0.5366004470825195
1763697206115782000,9.849781982421876,3.6993408401489254,-5.709422771453857,0.8460510116577148
1763697206125742800,9.859742919921874,3.9600095458984375,-6.714688193511963,1.3133692481994628
1763697206135703800,9.869703857421875,4.222473902893066,-7.976432468414306,1.765274811553955
1763697206145663700,9.879663818359376,4.4774563796997064,-9.370905297851563,2.013523596191406
1763697206155625000,9.889625,4.824465982818603,-10.69265425186157,2.025195329284668
1763697206165585700,9.899585693359375,5.023483995819092,-11.763012031555174,1.9454384864807128
1763697206175545600,9.909545654296876,4.947168817901611,-12.409296842193603,1.8070237030029295
1763697206185506800,9.9195068359375,4.563797277069091,-12.4751373878479,1.4281412902832031
1763697206195467800,9.9294677734375,4.06670115737915,-11.915941662597655,0.8485948509216308
1763697206205428700,9.9394287109375,3.8361096099853516,-10.947786366271972,0.31528643112182614
1763697206215388700,9.949388671875,3.734206401824951,-9.922619142913819,-0.03277063522338867
1763697206225350000,9.959349853515626,3.5214217292785643,-9.0788126953125,-0.22251111679077148
1763697206235310800,9.969310791015625,3.349937035369873,-8.52275935974121,-0.2659060218811035
1763697206245270800,9.979270751953125,3.2983120620727537,-8.244732691955566,-0.11626841812133788
1763697206255231700,9.989231689453124,3.0353987922668457,-8.209118942260742,0.13377601776123046
1763697206265192700,9.999192626953125,2.7506384323120114,-8.317007654571533,0.27174188842773433
1763697206275153000,10.00915283203125,2.7665000183105466,-8.550891229248046,0.371550170135498
1763697206285113900,10.01911376953125,2.868253588867187,-8.77834038696289,0.48677112503051756
1763697206295074800,10.02907470703125,2.8918963302612304,-8.95042363128662,0.5568015235900878
1763697206305035800,10.039035888671876,2.7578210372924805,-9.023297144317626,0.6432920585632323
1763697206314995700,10.04899560546875,2.669834126281738,-9.04035583114624,0.7417536018371581
1763697206324957000,10.05895703125,2.629132698059082,-8.935908783721922,0.8421604339599609
1763697206334918000,10.06891796875,2.4028806411743164,-8.735394394683837,0.9639654434204101
1763697206344877800,10.0788779296875,2.0383634384155274,-8.408735505676269,1.038185694885254
1763697206354838800,10.0888388671875,1.7621324218749999,-8.098985665893554,1.0558429321289062
1763697206364799700,10.0987998046875,1.7140987510681152,-7.829039428710937,1.1375450637817381
1763697206374760000,10.108760009765625,1.6971897018432616,-7.651868505859374,1.3254898941040039
1763697206384721000,10.118720947265626,1.6446669029235839,-7.512555896759033,1.507449220275879
1763697206394681600,10.128681640625,1.5240589942932128,-7.4405802093505855,1.5860089622497557
1763697206404642800,10.138642822265625,1.3895347885131835,-7.408108849334717,1.6297031425476074
1763697206414602800,10.148602783203126,1.3009493270874022,-7.465420051574706,1.6564882736206055
1763697206424564000,10.15856396484375,1.3787608810424803,-7.643339162445068,1.6314987937927246
1763697206434524700,10.168524658203125,1.548150648498535,-7.864353903198242,1.4086884017944334
1763697206444484600,10.178484619140624,1.6991349906921385,-8.189815691375731,1.1014824012756348
1763697206454445800,10.18844580078125,1.848323681640625,-8.63124662246704,0.8824129493713379
1763697206464406800,10.19840673828125,2.0820576187133786,-9.02733735961914,0.7688380081176758
1763697206474366500,10.208366455078124,2.204461178588867,-9.362375954437255,0.7293336807250976
1763697206484327700,10.21832763671875,2.1262007118225097,-9.680355862426758,0.7594108390808105
1763697206494288400,10.228288330078126,1.9822493370056151,-9.874585472106933,0.8227075454711914
1763697206504249600,10.23824951171875,2.0841525451660154,-9.933093775177001,0.8840589630126953
1763697206514209500,10.24820947265625,2.3677158042907713,-9.910498497009277,0.9736918876647949
1763697206524170500,10.25817041015625,2.487276249694824,-9.797073193359374,1.0378864196777342
1763697206534131500,10.26813134765625,2.472611764526367,-9.687987380218505,0.9059060531616211
1763697206544091400,10.27809130859375,2.331054591369629,-9.714323598480224,0.6459855354309082
1763697206554052600,10.288052490234374,2.090886237335205,-9.785102185058593,0.24690204620361328
1763697206564013600,10.298013671875,1.8077718910217284,-9.901071327972412,-0.16609774017333984
1763697206573973500,10.307973388671876,1.552041226196289,-10.059088637542724,-0.4251204322814941
1763697206583934500,10.3179345703125,1.4380173721313476,-10.23431427154541,-0.5345055206298828
1763697206593895400,10.3278955078125,1.3516764747619627,-10.33606784210205,-0.5280711036682129
1763697206603856600,10.337856689453124,1.2176011817932129,-10.26603744354248,-0.3178302703857422
1763697206613816600,10.347816650390625,1.216254443359375,-10.09979006576538,-0.047285482788085934
1763697206623777300,10.35777734375,1.3415011177062988,-9.87653076095581,0.22670096969604492
1763697206633738500,10.367738525390624,1.493383285522461,-9.679607674407958,0.5626373901367188
1763697206643698400,10.377698486328125,1.5343839889526367,-9.491812481689452,0.9106944564819336
1763697206653659600,10.38765966796875,1.4864999557495115,-9.361777404022217,1.1581950531005858
1763697206663620400,10.397620361328125,1.3634978454589843,-9.28875425338745,1.38549457321167
1763697206673580300,10.407580322265625,1.3646949462890625,-9.264363323974608,1.5619173080444335
1763697206683541500,10.41754150390625,1.5254057327270507,-9.311050256347656,1.695693325805664
1763697206693502500,10.42750244140625,1.6467618293762205,-9.393650213623046,1.684769780731201
1763697206703463700,10.437463623046876,1.5339350761413573,-9.502885664367675,1.47482822265625
1763697206713423600,10.447423583984374,1.362450382232666,-9.452008879089355,1.0971429107666015
1763697206723384300,10.45738427734375,1.3257891693115234,-9.268253901672363,0.739957950592041
1763697206733345500,10.467345458984376,1.3593079925537108,-9.041552931976318,0.553509496307373
1763697206743305500,10.477305419921874,1.4146739059448241,-8.924685963439941,0.5566518859863281
1763697206753266700,10.4872666015625,1.4615104759216309,-8.941445375061035,0.6063315704345703
1763697206763227400,10.497227294921874,1.5376760162353516,-9.07192936553955,0.565630142211914
1763697206773187300,10.507187255859375,1.5221137054443359,-9.319280324554443,0.38741175613403317
1763697206783148500,10.5171484375,1.3645453086853025,-9.625738137054443,0.17896657409667968
1763697206793109500,10.527109619140624,1.1420341918945311,-9.918429290008545,0.015562310791015624
1763697206803070500,10.537070556640625,0.9952397026062011,-10.11954222946167,-0.07466916427612304
1763697206813030400,10.547030517578126,0.9099462684631348,-10.208576603698729,0.004339490509033203
1763697206822991400,10.556991455078125,0.8584709327697754,-10.156951630401611,0.24166473007202147
1763697206832952600,10.56695263671875,0.8655039001464844,-10.06731870574951,0.6001964286804199
1763697206842912500,10.57691259765625,0.8502408645629882,-9.935338339233398,0.9163806854248047
1763697206852873500,10.58687353515625,0.7428010650634765,-9.85169091873169,1.0040683212280272
1763697206862834400,10.59683447265625,0.503680174255371,-10.022726699829102,0.7755717002868652
1763697206872794400,10.60679443359375,0.24316110610961914,-10.55349128036499,0.4311059364318847
1763697206882755600,10.616755615234375,0.02858078231811523,-11.240627156829833,0.23822306518554687
1763697206892716300,10.62671630859375,-0.251540811920166,-11.661108823394775,0.2985270195007324
1763697206902677500,10.636677490234375,-0.3651157531738281,-11.88152501373291,0.563086302947998
1763697206912637400,10.646637451171875,-0.40985739669799803,-12.13082126159668,1.044470474243164
1763697206922598400,10.656598388671876,-0.43948564224243164,-12.65395432434082,1.6747440612792968
1763697206932559600,10.6665595703125,-0.2314893730163574,-13.478906433868408,2.4124574478149414
1763697206942519600,10.67651953125,0.20036475143432617,-14.41518892059326,2.955193036651611
1763697206952480500,10.68648046875,0.6741174049377441,-15.22038886642456,3.0488661766052245
1763697206962441500,10.69644140625,1.1258733306884765,-15.53313145828247,2.550572956085205
1763697206972401400,10.7064013671875,1.4701894569396972,-15.171008457183836,1.6696563827514648
1763697206982362600,10.716362548828124,1.562216583251953,-14.432696520233154,1.0726023437499999
1763697206992323300,10.7263232421875,1.6675614562988281,-13.677475534057617,0.8731354179382323
1763697207002283500,10.736283447265626,1.9098247367858885,-12.873771964263915,0.9130886581420898
1763697207012244500,10.746244384765625,2.203114440155029,-12.081590489959716,1.1713631622314453
1763697207022205700,10.756205810546875,2.1990742248535153,-11.469572690582275,1.6726491348266601
1763697207032166400,10.76616650390625,2.0834043571472165,-10.998663151550293,2.3005285202026364
1763697207042126300,10.776126220703125,2.0970213790893553,-10.682029981994628,2.77712428817749
1763697207052087600,10.786087646484376,2.3122002532958983,-10.62920790786743,3.097648035430908
1763697207062048500,10.796048583984375,2.5891794578552245,-10.950629480743407,3.3424551551818844
1763697207072008400,10.806008544921875,2.8022634056091307,-11.485883189392089,3.5166333259582516
1763697207081969400,10.815969482421876,3.0157962661743163,-12.02098726043701,3.46007031173706
1763697207091930400,10.825930419921875,3.1938650146484373,-12.452542109680175,3.122487877655029
1763697207101890600,10.835890625,3.257311358642578,-12.657545626831054,2.5254338386535644
1763697207111851500,10.8458515625,3.2296284019470214,-12.561627922821044,1.8288707931518553
1763697207121812500,10.8558125,2.999785042572021,-12.20653788909912,1.346439158630371
1763697207131772400,10.8657724609375,2.561945413970947,-11.793837377929687,1.117942537689209
1763697207141733400,10.8757333984375,2.0419547409057617,-11.342979277801513,1.2048819854736328
1763697207151694600,10.885694580078125,1.5860089622497557,-10.84708025894165,1.4921861846923827
1763697207161655600,10.895655517578126,1.2695254302978516,-10.380061297607421,1.7998410980224608
1763697207171615500,10.905615478515625,1.1451765815734862,-9.96002854385376,2.0796634170532227
1763697207181576400,10.915576416015625,1.2425906616210938,-9.65910732269287,2.316839019012451
1763697207191537400,10.925537353515624,1.5867571502685547,-9.56977367324829,2.5383026725769042
1763697207201497600,10.93549755859375,2.046892781829834,-9.571270049285888,2.5944167739868162
1763697207211458600,10.94545849609375,2.5790041007995606,-9.666589202880859,2.399887889099121
1763697207221419500,10.95541943359375,2.9683611457824703,-9.656713121032714,2.1326351287841794
1763697207231379500,10.96537939453125,2.8233623077392576,-9.569923310852051,1.7744027053833007
1763697207241340400,10.97534033203125,2.286911498260498,-9.406967960357665,1.3600561805725098
1763697207251301600,10.985301513671875,1.6566379112243652,-9.095871382141112,0.8197147933959961
1763697207261261600,10.995261474609375,1.4163199195861815,-8.706514337158202,0.18121113815307616
1763697207271222500,11.005222412109376,1.7420809829711914,-8.374318856811524,-0.37409400939941406
1763697207281183500,11.01518359375,2.2842180213928223,-8.107365371704102,-0.5599439132690429
1763697207291143400,11.025143310546875,2.7789199394226074,-7.829787616729736,-0.41045594711303707
1763697207301104600,11.035104736328124,3.264942876434326,-7.445069337463378,-0.16924012985229492
1763697207311065300,11.0450654296875,3.9496845512390135,-7.119308274078369,0.10669161148071288
1763697207321026600,11.055026611328126,4.495562529754638,-7.011269924163818,0.6777087074279785
1763697207330986500,11.064986572265624,4.472518338775634,-6.891859116363525,1.405695649719238
1763697207340947500,11.074947509765625,4.050540296173096,-6.722020436096191,1.9244892219543457
1763697207350908400,11.084908447265626,3.442413074493408,-6.571933919525146,2.122759046936035
1763697207360868400,11.094868408203125,2.915539071655273,-6.431124934387206,2.064849294281006
1763697207370829600,11.10482958984375,2.7727847976684568,-6.392368795013427,1.7693150268554687
1763697207380790500,11.11479052734375,2.9267618919372556,-6.45476767578125,1.3789105186462403
1763697207390750500,11.12475048828125,3.2995091629028317,-6.53108285369873,1.0673650276184081
1763697207400711400,11.13471142578125,3.7015854042053222,-6.5571197967529296,0.8964788841247558
1763697207410672400,11.14467236328125,4.00879140472412,-6.466589046478271,0.7908347358703612
1763697207420632300,11.15463232421875,4.1195232315063475,-6.364536200714111,0.8316858016967773
1763697207430593500,11.164593505859376,4.247613020324707,-6.260687703704834,0.9686042091369629
1763697207440554500,11.174554443359375,4.386925629425049,-6.077082363891601,1.1194389137268066
1763697207450514400,11.184514404296875,4.544194750976562,-5.8731263099670405,1.2852373786926268
1763697207460475400,11.194475341796876,4.835389527893066,-5.658396348571777,1.4022539848327635
1763697207470437600,11.204437744140625,5.016151753234863,-5.430498278045654,1.4859014053344726
1763697207480398600,11.214398681640626,5.0656818000793455,-5.240009608459473,1.5836147605895996
1763697207490358500,11.224358642578125,5.1416977027893065,-5.048174200439453,1.6189292350769042
1763697207500319700,11.23431982421875,5.293280595397949,-4.883423198699951,1.5924433792114256
1763697207510280700,11.24428076171875,5.545419957733154,-4.761169276428222,1.514332550048828
1763697207520240600,11.25424072265625,5.746083984375,-4.645499408721924,1.465849966430664
1763697207530201600,11.26420166015625,5.640439836120605,-4.607192182159424,1.3397054664611816
1763697207540162600,11.27416259765625,5.521477941131591,-4.564994377899169,1.1303624588012695
1763697207550122500,11.28412255859375,5.6778492370605465,-4.489427388000488,0.9126397453308105
1763697207560083700,11.294083740234376,5.831826331329346,-4.365527452087402,0.8601169464111328
1763697207570044400,11.30404443359375,5.973533142089844,-4.203918840026855,0.8325836273193359
1763697207580004600,11.314004638671875,6.158634857940673,-4.129997863769531,0.809539436340332
1763697207589965600,11.323965576171876,6.303484058380127,-4.122815258789062,0.7202057868957519
1763697207599926800,11.3339267578125,6.511629965209961,-4.101865994262695,0.5096656784057617
1763697207609886700,11.34388671875,6.647201634216308,-4.146458000183105,0.3570353225708008
1763697207619847400,11.353847412109374,6.738330934906005,-4.209904344177246,0.2241571304321289
1763697207629808600,11.36380859375,6.757185272979736,-4.327519500732421,0.17268179473876952
1763697207639768600,11.3737685546875,6.713790367889404,-4.3534068061828615,0.18001403732299803
1763697207649729500,11.3837294921875,6.915501857757568,-4.257788377380371,0.08215104446411133
1763697207659690500,11.3936904296875,7.17557201309204,-4.256441638946533,-0.051475335693359374
1763697207669651500,11.4036513671875,7.040449256896972,-4.358943397521973,-0.18809446792602538
1763697207679611600,11.413611572265625,6.832452987670898,-4.434510387420654,-0.2467524085998535
1763697207689572600,11.423572509765625,6.650643299102783,-4.439897341156006,-0.136619132232666
1763697207699533800,11.433533935546874,6.380248149108886,-4.3257238494873045,-0.08274959487915039
1763697207709493800,11.44349365234375,6.138134506225586,-4.240729690551758,-0.14170681076049804
1763697207719454500,11.453454345703125,6.024409927368164,-4.195688771820068,-0.18001403732299803
1763697207729415700,11.463415771484375,6.108655898284912,-4.21349564666748,-0.12734160079956053
1763697207739375600,11.473375732421875,6.406135454559326,-4.358195209503173,0.015861585998535155
1763697207749336800,11.4833369140625,7.423072609710693,-4.854842416381835,0.17253215713500974
1763697207759297500,11.493297607421875,9.0910829788208,-5.467458766174316,0.05626373901367187
1763697207769257500,11.503257568359375,11.82436344909668,-6.78651424331665,0.24839842224121092
1763697207779218700,11.51321875,14.296526300811767,-9.661202249145507,1.1094131942749024
1763697207789179600,11.5231796875,15.110255590057372,-12.92838968963623,1.416020644378662
1763697207799139600,11.5331396484375,13.857639208984374,-14.558990657806396,0.7457938171386719
1763697207809100500,11.5431005859375,10.72557452468872,-12.977620461273192,0.3363853332519531
1763697207819061500,11.5530615234375,8.38224964981079,-9.09766703338623,0.6720224784851074
1763697207829021700,11.563021728515626,6.744466076660156,-5.187935722351074,1.1059715293884276
1763697207838982700,11.572982666015625,5.36271244354248,-2.3924060089111325,1.5575778175354003
1763697207848943600,11.582943603515625,4.760870001220703,-0.9261071296691894,1.6403274124145506
1763697207858903600,11.592903564453126,4.840177931213379,-0.8393173194885254,1.7293617866516113
1763697207868864500,11.602864501953125,5.518634826660156,-1.6811784782409667,2.1520880172729493
1763697207878825700,11.61282568359375,6.928669966888427,-2.9276597175598145,2.5917232971191404
1763697207888786400,11.622786376953124,8.398260873413085,-4.441393717193603,2.486528061676025
1763697207898746400,11.632746337890625,9.539696514892578,-6.296002178192138,1.5898995399475098
1763697207908707600,11.64270751953125,10.162488221740722,-8.415319560241699,0.5862801315307616
1763697207918668500,11.65266845703125,9.599701194000243,-10.32888523712158,-0.05491700057983398
1763697207928628700,11.662628662109375,8.95745659866333,-11.547533882141112,-0.12045827102661132
1763697207938589700,11.672589599609376,8.838045790863037,-12.068572018432617,0.6251859085083007
1763697207948550700,11.682550537109375,8.639027777862548,-11.8369330078125,1.5798738204956053
1763697207958510600,11.692510498046875,7.93528212738037,-10.714052429199219,1.4772224243164063
1763697207968471600,11.702471435546874,6.93315909500122,-9.33978067626953,0.654365241241455
1763697207978432800,11.712432861328125,6.291064137268066,-8.264933768463134,-0.11327566604614257
1763697207988392700,11.722392822265626,6.464194844818115,-7.452401580047607,-0.3344400444030762
1763697207998353700,11.732353759765624,7.209839024353027,-6.901884835815429,0.04279635467529297
1763697208008314600,11.742314697265625,8.094945450592041,-6.613682810974121,0.8150760276794433
1763697208018274600,11.752274658203126,7.372345462036132,-6.437409713745117,1.4067431129455565
1763697208028235800,11.76223583984375,5.860107838439941,-6.443993768310547,1.504157192993164
1763697208038196500,11.772196533203125,5.407005174255371,-6.793547210693359,1.4853028549194336
1763697208048156400,11.782156494140626,5.634155056762695,-7.356184600830078,1.442207225036621
1763697208058117600,11.79211767578125,5.7317187744140625,-7.9272016967773435,1.2681786918640137
1763697208068078600,11.80207861328125,5.535693513488769,-8.364293137359619,1.0498574279785156
1763697208078039600,11.81203955078125,5.3028574020385735,-8.624363292694092,0.9222165519714355
1763697208087999500,11.82199951171875,5.187786084747314,-8.721777372741698,0.8183680549621581
1763697208097960700,11.831960693359376,5.1146132965087885,-8.75918677368164,0.7389104873657226
1763697208107921700,11.841921630859375,5.049670576477051,-8.67015239944458,0.6823474731445313
1763697208117881600,11.851881591796875,5.229834251403808,-8.616432499694824,0.7695861961364746
1763697208127842600,11.861842529296876,5.220556719970703,-8.642768717956542,0.9724947868347167
1763697208137803500,11.871803466796875,4.782567453765869,-8.71444513015747,1.1133037719726562
1763697208147763500,11.881763427734375,4.478204567718506,-8.897601557159422,1.3007996894836424
1763697208157724700,11.891724609375,4.313752841186523,-9.134328246307373,1.5058032066345215
1763697208167685600,11.901685546875,4.246715194702148,-9.330802420043945,1.5396213050842285
1763697208177645600,11.9116455078125,4.103212732696533,-9.508422255706787,1.511190160369873
1763697208187606500,11.9216064453125,3.9112276870727536,-9.578602291870117,1.3976152191162108
1763697208197567700,11.931567626953125,3.79226579208374,-9.59521206588745,1.2997522262573242
1763697208207527700,11.941527587890626,3.5435680946350097,-9.572616787719726,1.2883797683715819
1763697208217488600,11.951488525390625,3.328538858032226,-9.554510637664794,1.2674305038452147
1763697208227449600,11.96144970703125,3.466205453491211,-9.490914656066893,1.3135188858032225
1763697208237409500,11.971409423828124,3.6424785507202144,-9.364770156097412,1.3395558288574219
1763697208247370800,11.981370849609375,3.560028231048584,-9.145551066589356,1.167622222137451
1763697208257331700,11.991331787109376,3.248482740020752,-8.85525411529541,0.8001122673034667
1763697208267291600,12.001291748046874,2.9409774642944333,-8.577825997924805,0.49844285812377925
1763697208277252600,12.011252685546875,2.8960861831665037,-8.406640579223632,0.25737667846679685
1763697208287213600,12.021213623046876,2.9960441024780273,-8.312668164062499,0.0948702407836914
1763697208297173500,12.031173583984375,3.0916625312805173,-8.311022150421142,0.1044470474243164
1763697208307134700,12.041134765625,3.020285394287109,-8.319850769042969,0.1849520782470703
1763697208317095400,12.051095458984374,2.844161934661865,-8.307730123138427,0.2867056488037109
1763697208327055600,12.0610556640625,2.7211598243713375,-8.237400449371338,0.3447650390625
1763697208337016600,12.0710166015625,2.606537419891357,-8.150012088775634,0.3773860366821289
1763697208346977800,12.080977783203124,2.541445062255859,-8.059780613708496,0.390703783416748
1763697208356937700,12.090937744140625,2.570923670196533,-7.998728471374511,0.5225345123291015
1763697208366898400,12.1008984375,2.628983060455322,-7.9272016967773435,0.6593032821655274
1763697208376859600,12.110859619140625,2.6036943054199218,-7.887547731781005,0.7864952453613281
1763697208386820600,12.120820556640625,2.5568577354431152,-7.966257111358642,0.8747814315795898
1763697208396780500,12.130780517578126,2.3478140029907224,-8.084021905517577,1.0072107109069823
1763697208406741500,12.140741455078125,2.292747364807129,-8.289623973083495,1.1480196960449218
1763697208416702500,12.150702392578125,2.2076035682678223,-8.475773152160643,1.3648445838928223
1763697208426662700,12.16066259765625,1.9913772308349609,-8.671499137878417,1.4191630340576171
1763697208436623600,12.17062353515625,2.0823568939208985,-8.822333842468261,1.3431471313476562
1763697208446584600,12.18058447265625,2.2469582580566403,-8.98259571609497,1.2572551467895507
1763697208456544500,12.19054443359375,2.168248878479004,-9.09198080444336,1.1074679054260252
1763697208466505500,12.20050537109375,2.251896298980713,-9.195530026245116,0.8990227233886718
1763697208476466400,12.210466552734376,2.323123798370361,-9.220070593261719,0.7070376777648926
1763697208486426400,12.22042626953125,2.4263737449645997,-9.21199016265869,0.5315127685546874
1763697208496387300,12.23038720703125,2.661604058074951,-9.27004955291748,0.464774397277832
1763697208506348300,12.240348388671874,2.6684873878479003,-9.31464155883789,0.5333084197998047
1763697208516308200,12.25030810546875,2.4684219116210935,-9.338583575439452,0.5960065757751465
1763697208526269200,12.260269287109375,2.1607669982910154,-9.399635717773437,0.7251438278198242
1763697208536230400,12.27023046875,1.9455881240844726,-9.49914472427368,0.8598176712036132
1763697208546190300,12.2801904296875,1.9895815795898437,-9.553912087249754,0.9135375709533691
1763697208556151300,12.2901513671875,2.1894974182128903,-9.475801258087158,0.826149210357666
1763697208566112300,12.3001123046875,2.2189760261535643,-9.416095854187011,0.7065887649536132
1763697208576072200,12.310072265625,1.9859902770996092,-9.447519750976562,0.5421370384216309
1763697208586033400,12.320033447265626,1.6383821235656737,-9.583241057586669,0.27039514999389647
1763697208595994000,12.329994140625,1.539920580291748,-9.776572841644287,-0.08664017257690429
1763697208605954300,12.339954345703125,1.6629226905822754,-9.981127445983887,-0.34611177749633787
1763697208615915300,12.349915283203124,1.7292121490478514,-10.072705659484862,-0.4177881896972656
1763697208625876500,12.35987646484375,1.7230770072937012,-10.031405680847167,-0.38621465530395505
1763697208635836400,12.36983642578125,1.7676690132141113,-9.903166254425049,-0.273238264465332
1763697208645797400,12.37979736328125,1.8104653678894043,-9.779864868927001,-0.08035539321899414
1763697208655758300,12.38975830078125,1.8388965126037597,-9.675866734313963,0.20874445724487303
1763697208665719300,12.39971923828125,1.8345570220947265,-9.479392560577391,0.43140521163940426
1763697208675679200,12.40967919921875,1.8698714965820311,-9.309853155517578,0.5952583877563477
1763697208685640400,12.419640380859375,1.828421880340576,-9.2182749420166,0.6860884132385253
1763697208695601200,12.42960107421875,1.6551415351867675,-9.146299254608154,0.692073917388916
1763697208705561300,12.439561279296875,1.466448516845703,-9.111732968139648,0.6343138023376464
1763697208715522300,12.449522216796876,1.3620014694213867,-9.074772480010985,0.5693710823059082
1763697208725483500,12.4594833984375,1.2722189071655272,-9.120262311553955,0.5954080253601074
1763697208735443500,12.469443359375,1.2523171058654785,-9.239224206542968,0.7377133865356444
1763697208745404200,12.479404052734376,1.2722189071655272,-9.330802420043945,0.9054571403503417
1763697208755365400,12.489365478515625,1.3057377304077147,-9.381379930114745,0.9970353538513183
1763697208765325300,12.4993251953125,1.2594997108459471,-9.4741552444458,1.0524012672424317
1763697208775286300,12.509286376953124,1.1348515869140625,-9.62783306350708,1.0850222648620604
1763697208785247200,12.519247314453125,1.0479121391296387,-9.739313078308104,1.0414777221679687
1763697208795207200,12.529207275390625,0.98955347366333,-9.742605105590819,0.9657610946655273
1763697208805168400,12.53916845703125,0.8686462898254395,-9.77447791519165,0.8981248977661133
1763697208815129300,12.54912939453125,0.6977601463317871,-9.87727894897461,0.8931868568420409
1763697208825089300,12.55908935546875,0.4966472068786621,-9.957634342193604,0.9494505958557128
1763697208835050200,12.56905029296875,0.4736030158996582,-10.02332525024414,1.0525509048461914
1763697208845011200,12.57901123046875,0.5235819755554199,-10.050260018920898,1.1896189498901366
1763697208854971400,12.588971435546876,0.5817910034179687,-10.08123500289917,1.193210252380371
1763697208864932400,12.598932373046875,0.469263525390625,-10.235661009979248,0.9879074600219726
1763697208874893300,12.608893310546875,0.16175824966430663,-10.596437272644042,0.766743081665039
1763697208884853200,12.618853271484374,-0.08230068206787108,-11.007641407775878,0.6914753669738769
1763697208894814200,12.628814208984375,-0.277727392578125,-11.189002183532715,0.8565256439208984
1763697208904775400,12.638775390625,-0.38830958175659175,-11.213991663360595,1.1858780097961426
1763697208914735400,12.6487353515625,-0.5039794494628906,-11.264718811035156,1.6096517036437987
1763697208924696300,12.6586962890625,-0.6223427940368652,-11.561450179290771,2.059013427734375
1763697208934657300,12.6686572265625,-0.5834370170593262,-12.05345862045288,2.385971591949463
1763697208944617200,12.6786171875,-0.40462008056640625,-12.587365590667725,2.4411878677368164
1763697208954578400,12.688578369140625,-0.21039047088623045,-13.077578380584717,2.179022785949707
1763697208964539400,12.698539306640624,0.041748891448974604,-13.506589390563963,1.6112977172851561
1763697208974499300,12.708499267578125,0.43409868850708005,-13.960290605163573,1.0691606788635253
1763697208984460300,12.718460205078125,0.7975684280395507,-14.276325224304198,0.790385823059082
1763697208994421200,12.728421142578124,1.1640309196472167,-14.279018701171875,0.7601590270996094
