time,seconds_elapsed,z,y,x
1763697196316860700,0.050860595703125,0.004729308187961578,0.14100976288318634,0.04126885160803795
1763697196326821600,0.060821533203125,0.015106581151485443,0.14968767762184143,0.05995092913508415
1763697196336782300,0.0707822265625,0.025193408131599426,0.12722709774971008,0.0705542340874672
1763697196346742500,0.080742431640625,0.03525456413626671,0.0938747301697731,0.07614021003246307
1763697196356703500,0.090703369140625,0.04178687185049057,0.04663396254181862,0.07791940867900848
1763697196366664700,0.100664794921875,0.04456188529729843,0.0025487940292805433,0.07598622143268585
1763697196376625700,0.110625732421875,0.0414232462644577,-0.019604472443461418,0.06920351833105087
1763697196386586600,0.120586669921875,0.033433228731155396,-0.03425611928105354,0.059759415686130524
1763697196396547600,0.130547607421875,0.01978338323533535,-0.032237160950899124,0.039955031126737595
1763697196406508500,0.140508544921875,0.0010331314988434315,-0.007134206593036652,0.01390212494879961
1763697196416469500,0.150469482421875,-0.021327201277017593,0.01942232996225357,-0.011401472613215446
1763697196426430500,0.160430419921875,-0.03790884092450142,0.03460155054926872,-0.03373074531555176
1763697196436390700,0.170390625,-0.048069365322589874,0.02668943628668785,-0.043364621698856354
1763697196446351600,0.1803515625,-0.050596438348293304,0.004310891963541508,-0.039535798132419586
1763697196456313300,0.190313232421875,-0.053178030997514725,-0.018404195085167885,-0.020895574241876602
1763697196466274600,0.200274658203125,-0.05400547385215759,-0.03286569193005562,0.0017751161940395832
1763697196476235300,0.2102353515625,-0.05311809107661247,-0.03725374490022659,0.02162456139922142
1763697196486196500,0.220196533203125,-0.04608175531029701,-0.020009241998195648,0.034774184226989746
1763697196496157400,0.230157470703125,-0.03557748720049858,0.017706984654068947,0.03797314688563347
1763697196506118700,0.24011865234375,-0.019373752176761627,0.04984148591756821,0.03615207597613335
1763697196516078600,0.25007861328125,-0.00835457444190979,0.06239374727010727,0.03201783820986748
1763697196526039300,0.260039306640625,-0.00692205922678113,0.05187372863292694,0.03311080113053322
1763697196536000500,0.27000048828125,-0.01581740565598011,0.039312638342380524,0.03360184654593468
1763697196545961500,0.27996142578125,-0.03296816349029541,0.037042826414108276,0.029794327914714813
1763697196555922400,0.28992236328125,-0.052590783685445786,0.029303668066859245,0.02689952403306961
1763697196565883400,0.29988330078125,-0.06337179243564606,0.02410571090877056,0.019041601568460464
1763697196575844600,0.3098447265625,-0.07010652124881744,0.009156385436654091,0.013248307630419731
1763697196585805300,0.319805419921875,-0.0808209478855133,0.002779180184006691,0.012944973073899746
1763697196595766500,0.3297666015625,-0.09047525376081467,0.005856122821569443,0.027064016088843346
1763697196605726500,0.3397265625,-0.10545899718999863,0.01600676029920578,0.058109816163778305
1763697196615687400,0.3496875,-0.12590520083904266,0.049874722957611084,0.1037767305970192
1763697196625648400,0.3596484375,-0.1481362134218216,0.08763488382101059,0.16093802452087402
1763697196635609300,0.369609375,-0.16708801686763763,0.13268864154815674,0.22312073409557343
1763697196645570600,0.379570556640625,-0.18016041815280914,0.17421185970306396,0.2864301800727844
1763697196655531500,0.389531494140625,-0.19010430574417114,0.19712677597999573,0.3453144431114197
1763697196665492500,0.399492431640625,-0.20966947078704834,0.20690669119358063,0.3872334063053131
1763697196675453400,0.409453369140625,-0.2445579469203949,0.22754353284835815,0.4166000783443451
1763697196685413400,0.419413330078125,-0.3035688102245331,0.2152666300535202,0.457401841878891
1763697196695374600,0.42937451171875,-0.3926248550415039,0.18198350071907043,0.5200377702713013
1763697196705335300,0.439335205078125,-0.5040781497955322,0.11069947481155396,0.6047212481498718
1763697196715296500,0.449296630859375,-0.621955931186676,0.020003104582428932,0.6931664943695068
1763697196725257500,0.459257568359375,-0.6300077438354492,-0.017046259716153145,0.7589939832687378
1763697196735218400,0.469218505859375,-0.5624424815177917,-0.21773946285247803,0.8370020389556885
1763697196745179400,0.479179443359375,-0.6665542721748352,-0.253799706697464,0.8639838695526123
1763697196755140600,0.489140625,-0.808626651763916,-0.06162786856293678,0.7559449076652527
1763697196765100500,0.4991005859375,-0.896507203578949,-0.04031219333410263,0.6355636119842529
1763697196775061200,0.509061279296875,-0.9649574160575867,-0.2290557324886322,0.5755967497825623
1763697196785022500,0.5190224609375,-0.8366013169288635,-0.3181307315826416,0.5857492685317993
1763697196794983400,0.5289833984375,-0.3940578103065491,-0.8123487234115601,0.66599440574646
1763697196804944600,0.538944580078125,-0.025233972817659378,-0.8767841458320618,0.6523300409317017
1763697196814905300,0.5489052734375,0.3382367193698883,-0.7456730604171753,0.6043311357498169
1763697196824866600,0.558866455078125,0.6450424194335938,-0.7262375950813293,0.579359769821167
1763697196834827500,0.56882763671875,0.8305909633636475,-0.8003107309341431,0.5295538902282715
1763697196844788500,0.57878857421875,0.8831697106361389,-0.8449497818946838,0.40499308705329895
1763697196854748400,0.58874853515625,0.8154794573783875,-0.7549777626991272,0.18861499428749084
1763697196864709400,0.59870947265625,0.7307483553886414,-0.3865843415260315,-0.09833742678165436
1763697196874670600,0.608670654296875,0.7792453169822693,0.48392656445503235,-0.32762229442596436
1763697196884631300,0.61863134765625,0.9266672134399414,1.167948603630066,-0.37334397435188293
1763697196894592500,0.628592529296875,0.9792324900627136,1.7872639894485474,-0.3507734537124634
1763697196904553500,0.638553466796875,0.8268610239028931,1.1983447074890137,-0.7049283385276794
1763697196914514400,0.648514404296875,0.7495331168174744,-0.30965951085090637,-0.028324920684099197
1763697196924474400,0.658474365234375,0.693601667881012,-0.5681204199790955,0.04342995956540108
1763697196934435300,0.668435302734375,0.41957205533981323,-0.7287260293960571,-0.12414142489433289
1763697196944396500,0.678396484375,0.04688100889325142,-1.0450356006622314,-0.3042054772377014
1763697196954357500,0.688357421875,-0.1730608344078064,-1.42075777053833,-0.41435787081718445
1763697196964318500,0.698318359375,-0.2621350586414337,-1.5928940773010254,-0.4482695162296295
1763697196974279400,0.708279541015625,-0.32480812072753906,-1.5831639766693115,-0.4301351010799408
1763697196984240600,0.71824072265625,-0.4057604670524597,-1.648288369178772,-0.36049771308898926
1763697196994201300,0.728201416015625,-0.5263670086860657,-1.886008858680725,-0.2826274335384369
1763697197004161500,0.73816162109375,-0.7395445108413696,-1.5828931331634521,-0.3632916510105133
1763697197014122500,0.74812255859375,-0.9417138695716858,-1.426350712776184,-0.46721306443214417
1763697197024083500,0.75808349609375,-0.9984825849533081,-1.7178916931152344,-0.4244144558906555
1763697197034044400,0.76804443359375,-1.0342707633972168,-1.6515499353408813,-0.4321019649505615
1763697197044005400,0.77800537109375,-1.0130624771118164,-1.6861417293548584,-0.3909635841846466
1763697197053966600,0.787966552734375,-1.0251320600509644,-1.4954134225845337,-0.4273936450481415
1763697197063927300,0.79792724609375,-1.0377447605133057,-1.1675827503204346,-0.4708828032016754
1763697197073888500,0.807888427734375,-1.0800542831420898,-0.7861228585243225,-0.48310673236846924
1763697197083848400,0.817848388671875,-1.0898648500442505,-0.47186264395713806,-0.3977780044078827
1763697197093809400,0.827809326171875,-0.9800341129302979,-0.3153417110443115,-0.28931084275245667
1763697197103770400,0.837770263671875,-0.6773155331611633,-0.2623003125190735,-0.27490660548210144
1763697197113731300,0.8477314453125,-0.35443273186683655,0.06897222250699997,-0.3005085587501526
1763697197123692500,0.857692626953125,-0.13452166318893433,0.4175128638744354,-0.3884088397026062
1763697197133653500,0.867653564453125,-0.022707181051373482,0.7309724688529968,-0.5363413691520691
1763697197143614500,0.877614501953125,0.10214580595493317,0.8158019185066223,-0.7057144641876221
1763697197153575400,0.887575439453125,0.2834267020225525,0.7508063912391663,-0.8163490295410156
1763697197163535600,0.89753564453125,0.47309836745262146,0.6673530340194702,-0.8401827216148376
1763697197173496600,0.90749658203125,0.6225497126579285,0.5213122367858887,-0.80361008644104
1763697197183457300,0.917457275390625,0.706052303314209,0.36906808614730835,-0.7660379409790039
1763697197193418500,0.92741845703125,0.7438015341758728,0.19407834112644196,-0.713536262512207
1763697197203379500,0.93737939453125,0.7148135304450989,-0.13477811217308044,-0.6571363806724548
1763697197213340400,0.94734033203125,0.644851565361023,-0.4640602469444275,-0.657052218914032
1763697197223301400,0.95730126953125,0.5668728947639465,-0.5903881192207336,-0.7075406908988953
1763697197233261600,0.967261474609375,0.47360795736312866,-0.6848843097686768,-0.7400802969932556
1763697197243222500,0.977222412109375,0.42153412103652954,-0.9711155295372009,-0.850929856300354
1763697197253183500,0.98718359375,0.3893653154373169,-1.2813596725463867,-0.8844267129898071
1763697197263144400,0.99714453125,0.33574920892715454,-1.4432127475738525,-0.8610047101974487
1763697197273105400,1.00710546875,0.2572764456272125,-1.196148157119751,-0.9774401187896729
1763697197283066600,1.017066650390625,0.12153484672307968,-0.04582497850060463,-1.4131324291229248
1763697197293027300,1.02702734375,0.1086701825261116,1.386756420135498,-1.8320865631103516
1763697197302987500,1.036987548828125,0.16828611493110657,1.6411306858062744,-1.9043558835983276
1763697197312948500,1.046948486328125,0.1771334707736969,1.8495627641677856,-1.6282734870910645
1763697197322909700,1.05690966796875,0.1560758501291275,2.075796365737915,-1.2983916997909546
1763697197332870400,1.066870361328125,0.13226357102394104,2.308276414871216,-1.0211659669876099
1763697197342831400,1.076831298828125,0.17951975762844086,2.7315595149993896,-0.7125677466392517
1763697197352792600,1.08679248046875,0.29291290044784546,3.827831268310547,0.010485146194696426
1763697197362753300,1.096753173828125,0.35468626022338867,4.335512161254883,0.6537885069847107
1763697197372714500,1.106714599609375,0.2412288635969162,4.37317419052124,1.0751614570617676
1763697197382674400,1.11667431640625,0.07657573372125626,4.6052937507629395,1.3374385833740234
1763697197392635600,1.1266357421875,-0.05075233802199364,5.219696044921875,1.4983642101287842
1763697197402596400,1.136596435546875,-0.1550302654504776,5.722114086151123,1.666789174079895
1763697197412557300,1.146557373046875,-0.1936631053686142,5.627193927764893,1.859704852104187
1763697197422518500,1.1565185546875,-0.24081996083259583,5.298007965087891,1.9803886413574219
1763697197432479500,1.1664794921875,-0.2976970672607422,5.026252746582031,2.0427675247192383
1763697197442440400,1.1764404296875,-0.34540173411369324,4.229429721832275,1.9954404830932617
1763697197452400000,1.186400146484375,-0.46536538004875183,2.910400390625,1.606621265411377
1763697197462361300,1.196361328125,-0.6289510726928711,2.356487512588501,1.0030779838562012
1763697197472322300,1.206322265625,-0.7531282305717468,2.212050437927246,0.3256208300590515
1763697197482283300,1.216283203125,-0.8262999057769775,2.0141584873199463,-0.2267899066209793
1763697197492244200,1.226244140625,-0.8446894884109497,1.8141839504241943,-0.5797409415245056
1763697197502205400,1.236205322265625,-0.7960937023162842,1.812270164489746,-0.7319269776344299
1763697197512166100,1.246166259765625,-0.6002988219261169,1.8014088869094849,-0.7080175280570984
1763697197522126000,1.2561259765625,-0.5694812536239624,2.193079948425293,-0.6081013679504395
1763697197532087300,1.26608740234375,-0.50286465883255,2.8260111808776855,-0.47247159481048584
1763697197542048300,1.27604833984375,-0.34764233231544495,3.7408287525177,-0.3634825050830841
1763697197552009500,1.286009521484375,-0.16449807584285736,4.902895927429199,-0.3434251844882965
1763697197561970200,1.29597021484375,-0.02928592637181282,5.7507195472717285,-0.2730732560157776
1763697197571931400,1.305931396484375,0.012605802156031132,5.524526596069336,0.03459569066762924
1763697197581892400,1.315892333984375,-0.1934371143579483,4.093024253845215,0.2667834162712097
1763697197591852500,1.3258525390625,-0.4435146152973175,2.5817348957061768,0.1618359386920929
1763697197601813200,1.335813232421875,-0.44954293966293335,2.0911810398101807,-0.010401343926787376
1763697197611774200,1.345774169921875,-0.40160661935806274,1.856600284576416,-0.10178036987781525
1763697197621735400,1.3557353515625,-0.3766711950302124,1.6368697881698608,-0.12108828872442245
1763697197631696100,1.365696044921875,-0.3994714319705963,1.5967886447906494,-0.06788268685340881
1763697197641657300,1.3756572265625,-0.45642340183258057,1.3873755931854248,-0.053925856947898865
1763697197651618300,1.385618408203125,-0.583000123500824,0.9307557344436646,-0.15055719017982483
1763697197661578500,1.39557861328125,-0.8580716848373413,0.6053760647773743,-0.2945266366004944
1763697197671539200,1.405539306640625,-1.2329623699188232,0.5803938508033752,-0.432833731174469
1763697197681500200,1.415500244140625,-1.5404280424118042,0.6992571353912354,-0.5224480628967285
1763697197691461400,1.42546142578125,-1.666211724281311,0.8897609710693359,-0.5381964445114136
1763697197701422300,1.43542236328125,-1.600892424583435,1.0645594596862793,-0.4490754008293152
1763697197711383300,1.44538330078125,-1.3529292345046997,0.8389836549758911,-0.19392278790473938
1763697197721344300,1.45534423828125,-1.0411686897277832,0.6234146356582642,0.15624986588954926
1763697197731304400,1.465304443359375,-0.7362233996391296,0.25611963868141174,0.4701276123523712
1763697197741265400,1.475265380859375,-0.41518494486808777,-0.007209482602775097,0.7081971168518066
1763697197751226400,1.485226318359375,-0.08679568022489548,0.09053599834442139,0.8426451683044434
1763697197761187300,1.495187255859375,-0.09830400347709656,0.44114169478416443,0.8529492020606995
1763697197771148300,1.505148193359375,-0.03955679386854172,0.7825478911399841,0.7599379420280457
1763697197781109200,1.515109130859375,-0.118857741355896,1.0487868785858154,0.6269606947898865
1763697197791069200,1.525069091796875,-0.23940566182136536,1.1764558553695679,0.4805298149585724
1763697197801030400,1.535030517578125,-0.2903972268104553,1.13139009475708,0.311019629240036
1763697197810991400,1.544991455078125,-0.3569870591163635,0.8966338038444519,0.14797940850257874
1763697197820952300,1.554952392578125,-0.4296295642852783,0.6209116578102112,0.06763343513011932
1763697197830913300,1.564913330078125,-0.31329837441444397,0.41532039642333984,-0.004717162344604731
1763697197840874200,1.574874267578125,-0.15872317552566528,0.23711949586868286,-0.17302840948104858
1763697197850835200,1.584835205078125,-0.01545264758169651,0.15700283646583557,-0.4329040050506592
1763697197860795100,1.594795166015625,0.024842046201229095,0.18893732130527496,-0.762501060962677
1763697197870756400,1.60475634765625,-0.053491394966840744,0.37105461955070496,-1.030261516571045
1763697197880717300,1.61471728515625,-0.22706317901611328,0.6792652010917664,-1.1472275257110596
1763697197890678500,1.624678466796875,-0.4762941300868988,0.9606913328170776,-1.0987727642059326
1763697197900639200,1.63463916015625,-0.7540152072906494,1.2080960273742676,-0.960371196269989
1763697197910600400,1.644600341796875,-1.0003371238708496,1.3278379440307617,-0.8683297634124756
1763697197920561400,1.6545615234375,-1.1995435953140259,1.3413492441177368,-0.8762326836585999
1763697197930521300,1.664521240234375,-1.3134268522262573,1.3674116134643555,-0.9729782938957214
1763697197940482300,1.674482421875,-1.3249140977859497,1.3234702348709106,-1.1247237920761108
1763697197950443300,1.684443359375,-1.2475569248199463,1.228342056274414,-1.2382839918136597
1763697197960404500,1.694404541015625,-1.093526840209961,1.0668916702270508,-1.2566587924957275
1763697197970365200,1.704365234375,-0.8927745819091797,0.7844105362892151,-1.1402090787887573
1763697197980326400,1.714326416015625,-0.6638564467430115,0.4906230866909027,-0.9818681478500366
1763697197990286300,1.724286376953125,-0.43621543049812317,0.1326005607843399,-0.8117584586143494
1763697198000247300,1.734247314453125,-0.22913628816604614,-0.07765066623687744,-0.6420333385467529
1763697198010208300,1.744208251953125,-0.10662368685007095,-0.47830361127853394,-0.501887857913971
1763697198020169200,1.754169189453125,-0.13717547059059143,-0.8228050470352173,-0.38177210092544556
1763697198030130400,1.76413037109375,-0.2855653166770935,-1.0596479177474976,-0.32273033261299133
1763697198040091400,1.77409130859375,-0.4792112410068512,-1.168107509613037,-0.3381500244140625
1763697198050052400,1.78405224609375,-0.650811493396759,-1.1305521726608276,-0.416109561920166
1763697198060012300,1.79401220703125,-0.7385756969451904,-1.0742156505584717,-0.5610020160675049
1763697198069973200,1.80397314453125,-0.8269696235656738,-1.099218726158142,-0.7177228331565857
1763697198079934500,1.8139345703125,-0.9216854572296143,-0.9097322225570679,-0.7962355017662048
1763697198089895200,1.823895263671875,-0.9682073593139648,-0.7960410714149475,-0.7912646532058716
1763697198099856400,1.8338564453125,-1.0088740587234497,-0.7339175343513489,-0.7415905594825745
1763697198109817300,1.8438173828125,-1.0710358619689941,-0.5595270991325378,-0.654309093952179
1763697198119777300,1.85377734375,-1.1455758810043335,-0.4799633026123047,-0.5453879237174988
1763697198129738200,1.86373828125,-1.1364473104476929,-0.47295868396759033,-0.478331059217453
1763697198139699200,1.87369921875,-1.0851068496704102,-0.4294911026954651,-0.4607962667942047
1763697198149660400,1.883660400390625,-1.0284016132354736,-0.33092743158340454,-0.5029793977737427
1763697198159621000,1.89362109375,-1.0034104585647583,-0.11037909984588623,-0.5902831554412842
1763697198169582300,1.903582275390625,-0.9865437150001526,0.15329505503177643,-0.7090161442756653
1763697198179543300,1.913543212890625,-0.9403890371322632,0.33965590596199036,-0.8562170267105103
1763697198189503200,1.923503173828125,-0.8604077100753784,0.44507479667663574,-0.9902098774909973
1763697198199464400,1.93346435546875,-0.7650399208068848,0.48316490650177,-1.0836775302886963
1763697198209425200,1.943425048828125,-0.6473947763442993,0.5277723073959351,-1.11385977268219
1763697198219386400,1.953386474609375,-0.5247802138328552,0.5992228388786316,-1.0997282266616821
1763697198229347300,1.963347412109375,-0.40635573863983154,0.6471709609031677,-1.0720183849334717
1763697198239308300,1.973308349609375,-0.31049633026123047,0.6574392914772034,-1.0615482330322266
1763697198249268200,1.983268310546875,-0.24732151627540588,0.6444070935249329,-1.0689539909362793
1763697198259229400,1.9932294921875,-0.21010702848434448,0.6538474559783936,-1.1062320470809937
1763697198269190400,2.0031904296875,-0.18118594586849213,0.7016456127166748,-1.1582577228546143
1763697198279151000,2.013151123046875,-0.15035265684127808,0.7570787668228149,-1.2053275108337402
1763697198289112300,2.0231123046875,-0.11233043670654297,0.8066255450248718,-1.2399331331253052
1763697198299073300,2.0330732421875,-0.07500144094228745,0.8409760594367981,-1.2607460021972656
1763697198309033500,2.043033447265625,-0.07271522283554077,0.94877028465271,-1.263175129890442
1763697198318994200,2.052994140625,-0.13202409446239471,1.062379240989685,-1.2362871170043945
1763697198328955400,2.062955322265625,-0.19039268791675568,1.0076408386230469,-1.1764380931854248
1763697198338916400,2.072916259765625,-0.18587782979011536,0.866329550743103,-1.1119533777236938
1763697198348877300,2.082877197265625,-0.16753952205181122,0.7550857067108154,-1.0130987167358398
1763697198358838300,2.09283837890625,-0.151136577129364,0.738307774066925,-0.8394112586975098
1763697198368798200,2.102798095703125,-0.07274968177080154,0.8152580857276917,-0.6087643504142761
1763697198378759400,2.112759521484375,0.09723323583602905,0.9034654498100281,-0.36085042357444763
1763697198388720400,2.122720458984375,0.32763779163360596,0.9204080104827881,-0.12787973880767822
1763697198398681300,2.132681396484375,0.5158111453056335,0.7555908560752869,0.07386455684900284
1763697198408642300,2.142642333984375,0.6115655303001404,0.587940514087677,0.22083702683448792
1763697198418603500,2.152603515625,0.6305131316184998,0.4649621248245239,0.30004504323005676
1763697198428564200,2.162564208984375,0.5813878178596497,0.3926545977592468,0.32413992285728455
1763697198438524200,2.172524169921875,0.4877920150756836,0.37165558338165283,0.32661107182502747
1763697198448485400,2.1824853515625,0.3807525932788849,0.4067366421222687,0.3122228980064392
1763697198458446000,2.192446044921875,0.25739338994026184,0.48999691009521484,0.30048608779907227
1763697198468407000,2.202406982421875,0.13972458243370056,0.5898638367652893,0.2896164357662201
1763697198478368000,2.212367919921875,0.06571800261735916,0.661096453666687,0.2615048885345459
1763697198488329200,2.2223291015625,0.02254568226635456,0.6854503154754639,0.19715771079063416
1763697198498289200,2.2322890625,0.008572075515985489,0.6336023211479187,0.09374797344207764
1763697198508250000,2.24225,0.011302286759018898,0.5532038807868958,-0.049005284905433655
1763697198518211000,2.252211181640625,-0.006303072441369295,0.44096943736076355,-0.20012928545475006
1763697198528172000,2.262172119140625,-0.057550422847270966,0.3714659810066223,-0.3322283625602722
1763697198538133200,2.27213330078125,-0.09257125854492188,0.33927983045578003,-0.4131320118904114
1763697198548094000,2.282093994140625,-0.07264145463705063,0.25271347165107727,-0.4500060975551605
1763697198558054000,2.292053955078125,-0.0043108658865094185,0.0762321949005127,-0.456542044878006
1763697198568015000,2.30201513671875,0.06485790759325027,-0.19101405143737793,-0.472738653421402
1763697198577976000,2.31197607421875,0.1222093403339386,-0.5405392646789551,-0.5033650398254395
1763697198587937000,2.32193701171875,0.18741196393966675,-0.8723669052124023,-0.5177140235900879
1763697198597898000,2.33189794921875,0.23160313069820404,-1.0779061317443848,-0.5013449192047119
1763697198607859200,2.341859130859375,0.2340202033519745,-1.089991807937622,-0.46326711773872375
1763697198617819100,2.351819091796875,0.19750027358531952,-0.9258028864860535,-0.4225820004940033
1763697198627779800,2.36177978515625,0.1261388063430786,-0.6683990359306335,-0.39252832531929016
1763697198637741000,2.371740966796875,0.023046253249049187,-0.3771679997444153,-0.38605576753616333
1763697198647702000,2.381701904296875,-0.08283728361129761,-0.09481200575828552,-0.4308546781539917
1763697198657663200,2.391663330078125,-0.12713736295700073,0.09437282383441925,-0.5306249856948853
1763697198667623200,2.401623046875,-0.11851698160171509,0.14359129965305328,-0.6544303894042969
1763697198677584100,2.411584228515625,-0.047676898539066315,0.10595470666885376,-0.7693740129470825
1763697198687545000,2.421545166015625,0.08636661618947983,0.04170196130871773,-0.8763721585273743
1763697198697506000,2.431506103515625,0.26988160610198975,-0.0414925254881382,-0.9833537340164185
1763697198707467000,2.441467041015625,0.46983543038368225,-0.16275142133235931,-1.104156494140625
1763697198717428000,2.451427978515625,0.6721067428588867,-0.33810698986053467,-1.2486745119094849
1763697198727389200,2.46138916015625,0.8747996687889099,-0.5429288148880005,-1.4117612838745117
1763697198737349000,2.47134912109375,1.0840317010879517,-0.7441098093986511,-1.5765159130096436
1763697198747310000,2.48131005859375,1.2702325582504272,-0.9317276477813721,-1.7255858182907104
1763697198757271000,2.49127099609375,1.4232470989227295,-1.065738320350647,-1.8578416109085083
1763697198767232300,2.501232177734375,1.5427563190460205,-1.0957742929458618,-1.9684487581253052
1763697198777193000,2.51119287109375,1.6362007856369019,-1.0709086656570435,-2.059441089630127
1763697198787153000,2.52115283203125,1.6924800872802734,-1.0020346641540527,-2.1356053352355957
1763697198797114000,2.531114013671875,1.7223151922225952,-0.9142510294914246,-2.208808422088623
1763697198807075000,2.541074951171875,1.742302656173706,-0.8582355976104736,-2.2659332752227783
1763697198817036000,2.5510361328125,1.7465884685516357,-0.8649875521659851,-2.273833751678467
1763697198826997000,2.5609970703125,1.7377067804336548,-0.9033008217811584,-2.1893248558044434
1763697198836958200,2.570958251953125,1.722125768661499,-0.8911237716674805,-2.109210252761841
1763697198846918100,2.580918212890625,1.6952508687973022,-0.77802574634552,-2.10487961769104
1763697198856879000,2.590879150390625,1.5954110622406006,-0.7329975366592407,-2.05938720703125
1763697198866840000,2.600840087890625,1.475212574005127,-0.8379489779472351,-1.7248024940490723
1763697198876801000,2.610801025390625,1.387914776802063,-0.7119881510734558,-1.5289112329483032
1763697198886762200,2.62076220703125,1.2799874544143677,-0.5282992720603943,-1.4247921705245972
1763697198896723000,2.630722900390625,1.1964504718780518,-0.2543167173862457,-1.4299466609954834
1763697198906683000,2.640682861328125,1.169784426689148,0.01985674723982811,-1.561176061630249
1763697198916644000,2.65064404296875,1.1222014427185059,0.043303217738866806,-1.530331015586853
1763697198926605000,2.66060498046875,1.100396752357483,-0.024436719715595245,-1.3037222623825073
1763697198936566000,2.67056591796875,1.0779790878295898,-0.11481988430023193,-0.988524317741394
1763697198946527000,2.68052685546875,1.065965175628662,-0.13454274833202362,-0.843876302242279
1763697198956488200,2.69048828125,1.1531461477279663,-0.14272557199001312,-0.9545948505401611
1763697198966448000,2.7004482421875,1.2282185554504395,-0.22707711160182953,-1.1746493577957153
1763697198976408800,2.710408935546875,1.2595913410186768,-0.3601566255092621,-1.360028624534607
1763697198986370000,2.7203701171875,1.203376293182373,-0.4856892228126526,-1.40355384349823
1763697198996331000,2.7303310546875,1.0695823431015015,-0.5710754990577698,-1.3849271535873413
1763697199006292200,2.740292236328125,0.8938959240913391,-0.6267995238304138,-1.3912643194198608
1763697199016252200,2.750252197265625,0.748288631439209,-0.625964879989624,-1.4024085998535156
1763697199026213000,2.760213134765625,0.6785791516304016,-0.5560025572776794,-1.425740361213684
1763697199036174000,2.770174072265625,0.6989080905914307,-0.5449499487876892,-1.4457560777664185
1763697199046135000,2.780135009765625,0.6597108840942383,-0.7152249217033386,-1.3515350818634033
1763697199056096000,2.790095947265625,0.5804070234298706,-0.7420560121536255,-1.1216944456100464
1763697199066057000,2.800056884765625,0.4660443663597107,-0.7256089448928833,-0.8943380117416382
1763697199076017200,2.81001708984375,0.34516242146492004,-0.6792185306549072,-0.7095287442207336
1763697199085978000,2.81997802734375,0.24589620530605316,-0.6697927713394165,-0.5802881121635437
1763697199095939000,2.82993896484375,0.1866145133972168,-0.667653501033783,-0.5393587350845337
1763697199105900000,2.839900146484375,0.10027576982975006,-0.6818504929542542,-0.5947383642196655
1763697199115861200,2.849861328125,0.026782378554344177,-0.6943790912628174,-0.7586151957511902
1763697199125821200,2.8598212890625,0.0016670057084411383,-0.6940438151359558,-0.9710675477981567
1763697199135782000,2.869781982421875,-0.032867804169654846,-0.6631032228469849,-1.114865779876709
1763697199145743000,2.8797431640625,0.09528703987598419,-0.7366892695426941,-1.0987091064453125
1763697199155704000,2.8897041015625,0.2836918234825134,-0.6481780409812927,-0.9458250403404236
1763697199165665000,2.8996650390625,0.5122849345207214,-0.45984700322151184,-0.8716210722923279
1763697199175626000,2.9096259765625,0.706139087677002,-0.13414455950260162,-1.1537797451019287
1763697199185586000,2.9195859375,0.46444186568260193,-0.041719041764736176,-1.6613065004348755
1763697199195547100,2.929547119140625,0.016410818323493004,-0.5040254592895508,-1.7667738199234009
1763697199205508000,2.939508056640625,-0.30196523666381836,-0.9395490884780884,-1.532447099685669
1763697199215469000,2.949468994140625,-0.4952779710292816,-1.310417890548706,-1.0636258125305176
1763697199225430000,2.959429931640625,-0.6178733706474304,-1.4026893377304077,-0.5849592685699463
1763697199235391200,2.96939111328125,-0.7879292368888855,-1.2334191799163818,-0.21446539461612701
1763697199245351200,2.97935107421875,-1.0587598085403442,-1.0294774770736694,0.024338433519005775
1763697199255312000,2.989311767578125,-1.4645357131958008,-0.852423906326294,0.22513863444328308
1763697199265273000,2.999273193359375,-1.9792078733444214,-0.7957097291946411,0.4463362395763397
1763697199275234000,3.009234130859375,-2.530773162841797,-0.6924682855606079,0.7047693729400635
1763697199285195000,3.019195068359375,-3.061499834060669,-0.5675328373908997,1.041474461555481
1763697199295155000,3.029155029296875,-3.673433780670166,-0.463241308927536,1.5636334419250488
1763697199305116200,3.0391162109375,-4.349009990692139,-0.30675452947616577,2.130197048187256
1763697199315077000,3.0490771484375,-4.597230911254883,0.5636575818061829,2.349663496017456
1763697199325038000,3.0590380859375,-3.8138692378997803,1.822081446647644,2.2097601890563965
1763697199334999000,3.0689990234375,-2.8595211505889893,2.1222341060638428,1.3695533275604248
1763697199344960000,3.0789599609375,-2.2722442150115967,1.4768779277801514,0.22665823996067047
1763697199354920200,3.088920166015625,-2.566291570663452,1.8231087923049927,0.5431680083274841
1763697199364881200,3.098881103515625,-3.2197630405426025,1.7141104936599731,1.0636322498321533
1763697199374842000,3.108842041015625,-3.8635120391845703,1.1945514678955078,1.4088953733444214
1763697199384803000,3.118802978515625,-3.7110695838928223,0.8191479444503784,1.572129249572754
1763697199394764000,3.128763916015625,-3.2075564861297607,0.2826922833919525,1.5117231607437134
1763697199404724200,3.13872412109375,-2.5278689861297607,-0.43077147006988525,1.3588321208953857
1763697199414685000,3.148684814453125,-1.904772400856018,-1.1473456621170044,1.3028987646102905
1763697199424646100,3.158646240234375,-1.520882248878479,-1.5687384605407715,1.2978705167770386
1763697199434607000,3.168607177734375,-1.6698602437973022,-1.4448579549789429,1.2733826637268066
1763697199444568000,3.178568115234375,-2.074084997177124,-1.2133194208145142,1.2260137796401978
1763697199454529300,3.188529296875,-2.3735904693603516,-0.7536820769309998,1.2341145277023315
1763697199464489200,3.1984892578125,-2.613691568374634,-0.37161099910736084,1.300460696220398
1763697199474450200,3.2084501953125,-2.7659642696380615,-0.08975774049758911,1.3323794603347778
1763697199484411100,3.2184111328125,-2.6897387504577637,0.10713980346918106,1.286004900932312
1763697199494372000,3.2283720703125,-2.4822375774383545,-0.09158101677894592,1.1623541116714478
1763697199504333300,3.238333251953125,-2.2007029056549072,-0.5125523805618286,0.9693223237991333
1763697199514293200,3.248293212890625,-1.9058330059051514,-0.5938312411308289,0.6708722114562988
1763697199524254200,3.258254150390625,-1.740390658378601,-0.30476483702659607,0.2123100757598877
1763697199534215200,3.268215087890625,-1.9337478876113892,0.07002981752157211,-0.3234287202358246
1763697199544176000,3.278176025390625,-2.03214693069458,-0.04915311187505722,-0.9299006462097168
1763697199554137300,3.288137451171875,-1.9952119588851929,-0.31293120980262756,-1.4554059505462646
1763697199564097300,3.29809716796875,-1.913680911064148,-0.5528931617736816,-1.5337049961090088
1763697199574058200,3.308058349609375,-1.6911866664886475,-0.6381686925888062,-1.3546109199523926
1763697199584019200,3.318019287109375,-1.4413822889328003,-0.6907458901405334,-1.2380201816558838
1763697199593980200,3.327980224609375,-1.0882720947265625,-1.1017065048217773,-1.068495273590088
1763697199603941000,3.337941162109375,-0.5392937064170837,-1.035903811454773,-1.0221160650253296
1763697199613901000,3.347901123046875,-0.3353211581707001,0.16854752600193024,-1.3248966932296753
1763697199623862300,3.3578623046875,-0.14581437408924103,0.8902263641357422,-1.2973531484603882
1763697199633823200,3.3678232421875,0.0003412356600165367,1.0312711000442505,-1.136955738067627
1763697199643784200,3.3777841796875,0.01692248322069645,1.1539359092712402,-1.0902692079544067
1763697199653745200,3.3877451171875,-0.059454578906297684,1.3234634399414062,-1.1365506649017334
1763697199663706400,3.397706298828125,-0.29581013321876526,1.5112226009368896,-1.2151881456375122
1763697199673666300,3.407666259765625,-0.4241279065608978,1.5545811653137207,-1.1604501008987427
1763697199683627000,3.417626953125,-0.3473629951477051,1.5665526390075684,-1.1734005212783813
1763697199693588200,3.427588134765625,-0.24002189934253693,1.2865090370178223,-1.2046918869018555
1763697199703549200,3.437549072265625,-0.5116637945175171,0.6919292211532593,-1.0221822261810303
1763697199713510400,3.447510498046875,-1.0166199207305908,0.2707689106464386,-0.5837883353233337
1763697199723470300,3.45747021484375,-1.181742787361145,0.6118075847625732,-0.08203686028718948
1763697199733431000,3.46743115234375,-1.074141025543213,1.1222097873687744,0.37398579716682434
1763697199743392300,3.477392333984375,-0.9427615404129028,0.8247392177581787,0.4101034998893738
1763697199753353200,3.487353271484375,-0.9498724937438965,0.5427170991897583,0.17864657938480377
1763697199763314200,3.497314208984375,-1.1595944166183472,0.6263331770896912,-0.13719743490219116
1763697199773274000,3.507274169921875,-1.173514485359192,1.0665464401245117,-0.6740595698356628
1763697199783235000,3.517235107421875,-0.9342404007911682,1.327694058418274,-0.9106214046478271
1763697199793196300,3.5271962890625,-0.6900839805603027,1.432451605796814,-0.9691225290298462
1763697199803157000,3.537156982421875,-0.5044852495193481,1.2332417964935303,-0.9059563875198364
1763697199813118200,3.5471181640625,-0.39042899012565613,0.9449551701545715,-0.8326722979545593
1763697199823078100,3.557078125,-0.32177087664604187,0.7207790613174438,-0.7487196326255798
1763697199833039400,3.567039306640625,-0.2565676271915436,0.482009619474411,-0.6838048100471497
1763697199843000000,3.577,-0.16785813868045807,0.26306310296058655,-0.6296082139015198
1763697199852961300,3.586961181640625,-0.06326276063919067,0.17193827033042908,-0.5869020223617554
1763697199862922200,3.596922119140625,0.00624660961329937,0.2502197325229645,-0.5631855726242065
1763697199872882200,3.606882080078125,0.024455972015857697,0.3201623260974884,-0.42350757122039795
1763697199882843100,3.616843017578125,-0.4238298237323761,-0.19120077788829803,0.6430180072784424
1763697199892804000,3.62680419921875,-0.8606023788452148,-0.5373973250389099,0.9230035543441772
1763697199902765300,3.636765380859375,-1.001267433166504,-0.4336676001548767,0.4687584936618805
1763697199912726300,3.646726318359375,-1.1339234113693237,-0.07520425319671631,0.29508548974990845
1763697199922686200,3.656686279296875,-1.1877304315567017,0.45541393756866455,-0.03904511779546738
1763697199932647200,3.666647216796875,-1.1695239543914795,0.8797359466552734,-0.3748588263988495
1763697199942608100,3.676608154296875,-1.236716866493225,1.0660492181777954,-0.5675497055053711
1763697199952569300,3.6865693359375,-1.914608359336853,0.8480203151702881,-0.6883065104484558
1763697199962530000,3.696530029296875,-1.7781952619552612,0.4304705262184143,-0.5883866548538208
1763697199972491300,3.7064912109375,-1.6732302904129028,0.30323025584220886,-0.8224992752075195
1763697199982451200,3.716451171875,-1.627060890197754,0.18286864459514618,-0.8687807321548462
1763697199992412200,3.726412109375,-1.7546780109405518,-0.05870163068175316,-0.7217585444450378
1763697200002373000,3.736373046875,-1.833664894104004,-0.2555290460586548,-0.5794898867607117
1763697200012334000,3.746333984375,-1.8807575702667236,-0.34435397386550903,-0.5059123039245605
1763697200022295300,3.75629541015625,-1.93359375,-0.3263644874095917,-0.36300957202911377
1763697200032255200,3.766255126953125,-1.888484001159668,-0.28436246514320374,-0.29738849401474
1763697200042216200,3.77621630859375,-2.3102314472198486,-0.47757449746131897,0.7536974549293518
1763697200052177200,3.78617724609375,-3.151250123977661,-0.5706663727760315,2.114861011505127
1763697200062138000,3.79613818359375,-3.705561876296997,-1.5900709629058838,1.9155666828155518
1763697200072099300,3.806099365234375,-3.361840009689331,-2.005326271057129,0.7710295915603638
1763697200082059300,3.816059326171875,-1.7136353254318237,-1.1180460453033447,-0.847130537033081
1763697200092020200,3.826020263671875,0.2866736650466919,-0.45438846945762634,-1.6420092582702637
1763697200101981200,3.835981201171875,0.06644608825445175,-0.6596130728721619,-1.180794358253479
1763697200111942400,3.8459423828125,-1.1276847124099731,-0.122225821018219,-0.5170923471450806
1763697200121903000,3.855903076171875,-1.476123332977295,0.15622609853744507,-0.08967436105012894
1763697200131863000,3.865863037109375,-1.2879436016082764,-0.12736806273460388,0.033710964024066925
1763697200141824300,3.87582421875,-1.0270205736160278,-0.5817002058029175,-0.011058295145630836
1763697200151785200,3.88578515625,-0.9173846244812012,-0.8710289597511292,-0.07097303122282028
1763697200161746200,3.89574609375,-0.6194453239440918,-0.9391469955444336,-0.16755148768424988
1763697200171707100,3.90570703125,-0.2534753084182739,-0.8587586879730225,-0.18798460066318512
1763697200181667000,3.9156669921875,0.029399527236819267,-0.7476303577423096,-0.1406363993883133
1763697200191628300,3.925628173828125,0.1907186359167099,-0.692310094833374,-0.08499044924974442
1763697200201589000,3.935589111328125,0.2767634093761444,-0.621101975440979,-0.02757411077618599
1763697200211550200,3.94555029296875,0.2844626307487488,-0.5557325482368469,0.036349210888147354
1763697200221511200,3.95551123046875,0.0973903089761734,-0.43863195180892944,0.15035857260227203
1763697200231471400,3.965471435546875,-0.4752790927886963,-0.1095624640583992,0.2852308750152588
1763697200241432000,3.97543212890625,-0.7314008474349976,0.13102252781391144,0.0158349871635437
1763697200251393000,3.98539306640625,-0.7029265761375427,0.27999255061149597,-0.31736665964126587
1763697200261354200,3.995354248046875,-0.6777775287628174,0.3719378411769867,-0.7217053174972534
1763697200271315200,4.005315185546875,-0.6257393956184387,0.4077965021133423,-0.7732244729995728
1763697200281275400,4.015275390625,-0.42804592847824097,0.3035244047641754,-0.6390294432640076
1763697200291236000,4.025236083984375,-0.29157891869544983,0.009289326146245003,-0.529538631439209
1763697200301197300,4.035197265625,-0.30728888511657715,-0.44708752632141113,-0.3439502716064453
1763697200311158300,4.045158203125,-0.33542600274086,-1.0354759693145752,0.034839387983083725
1763697200321119000,4.055118896484375,-0.5171703696250916,-0.5983534455299377,0.06007591634988785
1763697200331079200,4.0650791015625,-0.5725225210189819,-0.07017297297716141,-0.1672869324684143
1763697200341040000,4.0750400390625,-0.41479766368865967,0.23710621893405914,-0.3940728008747101
1763697200351001300,4.08500146484375,-0.15264219045639038,0.4297390282154083,-0.48391082882881165
1763697200360962000,4.094962158203125,0.0392606221139431,0.5176068544387817,-0.4299967586994171
1763697200370922000,4.104921875,0.10328114777803421,0.5658289790153503,-0.3576922118663788
1763697200380883200,4.11488330078125,0.08875592052936554,0.5016465783119202,-0.304533988237381
1763697200390844200,4.12484423828125,0.029104843735694885,0.3773525655269623,-0.25248998403549194
1763697200400805000,4.13480517578125,-0.04777097329497337,0.2513416111469269,-0.19815489649772644
1763697200410766000,4.14476611328125,-0.12043797969818115,0.1422353833913803,-0.1648704558610916
1763697200420726300,4.154726318359375,-0.17387594282627106,0.05738593637943268,-0.13889628648757935
1763697200430687200,4.164687255859375,-0.18938113749027252,0.024272460490465164,-0.10690293461084366
1763697200440648200,4.174648193359375,-0.16785472631454468,0.03151264786720276,-0.07475422322750092
1763697200450609200,4.184609130859375,-0.1126127690076828,0.04167766496539116,-0.0429891012609005
1763697200460569600,4.194569580078125,-0.04113270714879036,0.038168683648109436,-0.015589017421007156
1763697200470529500,4.204529541015625,0.02504178322851658,0.06098771095275879,-0.009517276659607887
1763697200480490800,4.21449072265625,0.07551661878824234,0.08287385106086731,-0.016498412936925888
1763697200490451500,4.224451416015625,0.10770038515329361,0.06830236315727234,-0.012254132889211178
1763697200500412700,4.23441259765625,0.1255451738834381,0.04783662408590317,-0.0070792073383927345
1763697200510373600,4.24437353515625,0.13025124371051788,0.024780042469501495,0.00609571672976017
1763697200520333600,4.25433349609375,0.11371327191591263,0.002351964358240366,0.013052426278591156
1763697200530294800,4.264294677734375,0.08815864473581314,-0.012946831062436104,0.02618766948580742
1763697200540255500,4.27425537109375,0.05603999271988869,-0.024950388818979263,0.03808760643005371
1763697200550216700,4.284216796875,0.02524932287633419,-0.046802155673503876,0.04825422540307045
1763697200560177700,4.294177734375,0.0048439172096550465,-0.09167269617319107,0.05813615024089813
1763697200570137600,4.3041376953125,-0.0058859591372311115,-0.14676417410373688,0.05907784402370453
1763697200580098600,4.3140986328125,-0.015305107459425926,-0.19974693655967712,0.04168093204498291
1763697200590059500,4.3240595703125,-0.02628079243004322,-0.23553398251533508,0.013464204967021942
1763697200600020700,4.334020751953125,-0.04008644074201584,-0.24405533075332642,-0.013588939793407917
1763697200609980700,4.343980712890625,-0.05097637325525284,-0.23785816133022308,-0.028673352673649788
1763697200619941600,4.353941650390625,-0.06324326992034912,-0.23421400785446167,-0.039294011890888214
1763697200629902600,4.363902587890625,-0.07165220379829407,-0.23637516796588898,-0.05210594832897186
1763697200639863600,4.373863525390625,-0.07017266750335693,-0.25410327315330505,-0.07060199230909348
1763697200649824500,4.383824462890625,-0.05373989790678024,-0.2833189368247986,-0.09045958518981934
1763697200659784400,4.393784423828125,-0.03851849585771561,-0.3169487416744232,-0.10607599467039108
1763697200669745700,4.40374560546875,-0.031771108508110046,-0.34196940064430237,-0.11803678423166275
1763697200679706600,4.41370654296875,-0.029482576996088028,-0.36373040080070496,-0.12403280287981033
1763697200689667600,4.42366748046875,-0.03531996160745621,-0.3806300163269043,-0.12204503268003464
1763697200699628500,4.433628662109375,-0.04865967854857445,-0.39377361536026,-0.11597881466150284
1763697200709588500,4.44358837890625,-0.0678618773818016,-0.40971609950065613,-0.11063145101070404
1763697200719549700,4.4535498046875,-0.08533734083175659,-0.4254781901836395,-0.11264927685260773
1763697200729510700,4.4635107421875,-0.09728348255157471,-0.4371928870677948,-0.115365169942379
1763697200739471600,4.4734716796875,-0.10754437744617462,-0.43846696615219116,-0.11083752661943436
1763697200749432600,4.4834326171875,-0.11724866926670074,-0.44284120202064514,-0.09897447377443314
1763697200759392500,4.493392578125,-0.11921698600053787,-0.4465717375278473,-0.08420044183731079
1763697200769353700,4.503353759765625,-0.1144493967294693,-0.43984273076057434,-0.07016292214393616
1763697200779314400,4.513314453125,-0.1082100197672844,-0.42017585039138794,-0.07061366736888885
1763697200789275600,4.523275634765625,-0.10084984451532364,-0.39366409182548523,-0.08292732387781143
1763697200799235600,4.533235595703125,-0.09504755586385727,-0.3704248368740082,-0.10598504543304443
1763697200809196800,4.54319677734375,-0.08874039351940155,-0.3621096611022949,-0.12725305557250977
1763697200819157500,4.553157470703125,-0.08313333988189697,-0.36365920305252075,-0.15255185961723328
1763697200829118500,4.563118408203125,-0.08379566669464111,-0.3794967532157898,-0.17081928253173828
1763697200839079700,4.57307958984375,-0.08382637798786163,-0.401458740234375,-0.17762799561023712
1763697200849039600,4.58303955078125,-0.08326204866170883,-0.4236588478088379,-0.17739176750183105
1763697200859000600,4.59300048828125,-0.07856664061546326,-0.44466015696525574,-0.17289955914020538
1763697200868961500,4.60296142578125,-0.07625129073858261,-0.4629667401313782,-0.1686028093099594
1763697200878922800,4.6129228515625,-0.07363787293434143,-0.48111432790756226,-0.1583515852689743
1763697200888883700,4.6228837890625,-0.07110041379928589,-0.49735429883003235,-0.14678813517093658
1763697200898843600,4.63284375,-0.06672175973653793,-0.5118794441223145,-0.14048747718334198
1763697200908804600,4.6428046875,-0.06765839457511902,-0.5112873911857605,-0.13733670115470886
1763697200918765600,4.652765625,-0.0651819035410881,-0.49121755361557007,-0.14383918046951294
1763697200928726800,4.662726806640625,-0.06897398084402084,-0.46517688035964966,-0.1573171764612198
1763697200938686700,4.672686767578125,-0.0751260444521904,-0.4406523108482361,-0.17279057204723358
1763697200948647400,4.6826474609375,-0.08386386930942535,-0.416635125875473,-0.18795301020145416
1763697200958608600,4.692608642578125,-0.08600392192602158,-0.3985700309276581,-0.19562150537967682
1763697200968569600,4.702569580078125,-0.08292664587497711,-0.3820597529411316,-0.1960819661617279
1763697200978530600,4.712530517578125,-0.07049629092216492,-0.36792683601379395,-0.19407537579536438
1763697200988490500,4.722490478515625,-0.05923298001289368,-0.3528197705745697,-0.1930609792470932
1763697200998451700,4.73245166015625,-0.0486425906419754,-0.33266040682792664,-0.20032495260238647
1763697201008412700,4.74241259765625,-0.0465373620390892,-0.3107028901576996,-0.20849871635437012
1763697201018373400,4.752373291015625,-0.04835020378232002,-0.287116140127182,-0.21901290118694305
1763697201028333600,4.76233349609375,-0.053961750119924545,-0.25400903820991516,-0.22383162379264832
1763697201038294500,4.77229443359375,-0.05373165011405945,-0.20919790863990784,-0.22384387254714966
1763697201048255700,4.782255859375,-0.05066688731312752,-0.1618860512971878,-0.22651688754558563
1763697201058216400,4.792216552734375,-0.04258683696389198,-0.11715374141931534,-0.23304574191570282
1763697201068177700,4.802177734375,-0.02787500061094761,-0.07491973042488098,-0.23635658621788025
1763697201078137600,4.8121376953125,-0.018839122727513313,-0.030677715316414833,-0.2326536774635315
1763697201088098600,4.8220986328125,-0.010974541306495667,0.006013453938066959,-0.2238098531961441
1763697201098059800,4.832059814453125,-0.011254964396357536,0.02742134779691696,-0.2139701396226883
1763697201108020500,4.8420205078125,-0.010231778025627136,0.038923539221286774,-0.2088262438774109
1763697201117980700,4.851980712890625,-0.018340231850743294,0.04473526030778885,-0.20595355331897736
1763697201127941600,4.861941650390625,-0.028531352058053017,0.045660439878702164,-0.19927513599395752
1763697201137902600,4.871902587890625,-0.03303275257349014,0.0404089130461216,-0.19981946051120758
1763697201147863600,4.881863525390625,-0.031772542744874954,0.03272063285112381,-0.2039652168750763
1763697201157824500,4.891824462890625,-0.0318661630153656,0.015091613866388798,-0.21181996166706085
1763697201167784700,4.90178466796875,-0.03361639380455017,-0.007124476134777069,-0.21013684570789337
1763697201177745700,4.91174560546875,-0.03372497484087944,-0.03816082701086998,-0.20449021458625793
1763697201187706600,4.92170654296875,-0.029936624690890312,-0.06859596073627472,-0.19610711932182312
1763697201197667600,4.93166748046875,-0.021480970084667206,-0.09703775495290756,-0.18855400383472443
1763697201207627500,4.94162744140625,-0.009990494698286057,-0.12105041742324829,-0.1936480849981308
1763697201217588700,4.951588623046875,0.007071611005812883,-0.13641001284122467,-0.2036060094833374
1763697201227549400,4.961549560546875,0.02170727774500847,-0.13523395359516144,-0.20827318727970123
1763697201237510700,4.9715107421875,0.03460055589675903,-0.11442550271749496,-0.2115529179573059
1763697201247471600,4.9814716796875,0.0405399352312088,-0.08316478133201599,-0.20966632664203644
1763697201257431600,4.991431640625,0.0427696667611599,-0.05214519426226616,-0.19962261617183685
1763697201267392500,5.001392578125,0.03536234796047211,-0.027511488646268845,-0.1881832629442215
1763697201277353500,5.011353515625,0.024319199845194817,0.001851406879723072,-0.17208945751190186
1763697201287314700,5.021314697265625,0.019187821075320244,0.046194106340408325,-0.16078779101371765
1763697201297274600,5.031274658203125,0.020478250458836555,0.10758932679891586,-0.14772367477416992
1763697201307235800,5.04123583984375,0.02699527144432068,0.16704705357551575,-0.1360294669866562
1763697201317196500,5.051196533203125,0.032365161925554276,0.21805399656295776,-0.1230141669511795
1763697201327157500,5.061157470703125,0.031144369393587112,0.253447949886322,-0.11630939692258835
1763697201337118700,5.07111865234375,0.03132493048906326,0.27395960688591003,-0.11242863535881042
1763697201347078700,5.08107861328125,0.03287915140390396,0.28045132756233215,-0.10853509604930878
1763697201357039600,5.09103955078125,0.03658758103847504,0.2710365355014801,-0.10420627892017365
1763697201367000600,5.10100048828125,0.034767843782901764,0.25002044439315796,-0.09400530904531479
1763697201376961800,5.1109619140625,0.027271846309304237,0.21508565545082092,-0.07517063617706299
1763697201386921700,5.120921630859375,0.0164631400257349,0.15754114091396332,-0.05579214543104172
1763697201396882400,5.13088232421875,0.015271889045834541,0.09545592963695526,-0.046049922704696655
1763697201406843600,5.14084375,0.023838745430111885,0.02191700041294098,-0.041714560240507126
1763697201416804600,5.1508046875,0.040518052875995636,-0.05482178181409836,-0.04998346045613289
1763697201426765600,5.160765625,0.04326989874243736,-0.11218973249197006,-0.056150808930397034
1763697201436725500,5.1707255859375,0.03465072438120842,-0.16465502977371216,-0.06516627222299576
1763697201446686500,5.1806865234375,0.026507312431931496,-0.19803161919116974,-0.06797537952661514
1763697201456648000,5.19064794921875,0.017524756491184235,-0.2214413583278656,-0.06314931064844131
1763697201466608600,5.200608642578125,0.010051660239696503,-0.2443637251853943,-0.05270705372095108
1763697201476568600,5.210568603515625,0.01510736532509327,-0.24803060293197632,-0.049762703478336334
1763697201486529800,5.22052978515625,0.03581131249666214,-0.24788732826709747,-0.05942997708916664
1763697201496490800,5.23049072265625,0.07692216336727142,-0.21879856288433075,-0.07569688558578491
1763697201506452000,5.240451904296875,0.1269102394580841,-0.16373024880886078,-0.09031551331281662
1763697201516412000,5.250411865234375,0.1801842749118805,-0.08352477848529816,-0.09521451592445374
1763697201526372900,5.260372802734375,0.22415760159492493,0.02495429292321205,-0.0828864797949791
1763697201536333800,5.270333740234375,0.2486756145954132,0.1292368769645691,-0.05412168428301811
1763697201546295000,5.280294921875,0.25335586071014404,0.20889708399772644,-0.01666964963078499
1763697201556255700,5.290255859375,0.2393784075975418,0.28988662362098694,0.021435171365737915
1763697201566215700,5.300215576171875,0.20539620518684387,0.35800522565841675,0.05063007399439812
1763697201576177000,5.310177001953125,0.1767996996641159,0.3919874131679535,0.06582725048065186
1763697201586137900,5.320137939453125,0.16791751980781555,0.38957032561302185,0.07524605095386505
1763697201596098800,5.330098876953125,0.1744716763496399,0.3730102479457855,0.06602977961301804
1763697201606058800,5.340058837890625,0.1904865950345993,0.35577186942100525,0.03655311465263367
1763697201616019700,5.350019775390625,0.20451247692108154,0.34183311462402344,-0.0036927559413015842
1763697201625981000,5.35998095703125,0.21502263844013214,0.33438852429389954,-0.0287360567599535
1763697201635941600,5.369941650390625,0.2182662934064865,0.3091011643409729,-0.037498652935028076
1763697201645901800,5.37990185546875,0.21554401516914368,0.2796681821346283,-0.04034050926566124
1763697201655862800,5.38986279296875,0.21730463206768036,0.24783961474895477,-0.05041016265749931
1763697201665823700,5.39982373046875,0.2202298492193222,0.21915416419506073,-0.06352490186691284
1763697201675784700,5.40978466796875,0.20344118773937225,0.18537484109401703,-0.08309001475572586
1763697201685744600,5.41974462890625,0.18233589828014374,0.17078791558742523,-0.09057429432868958
1763697201695705900,5.429705810546875,0.1730388104915619,0.200470969080925,-0.0857824757695198
1763697201705666800,5.439666748046875,0.15725505352020264,0.23610752820968628,-0.07904361188411713
1763697201715628000,5.4496279296875,0.14848168194293976,0.2738516628742218,-0.07962442934513092
1763697201725588700,5.459588623046875,0.14182324707508087,0.3165954053401947,-0.08443969488143921
1763697201735548700,5.469548583984375,0.12731972336769104,0.3516945242881775,-0.08568265289068222
1763697201745510000,5.479510009765625,0.1103748306632042,0.3773080110549927,-0.08769919723272324
1763697201755470800,5.489470947265625,0.08657781779766083,0.39973369240760803,-0.07990127801895142
1763697201765431800,5.499431884765625,0.06291668862104416,0.4101370573043823,-0.06816579401493073
1763697201775391700,5.509391845703125,0.04591403156518936,0.41030973196029663,-0.06211535260081291
1763697201785352700,5.519352783203125,0.024316862225532532,0.4096362292766571,-0.05508700758218765
1763697201795314000,5.52931396484375,0.0027121668681502342,0.3955954313278198,-0.043967828154563904
1763697201805274600,5.539274658203125,-0.014684667810797691,0.36337199807167053,-0.035256627947092056
1763697201815234800,5.54923486328125,-0.02191130444407463,0.3210444748401642,-0.034807488322257996
1763697201825195800,5.55919580078125,-0.0300174318253994,0.2757371962070465,-0.044185277074575424
1763697201835157000,5.569156982421875,-0.03568621724843979,0.24201329052448273,-0.05449448525905609
1763697201845117700,5.57911767578125,-0.047465112060308456,0.22490355372428894,-0.05701756477355957
1763697201855078700,5.58907861328125,-0.06555888801813126,0.21064531803131104,-0.06268252432346344
1763697201865038800,5.599038818359375,-0.08360473066568375,0.18568430840969086,-0.06421810388565063
1763697201874999800,5.608999755859375,-0.10248158872127533,0.16095122694969177,-0.0719916895031929
1763697201884960800,5.618960693359375,-0.12548545002937317,0.1392699033021927,-0.0825204998254776
1763697201894921700,5.628921630859375,-0.14362160861492157,0.12068024277687073,-0.08924795687198639
1763697201904881700,5.638881591796875,-0.1593608856201172,0.11070351302623749,-0.09134120494127274
1763697201914843000,5.6488427734375,-0.1600772738456726,0.10585016757249832,-0.10173951834440231
1763697201924803800,5.658803955078125,-0.15023450553417206,0.09823378920555115,-0.1180092990398407
1763697201934764800,5.668764892578125,-0.13472914695739746,0.0790308341383934,-0.1395324021577835
1763697201944724700,5.678724853515625,-0.11209334433078766,0.05649835988879204,-0.16102518141269684
1763697201954686000,5.68868603515625,-0.1049313023686409,0.044024113565683365,-0.17101629078388214
1763697201964647000,5.69864697265625,-0.098003089427948,0.04677409306168556,-0.1710202842950821
1763697201974607600,5.708607666015625,-0.08995050191879272,0.07023033499717712,-0.17216263711452484
1763697201984567800,5.71856787109375,-0.0877336859703064,0.09670215845108032,-0.17115116119384766
1763697201994528800,5.72852880859375,-0.09001424908638,0.13707251846790314,-0.15148262679576874
1763697202004490000,5.738489990234375,-0.08698277175426483,0.1831049770116806,-0.11246439814567566
1763697202014450700,5.74845068359375,-0.06186637282371521,0.18438664078712463,-0.08481395244598389
1763697202024410600,5.75841064453125,-0.016163334250450134,0.14091826975345612,-0.09540241956710815
1763697202034371800,5.768371826171875,0.034377939999103546,0.12771490216255188,-0.1394883394241333
1763697202044332800,5.778332763671875,0.07775072008371353,0.1813853234052658,-0.18380387127399445
1763697202054293800,5.788293701171875,0.10177111625671387,0.2618652582168579,-0.20090706646442413
1763697202064254700,5.798254638671875,0.09626103192567825,0.34107911586761475,-0.19815735518932343
1763697202074214700,5.808214599609375,0.06621478497982025,0.394427090883255,-0.18530036509037018
1763697202084176000,5.81817578125,0.030154254287481308,0.4126497507095337,-0.16707901656627655
1763697202094136800,5.82813671875,-0.017264991998672485,0.3973871171474457,-0.14559108018875122
1763697202104097800,5.838097900390625,-0.06171554699540138,0.37479233741760254,-0.12660035490989685
1763697202114057700,5.8480576171875,-0.0864846408367157,0.3383656442165375,-0.11107756197452545
1763697202124019000,5.85801904296875,-0.08878535032272339,0.2817801237106323,-0.09093554317951202
1763697202133980000,5.86797998046875,-0.07716242223978043,0.2232796847820282,-0.07171190530061722
1763697202143940900,5.87794091796875,-0.05705795809626579,0.18322201073169708,-0.06801038235425949
1763697202153900800,5.88790087890625,-0.048290643841028214,0.17279629409313202,-0.07139002531766891
1763697202163861800,5.89786181640625,-0.050402529537677765,0.1801958978176117,-0.06950317323207855
1763697202173823000,5.907822998046875,-0.06789735704660416,0.20040883123874664,-0.06488807499408722
1763697202183783700,5.91778369140625,-0.09312281757593155,0.22026589512825012,-0.05374167859554291
1763697202193743600,5.92774365234375,-0.10907399654388428,0.22134746611118317,-0.053760115057229996
1763697202203704800,5.937704833984375,-0.10963565856218338,0.19902510941028595,-0.07031591981649399
1763697202213665800,5.947665771484375,-0.10214710980653763,0.1733284443616867,-0.08523411303758621
1763697202223626800,5.957626708984375,-0.09374909847974777,0.1492350995540619,-0.08866666257381439
1763697202233586700,5.967586669921875,-0.0866498127579689,0.12502533197402954,-0.08108092844486237
1763697202243548000,5.9775478515625,-0.07399313896894455,0.09693324565887451,-0.06715179979801178
1763697202253508900,5.9875087890625,-0.061361636966466904,0.05935715511441231,-0.04236951470375061
1763697202263469800,5.9974697265625,-0.05549895390868187,0.009138456545770168,-0.020546505227684975
1763697202273429800,6.0074296875,-0.0529547855257988,-0.03861274942755699,-0.007189263589680195
1763697202283390700,6.017390625,-0.054508473724126816,-0.07003618776798248,-0.0004919462371617556
1763697202293352000,6.02735205078125,-0.054315049201250076,-0.08761564642190933,0.00764909852296114
1763697202303313000,6.03731298828125,-0.05916759744286537,-0.10008003562688828,0.01778855174779892
1763697202313272800,6.04727294921875,-0.06563854217529297,-0.10704163461923599,0.026384763419628143
1763697202323233800,6.05723388671875,-0.06202995777130127,-0.10610819607973099,0.034944962710142136
1763697202333194800,6.06719482421875,-0.046391285955905914,-0.10005484521389008,0.03384288027882576
1763697202343156000,6.077156005859375,-0.021955717355012894,-0.08247479051351547,0.022750278934836388
1763697202353116000,6.087115966796875,0.0009156765881925821,-0.04242135211825371,0.019416823983192444
1763697202363076900,6.097076904296875,0.014717241749167442,0.004467594437301159,0.02198304608464241
1763697202373037800,6.107037841796875,0.015608691610395908,0.04640534520149231,0.02496325597167015
1763697202382998800,6.116998779296875,-0.0025692470371723175,0.09213395416736603,0.029870130121707916
1763697202392959000,6.126958984375,-0.0388769805431366,0.14246346056461334,0.0551513209939003
1763697202402919700,6.136919677734375,-0.07623686641454697,0.1877441257238388,0.1046413704752922
1763697202412881000,6.146880859375,-0.10348814725875854,0.23375411331653595,0.1691751927137375
1763697202422841900,6.156841796875,-0.12911361455917358,0.28925785422325134,0.2577897608280182
1763697202432801800,6.1668017578125,-0.14459913969039917,0.3694862127304077,0.3751748502254486
1763697202442762800,6.1767626953125,-0.14955128729343414,0.478179931640625,0.5082333087921143
1763697202452723700,6.1867236328125,-0.14785625040531158,0.5997206568717957,0.6476736068725586
1763697202462685000,6.196684814453125,-0.14313898980617523,0.7082713842391968,0.7759383916854858
1763697202472644900,6.206644775390625,-0.14790146052837372,0.7798233032226562,0.8908401727676392
1763697202482605600,6.21660546875,-0.15102800726890564,0.8141788840293884,0.9884364604949951
1763697202492566800,6.22656689453125,-0.1548362821340561,0.8338370323181152,1.0642154216766357
1763697202502527700,6.23652783203125,-0.15667147934436798,0.8336164951324463,1.1197539567947388
1763697202512489000,6.246489013671875,-0.15856193006038666,0.8133260011672974,1.145369529724121
1763697202522449000,6.256448974609375,-0.15560875833034515,0.7605094313621521,1.161220669746399
1763697202532409900,6.266409912109375,-0.14957506954669952,0.6670799851417542,1.1736682653427124
1763697202542370800,6.276370849609375,-0.15134046971797943,0.5344052910804749,1.1859039068222046
1763697202552332000,6.28633203125,-0.16242589056491852,0.3788421154022217,1.200213074684143
1763697202562292000,6.2962919921875,-0.17177490890026093,0.22913409769535065,1.2251112461090088
1763697202572252700,6.306252685546875,-0.15446479618549347,0.12275365740060806,1.284391164779663
1763697202582214000,6.3162138671875,-0.10712603479623795,0.06731037050485611,1.3693244457244873
1763697202592174800,6.3261748046875,-0.03156024217605591,0.05786247178912163,1.4704722166061401
1763697202602134800,6.336134765625,0.07617101073265076,0.08439154922962189,1.5654329061508179
1763697202612095700,6.346095703125,0.2074897289276123,0.15553955733776093,1.6259219646453857
1763697202622056700,6.356056640625,0.3345952332019806,0.2420206516981125,1.6258809566497803
1763697202632018000,6.366017822265625,0.4434698224067688,0.27742671966552734,1.567033290863037
1763697202641977900,6.375977783203125,0.531847357749939,0.25445616245269775,1.4731930494308472
1763697202651938800,6.385938720703125,0.6067214012145996,0.21272635459899902,1.3844635486602783
1763697202661899800,6.395899658203125,0.667214572429657,0.16781693696975708,1.3223247528076172
1763697202671860700,6.40586083984375,0.6894266605377197,0.09924987703561783,1.2866324186325073
1763697202681821000,6.415821044921875,0.6643074154853821,-0.002207508310675621,1.2749272584915161
1763697202691781600,6.42578173828125,0.6038705110549927,-0.09767225384712219,1.290597677230835
1763697202701742800,6.435742919921875,0.5299789905548096,-0.13766254484653473,1.3458234071731567
1763697202711703800,6.445703857421875,0.46432098746299744,-0.11596208065748215,1.4274486303329468
1763697202721663700,6.455663818359375,0.4116806983947754,-0.05617251619696617,1.5009175539016724
1763697202731625000,6.465625,0.3559938073158264,0.0006827432662248611,1.5294703245162964
1763697202741585700,6.475585693359375,0.367346853017807,0.022990712895989418,1.4979398250579834
1763697202751547000,6.485546875,0.41626232862472534,0.06591026484966278,1.4361716508865356
1763697202761506800,6.4955068359375,0.48408612608909607,0.14030781388282776,1.3568971157073975
1763697202771468000,6.505468017578125,0.5755257606506348,0.2290714830160141,1.286641240119934
1763697202781428700,6.5154287109375,0.6683006882667542,0.28558799624443054,1.2399173974990845
1763697202791389700,6.5253896484375,0.7553678154945374,0.2960236668586731,1.2249048948287964
1763697202801350000,6.535349853515625,0.8301035761833191,0.2596379518508911,1.2388238906860352
1763697202811310800,6.545310791015625,0.8987877368927002,0.17467400431632996,1.2720234394073486
1763697202821271800,6.555271728515625,0.9567144513130188,0.08490710705518723,1.3092514276504517
1763697202831232800,6.565232666015625,0.9956003427505493,0.005678403191268444,1.3312658071517944
1763697202841192700,6.575192626953125,1.0026601552963257,-0.09571745991706848,1.3461778163909912
1763697202851154000,6.58515380859375,0.9757380485534668,-0.18410779535770416,1.3640674352645874
1763697202861114600,6.595114501953125,0.9318366050720215,-0.2621879577636719,1.4009379148483276
1763697202871075800,6.605075927734375,0.8719338774681091,-0.36812716722488403,1.4576987028121948
1763697202881035800,6.615035888671875,0.8202203512191772,-0.4833222031593323,1.5301843881607056
1763697202890996700,6.624996826171875,0.7905882000923157,-0.5602116584777832,1.5959291458129883
1763697202900957700,6.634957763671875,0.7995933890342712,-0.5786133408546448,1.6309638023376465
1763697202910918700,6.644918701171875,0.8083640336990356,-0.572880208492279,1.6305451393127441
1763697202920878800,6.65487890625,0.8050622344017029,-0.5919484496116638,1.6088310480117798
1763697202930839800,6.66483984375,0.783695638179779,-0.6156877875328064,1.5891815423965454
1763697202940801000,6.674801025390625,0.7468060851097107,-0.6195043325424194,1.5873342752456665
1763697202950761700,6.68476171875,0.7100353837013245,-0.6357372999191284,1.5962984561920166
1763697202960721700,6.6947216796875,0.6707763671875,-0.7237750291824341,1.5994364023208618
1763697202970683000,6.704682861328125,0.6352434158325195,-0.8391427397727966,1.5950101613998413
1763697202980643800,6.714643798828125,0.6096150279045105,-0.9025300145149231,1.596917748451233
1763697202990604800,6.724604736328125,0.6021568775177002,-0.9173808693885803,1.5906785726547241
1763697203000564700,6.734564697265625,0.5990833044052124,-0.8882109522819519,1.5476124286651611
1763697203010525700,6.744525634765625,0.5895610451698303,-0.8491069078445435,1.4770729541778564
1763697203020487000,6.75448681640625,0.5680994391441345,-0.8151162266731262,1.404714822769165
1763697203030446800,6.76444677734375,0.5485023260116577,-0.7885851263999939,1.343531608581543
1763697203040407800,6.77440771484375,0.5339518785476685,-0.7427635788917542,1.2941036224365234
1763697203050368800,6.78436865234375,0.5252548456192017,-0.6924960017204285,1.237572193145752
1763697203060330000,6.794330078125,0.520145833492279,-0.6600089073181152,1.180428147315979
1763697203070290000,6.8042900390625,0.5173279643058777,-0.647260308265686,1.1314889192581177
1763697203080250600,6.814250732421875,0.5067112445831299,-0.6646169424057007,1.0934115648269653
1763697203090211800,6.8242119140625,0.47986388206481934,-0.6777340173721313,1.0615073442459106
1763697203100172800,6.8341728515625,0.44412532448768616,-0.6571494340896606,1.0307800769805908
1763697203110132700,6.8441328125,0.40892916917800903,-0.6001511812210083,0.9892166256904602
1763697203120093700,6.85409375,0.3784855008125305,-0.5287374258041382,0.9320300221443176
1763697203130054700,6.8640546875,0.35764873027801514,-0.467254102230072,0.8710413575172424
1763697203140015900,6.874015869140625,0.332371324300766,-0.38576191663742065,0.8142856955528259
1763697203149975800,6.883975830078125,0.2996101677417755,-0.2888237237930298,0.7567517757415771
1763697203159937000,6.89393701171875,0.2538543939590454,-0.21502460539340973,0.6972993612289429
1763697203169897700,6.903897705078125,0.2009286880493164,-0.1351771205663681,0.6416352987289429
1763697203179859000,6.91385888671875,0.14367417991161346,-0.07108575105667114,0.5882788300514221
1763697203189819000,6.92381884765625,0.09400008618831635,-0.049783386290073395,0.5477759838104248
1763697203199779800,6.93377978515625,0.050912272185087204,-0.05725754797458649,0.5101713538169861
1763697203209740800,6.94374072265625,0.02631169743835926,-0.030831746757030487,0.45893752574920654
1763697203219701800,6.95370166015625,0.029116539284586906,0.0010473558213561773,0.3831985592842102
1763697203229661700,6.96366162109375,0.02594963274896145,-0.02371298335492611,0.3090478479862213
1763697203239623000,6.973622802734375,0.020445676520466805,-0.0595114603638649,0.23869885504245758
1763697203249583600,6.98358349609375,0.016321616247296333,-0.05916652828454971,0.1667749434709549
1763697203259544800,6.993544921875,0.015362079255282879,-0.07389248162508011,0.10727592557668686
1763697203269504800,7.0035048828125,0.007290464825928211,-0.08890432864427567,0.0562095083296299
1763697203279466000,7.013466064453125,0.0016421664040535688,-0.09018770605325699,0.004303433932363987
1763697203289426700,7.0234267578125,-0.015653984621167183,-0.1331625133752823,-0.05769829824566841
1763697203299387600,7.0333876953125,-0.041187308728694916,-0.15057159960269928,-0.1292894035577774
1763697203309347800,7.043347900390625,-0.04762118309736252,-0.10777506232261658,-0.19708295166492462
1763697203319308800,7.053308837890625,-0.0352417454123497,-0.043437618762254715,-0.2575833201408386
1763697203329269800,7.063269775390625,-0.012804169207811356,-0.0033396179787814617,-0.31214603781700134
1763697203339230700,7.073230712890625,0.01652788557112217,0.028268374502658844,-0.3705537021160126
1763697203349190700,7.083190673828125,0.06520102173089981,0.06923867017030716,-0.43944403529167175
1763697203359151900,7.09315185546875,0.12285206466913223,0.09074795246124268,-0.5294098854064941
1763697203369112800,7.10311279296875,0.17119789123535156,0.08909568190574646,-0.6224340796470642
1763697203379073000,7.113072998046875,0.21338236331939697,0.07109058648347855,-0.7109348773956299
1763697203389033700,7.12303369140625,0.23993133008480072,0.05117247998714447,-0.7833019495010376
1763697203398995000,7.132994873046875,0.2498265653848648,0.04601074010133743,-0.8298883438110352
1763697203408956000,7.142955810546875,0.24423466622829437,0.03230693191289902,-0.8566943407058716
1763697203418915800,7.152915771484375,0.22314003109931946,0.03521589934825897,-0.8497046232223511
1763697203428876800,7.162876708984375,0.22023917734622955,0.025571580976247787,-0.7790295481681824
1763697203438837800,7.172837646484375,0.239334836602211,-0.07004576176404953,-0.6064146757125854
1763697203448799000,7.182799072265625,0.26467984914779663,-0.16663673520088196,-0.34355804324150085
1763697203458759000,7.192759033203125,0.2976439297199249,-0.2191326916217804,-0.056459177285432816
1763697203468720000,7.20272021484375,0.3188004791736603,-0.3133833408355713,0.17248418927192688
1763697203478681000,7.21268115234375,0.3302709758281708,-0.368696928024292,0.29176104068756104
1763697203488642300,7.222642333984375,0.31800806522369385,-0.43110576272010803,0.30413028597831726
1763697203498602200,7.232602294921875,0.2697761058807373,-0.4844459593296051,0.23399220407009125
1763697203508563200,7.242563232421875,0.18665818870067596,-0.5344297289848328,0.12927071750164032
1763697203518524200,7.252524169921875,0.04995973780751228,-0.49656304717063904,0.029221873730421066
1763697203528485400,7.2624853515625,-0.08127277344465256,-0.4079333543777466,-0.042886581271886826
1763697203538445300,7.2724453125,-0.16227760910987854,-0.3188125193119049,-0.10555288940668106
1763697203548406000,7.282406005859375,-0.19502845406532288,-0.2617787718772888,-0.18505819141864777
1763697203558367200,7.2923671875,-0.19960296154022217,-0.23506245017051697,-0.2608456611633301
1763697203568328200,7.302328125,-0.19827596843242645,-0.22798243165016174,-0.2885355055332184
1763697203578288000,7.3122880859375,-0.19963231682777405,-0.23524513840675354,-0.265848845243454
1763697203588249000,7.3222490234375,-0.2160714864730835,-0.2694370150566101,-0.20120443403720856
1763697203598210000,7.3322099609375,-0.24353161454200745,-0.3084094524383545,-0.10866252332925797
1763697203608170200,7.342170166015625,-0.3017098605632782,-0.30866798758506775,0.020326273515820503
1763697203618131200,7.352131103515625,-0.3698556125164032,-0.2474813163280487,0.1508544534444809
1763697203628092400,7.362092529296875,-0.43495336174964905,-0.16963623464107513,0.2732384204864502
1763697203638053000,7.37205322265625,-0.4838026762008667,-0.10398106276988983,0.3617062270641327
1763697203648013000,7.382012939453125,-0.5088905692100525,-0.06635081022977829,0.3710268437862396
1763697203657974300,7.391974365234375,-0.5096642374992371,-0.06549514085054398,0.28874289989471436
1763697203667935200,7.401935302734375,-0.49703896045684814,-0.05175173655152321,0.15970057249069214
1763697203677896200,7.411896240234375,-0.4646328091621399,-0.0013578033540397882,0.03420497477054596
1763697203687856000,7.421856201171875,-0.43156707286834717,0.047487519681453705,-0.06275799125432968
1763697203697817000,7.431817138671875,-0.40478047728538513,0.08453395962715149,-0.12592390179634094
1763697203707778300,7.4417783203125,-0.39311063289642334,0.1010468453168869,-0.1447930634021759
1763697203717739000,7.451739013671875,-0.39232686161994934,0.1555958390235901,-0.13470713794231415
1763697203727699200,7.46169921875,-0.40836456418037415,0.20216090977191925,-0.12488339841365814
1763697203737660200,7.47166015625,-0.4370737075805664,0.22497673332691193,-0.14306879043579102
1763697203747621400,7.481621337890625,-0.4630148410797119,0.19375039637088776,-0.1787377893924713
1763697203757582000,7.49158203125,-0.47940924763679504,0.15721635520458221,-0.21627530455589294
1763697203767542000,7.5015419921875,-0.4907217025756836,0.15807731449604034,-0.25750115513801575
1763697203777503200,7.511503173828125,-0.5094176530838013,0.16131092607975006,-0.30067846179008484
1763697203787464200,7.521464111328125,-0.5462732315063477,0.133361354470253,-0.34548842906951904
1763697203797424000,7.531424072265625,-0.5951526165008545,0.08718374371528625,-0.38272687792778015
1763697203807385000,7.541385009765625,-0.6239609122276306,0.04775460436940193,-0.4046937823295593
1763697203817346000,7.551345947265625,-0.6254258751869202,0.04526960849761963,-0.43473556637763977
1763697203827307300,7.561307373046875,-0.5995188355445862,0.04141515865921974,-0.5151939988136292
1763697203837267200,7.57126708984375,-0.5591261386871338,-0.011170819401741028,-0.6739186644554138
1763697203847228400,7.581228515625,-0.5138744115829468,-0.09008795022964478,-0.819200336933136
1763697203857189000,7.591189208984375,-0.48599880933761597,-0.202132448554039,-0.8657355904579163
1763697203867150000,7.601150146484375,-0.46635663509368896,-0.2551807761192322,-0.8844663500785828
1763697203877110300,7.6111103515625,-0.42947158217430115,-0.2328416407108307,-0.9205591082572937
1763697203887071200,7.6210712890625,-0.3831520080566406,-0.15400488674640656,-0.9998387098312378
1763697203897032200,7.6310322265625,-0.3187408149242401,-0.048276063054800034,-1.1076663732528687
1763697203906993200,7.6409931640625,-0.2485111504793167,-0.016695041209459305,-1.244746446609497
1763697203916953000,7.650953125,-0.20337004959583282,-0.03358054906129837,-1.3473020792007446
1763697203926914300,7.660914306640625,-0.16406391561031342,0.02185128629207611,-1.3820304870605469
1763697203936875000,7.670875,-0.13007335364818573,0.08393575251102448,-1.3724504709243774
1763697203946835200,7.680835205078125,-0.10044093430042267,0.060002733021974564,-1.3509739637374878
1763697203956796200,7.690796142578125,-0.06292658299207687,-0.013407834805548191,-1.3735346794128418
1763697203966757400,7.70075732421875,-0.021034441888332367,-0.0341382659971714,-1.4088703393936157
1763697203976718000,7.710718017578125,0.0005760458298027515,-0.025568215176463127,-1.4024393558502197
1763697203986678000,7.720677978515625,-0.00007259566336870193,-0.037109676748514175,-1.3596996068954468
1763697203996639200,7.73063916015625,-0.007021315395832062,-0.07148895412683487,-1.3313583135604858
1763697204006600200,7.74060009765625,-0.006187187507748604,-0.12339459359645844,-1.3354486227035522
1763697204016561200,7.75056103515625,0.008062055334448814,-0.12411284446716309,-1.345241904258728
1763697204026521000,7.76052099609375,0.033093471080064774,-0.03845204412937164,-1.338736891746521
1763697204036482000,7.77048193359375,0.062846839427948,0.10044165700674057,-1.331710934638977
1763697204046443300,7.780443359375,0.08440498262643814,0.2101324200630188,-1.3551043272018433
1763697204056404200,7.790404296875,0.09827739000320435,0.2972574830055237,-1.4082039594650269
1763697204066364400,7.800364501953125,0.10035520046949387,0.37405434250831604,-1.46030592918396
1763697204076325000,7.8103251953125,0.09174599498510361,0.446157842874527,-1.4906878471374512
1763697204086286000,7.8202861328125,0.07009061425924301,0.4789479672908783,-1.5017355680465698
1763697204096247300,7.830247314453125,0.04096921905875206,0.4955117702484131,-1.4855414628982544
1763697204106207200,7.840207275390625,0.006869407370686531,0.4920061230659485,-1.4545307159423828
1763697204116168200,7.850168212890625,-0.027815068140625954,0.4945100247859955,-1.4077988862991333
1763697204126129200,7.860129150390625,-0.06357821077108383,0.5111668705940247,-1.3668622970581055
1763697204136089000,7.870089111328125,-0.09821927547454834,0.4994998276233673,-1.3617615699768066
1763697204146050300,7.88005029296875,-0.13321925699710846,0.46160224080085754,-1.3522393703460693
1763697204156011000,7.890010986328125,-0.1508597731590271,0.43644922971725464,-1.3246288299560547
1763697204165972200,7.89997216796875,-0.129713773727417,0.46920448541641235,-1.2847110033035278
1763697204175932200,7.90993212890625,-0.07387179881334305,0.5140340328216553,-1.273488163948059
1763697204185893400,7.919893310546875,-0.0027454616501927376,0.5215395092964172,-1.2731553316116333
1763697204195854000,7.92985400390625,0.06473131477832794,0.49977296590805054,-1.2686247825622559
1763697204205815000,7.93981494140625,0.11464850604534149,0.4942716360092163,-1.2398455142974854
1763697204215775200,7.949775146484375,0.13919086754322052,0.48711010813713074,-1.195252776145935
1763697204225736200,7.959736083984375,0.141826793551445,0.4608600437641144,-1.1454473733901978
1763697204235697200,7.969697265625,0.1260632872581482,0.4617040157318115,-1.0940667390823364
1763697204245657000,7.979656982421875,0.10262439399957657,0.5202108025550842,-1.036861538887024
1763697204255618000,7.9896181640625,0.08844759315252304,0.5983325242996216,-0.9847973585128784
1763697204265579300,7.999579345703125,0.09452838450670242,0.6526634097099304,-0.9573873281478882
1763697204275540200,8.009540283203124,0.10661700367927551,0.6737958192825317,-0.9524913430213928
1763697204285500400,8.01950048828125,0.11644458770751953,0.6754156947135925,-0.9520716667175293
1763697204295461000,8.029461181640626,0.1263371706008911,0.6724758744239807,-0.9447983503341675
1763697204305422000,8.039422119140625,0.12742935121059418,0.6499108672142029,-0.9229355454444885
1763697204315383300,8.04938330078125,0.10905194282531738,0.5871564149856567,-0.8721919059753418
1763697204325343200,8.05934326171875,0.08542914688587189,0.4887411892414093,-0.7963777184486389
1763697204335304200,8.06930419921875,0.05773147568106651,0.3750894367694855,-0.7288801670074463
1763697204345265200,8.07926513671875,0.03697377070784569,0.2985502779483795,-0.6698248386383057
1763697204355225000,8.08922509765625,0.019200097769498825,0.27690836787223816,-0.6136095523834229
1763697204365186300,8.099186279296875,0.010361967608332634,0.28934919834136963,-0.5614027380943298
1763697204375147000,8.10914697265625,0.005579196847975254,0.3176884055137634,-0.523364245891571
1763697204385108200,8.119108154296875,0.006922449916601181,0.356197327375412,-0.49983322620391846
1763697204395068200,8.129068115234375,0.0229184590280056,0.4154411852359772,-0.47544345259666443
1763697204405029400,8.139029296875,0.04031137749552727,0.4518660306930542,-0.4291253983974457
1763697204414990000,8.148989990234375,0.047937605530023575,0.458425909280777,-0.36812594532966614
1763697204424951000,8.158950927734375,0.040388479828834534,0.4621279537677765,-0.30980801582336426
1763697204434911200,8.1689111328125,0.018308743834495544,0.4990268349647522,-0.2809199094772339
1763697204444872200,8.1788720703125,-0.013429082930088043,0.544231653213501,-0.27998223900794983
1763697204454833200,8.188833251953126,-0.04251905903220177,0.5503103137016296,-0.2853218913078308
1763697204464794400,8.19879443359375,-0.07504843175411224,0.4925421476364136,-0.2953129708766937
1763697204474754300,8.20875439453125,-0.10461538285017014,0.3953673839569092,-0.31246399879455566
1763697204484715300,8.21871533203125,-0.1256657838821411,0.31106385588645935,-0.3297836482524872
1763697204494676200,8.22867626953125,-0.1358126848936081,0.2547292113304138,-0.3314678370952606
1763697204504636200,8.23863623046875,-0.14334695041179657,0.20761343836784363,-0.30714285373687744
1763697204514597400,8.248597412109374,-0.1525665521621704,0.1583303064107895,-0.2868916392326355
1763697204524558300,8.258558349609375,-0.14748899638652802,0.1385587453842163,-0.2993531823158264
1763697204534519300,8.268519287109376,-0.1335870325565338,0.13007524609565735,-0.33853039145469666
1763697204544479500,8.2784794921875,-0.13735900819301605,0.12076772749423981,-0.3888557255268097
1763697204554440200,8.288440185546875,-0.15914739668369293,0.12814894318580627,-0.4373457729816437
1763697204564401400,8.2984013671875,-0.20803102850914001,0.11027193814516068,-0.46001338958740234
1763697204574362400,8.3083623046875,-0.24822479486465454,0.09747277945280075,-0.4634632468223572
1763697204584322300,8.318322265625,-0.28174281120300293,0.11144096404314041,-0.45765453577041626
1763697204594283300,8.328283203125,-0.31147220730781555,0.13707390427589417,-0.4473041594028473
1763697204604244200,8.338244140625,-0.33729493618011475,0.1644619107246399,-0.4591161608695984
1763697204614204400,8.348204345703126,-0.35124215483665466,0.1795596331357956,-0.4872167706489563
1763697204624165400,8.358165283203125,-0.36087632179260254,0.1861741840839386,-0.509407103061676
1763697204634126300,8.368126220703125,-0.37154442071914673,0.18571531772613525,-0.5174434781074524
1763697204644087300,8.37808740234375,-0.37615883350372314,0.19019339978694916,-0.5136551856994629
1763697204654047200,8.388047119140625,-0.3673597276210785,0.2000148743391037,-0.5149590373039246
1763697204664008400,8.398008544921876,-0.35103684663772583,0.20551879703998566,-0.5277928709983826
1763697204673969200,8.40796923828125,-0.33881452679634094,0.2160787582397461,-0.5488568544387817
1763697204683929000,8.41792919921875,-0.32527264952659607,0.2329130619764328,-0.5739713907241821
1763697204693890300,8.427890380859376,-0.30672773718833923,0.2550891935825348,-0.5931621193885803
1763697204703851300,8.437851318359375,-0.28223681449890137,0.2818508744239807,-0.597154974937439
1763697204713812200,8.447812255859375,-0.2533303499221802,0.3001856803894043,-0.5984836220741272
1763697204723772200,8.457772216796876,-0.2178923338651657,0.2773517072200775,-0.5865796804428101
1763697204733733400,8.4677333984375,-0.1673884093761444,0.1807710975408554,-0.540702760219574
1763697204743694300,8.4776943359375,-0.11620037257671356,0.019634949043393135,-0.49054428935050964
1763697204753655300,8.4876552734375,-0.08535084873437881,-0.11357024312019348,-0.4531537890434265
1763697204763615500,8.497615478515625,-0.05617939308285713,-0.16178525984287262,-0.4469079375267029
1763697204773576200,8.507576171875,-0.01055891066789627,-0.10905840992927551,-0.47689273953437805
1763697204783537400,8.517537353515625,0.02421826496720314,0.012526877224445343,-0.4866064786911011
1763697204793497300,8.527497314453125,0.031714264303445816,0.1564030945301056,-0.4469706416130066
1763697204803458300,8.537458251953124,0.010363832116127014,0.2660366892814636,-0.38573315739631653
1763697204813419300,8.547419189453125,-0.04355292767286301,0.3168868124485016,-0.3431750535964966
1763697204823380200,8.557380126953126,-0.12853096425533295,0.3321115970611572,-0.30891457200050354
1763697204833340400,8.56734033203125,-0.21475426852703094,0.33701446652412415,-0.2646123766899109
1763697204843301400,8.57730126953125,-0.2726218104362488,0.3091023862361908,-0.23423071205615997
1763697204853262300,8.587262451171876,-0.29819828271865845,0.24941669404506683,-0.21728529036045074
1763697204863223300,8.597223388671875,-0.29818135499954224,0.1800415813922882,-0.19696345925331116
1763697204873183200,8.607183349609375,-0.2818028926849365,0.11867035180330276,-0.17934133112430573
1763697204883144400,8.61714453125,-0.26591452956199646,0.040539711713790894,-0.17700904607772827
1763697204893105200,8.627105224609375,-0.2404073178768158,-0.06016426160931587,-0.18579216301441193
1763697204903065000,8.637065185546875,-0.2060542106628418,-0.1258445382118225,-0.18095748126506805
1763697204913026300,8.6470263671875,-0.1712338924407959,-0.12278430163860321,-0.16911707818508148
1763697204922987300,8.6569873046875,-0.1503732055425644,-0.06826215982437134,-0.1773967146873474
1763697204932948200,8.6669482421875,-0.16234278678894043,0.0021733874455094337,-0.20186716318130493
1763697204942908200,8.676908203125,-0.19914807379245758,0.052338674664497375,-0.19560064375400543
1763697204952869400,8.686869384765625,-0.2554808259010315,0.0695115327835083,-0.1425025314092636
1763697204962830300,8.696830322265624,-0.3084157109260559,0.058419033885002136,-0.05555492639541626
1763697204972790300,8.706790283203125,-0.33659064769744873,0.03766368702054024,0.0490734800696373
1763697204982751500,8.71675146484375,-0.3533972203731537,0.02443121373653412,0.16868625581264496
1763697204992712200,8.726712158203124,-0.36885419487953186,0.01672402396798134,0.28774020075798035
1763697205002673400,8.73667333984375,-0.37012583017349243,0.013973399996757507,0.4021223187446594
1763697205012633300,8.74663330078125,-0.3436785042285919,0.01417207159101963,0.5113883018493652
1763697205022594300,8.75659423828125,-0.3004795014858246,0.026397015899419785,0.6121969819068909
1763697205032555300,8.76655517578125,-0.2572910189628601,0.05220384523272514,0.6942974328994751
1763697205042516200,8.77651611328125,-0.2115384191274643,0.0758984163403511,0.7605613470077515
1763697205052476400,8.786476318359375,-0.16178470849990845,0.10112947225570679,0.8214460015296936
1763697205062437400,8.796437255859376,-0.11454199999570847,0.12661147117614746,0.8850115537643433
1763697205072398300,8.8063984375,-0.08305598050355911,0.15815474092960358,0.9571549892425537
1763697205082358300,8.816358154296875,-0.06242355331778526,0.20388197898864746,1.0477350950241089
1763697205092319200,8.8263193359375,-0.03853180631995201,0.26217830181121826,1.1711220741271973
1763697205102280400,8.836280517578125,0.007426902186125517,0.3379616439342499,1.3220757246017456
1763697205112241200,8.8462412109375,0.08641732484102249,0.4497568905353546,1.495842695236206
1763697205122201000,8.856201171875,0.20451611280441284,0.5835675001144409,1.6674853563308716
1763697205132162300,8.866162353515625,0.3453099727630615,0.6980706453323364,1.8090544939041138
1763697205142123300,8.876123291015626,0.47969284653663635,0.7458045482635498,1.918642282485962
1763697205152083500,8.88608349609375,0.5960314273834229,0.728604793548584,2.00603985786438
1763697205162044200,8.896044189453125,0.6992068886756897,0.6714568138122559,2.052694320678711
1763697205172005400,8.90600537109375,0.7806495428085327,0.5666214823722839,2.0293285846710205
1763697205181966300,8.91596630859375,0.8375217914581299,0.4324975609779358,1.9528675079345703
1763697205191926300,8.92592626953125,0.8632526993751526,0.2685565650463104,1.8484795093536377
1763697205201887500,8.935887451171874,0.8576732873916626,0.07504916936159134,1.7502100467681885
1763697205211848200,8.94584814453125,0.8110266923904419,-0.08166880905628204,1.7226287126541138
1763697205221808000,8.95580810546875,0.7473006844520569,-0.17210638523101807,1.786552906036377
1763697205231769300,8.965769287109374,0.6707028746604919,-0.23572131991386414,1.9021157026290894
1763697205241730300,8.975730224609375,0.6323919296264648,-0.3579619824886322,1.9834856986999512
1763697205251691300,8.985691162109376,0.6411121487617493,-0.45352473855018616,2.008993148803711
1763697205261651200,8.995651123046875,0.675449788570404,-0.44780129194259644,1.9918115139007568
1763697205271612400,9.0056123046875,0.7284120917320251,-0.3555523157119751,1.9405549764633179
1763697205281573400,9.015573486328124,0.80799800157547,-0.2619057297706604,1.869619369506836
1763697205291533300,9.025533203125,0.9089472889900208,-0.1853228360414505,1.8094537258148193
1763697205301494300,9.035494384765625,1.0187491178512573,-0.1315315067768097,1.788496971130371
1763697205311455200,9.045455322265624,1.118151307106018,-0.11452988535165787,1.8045848608016968
1763697205321416400,9.05541650390625,1.1707056760787964,-0.13431644439697266,1.8746874332427979
1763697205331376400,9.06537646484375,1.1599682569503784,-0.2035445272922516,1.979284405708313
1763697205341337000,9.075337158203125,1.094802737236023,-0.31982776522636414,2.0727615356445312
1763697205351298300,9.08529833984375,1.01905357837677,-0.448426216840744,2.1103267669677734
1763697205361258200,9.09525830078125,0.9640401005744934,-0.5320687890052795,2.0925588607788086
1763697205371219500,9.105219482421875,0.9310643076896667,-0.5494640469551086,2.048720598220825
1763697205381180200,9.11518017578125,0.9173076748847961,-0.5374294519424438,2.0144357681274414
1763697205391141400,9.125141357421874,0.9007742404937744,-0.5435413718223572,2.018127679824829
1763697205401101300,9.135101318359375,0.8807557225227356,-0.5891295075416565,2.0572619438171387
1763697205411062300,9.145062255859376,0.8489607572555542,-0.6844168901443481,2.0963683128356934
1763697205421023500,9.1550234375,0.7978076934814453,-0.8008471727371216,2.1237850189208984
1763697205430983400,9.1649833984375,0.7397207021713257,-0.8644522428512573,2.1176018714904785
1763697205440944000,9.174944091796876,0.7024679183959961,-0.8170574903488159,2.0649592876434326
1763697205450905300,9.1849052734375,0.675047755241394,-0.7499327659606934,1.9894472360610962
1763697205460865800,9.19486572265625,0.6516496539115906,-0.7258973121643066,1.9251765012741089
1763697205470826000,9.204825927734374,0.6203449964523315,-0.7264222502708435,1.8918323516845703
1763697205480786700,9.21478662109375,0.5719098448753357,-0.7207828164100647,1.873322606086731
1763697205490748000,9.224747802734376,0.5176503658294678,-0.7258989810943604,1.8364421129226685
1763697205500708900,9.234708984375,0.47227466106414795,-0.7227615118026733,1.771459937095642
1763697205510668800,9.244668701171875,0.4438400864601135,-0.6746070384979248,1.6758657693862915
1763697205520629800,9.254629638671876,0.4264744818210602,-0.5486307740211487,1.5475679636001587
1763697205530590700,9.2645908203125,0.40727710723876953,-0.380939781665802,1.4175498485565186
1763697205540550700,9.274550537109375,0.37769898772239685,-0.2192041426897049,1.2902796268463135
1763697205550511900,9.284511962890624,0.33483755588531494,-0.13255447149276733,1.1729851961135864
1763697205560472800,9.294472900390625,0.2741275727748871,-0.13492397964000702,1.074682354927063
1763697205570433800,9.304433837890626,0.21188680827617645,-0.1291411817073822,0.9658051133155823
1763697205580393700,9.314393798828124,0.1546349674463272,-0.09702904522418976,0.8281549215316772
1763697205590355000,9.32435498046875,0.0919705182313919,-0.08896206319332123,0.6841141581535339
1763697205600316000,9.33431591796875,0.023921383544802666,-0.10472237318754196,0.5572587251663208
1763697205610275800,9.34427587890625,-0.03243989497423172,-0.10736130177974701,0.44158801436424255
1763697205620236800,9.35423681640625,-0.06311886757612228,-0.036717962473630905,0.33368024230003357
1763697205630197800,9.36419775390625,-0.05326756462454796,0.03608327358961105,0.23233605921268463
1763697205640159000,9.374158935546875,-0.0374031737446785,0.06439162790775299,0.14097876846790314
1763697205650119000,9.384118896484376,-0.04291059076786041,0.020624175667762756,0.06843266636133194
1763697205660079600,9.39407958984375,-0.04730235040187836,-0.025594206526875496,-0.005485025234520435
1763697205670040800,9.404040771484375,-0.02891721948981285,-0.04107249900698662,-0.09576325863599777
1763697205680000800,9.414000732421876,0.013472126796841621,0.02058657631278038,-0.211805060505867
1763697205689962000,9.4239619140625,0.07810704410076141,0.10746900737285614,-0.3360585868358612
1763697205699922700,9.433922607421875,0.12898589670658112,0.17595674097537994,-0.45187658071517944
1763697205709884000,9.4438837890625,0.14906853437423706,0.20753198862075806,-0.5431809425354004
1763697205719843800,9.45384375,0.14910125732421875,0.22456812858581543,-0.6136646270751953
1763697205729804800,9.4638046875,0.1445818692445755,0.23631639778614044,-0.6836037635803223
1763697205739765800,9.473765869140625,0.12906916439533234,0.2346331924200058,-0.7622393369674683
1763697205749725700,9.4837255859375,0.10847841203212738,0.2108975052833557,-0.8503172397613525
1763697205759686700,9.493686767578126,0.09377874433994293,0.17605070769786835,-0.9637308120727539
1763697205769647900,9.50364794921875,0.09233557432889938,0.15045320987701416,-1.0921190977096558
1763697205779607800,9.51360791015625,0.10362789779901505,0.15532201528549194,-1.2329976558685303
1763697205789569000,9.523569091796874,0.11329171061515808,0.17730426788330078,-1.3671282529830933
1763697205799529700,9.53352978515625,0.11194055527448654,0.2036828249692917,-1.4715431928634644
1763697205809491000,9.543490966796876,0.08968211710453033,0.22747337818145752,-1.5407994985580444
1763697205819451000,9.553450927734374,0.04196568951010704,0.2679092288017273,-1.54348623752594
1763697205829411800,9.563411865234375,-0.02549511007964611,0.2735165059566498,-1.4936398267745972
1763697205839372800,9.573372802734376,-0.10955101251602173,0.21780526638031006,-1.3323475122451782
1763697205849332700,9.583332763671875,-0.2666919231414795,0.13304537534713745,-0.9079753756523132
1763697205859293700,9.593293701171875,-0.4953135848045349,0.2004728764295578,-0.09353730827569962
1763697205869255000,9.6032548828125,-0.7565939426422119,0.44986218214035034,0.9188297986984253
1763697205879215600,9.613215576171875,-0.895590603351593,0.4251570999622345,1.5012173652648926
1763697205889175800,9.62317578125,-0.8345072865486145,-0.030516676604747772,1.1445202827453613
1763697205899136800,9.63313671875,-0.6636353135108948,-0.24715864658355713,0.3136099576950073
1763697205909098000,9.643097900390625,-0.3971386253833771,-0.32149842381477356,-0.4169723689556122
1763697205919058000,9.653057861328126,-0.16078023612499237,-0.43321728706359863,-0.8833479285240173
1763697205929018600,9.6630185546875,-0.13238561153411865,-0.5023228526115417,-1.0503270626068115
1763697205938979800,9.672979736328125,-0.30022430419921875,-0.49911120533943176,-0.9650348424911499
1763697205948940800,9.68294091796875,-0.561720609664917,-0.552929699420929,-0.8089301586151123
1763697205958901000,9.69290087890625,-0.7669704556465149,-0.6522061228752136,-0.7273001074790955
1763697205968861700,9.70286181640625,-0.8128585815429688,-0.5422292947769165,-0.809140682220459
1763697205978822700,9.71282275390625,-0.7892703413963318,-0.2754979133605957,-0.9950928092002869
1763697205988782800,9.722782958984375,-0.7089132070541382,-0.05418737605214119,-1.1958322525024414
1763697205998743800,9.732743896484376,-0.5156919360160828,-0.00010184524580836296,-1.4205293655395508
1763697206008705000,9.742705078125,-0.26151925325393677,-0.02267133630812168,-1.5634382963180542
1763697206018665000,9.7526650390625,-0.04587342590093613,0.03446834534406662,-1.498892068862915
1763697206028625700,9.762625732421874,0.05948362499475479,0.07390096783638,-1.2992771863937378
1763697206038587000,9.7725869140625,0.08638269454240799,0.027721833437681198,-1.1530447006225586
1763697206048547800,9.7825478515625,0.06546276062726974,-0.00888864230364561,-1.0984327793121338
1763697206058508000,9.792508056640624,-0.001870359294116497,-0.03607892990112305,-1.1273183822631836
1763697206068468700,9.80246875,-0.10128270089626312,-0.0958210825920105,-1.209470272064209
1763697206078429700,9.8124296875,-0.19791950285434723,-0.17275723814964294,-1.2888919115066528
1763697206088390000,9.822389892578125,-0.25955089926719666,-0.18878334760665894,-1.3345822095870972
1763697206098350800,9.832350830078125,-0.28519681096076965,-0.09744580835103989,-1.3540745973587036
1763697206108311800,9.842311767578124,-0.28603968024253845,0.03853839263319969,-1.362941026687622
1763697206118272800,9.852272705078125,-0.28015413880348206,0.15879812836647034,-1.380618929862976
1763697206128232700,9.862232666015625,-0.27227145433425903,0.27034783363342285,-1.409990906715393
1763697206138194000,9.87219384765625,-0.26444190740585327,0.38468778133392334,-1.4434027671813965
1763697206148154600,9.882154541015625,-0.2439936250448227,0.4538806974887848,-1.46757173538208
1763697206158114800,9.89211474609375,-0.21233902871608734,0.46640926599502563,-1.473015546798706
1763697206168075800,9.90207568359375,-0.1789616346359253,0.4623921513557434,-1.456066370010376
1763697206178037000,9.912037109375,-0.15616007149219513,0.4530572295188904,-1.4450218677520752
1763697206187997000,9.921996826171876,-0.14850908517837524,0.449541836977005,-1.4570668935775757
1763697206197957600,9.93195751953125,-0.14536117017269135,0.45359957218170166,-1.4947575330734253
1763697206207918800,9.9419189453125,-0.13998611271381378,0.48307785391807556,-1.5335198640823364
1763697206217879800,9.9518798828125,-0.13904578983783722,0.5182047486305237,-1.5735443830490112
1763697206227839700,9.96183984375,-0.15478268265724182,0.5338178277015686,-1.6109676361083984
1763697206237801000,9.971801025390626,-0.19270095229148865,0.5461384057998657,-1.6215499639511108
1763697206247761700,9.98176171875,-0.2470502257347107,0.5769903063774109,-1.611159086227417
1763697206257721900,9.991721923828125,-0.29877567291259766,0.6035226583480835,-1.6003717184066772
1763697206267682800,10.001682861328124,-0.3293634057044983,0.5808442234992981,-1.5852961540222168
1763697206277644000,10.01164404296875,-0.33752432465553284,0.4986961781978607,-1.559679627418518
1763697206287604000,10.02160400390625,-0.32933005690574646,0.3743923306465149,-1.516507625579834
1763697206297564700,10.031564697265624,-0.30970102548599243,0.25023943185806274,-1.4652224779129028
1763697206307526000,10.04152587890625,-0.2838371992111206,0.15683358907699585,-1.4111334085464478
1763697206317486800,10.05148681640625,-0.2577980160713196,0.08664007484912872,-1.3590940237045288
1763697206327446800,10.06144677734375,-0.2315152883529663,0.04635683447122574,-1.3069429397583008
1763697206337407700,10.07140771484375,-0.20978666841983795,0.044722024351358414,-1.2665733098983765
1763697206347368700,10.08136865234375,-0.19100232422351837,0.07052485644817352,-1.2399446964263916
1763697206357329000,10.091328857421875,-0.173420712351799,0.08908028900623322,-1.2048166990280151
1763697206367289900,10.101289794921875,-0.15290319919586182,0.10521877557039261,-1.1552693843841553
1763697206377250800,10.111250732421874,-0.12939533591270447,0.10923930257558823,-1.093363642692566
1763697206387210800,10.121210693359375,-0.10078924894332886,0.07542354613542557,-1.037470817565918
1763697206397171700,10.131171630859376,-0.07576461881399155,0.03117869608104229,-0.9923493266105652
1763697206407133000,10.1411328125,-0.06978821754455566,-0.0027915220707654953,-0.9485994577407837
1763697206417093600,10.15109375,-0.06818482279777527,-0.014995358884334564,-0.9012453556060791
1763697206427053800,10.1610537109375,-0.07214600592851639,-0.023057280108332634,-0.8352407813072205
1763697206437014800,10.171014892578125,-0.06614314764738083,-0.006617153063416481,-0.7514927983283997
1763697206446975700,10.180975830078125,-0.05393281951546669,0.04628147929906845,-0.6630236506462097
1763697206456935400,10.190935302734376,-0.04138582572340965,0.09916402399539948,-0.581893801689148
1763697206466896600,10.200896728515625,-0.024024680256843567,0.1061825156211853,-0.5047966241836548
1763697206476857300,10.210857421875,-0.0034150099381804466,0.12047969549894333,-0.4483668804168701
1763697206486818600,10.220818603515625,0.0011099670082330704,0.14523456990718842,-0.42169317603111267
1763697206496778500,10.230778564453125,-0.0059667727909982204,0.16264937818050385,-0.4210927188396454
1763697206506739500,10.240739501953126,-0.025928497314453125,0.15309396386146545,-0.409055233001709
1763697206516700400,10.250700439453125,-0.06254709511995316,0.13988618552684784,-0.3897940516471863
1763697206526660400,10.260660400390625,-0.10425566136837006,0.14062175154685974,-0.36872872710227966
1763697206536621600,10.27062158203125,-0.14075493812561035,0.14291812479496002,-0.35717281699180603
1763697206546582500,10.28058251953125,-0.1596204936504364,0.16281433403491974,-0.3611544966697693
1763697206556542500,10.29054248046875,-0.14520402252674103,0.1837603747844696,-0.3809073269367218
1763697206566503400,10.30050341796875,-0.11180292069911957,0.18937164545059204,-0.3982173204421997
1763697206576464400,10.31046435546875,-0.07195467501878738,0.13127127289772034,-0.4010809361934662
1763697206586425600,10.320425537109376,-0.03661639243364334,0.03250766545534134,-0.39259663224220276
1763697206596385500,10.330385498046875,0.00045174872502684593,-0.026770783588290215,-0.39399614930152893
1763697206606346500,10.340346435546875,0.02383669838309288,-0.029612910002470016,-0.408188134431839
1763697206616307500,10.350307373046874,0.037667181342840195,-0.006408580578863621,-0.4253019690513611
1763697206626267400,10.360267333984375,0.031894247978925705,0.016041867434978485,-0.432783842086792
1763697206636228600,10.370228515625,-0.005565321538597345,0.028344903141260147,-0.4264131188392639
1763697206646189600,10.380189453125,-0.056874047964811325,0.05535441264510155,-0.41506272554397583
1763697206656149500,10.3901494140625,-0.1019759550690651,0.08809859305620193,-0.4092060625553131
1763697206666110500,10.4001103515625,-0.14683318138122559,0.12371543794870377,-0.4019628167152405
1763697206676071400,10.410071533203125,-0.2016819268465042,0.15361817181110382,-0.3956861197948456
1763697206686031600,10.420031494140625,-0.25285962224006653,0.18696095049381256,-0.3853173553943634
1763697206695992600,10.42999267578125,-0.2914620339870453,0.23155607283115387,-0.38014376163482666
1763697206705953300,10.439953369140625,-0.31555670499801636,0.28300780057907104,-0.3826119601726532
1763697206715914500,10.44991455078125,-0.3341352641582489,0.32310280203819275,-0.39055585861206055
1763697206725874400,10.45987451171875,-0.3486899733543396,0.32899850606918335,-0.3973250687122345
1763697206735835600,10.469835693359375,-0.35985249280929565,0.3008115589618683,-0.40243232250213623
1763697206745796400,10.47979638671875,-0.37463223934173584,0.2618873119354248,-0.4012237787246704
1763697206755756300,10.48975634765625,-0.4017413556575775,0.2255270779132843,-0.39545169472694397
1763697206765717500,10.499717529296875,-0.42514681816101074,0.19489380717277527,-0.39287057518959045
1763697206775678500,10.509678466796874,-0.4300561845302582,0.18072406947612762,-0.4019549787044525
1763697206785638700,10.519638671875,-0.41925573348999023,0.19562365114688873,-0.4229510724544525
1763697206795599400,10.529599365234375,-0.3951525092124939,0.22156274318695068,-0.4613517224788666
1763697206805560600,10.539560546875,-0.36099159717559814,0.24973657727241516,-0.5118433833122253
1763697206815521500,10.549521484375,-0.31950315833091736,0.27996671199798584,-0.5574378371238708
1763697206825481500,10.5594814453125,-0.2730374038219452,0.3153606653213501,-0.5806981325149536
1763697206835442400,10.5694423828125,-0.2315298318862915,0.32967260479927063,-0.5707804560661316
1763697206845403400,10.5794033203125,-0.19327272474765778,0.29727232456207275,-0.5204722881317139
1763697206855363300,10.58936328125,-0.1470479816198349,0.16874615848064423,-0.43841323256492615
1763697206865324500,10.599324462890625,-0.11359627544879913,-0.045753363519907,-0.3480577766895294
1763697206875285500,10.609285400390625,-0.10545442998409271,-0.23615223169326782,-0.2606496810913086
1763697206885245400,10.619245361328124,-0.10956022143363953,-0.3077060580253601,-0.19927658140659332
1763697206895206400,10.629206298828125,-0.09436939656734467,-0.2689134478569031,-0.1698649525642395
1763697206905167600,10.639167724609376,-0.0578468032181263,-0.18901701271533966,-0.14231614768505096
1763697206915128600,10.649128662109375,-0.03730301186442375,-0.11495127528905869,-0.13138094544410706
1763697206925088500,10.659088623046875,-0.07176857441663742,-0.10598494112491608,-0.11103812605142593
1763697206935049500,10.669049560546876,-0.14224742352962494,-0.1557433307170868,-0.06870532035827637
1763697206945010400,10.679010498046875,-0.24249626696109772,-0.2384062558412552,-0.0043763997964560986
1763697206954970400,10.688970458984375,-0.3583347797393799,-0.34139296412467957,0.07894666492938995
1763697206964931600,10.698931640625,-0.44056281447410583,-0.4226694405078888,0.1906241923570633
1763697206974892300,10.708892333984375,-0.45821574330329895,-0.41494297981262207,0.30786508321762085
1763697206984852500,10.7188525390625,-0.42349186539649963,-0.3101886212825775,0.4109001159667969
1763697206994813400,10.7288134765625,-0.36367732286453247,-0.23093649744987488,0.49579089879989624
1763697207004774700,10.738774658203125,-0.2717908024787903,-0.24800549447536469,0.5765177607536316
1763697207014734600,10.748734619140626,-0.17418812215328217,-0.3027896285057068,0.669012188911438
1763697207024695300,10.7586953125,-0.10614169389009476,-0.3032154440879822,0.787900447845459
1763697207034656500,10.768656494140625,-0.06553291529417038,-0.2520362138748169,0.9218447208404541
1763697207044617500,10.778617431640624,-0.0415109358727932,-0.2260272353887558,1.0488183498382568
1763697207054577700,10.78857763671875,-0.040449801832437515,-0.25378701090812683,1.151693344116211
1763697207064538400,10.798538330078125,-0.06926307082176208,-0.27839434146881104,1.2509467601776123
1763697207074499300,10.808499267578124,-0.11179745942354202,-0.2601452171802521,1.347487211227417
1763697207084459500,10.81845947265625,-0.1303810030221939,-0.19227029383182526,1.4649869203567505
1763697207094420500,10.82842041015625,-0.1071486696600914,-0.08178836852312088,1.6136891841888428
1763697207104381400,10.83838134765625,-0.03493359312415123,0.032696135342121124,1.777754306793213
1763697207114341400,10.84834130859375,0.07846859842538834,0.15522241592407227,1.9195239543914795
1763697207124302300,10.85830224609375,0.21026258170604706,0.3145817220211029,2.031834602355957
1763697207134263600,10.868263671875,0.34363067150115967,0.5067458748817444,2.1325571537017822
1763697207144223500,10.878223388671875,0.455008327960968,0.6708317399024963,2.206240177154541
1763697207154184700,10.888184814453124,0.5457803606987,0.7543329000473022,2.2265992164611816
1763697207164145400,10.8981455078125,0.6123607158660889,0.7365392446517944,2.188951015472412
1763697207174106400,10.9081064453125,0.6518321633338928,0.63897305727005,2.090208053588867
1763697207184066600,10.918066650390625,0.6585936546325684,0.4973858594894409,1.9543596506118774
1763697207194027500,10.928027587890625,0.6299503445625305,0.3702177405357361,1.8346112966537476
1763697207203988500,10.937988525390624,0.5889648199081421,0.22007375955581665,1.7445112466812134
1763697207213948400,10.947948486328125,0.5522098541259766,0.0700686126947403,1.7066069841384888
1763697207223909400,10.957909423828125,0.5479024648666382,-0.04255886375904083,1.7099274396896362
1763697207233870600,10.96787060546875,0.5792030096054077,-0.06984565407037735,1.7270416021347046
1763697207243830500,10.97783056640625,0.6422038078308105,-0.017703890800476074,1.728369116783142
1763697207253791500,10.98779150390625,0.7427126169204712,0.009236517362296581,1.6947156190872192
1763697207263752400,10.99775244140625,0.8867731094360352,-0.02360372059047222,1.6571824550628662
1763697207273712400,11.00771240234375,1.032912254333496,-0.07604046911001205,1.6488631963729858
1763697207283673600,11.017673583984376,1.155996322631836,-0.09343224763870239,1.6830313205718994
1763697207293634300,11.02763427734375,1.2391682863235474,-0.06814895570278168,1.7448967695236206
1763697207303594500,11.037594482421875,1.2741649150848389,-0.07496584951877594,1.8253628015518188
1763697207313555500,11.047555419921874,1.240431547164917,-0.18554379045963287,1.9195964336395264
1763697207323516400,11.057516357421875,1.151735544204712,-0.3545738458633423,2.026864528656006
1763697207333477400,11.067477294921876,1.0317115783691406,-0.5447379350662231,2.1037302017211914
1763697207343437300,11.077437255859374,0.9109983444213867,-0.7467658519744873,2.147629499435425
1763697207353398500,11.0873984375,0.8241501450538635,-0.8779605627059937,2.170689105987549
1763697207363359500,11.097359375,0.7735722064971924,-0.9560777544975281,2.1927831172943115
1763697207373319400,11.1073193359375,0.7615384459495544,-1.00143301486969,2.220767021179199
1763697207383280600,11.11728076171875,0.7669880986213684,-1.029600739479065,2.2628064155578613
1763697207393241300,11.127241455078124,0.7754479050636292,-1.0269479751586914,2.2991371154785156
1763697207403201500,11.137201416015625,0.7804660797119141,-0.9952778816223145,2.303126573562622
1763697207413162500,11.14716259765625,0.7713361382484436,-0.9167265892028809,2.266951322555542
1763697207423123500,11.15712353515625,0.7383896708488464,-0.8116065263748169,2.1990184783935547
1763697207433083600,11.167083740234375,0.6781129837036133,-0.7251748442649841,2.118720531463623
1763697207443044400,11.17704443359375,0.6018906235694885,-0.688576340675354,2.0425057411193848
1763697207453005600,11.187005615234375,0.5215546488761902,-0.727601170539856,1.9729464054107666
1763697207462966800,11.196966796875,0.45312610268592834,-0.7880565524101257,1.9001507759094238
1763697207472927500,11.206927490234374,0.4031239151954651,-0.7690051794052124,1.8084750175476074
1763697207482888700,11.216888671875,0.36720478534698486,-0.6623482704162598,1.6840941905975342
1763697207492849700,11.226849609375,0.339781254529953,-0.5189417600631714,1.5300557613372803
1763697207502809600,11.2368095703125,0.3079349100589752,-0.40018102526664734,1.359429121017456
1763697207512770600,11.2467705078125,0.2718822658061981,-0.3135319650173187,1.1842550039291382
1763697207522731500,11.2567314453125,0.23643743991851807,-0.1960870772600174,1.0204336643218994
1763697207532691700,11.266691650390625,0.2127693146467209,-0.05989442765712738,0.8653026223182678
1763697207542652700,11.276652587890625,0.19973714649677277,0.005333044566214085,0.7183400392532349
1763697207552613400,11.28661328125,0.19167055189609528,-0.00046353775542229414,0.5766512751579285
1763697207562573600,11.296573486328125,0.18407629430294037,0.007835404947400093,0.43000808358192444
1763697207572534500,11.306534423828126,0.17239537835121155,0.023579223081469536,0.28972697257995605
1763697207582495700,11.316495849609375,0.1497204303741455,0.06169038638472557,0.17005649209022522
1763697207592455700,11.32645556640625,0.13157343864440918,0.07606285810470581,0.06468533724546432
1763697207602416600,11.336416748046876,0.1288125365972519,0.08541694283485413,-0.0345672182738781
1763697207612377600,11.346377685546875,0.14291422069072723,0.1128479391336441,-0.1358502209186554
1763697207622337500,11.356337646484375,0.16100268065929413,0.12873849272727966,-0.24033081531524658
1763697207632298800,11.366298828125,0.16515271365642548,0.1367143839597702,-0.33502256870269775
1763697207642259700,11.376259765625,0.1592913568019867,0.12872782349586487,-0.412748783826828
1763697207652219600,11.3862197265625,0.16050373017787933,0.11720188707113266,-0.4821561574935913
1763697207662180600,11.3961806640625,0.17376095056533813,0.17213784158229828,-0.5598025321960449
1763697207672141600,11.4061416015625,0.1941470503807068,0.2304648458957672,-0.6333654522895813
1763697207682102800,11.416102783203126,0.19307006895542145,0.21294525265693665,-0.6999873518943787
1763697207692062700,11.426062744140625,0.1748536378145218,0.1710701882839203,-0.7806174755096436
1763697207702023400,11.4360234375,0.17019018530845642,0.1596662551164627,-0.8957842588424683
1763697207711984600,11.445984619140624,0.17735205590724945,0.1693345606327057,-1.0365267992019653
1763697207721944600,11.455944580078125,0.17573924362659454,0.17267176508903503,-1.1898877620697021
1763697207731905800,11.46590576171875,0.15737810730934143,0.16496706008911133,-1.3326671123504639
1763697207741866500,11.475866455078124,0.12682287395000458,0.2112693190574646,-1.3695363998413086
1763697207751826400,11.485826416015625,0.11576396226882935,0.31711992621421814,-1.204193353652954
1763697207761787600,11.49578759765625,0.11603347212076187,0.3783673048019409,-0.7794042229652405
1763697207771748600,11.50574853515625,0.055003199726343155,0.3630993664264679,-0.13662584125995636
1763697207781708800,11.515708740234375,-0.04688428342342377,0.2936262786388397,0.43459266424179077
1763697207791669500,11.52566943359375,-0.14335648715496063,-0.05357616767287254,0.7046631574630737
1763697207801630500,11.53563037109375,-0.2238454669713974,-0.2627357542514801,0.6403715014457703
1763697207811590700,11.545590576171875,-0.3650577664375305,-0.30504006147384644,0.4716087877750397
1763697207821551600,11.555551513671874,-0.4654770493507385,-0.3022397458553314,0.342879056930542
1763697207831512600,11.5655126953125,-0.5471770763397217,-0.16447512805461884,0.18758989870548248
1763697207841472500,11.575472412109375,-0.6237887740135193,0.05153759568929672,-0.020355574786663055
1763697207851433500,11.58543359375,-0.7123767137527466,0.1911386400461197,-0.22863207757472992
1763697207861394700,11.595394775390625,-0.8552864789962769,0.17143391072750092,-0.38048872351646423
1763697207871355600,11.605355712890624,-1.0417531728744507,0.07999420911073685,-0.39970988035202026
1763697207881315600,11.615315673828125,-1.2061152458190918,0.13580448925495148,-0.27188214659690857
1763697207891276500,11.625276611328125,-1.2473682165145874,0.39585405588150024,-0.15245720744132996
1763697207901237500,11.635237548828124,-1.1365522146224976,0.6578356027603149,-0.16627582907676697
1763697207911197700,11.64519775390625,-0.9398736953735352,0.6089221239089966,-0.37038934230804443
1763697207921158700,11.65515869140625,-0.7206465601921082,0.23015107214450836,-0.7016777396202087
1763697207931119600,11.66511962890625,-0.5465511679649353,-0.2904048562049866,-0.9247381687164307
1763697207941079600,11.67507958984375,-0.489043653011322,-0.5401132106781006,-0.87494295835495
1763697207951040500,11.68504052734375,-0.4754693806171417,-0.46532976627349854,-0.7268574833869934
1763697207961001700,11.695001708984375,-0.4024212658405304,-0.29921215772628784,-0.7295845746994019
1763697207970961700,11.704961669921875,-0.2843286097049713,-0.15183623135089874,-0.9002832770347595
1763697207980922600,11.714922607421874,-0.1690528839826584,-0.07897347211837769,-1.1035019159317017
1763697207990883600,11.724883544921875,-0.08425933122634888,-0.03856243938207626,-1.2149869203567505
1763697208000843500,11.734843505859375,-0.0393453873693943,-0.00818455871194601,-1.2033302783966064
1763697208010804700,11.7448046875,-0.03396059200167656,0.002548983320593834,-1.200905680656433
1763697208020765400,11.754765380859375,-0.03831645846366882,0.01690102368593216,-1.2978863716125488
1763697208030725600,11.7647255859375,-0.0521659217774868,0.04086823761463165,-1.4013289213180542
1763697208040686600,11.7746865234375,-0.08167587965726852,0.10316463559865952,-1.4329826831817627
1763697208050647600,11.7846474609375,-0.12150251865386963,0.16523194313049316,-1.4202485084533691
1763697208060607700,11.794607666015626,-0.1608073115348816,0.1750052124261856,-1.4227864742279053
1763697208070568400,11.804568359375,-0.185134157538414,0.14415432512760162,-1.4178329706192017
1763697208080529700,11.81452978515625,-0.18872569501399994,0.10748525708913803,-1.3803108930587769
1763697208090489600,11.824489501953124,-0.17214977741241455,0.09523967653512955,-1.311239242553711
1763697208100450600,11.834450439453125,-0.1409684270620346,0.0866488516330719,-1.2535775899887085
1763697208110411500,11.84441162109375,-0.09701009094715118,0.08644631505012512,-1.2320767641067505
1763697208120372500,11.85437255859375,-0.045027051120996475,0.1205720603466034,-1.235180139541626
1763697208130332700,11.864332763671875,0.0006287358701229095,0.15962769091129303,-1.273414969444275
1763697208140293600,11.874293701171876,0.02926917001605034,0.18658126890659332,-1.3340331315994263
1763697208150254600,11.884254638671875,0.020643608644604683,0.21165408194065094,-1.3822228908538818
1763697208160214800,11.89421484375,-0.009248776361346245,0.23237639665603638,-1.4092185497283936
1763697208170175500,11.904175537109374,-0.04328397661447525,0.2942866384983063,-1.41749107837677
1763697208180136700,11.91413671875,-0.07387704402208328,0.37348291277885437,-1.4306697845458984
1763697208190096600,11.9240966796875,-0.1001381054520607,0.41060081124305725,-1.448490858078003
1763697208200057600,11.9340576171875,-0.1169905886054039,0.46697938442230225,-1.4476006031036377
1763697208210018600,11.9440185546875,-0.13488052785396576,0.5439462065696716,-1.4429630041122437
1763697208219978500,11.953978515625,-0.1648581326007843,0.6200465559959412,-1.4375159740447998
1763697208229939700,11.963939697265625,-0.20501889288425446,0.6947889924049377,-1.4346753358840942
1763697208239900700,11.973900634765625,-0.23975211381912231,0.7746124267578125,-1.4425079822540283
1763697208249860600,11.983860595703124,-0.2517983615398407,0.8364468812942505,-1.474151372909546
1763697208259821600,11.993821533203125,-0.2444150149822235,0.8692471981048584,-1.5226699113845825
1763697208269782500,12.003782470703126,-0.2315840870141983,0.8499065637588501,-1.5462955236434937
1763697208279742700,12.01374267578125,-0.21361947059631348,0.7701696753501892,-1.5247212648391724
1763697208289703700,12.02370361328125,-0.19618238508701324,0.6582078337669373,-1.469455599784851
1763697208299664400,12.033664306640626,-0.18209825456142426,0.5383219122886658,-1.4047412872314453
1763697208309624600,12.04362451171875,-0.17877019941806793,0.4275757372379303,-1.3577715158462524
1763697208319585500,12.05358544921875,-0.18398787081241608,0.36110857129096985,-1.3130896091461182
1763697208329546800,12.063546630859374,-0.19175949692726135,0.3188902735710144,-1.2681936025619507
1763697208339506700,12.073506591796875,-0.203779935836792,0.26953044533729553,-1.2309192419052124
1763697208349467400,12.08346728515625,-0.21687261760234833,0.21343150734901428,-1.1935638189315796
1763697208359428600,12.0934287109375,-0.21981407701969147,0.15359506011009216,-1.1533820629119873
1763697208369389600,12.1033896484375,-0.21058478951454163,0.10004178434610367,-1.1060627698898315
1763697208379349800,12.113349853515626,-0.19804368913173676,0.04935436695814133,-1.0510735511779785
1763697208389310700,12.123310791015625,-0.18427503108978271,0.010691347531974316,-1.0091813802719116
1763697208399271400,12.133271484375,-0.17501336336135864,-0.028050454333424568,-0.9761565923690796
1763697208409231600,12.143231689453126,-0.17324262857437134,-0.027782965451478958,-0.9341365098953247
1763697208419192600,12.153192626953125,-0.17571483552455902,0.008617119863629341,-0.8962024450302124
1763697208429153800,12.16315380859375,-0.17809149622917175,0.04502761363983154,-0.8659528493881226
1763697208439113700,12.17311376953125,-0.17588959634304047,0.07576581835746765,-0.8248874545097351
1763697208449074400,12.183074462890625,-0.16547244787216187,0.1046019196510315,-0.7840005159378052
1763697208459035600,12.19303564453125,-0.150518536567688,0.12793120741844177,-0.7412453293800354
1763697208468995300,12.202995361328124,-0.1362246870994568,0.13544803857803345,-0.6977985501289368
1763697208478956300,12.212956298828125,-0.11422617733478546,0.16024978458881378,-0.6441022753715515
1763697208488917200,12.222917236328126,-0.08665859699249268,0.17598076164722443,-0.5734099745750427
1763697208498877200,12.232877197265625,-0.06210877746343613,0.17619140446186066,-0.4994768798351288
1763697208508838400,12.24283837890625,-0.05066559091210365,0.1394122689962387,-0.45651882886886597
1763697208518799400,12.25279931640625,-0.05009620636701584,0.12258853763341904,-0.44570931792259216
1763697208528759300,12.26275927734375,-0.05486016720533371,0.15209326148033142,-0.4578917324542999
1763697208538720300,12.27272021484375,-0.06423661857843399,0.2021380513906479,-0.4570499062538147
1763697208548681200,12.28268115234375,-0.06889645755290985,0.23259788751602173,-0.42857420444488525
1763697208558641200,12.29264111328125,-0.07882951200008392,0.23483175039291382,-0.39122283458709717
1763697208568602400,12.302602294921876,-0.08698485046625137,0.21559758484363556,-0.37447187304496765
1763697208578563300,12.312563232421875,-0.08987118303775787,0.2042466551065445,-0.39373478293418884
1763697208588523300,12.322523193359375,-0.08581167459487915,0.1770545244216919,-0.4291326403617859
1763697208598484200,12.332484130859376,-0.0778307095170021,0.11741676926612854,-0.4376435875892639
