time,seconds_elapsed,z,y,x
1763697196310634500,0.044634521484375,-0.00021252025908324867,0.12019405514001846,0.015973374247550964
1763697196320595500,0.054595458984375,0.0026200178544968367,0.15112853050231934,0.045757368206977844
1763697196330556700,0.064556640625,0.014198110438883305,0.14408154785633087,0.06071607768535614
1763697196340517600,0.074517578125,0.0250393059104681,0.11835700273513794,0.07043874263763428
1763697196350478600,0.084478515625,0.033601369708776474,0.07947591692209244,0.07310324162244797
1763697196360439600,0.094439453125,0.039092808961868286,0.03081543743610382,0.07554322481155396
1763697196370400800,0.10440087890625,0.0402962900698185,-0.005780124571174383,0.07288725674152374
1763697196380361500,0.114361572265625,0.03548448905348778,-0.023440876975655556,0.06204046681523323
1763697196390321400,0.1243212890625,0.024810275062918663,-0.0335177481174469,0.049490321427583694
1763697196400282600,0.13428271484375,0.009677927009761333,-0.02425607107579708,0.02665451355278492
1763697196410243600,0.14424365234375,-0.012310462072491646,0.006946589332073927,0.00010652644414221868
1763697196420204500,0.15420458984375,-0.03159121423959732,0.02966255508363247,-0.024472586810588837
1763697196430165500,0.16416552734375,-0.046850331127643585,0.03496251255273819,-0.04068750888109207
1763697196440126700,0.174126708984375,-0.05271487683057785,0.022182533517479897,-0.048594966530799866
1763697196450087400,0.18408740234375,-0.054656319320201874,-0.000966993800830096,-0.03670661523938179
1763697196460049400,0.19404931640625,-0.055032357573509216,-0.022249113768339157,-0.017488179728388786
1763697196470010600,0.2040107421875,-0.05588936433196068,-0.03485332056879997,0.00652714166790247
1763697196479970600,0.213970458984375,-0.05516311898827553,-0.03087003156542778,0.024642229080200195
1763697196489931500,0.223931640625,-0.04773290082812309,-0.0062096924521028996,0.03346448391675949
1763697196499892500,0.233892578125,-0.03351907804608345,0.0352003313601017,0.033905770629644394
1763697196509853400,0.243853515625,-0.018617626279592514,0.05987851321697235,0.03033606708049774
1763697196519814400,0.253814453125,-0.009893910028040409,0.062752865254879,0.028304075822234154
1763697196529775400,0.263775390625,-0.010794591158628464,0.0490996353328228,0.02954697236418724
1763697196539736600,0.273736572265625,-0.02635650523006916,0.03984009101986885,0.029042836278676987
1763697196549697300,0.283697265625,-0.04674273729324341,0.03987417742609978,0.026166623458266258
1763697196559657500,0.293657470703125,-0.06172142177820206,0.027717914432287216,0.021384917199611664
1763697196569618400,0.303618408203125,-0.06993700563907623,0.020850153639912605,0.013941648416221142
1763697196579579600,0.31357958984375,-0.07836484909057617,0.008013717830181122,0.008894691243767738
1763697196589540600,0.32354052734375,-0.08560810983181,0.006253368686884642,0.013716344721615314
1763697196599501300,0.333501220703125,-0.09749406576156616,0.008755940943956375,0.03447648510336876
1763697196609462500,0.343462646484375,-0.1162821352481842,0.028965339064598083,0.0701814815402031
1763697196619423500,0.353423583984375,-0.13799621164798737,0.06467113643884659,0.11846379935741425
1763697196629384400,0.363384521484375,-0.16077370941638947,0.1058254987001419,0.18109868466854095
1763697196639345400,0.373345458984375,-0.17594146728515625,0.1506081521511078,0.2437783032655716
1763697196649305600,0.3833056640625,-0.18676935136318207,0.18755871057510376,0.3053814768791199
1763697196659266600,0.3932666015625,-0.20149849355220795,0.2008819729089737,0.3589507043361664
1763697196669227300,0.403227294921875,-0.22395293414592743,0.21551364660263062,0.39559075236320496
1763697196679188500,0.4131884765625,-0.2664774954319,0.23253470659255981,0.42556649446487427
1763697196689149400,0.4231494140625,-0.337387353181839,0.20548391342163086,0.4737028479576111
1763697196699110400,0.4331103515625,-0.43595120310783386,0.1648201048374176,0.5482609868049622
1763697196709071400,0.4430712890625,-0.5529633164405823,0.07161692529916763,0.6362177133560181
1763697196719032600,0.453032470703125,-0.6605390310287476,0.012738431803882122,0.7174270749092102
1763697196728992500,0.462992431640625,-0.5929427146911621,-0.08256731182336807,0.7809874415397644
1763697196738953500,0.472953369140625,-0.5902944207191467,-0.2608073651790619,0.859545886516571
1763697196748914400,0.48291455078125,-0.7263044714927673,-0.18830226361751556,0.8310343623161316
1763697196758875400,0.49287548828125,-0.8519337773323059,-0.01372300274670124,0.7009543776512146
1763697196768836600,0.502836669921875,-0.922908365726471,-0.09508416801691055,0.6013806462287903
1763697196778797300,0.51279736328125,-0.9727464914321899,-0.27765318751335144,0.5638066530227661
1763697196788758500,0.522758544921875,-0.6510307788848877,-0.5163067579269409,0.6222667694091797
1763697196798719500,0.532719482421875,-0.259231835603714,-0.8718683123588562,0.6618879437446594
1763697196808679700,0.5426796875,0.10955125838518143,-0.8277671933174133,0.631205677986145
1763697196818640400,0.552640380859375,0.46138012409210205,-0.7195914387702942,0.5897407531738281
1763697196828601300,0.562601318359375,0.7239204049110413,-0.7479554414749146,0.5629291534423828
1763697196838562600,0.5725625,0.8622007966041565,-0.8253383636474609,0.4894775450229645
1763697196848523300,0.582523193359375,0.8689159750938416,-0.8276995420455933,0.33278247714042664
1763697196858484500,0.592484375,0.772359311580658,-0.66617351770401,0.08058459311723709
1763697196868445400,0.602445556640625,0.7296741604804993,-0.06400375068187714,-0.178893581032753
1763697196878406400,0.612406494140625,0.822258710861206,0.7132198214530945,-0.42659100890159607
1763697196888366300,0.622366455078125,0.9562852382659912,1.3893163204193115,-0.4040990173816681
1763697196898327600,0.63232763671875,0.9594051241874695,1.9383597373962402,-0.31171342730522156
1763697196908288500,0.64228857421875,0.8094496726989746,1.4754785299301147,-0.4826843738555908
1763697196918249500,0.65224951171875,0.7638457417488098,-0.19577935338020325,0.19236572086811066
1763697196928210400,0.66221044921875,0.6221154928207397,-0.6326094269752502,-0.001936384360305965
1763697196938171400,0.67217138671875,0.26951003074645996,-0.8098968267440796,-0.20008063316345215
1763697196948132600,0.682132568359375,-0.0658692941069603,-1.2064180374145508,-0.3571442663669586
1763697196958093300,0.69209326171875,-0.2218053638935089,-1.5117870569229126,-0.43632805347442627
1763697196968053500,0.702053466796875,-0.28515130281448364,-1.6392505168914795,-0.43653765320777893
1763697196978014500,0.712014404296875,-0.3585203289985657,-1.5712229013442993,-0.4098394513130188
1763697196987975400,0.721975341796875,-0.4537275433540344,-1.6679599285125732,-0.33797964453697205
1763697196997936400,0.731936279296875,-0.5909456014633179,-1.8958382606506348,-0.28043726086616516
1763697197007897300,0.7418974609375,-0.8352392315864563,-1.4039775133132935,-0.4466877579689026
1763697197017858600,0.751858642578125,-0.9746344089508057,-1.6137683391571045,-0.44679081439971924
1763697197027819500,0.761819580078125,-1.0247327089309692,-1.6450036764144897,-0.4441865086555481
1763697197037780500,0.771780517578125,-1.024670958518982,-1.770728588104248,-0.3995242416858673
1763697197047740400,0.781740478515625,-1.0208450555801392,-1.6375668048858643,-0.4086729884147644
1763697197057701600,0.79170166015625,-1.0268683433532715,-1.4150426387786865,-0.4405028223991394
1763697197067662600,0.80166259765625,-1.0613205432891846,-1.0520501136779785,-0.48399943113327026
1763697197077623300,0.811623291015625,-1.0944995880126953,-0.6590055823326111,-0.4630374312400818
1763697197087584500,0.82158447265625,-1.0735316276550293,-0.36333826184272766,-0.3547234535217285
1763697197097545500,0.83154541015625,-0.88750159740448,-0.3436471223831177,-0.28430816531181335
1763697197107506400,0.84150634765625,-0.5545707941055298,-0.12890897691249847,-0.28014084696769714
1763697197117466400,0.85146630859375,-0.25738653540611267,0.20013868808746338,-0.33244505524635315
1763697197127427600,0.861427490234375,-0.09081485867500305,0.5517904758453369,-0.43876272439956665
1763697197137388500,0.871388427734375,0.012084359303116798,0.7941298484802246,-0.6066113710403442
1763697197147349500,0.881349609375,0.1627441793680191,0.8055798411369324,-0.7598099708557129
1763697197157310500,0.891310546875,0.3539029359817505,0.7143697738647461,-0.8376759886741638
1763697197167271400,0.901271484375,0.5365585088729858,0.6293667554855347,-0.8339454531669617
1763697197177232400,0.911232421875,0.6569983959197998,0.4586397409439087,-0.7928299903869629
1763697197187193300,0.921193359375,0.7221169471740723,0.31806451082229614,-0.7519456744194031
1763697197197153500,0.931153564453125,0.7359192967414856,0.09152884781360626,-0.6916503310203552
1763697197207114500,0.941114501953125,0.6740120053291321,-0.27162113785743713,-0.6569640040397644
1763697197217075700,0.95107568359375,0.6247861385345459,-0.5266648530960083,-0.6722127199172974
1763697197227036400,0.961036376953125,0.5225590467453003,-0.62044757604599,-0.7199757695198059
1763697197236997400,0.970997314453125,0.4415355920791626,-0.7650569081306458,-0.7766555547714233
1763697197246958600,0.98095849609375,0.4085366427898407,-1.0990746021270752,-0.8871681690216064
1763697197256919300,0.990919189453125,0.36668160557746887,-1.3589959144592285,-0.8788154721260071
1763697197266879500,1.00087939453125,0.30865079164505005,-1.4291603565216064,-0.8710083961486816
1763697197276840400,1.01084033203125,0.2084919512271881,-0.8614771962165833,-1.1252130270004272
1763697197286801700,1.0208017578125,0.09437283873558044,0.5355172157287598,-1.592971920967102
1763697197296762400,1.030762451171875,0.11574790626764297,1.6604809761047363,-1.917930006980896
1763697197306723600,1.0407236328125,0.17663335800170898,1.6427050828933716,-1.835746169090271
1763697197316684500,1.0506845703125,0.1759697049856186,2.0271894931793213,-1.55793035030365
1763697197326645200,1.060645263671875,0.1454639881849289,2.163886308670044,-1.1921839714050293
1763697197336606500,1.0706064453125,0.1333993375301361,2.397027015686035,-0.9456035494804382
1763697197346566400,1.08056640625,0.21163395047187805,3.172858238220215,-0.46230557560920715
1763697197356527600,1.090527587890625,0.33269086480140686,4.103579521179199,0.2699334919452667
1763697197366488600,1.100488525390625,0.3211039900779724,4.378202438354492,0.835785984992981
1763697197376449500,1.110449462890625,0.1768037974834442,4.415713787078857,1.178227424621582
1763697197386410500,1.120410400390625,0.020540695637464523,4.798020362854004,1.4052715301513672
1763697197396371500,1.130371337890625,-0.09816119074821472,5.455810546875,1.562116026878357
1763697197406332400,1.14033251953125,-0.18221907317638397,5.754774570465088,1.7408857345581055
1763697197416292400,1.150292236328125,-0.21485690772533417,5.504123210906982,1.910232663154602
1763697197426253600,1.160253662109375,-0.26675179600715637,5.219699859619141,2.008327007293701
1763697197436214500,1.170214599609375,-0.31902405619621277,4.797877788543701,2.0422942638397217
1763697197446175500,1.180175537109375,-0.37393710017204285,3.6973941326141357,1.8950401544570923
1763697197456136200,1.19013623046875,-0.5339835286140442,2.6277689933776855,1.3958410024642944
1763697197466097400,1.200097412109375,-0.6837149262428284,2.2816765308380127,0.7441734671592712
1763697197476058400,1.210058349609375,-0.7938366532325745,2.1576852798461914,0.09542319178581238
1763697197486018300,1.220018310546875,-0.8395109176635742,1.9300897121429443,-0.38594290614128113
1763697197495979300,1.229979248046875,-0.844681441783905,1.7877709865570068,-0.6642317771911621
1763697197505940200,1.239940185546875,-0.7161937952041626,1.816603660583496,-0.740827202796936
1763697197515901400,1.2499013671875,-0.5763208270072937,1.8893543481826782,-0.6776735782623291
1763697197525862100,1.259862060546875,-0.5666083097457886,2.428872585296631,-0.5697593688964844
1763697197535823400,1.2698232421875,-0.45376402139663696,3.096674680709839,-0.4237816333770752
1763697197545784300,1.279784423828125,-0.285345196723938,4.18308687210083,-0.35483691096305847
1763697197555744500,1.28974462890625,-0.10802900046110153,5.30093240737915,-0.3413506746292114
1763697197565705200,1.299705322265625,-0.006464024540036917,5.816585063934326,-0.16833974421024323
1763697197575666400,1.30966650390625,-0.023981498554348946,5.087181091308594,0.15018737316131592
1763697197585627400,1.31962744140625,-0.32379138469696045,3.417179822921753,0.2548956871032715
1763697197595588000,1.329588134765625,-0.4636821746826172,2.334406852722168,0.08068419247865677
1763697197605549300,1.33954931640625,-0.43932756781578064,1.9989594221115112,-0.05434552952647209
1763697197615510300,1.34951025390625,-0.39259281754493713,1.7723366022109985,-0.12465271353721619
1763697197625470500,1.359470458984375,-0.3849881589412689,1.6220046281814575,-0.10740954428911209
1763697197635431200,1.36943115234375,-0.4231613874435425,1.560112476348877,-0.05324005335569382
1763697197645392400,1.379392333984375,-0.49176520109176636,1.2162110805511475,-0.08329515904188156
1763697197655353300,1.389353271484375,-0.6704012751579285,0.7930417060852051,-0.21012873947620392
1763697197665314300,1.399314208984375,-0.9984915256500244,0.5608769059181213,-0.35160863399505615
1763697197675275300,1.409275146484375,-1.368375301361084,0.6133188009262085,-0.47873276472091675
1763697197685236200,1.419236328125,-1.6101064682006836,0.7758445739746094,-0.548575222492218
1763697197695196400,1.429196533203125,-1.6725565195083618,0.9734082818031311,-0.5248650908470154
1763697197705157400,1.439157470703125,-1.5247550010681152,1.0131770372390747,-0.3791683614253998
1763697197715118300,1.449118408203125,-1.245403528213501,0.7960712909698486,-0.08180777728557587
1763697197725079300,1.459079345703125,-0.929703950881958,0.4946720600128174,0.2775256037712097
1763697197735040500,1.46904052734375,-0.6284892559051514,0.11005193740129471,0.5685462951660156
1763697197745001200,1.479001220703125,-0.2914278507232666,-0.017427725717425346,0.7668386101722717
1763697197754962200,1.488962158203125,-0.02046372927725315,0.20093096792697906,0.863128662109375
1763697197764922400,1.49892236328125,-0.08016887307167053,0.5530786514282227,0.8204746246337891
1763697197774883300,1.50888330078125,-0.0579511821269989,0.9128466844558716,0.712056040763855
1763697197784844300,1.51884423828125,-0.17235073447227478,1.105902075767517,0.5679188370704651
1763697197794805200,1.52880517578125,-0.2702946066856384,1.1889171600341797,0.41834744811058044
1763697197804766500,1.538766357421875,-0.3083711564540863,1.0606545209884644,0.23586046695709229
1763697197814727400,1.5487275390625,-0.4053323268890381,0.788643479347229,0.10730835050344467
1763697197824687400,1.558687255859375,-0.41840311884880066,0.5356101393699646,0.041363686323165894
1763697197834648300,1.5686484375,-0.252025306224823,0.3487904667854309,-0.06421227753162384
1763697197844609300,1.578609375,-0.10730115324258804,0.19014251232147217,-0.26231417059898376
1763697197854570500,1.588570556640625,0.01028592698276043,0.159483402967453,-0.5578062534332275
1763697197864531200,1.59853125,0.007256315089762211,0.23310887813568115,-0.8799001574516296
1763697197874492400,1.608492431640625,-0.11260297894477844,0.4883646070957184,-1.0982242822647095
1763697197884453400,1.618453369140625,-0.3177124559879303,0.790142834186554,-1.1507247686386108
1763697197894413300,1.628413330078125,-0.5854781270027161,1.0584797859191895,-1.0526947975158691
1763697197904374300,1.638374267578125,-0.8560819029808044,1.2789522409439087,-0.9196984171867371
1763697197914335200,1.648335205078125,-1.0876853466033936,1.3381189107894897,-0.8640522360801697
1763697197924296400,1.65829638671875,-1.2574535608291626,1.3524993658065796,-0.9052614569664001
1763697197934257200,1.668257080078125,-1.3342947959899902,1.3610939979553223,-1.0329715013504028
1763697197944218400,1.67821826171875,-1.3085050582885742,1.2966827154159546,-1.1782211065292358
1763697197954179300,1.688179443359375,-1.2110538482666016,1.1694166660308838,-1.261530876159668
1763697197964139300,1.69813916015625,-1.0204631090164185,0.9777385592460632,-1.2284547090530396
1763697197974100200,1.708100341796875,-0.8125781416893005,0.6868678331375122,-1.0882371664047241
1763697197984061200,1.718061279296875,-0.5828615427017212,0.355167418718338,-0.9224047660827637
1763697197994022400,1.7280224609375,-0.35438576340675354,0.0357619933784008,-0.750758171081543
1763697198003983400,1.7379833984375,-0.17341892421245575,-0.20824187994003296,-0.5898553133010864
1763697198013944300,1.7479443359375,-0.1041884571313858,-0.6126535534858704,-0.45619896054267883
1763697198023904300,1.757904296875,-0.18630249798297882,-0.9390130043029785,-0.3538014888763428
1763697198033865200,1.767865234375,-0.35959333181381226,-1.1054350137710571,-0.3235330581665039
1763697198043826400,1.777826416015625,-0.55381178855896,-1.180016279220581,-0.36343520879745483
1763697198053787100,1.787787109375,-0.6987058520317078,-1.0984612703323364,-0.4629817605018616
1763697198063748400,1.797748291015625,-0.7610515356063843,-1.0784963369369507,-0.6225559711456299
1763697198073709300,1.807709228515625,-0.879566490650177,-1.0425015687942505,-0.7656721472740173
1763697198083669500,1.81766943359375,-0.9453793168067932,-0.8498144149780273,-0.8051518797874451
1763697198093630200,1.827630126953125,-0.9844564199447632,-0.7744746804237366,-0.7794001698493958
1763697198103591200,1.837591064453125,-1.0345542430877686,-0.6935771703720093,-0.7201887965202332
1763697198113552400,1.847552490234375,-1.1091176271438599,-0.5155707001686096,-0.6172757148742676
1763697198123513300,1.857513427734375,-1.157976508140564,-0.45719364285469055,-0.5127434730529785
1763697198133474300,1.867474365234375,-1.1215282678604126,-0.47481366991996765,-0.46989932656288147
1763697198143435300,1.877435302734375,-1.0651490688323975,-0.38888436555862427,-0.4717462360858917
1763697198153395500,1.8873955078125,-1.0205326080322266,-0.2693755328655243,-0.5339536666870117
1763697198163356400,1.8973564453125,-1.002781629562378,0.0002820287481881678,-0.6343827843666077
1763697198173317000,1.907317138671875,-0.9781854748725891,0.23380663990974426,-0.7646068334579468
1763697198183278300,1.9172783203125,-0.9168139696121216,0.3900436460971832,-0.9133793115615845
1763697198193239300,1.9272392578125,-0.8313475251197815,0.46639248728752136,-1.0349392890930176
1763697198203200300,1.9372001953125,-0.7290858626365662,0.4994915723800659,-1.1053154468536377
1763697198213160200,1.94716015625,-0.6076483726501465,0.5553886294364929,-1.1156584024429321
1763697198223121400,1.957121337890625,-0.482521116733551,0.6235522627830505,-1.0907585620880127
1763697198233082400,1.967082275390625,-0.3695000112056732,0.6550894379615784,-1.0687899589538574
1763697198243043300,1.977043212890625,-0.2880946397781372,0.6562303304672241,-1.0649850368499756
1763697198253004300,1.98700439453125,-0.23642824590206146,0.6462911367416382,-1.0834662914276123
1763697198262965200,1.99696533203125,-0.2039901465177536,0.6725725531578064,-1.1281116008758545
1763697198272926200,2.00692626953125,-0.17483891546726227,0.724393904209137,-1.1798069477081299
1763697198282886100,2.01688623046875,-0.14187271893024445,0.7812113761901855,-1.223496913909912
1763697198292847400,2.026847412109375,-0.10192263871431351,0.8181456923484802,-1.2510089874267578
1763697198302808300,2.036808349609375,-0.07239190489053726,0.8714677691459656,-1.2683759927749634
1763697198312769500,2.04676953125,-0.09368015080690384,1.0122592449188232,-1.2624675035476685
1763697198322730200,2.056730224609375,-0.1622759848833084,1.0616800785064697,-1.219011902809143
1763697198332691200,2.066691162109375,-0.19937223196029663,0.9543583989143372,-1.1557695865631104
1763697198342651400,2.0766513671875,-0.18027682602405548,0.8232187628746033,-1.0853971242904663
1763697198352612400,2.0866123046875,-0.16824333369731903,0.7357608079910278,-0.9600239992141724
1763697198362573300,2.0965732421875,-0.1368902027606964,0.7621048092842102,-0.7622214555740356
1763697198372534300,2.1065341796875,-0.020956946536898613,0.8519920706748962,-0.5209745168685913
1763697198382495500,2.11649560546875,0.1771651953458786,0.9303169846534729,-0.274102121591568
1763697198392456200,2.126456298828125,0.40586867928504944,0.8714861869812012,-0.05167810618877411
1763697198402416000,2.136416015625,0.5586459636688232,0.6907238364219666,0.13201795518398285
1763697198412377300,2.14637744140625,0.6236696839332581,0.5374608039855957,0.2549433410167694
1763697198422338300,2.15633837890625,0.6149044632911682,0.43416449427604675,0.3118857145309448
1763697198432299300,2.16629931640625,0.5441557168960571,0.3814387023448944,0.3247826099395752
1763697198442260200,2.17626025390625,0.4447058141231537,0.37965571880340576,0.3189406991004944
1763697198452221400,2.186221435546875,0.33172228932380676,0.43570032715797424,0.30243444442749023
1763697198462181000,2.19618115234375,0.20639978349208832,0.5336742997169495,0.2931210994720459
1763697198472142000,2.20614208984375,0.10367526113986969,0.62216717004776,0.2796257734298706
1763697198482103000,2.21610302734375,0.04261084273457527,0.6821937561035156,0.2411889135837555
1763697198492064000,2.22606396484375,0.009186840616166592,0.6737741827964783,0.16055984795093536
1763697198502025200,2.236025146484375,0.007266967557370663,0.6065139174461365,0.04146834835410118
1763697198511986000,2.24598583984375,0.004923386033624411,0.5182405114173889,-0.10842075198888779
1763697198521945900,2.25594580078125,-0.028209533542394638,0.4059501588344574,-0.2572467029094696
1763697198531907000,2.265906982421875,-0.07926473021507263,0.3628072142601013,-0.3729701042175293
1763697198541868000,2.275867919921875,-0.09554756432771683,0.31967785954475403,-0.4333053529262543
1763697198551829000,2.2858291015625,-0.056408945471048355,0.19877594709396362,-0.4572189450263977
1763697198561790000,2.2957900390625,0.019829630851745605,-0.006607302464544773,-0.4629572629928589
1763697198571751200,2.305751220703125,0.08127488195896149,-0.31452491879463196,-0.4868745803833008
1763697198581711000,2.315711181640625,0.14336355030536652,-0.6714769005775452,-0.5149062275886536
1763697198591672000,2.325672119140625,0.2010473608970642,-0.9663801789283752,-0.5180268883705139
1763697198601633000,2.335633056640625,0.23386043310165405,-1.1060811281204224,-0.4925931990146637
1763697198611594000,2.345593994140625,0.21983835101127625,-1.0409718751907349,-0.450360506772995
1763697198621555200,2.35555517578125,0.17163540422916412,-0.8331731557846069,-0.4132496416568756
1763697198631516000,2.365515869140625,0.08439557254314423,-0.558581531047821,-0.38916081190109253
1763697198641476000,2.37547607421875,-0.026975957676768303,-0.2696503698825836,-0.3981071710586548
1763697198651437000,2.38543701171875,-0.11030679941177368,-0.0009006810723803937,-0.4670894145965576
1763697198661398300,2.395398193359375,-0.13650724291801453,0.12918248772621155,-0.5791043639183044
1763697198671359000,2.40535888671875,-0.10267844051122665,0.13842925429344177,-0.7027719616889954
1763697198681320000,2.41531982421875,-0.008668056689202785,0.08508666604757309,-0.814713180065155
1763697198691281200,2.42528125,0.14761368930339813,0.0144082335755229,-0.9206030964851379
1763697198701241000,2.435240966796875,0.3422689139842987,-0.07926659286022186,-1.0283373594284058
1763697198711202000,2.4452021484375,0.5406590104103088,-0.2185312807559967,-1.160670518875122
1763697198721163000,2.4551630859375,0.7437723875045776,-0.41258010268211365,-1.3122198581695557
1763697198731124200,2.465124267578125,0.9500488638877869,-0.6165550947189331,-1.4773321151733398
1763697198741085000,2.4750849609375,1.1533915996551514,-0.8128300309181213,-1.6375948190689087
1763697198751046000,2.4850458984375,1.3282065391540527,-0.9918479919433594,-1.7819730043411255
1763697198761006000,2.495006103515625,1.4672837257385254,-1.0834977626800537,-1.9054735898971558
1763697198770967000,2.504967041015625,1.5776488780975342,-1.0887905359268188,-2.0095345973968506
1763697198780928300,2.51492822265625,1.6585040092468262,-1.049988031387329,-2.09171986579895
1763697198790889000,2.524888916015625,1.6993098258972168,-0.9667248129844666,-2.166351556777954
1763697198800850200,2.53485009765625,1.72566819190979,-0.8858810663223267,-2.2350730895996094
1763697198810811100,2.54481103515625,1.7427451610565186,-0.8484799265861511,-2.28395414352417
1763697198820771000,2.55477099609375,1.7422178983688354,-0.8733066916465759,-2.2547237873077393
1763697198830732000,2.56473193359375,1.7275291681289673,-0.910436749458313,-2.1531407833099365
1763697198840693000,2.57469287109375,1.7110493183135986,-0.8519481420516968,-2.104243278503418
1763697198850654200,2.584654296875,1.662913203239441,-0.7412868738174438,-2.112194538116455
1763697198860615000,2.594614990234375,1.5451487302780151,-0.8566587567329407,-1.9012184143066406
1763697198870574800,2.604574951171875,1.44406259059906,-0.7878133654594421,-1.651100993156433
1763697198880536000,2.6145361328125,1.3477954864501953,-0.6399831771850586,-1.4859250783920288
1763697198890497000,2.6244970703125,1.237615942955017,-0.43922582268714905,-1.4120762348175049
1763697198900458000,2.6344580078125,1.1790815591812134,-0.13199079036712646,-1.4745444059371948
1763697198910419000,2.6444189453125,1.151167631149292,0.0442846417427063,-1.582424521446228
1763697198920380200,2.654380126953125,1.1078957319259644,0.04495309293270111,-1.4780362844467163
1763697198930340000,2.664340087890625,1.0921703577041626,-0.056714147329330444,-1.1790006160736084
1763697198940301000,2.674301025390625,1.0636953115463257,-0.12643569707870483,-0.9098333120346069
1763697198950262000,2.684261962890625,1.0875095129013062,-0.10207577049732208,-0.871720552444458
1763697198960223000,2.694222900390625,1.1774405241012573,-0.18644604086875916,-1.0206061601638794
1763697198970184200,2.70418408203125,1.2455074787139893,-0.27637407183647156,-1.2650105953216553
1763697198980145000,2.714144775390625,1.2455641031265259,-0.4041304290294647,-1.3941459655761719
1763697198990105000,2.72410498046875,1.1561791896820068,-0.5216730237007141,-1.4014410972595215
1763697199000066000,2.734066162109375,1.002326488494873,-0.5939632058143616,-1.3862190246582031
1763697199010027300,2.74402734375,0.8265346884727478,-0.6464090943336487,-1.4007552862167358
1763697199019988000,2.753988037109375,0.7055765390396118,-0.5922287106513977,-1.4159473180770874
1763697199029949000,2.763948974609375,0.677025318145752,-0.547002911567688,-1.434275507926941
1763697199039910100,2.77391015625,0.6927630305290222,-0.5883783102035522,-1.441153645515442
1763697199049870000,2.7838701171875,0.6251805424690247,-0.7533805966377258,-1.2702604532241821
1763697199059831000,2.7938310546875,0.538275957107544,-0.730950653553009,-1.0384807586669922
1763697199069792000,2.8037919921875,0.41504380106925964,-0.7054503560066223,-0.8222589492797852
1763697199079753200,2.813753173828125,0.29865992069244385,-0.6687713861465454,-0.6567509770393372
1763697199089714200,2.823714111328125,0.21832461655139923,-0.6715003252029419,-0.5567561984062195
1763697199099674000,2.833674072265625,0.15429449081420898,-0.6673868298530579,-0.550742506980896
1763697199109635000,2.843635009765625,0.06078318879008293,-0.683366060256958,-0.6463063359260559
1763697199119596000,2.853595947265625,0.02015693299472332,-0.7192692160606384,-0.845944344997406
1763697199129557200,2.86355712890625,-0.020237093791365623,-0.6661945581436157,-1.0439229011535645
1763697199139518000,2.87351806640625,-0.013203686103224754,-0.6875741481781006,-1.1339694261550903
1763697199149479200,2.883479248046875,0.15691158175468445,-0.7091603875160217,-1.050815463066101
1763697199159439000,2.893439208984375,0.3700190782546997,-0.6056203842163086,-0.9050412178039551
1763697199169400000,2.903400146484375,0.6012296676635742,-0.32554560899734497,-0.9262596964836121
1763697199179361000,2.913361083984375,0.662895917892456,-0.028554413467645645,-1.3505654335021973
1763697199189322000,2.923322021484375,0.2890531122684479,-0.22358648478984833,-1.7537397146224976
1763697199199283200,2.933283203125,-0.12375815957784653,-0.6445121169090271,-1.7235139608383179
1763697199209243100,2.9432431640625,-0.39049771428108215,-1.1040635108947754,-1.3724712133407593
1763697199219203800,2.953203857421875,-0.5490327477455139,-1.3767669200897217,-0.8775360584259033
1763697199229165000,2.9631650390625,-0.675140380859375,-1.3539670705795288,-0.43461671471595764
1763697199239126000,2.9731259765625,-0.8745466470718384,-1.1569783687591553,-0.11538837850093842
1763697199249087000,2.9830869140625,-1.2002134323120117,-0.9603233933448792,0.09757023304700851
1763697199259048000,2.9930478515625,-1.6510908603668213,-0.8239386081695557,0.3002658188343048
1763697199269008100,3.003008056640625,-2.1950249671936035,-0.7656217813491821,0.5297184586524963
1763697199278969000,3.012968994140625,-2.7247486114501953,-0.6115009188652039,0.8160164952278137
1763697199288930300,3.022930419921875,-3.2933220863342285,-0.5309078097343445,1.2091153860092163
1763697199298891000,3.03289111328125,-3.913562774658203,-0.4254991114139557,1.7892380952835083
1763697199308852000,3.04285205078125,-4.572843551635742,-0.08307251334190369,2.2449705600738525
1763697199318813200,3.052813232421875,-4.376156806945801,1.0728235244750977,2.348982572555542
1763697199328773000,3.062773193359375,-3.492203950881958,2.1784274578094482,2.0119335651397705
1763697199338734000,3.072734130859375,-2.44803786277771,1.7342145442962646,0.7828079462051392
1763697199348695000,3.082695068359375,-2.416555881500244,1.4948927164077759,0.22495348751544952
1763697199358656300,3.09265625,-2.7407546043395996,1.9469596147537231,0.7679672241210938
1763697199368617000,3.102616943359375,-3.530339479446411,1.5543198585510254,1.2082726955413818
1763697199378577000,3.112576904296875,-3.8896708488464355,1.0359693765640259,1.4918620586395264
1763697199388538000,3.1225380859375,-3.543834924697876,0.6571992039680481,1.5731886625289917
1763697199398499000,3.1324990234375,-2.970289468765259,0.015511315315961838,1.4437241554260254
1763697199408460000,3.1424599609375,-2.266889810562134,-0.6853706240653992,1.3227423429489136
1763697199418421000,3.1524208984375,-1.7194507122039795,-1.3988323211669922,1.2962318658828735
1763697199428381000,3.162380859375,-1.5166481733322144,-1.547685980796814,1.291637659072876
1763697199438342100,3.172342041015625,-1.8259739875793457,-1.370826244354248,1.2474422454833984
1763697199448303000,3.18230322265625,-2.2177178859710693,-1.0716583728790283,1.209748387336731
1763697199458264000,3.19226416015625,-2.461345672607422,-0.5558081269264221,1.254948616027832
1763697199468225300,3.202225341796875,-2.6919751167297363,-0.2503480613231659,1.3201968669891357
1763697199478186200,3.212186279296875,-2.772754669189453,0.026035329326987267,1.3189270496368408
1763697199488146400,3.222146484375,-2.6289350986480713,0.0820208340883255,1.252959966659546
1763697199498107100,3.232107177734375,-2.373579263687134,-0.24230797588825226,1.0796548128128052
1763697199508068000,3.242068115234375,-2.108969211578369,-0.5836304426193237,0.8779795169830322
1763697199518029300,3.252029296875,-1.816001057624817,-0.5574909448623657,0.5221660137176514
1763697199527990000,3.261989990234375,-1.8059356212615967,-0.17045456171035767,0.030483340844511986
1763697199537950200,3.2719501953125,-1.9850680828094482,0.09063349664211273,-0.5419503450393677
1763697199547911200,3.2819111328125,-2.0426547527313232,-0.12178901582956314,-1.1519050598144531
1763697199557872400,3.291872314453125,-1.974273681640625,-0.45670363306999207,-1.5432405471801758
1763697199567833000,3.3018330078125,-1.8478564023971558,-0.5833768844604492,-1.4771555662155151
1763697199577794000,3.3117939453125,-1.5801671743392944,-0.6469572186470032,-1.2792032957077026
1763697199587754200,3.321754150390625,-1.3836426734924316,-0.7786962985992432,-1.215277910232544
1763697199597715200,3.331715087890625,-0.8448787927627563,-1.2938510179519653,-0.9906703233718872
1763697199607676200,3.34167626953125,-0.4440205991268158,-0.587130606174469,-1.1434178352355957
1763697199617637000,3.35163720703125,-0.2776654362678528,0.5208365321159363,-1.3627954721450806
1763697199627598300,3.361598388671875,-0.07884901016950607,0.9818323850631714,-1.2324718236923218
1763697199637559300,3.371559326171875,0.016892697662115097,1.0628832578659058,-1.1056840419769287
1763697199647519200,3.381519287109375,-0.009224390611052513,1.2283045053482056,-1.1024725437164307
1763697199657480200,3.391480224609375,-0.13507872819900513,1.4213626384735107,-1.1849417686462402
1763697199667441200,3.401441162109375,-0.37419384717941284,1.5324324369430542,-1.2026842832565308
1763697199677402400,3.41140234375,-0.4232593774795532,1.585735559463501,-1.1591660976409912
1763697199687363000,3.421363037109375,-0.282203733921051,1.5026851892471313,-1.202497124671936
1763697199697323000,3.431322998046875,-0.2934443950653076,1.1014448404312134,-1.1805827617645264
1763697199707284200,3.4412841796875,-0.7106512188911438,0.4830039441585541,-0.8831406831741333
1763697199717245200,3.4512451171875,-1.131666660308838,0.2708812952041626,-0.4149617850780487
1763697199727206100,3.4612060546875,-1.1528693437576294,0.975658655166626,0.13333408534526825
1763697199737167000,3.4711669921875,-1.0346397161483765,1.0522702932357788,0.43065232038497925
1763697199747127300,3.481127197265625,-0.917386531829834,0.6955404281616211,0.34163030982017517
1763697199757088300,3.491088134765625,-1.0159823894500732,0.5173845291137695,0.049137718975543976
1763697199767049000,3.501049072265625,-1.2648273706436157,0.8050597310066223,-0.21268217265605927
1763697199777010200,3.51101025390625,-1.1061508655548096,1.1129363775253296,-0.7705094814300537
1763697199786971100,3.52097119140625,-0.8415130972862244,1.4089107513427734,-0.9605425596237183
1763697199796931300,3.530931396484375,-0.6179889440536499,1.386070728302002,-0.9560104012489319
1763697199806892000,3.54089208984375,-0.45618829131126404,1.1226009130477905,-0.8820868730545044
1763697199816853200,3.550853271484375,-0.36509859561920166,0.862383246421814,-0.8051420450210571
1763697199826814200,3.560814208984375,-0.3038800060749054,0.6372153759002686,-0.7264618873596191
1763697199836775400,3.570775390625,-0.22994424402713776,0.3939901888370514,-0.6661756038665771
1763697199846735400,3.5807353515625,-0.1317409873008728,0.21075351536273956,-0.6141201257705688
1763697199856696000,3.590696044921875,-0.03367513790726662,0.18813981115818024,-0.5765964984893799
1763697199866657300,3.6006572265625,0.01161511056125164,0.29336902499198914,-0.5626465678215027
1763697199876618200,3.6106181640625,-0.08207755535840988,0.22078989446163177,-0.13547393679618835
1763697199886579200,3.6205791015625,-0.6056047081947327,-0.4530055522918701,0.9879438281059265
1763697199896540200,3.6305400390625,-0.9386572241783142,-0.5374985933303833,0.7351813316345215
1763697199906500000,3.6405,-1.0521280765533447,-0.32310935854911804,0.38841965794563293
1763697199916461300,3.65046142578125,-1.16499924659729,0.11712049692869186,0.189858078956604
1763697199926422000,3.660422119140625,-1.1945856809616089,0.6362062692642212,-0.19943347573280334
1763697199936383200,3.67038330078125,-1.1329518556594849,0.9670649170875549,-0.4655541181564331
1763697199946344200,3.68034423828125,-1.5788302421569824,1.0375674962997437,-0.6328914165496826
1763697199956304100,3.69030419921875,-1.837813377380371,0.6388065814971924,-0.5920001864433289
1763697199966265000,3.70026513671875,-1.7624832391738892,0.4271896779537201,-0.6951177716255188
1763697199976226000,3.71022607421875,-1.6304614543914795,0.2983315587043762,-0.8957736492156982
1763697199986187300,3.720187255859375,-1.6728023290634155,0.08500464260578156,-0.8302513957023621
1763697199996148200,3.730148193359375,-1.801736831665039,-0.12465670704841614,-0.657734215259552
1763697200006108200,3.740108154296875,-1.848506212234497,-0.3015422821044922,-0.5547942519187927
1763697200016069000,3.750069091796875,-1.9176440238952637,-0.3640839457511902,-0.4456278085708618
1763697200026030300,3.7600302734375,-1.9109693765640259,-0.26900190114974976,-0.3494440019130707
1763697200035991300,3.7699912109375,-1.9805688858032227,-0.3793973922729492,-0.04855315387248993
1763697200045952000,3.779951904296875,-2.5851027965545654,-0.4199671745300293,1.34535813331604
1763697200055912200,3.789912109375,-3.5000216960906982,-0.8707482218742371,2.237726926803589
1763697200065873200,3.799873046875,-3.6486496925354004,-1.955214262008667,1.5261374711990356
1763697200075834400,3.80983447265625,-3.0619590282440186,-1.7581062316894531,0.24467791616916656
1763697200085795000,3.819795166015625,-0.7768952250480652,-0.6749765872955322,-1.3458683490753174
1763697200095756300,3.82975634765625,0.47101572155952454,-0.5523771643638611,-1.5638896226882935
1763697200105716200,3.83971630859375,-0.4416959285736084,-0.5193424820899963,-0.9069818258285522
1763697200115677200,3.84967724609375,-1.3769054412841797,0.06880303472280502,-0.33403629064559937
1763697200125638100,3.85963818359375,-1.415221929550171,0.09360931068658829,-0.00839747954159975
1763697200135599000,3.86959912109375,-1.1911520957946777,-0.28896868228912354,0.021168135106563568
1763697200145560300,3.879560302734375,-0.9620389938354492,-0.7231579422950745,-0.038053110241889954
1763697200155520300,3.889520263671875,-0.8572494387626648,-0.9117169380187988,-0.10357965528964996
1763697200165481200,3.899481201171875,-0.47522884607315063,-0.9155862331390381,-0.19366933405399323
1763697200175442200,3.909442138671875,-0.14094513654708862,-0.817855179309845,-0.17404156923294067
1763697200185403100,3.919403076171875,0.09394140541553497,-0.7148193120956421,-0.11817937344312668
1763697200195364400,3.9293642578125,0.2278217077255249,-0.6663607358932495,-0.06403357535600662
1763697200205324300,3.93932421875,0.28669196367263794,-0.5923448204994202,-0.012461196631193161
1763697200215285200,3.94928515625,0.2509339451789856,-0.5232733488082886,0.06983527541160583
1763697200225246200,3.95924609375,-0.11569836735725403,-0.33280113339424133,0.2178734689950943
1763697200235207200,3.969207275390625,-0.6082286834716797,-0.01722053252160549,0.14609995484352112
1763697200245168000,3.979168212890625,-0.7485498785972595,0.2242986112833023,-0.09291423112154007
1763697200255128000,3.989128173828125,-0.6874459981918335,0.3075639307498932,-0.4874791204929352
1763697200265089300,3.99908935546875,-0.6795201897621155,0.40305185317993164,-0.7829981446266174
1763697200275050200,4.00905029296875,-0.55424565076828,0.3897416293621063,-0.741056501865387
1763697200285011200,4.01901123046875,-0.38114920258522034,0.22078298032283783,-0.5853455066680908
1763697200294972200,4.02897216796875,-0.26515257358551025,-0.13714933395385742,-0.5067455172538757
1763697200304932000,4.03893212890625,-0.3019617199897766,-0.7309098839759827,-0.181097611784935
1763697200314893300,4.048893310546875,-0.4147082269191742,-0.9480744004249573,0.08662410825490952
1763697200324854000,4.05885400390625,-0.5683143138885498,-0.3674347400665283,-0.01218955498188734
1763697200334815200,4.068815185546875,-0.5415260791778564,0.06770873814821243,-0.26546603441238403
1763697200344776200,4.078776123046875,-0.3211759030818939,0.3264942169189453,-0.45097464323043823
1763697200354736000,4.088736083984375,-0.0704568549990654,0.47189855575561523,-0.47972238063812256
1763697200364697300,4.098697265625,0.0704352855682373,0.5470929145812988,-0.4044579863548279
1763697200374658000,4.108657958984375,0.10139666497707367,0.5571979880332947,-0.338657945394516
1763697200384619300,4.118619384765625,0.0662570521235466,0.4603116810321808,-0.29036471247673035
1763697200394579200,4.1285791015625,-0.002812031889334321,0.3293778896331787,-0.23496298491954803
1763697200404540400,4.13854052734375,-0.08022160083055496,0.21270321309566498,-0.1868593692779541
1763697200414501000,4.148501220703125,-0.14680568873882294,0.10900318622589111,-0.15931536257266998
1763697200424462000,4.158462158203125,-0.18870680034160614,0.0399671234190464,-0.1329260915517807
1763697200434423300,4.16842333984375,-0.1901496946811676,0.026868898421525955,-0.09896120429039001
1763697200444383200,4.17838330078125,-0.15502606332302094,0.03933755308389664,-0.06756492704153061
1763697200454344200,4.18834423828125,-0.09057144820690155,0.04284759983420372,-0.03627917915582657
1763697200464304600,4.1983046875,-0.018009360879659653,0.04392724484205246,-0.014506504870951176
1763697200474265600,4.208265625,0.042936813086271286,0.07738746702671051,-0.015688149258494377
1763697200484226800,4.218226806640625,0.08432713150978088,0.07943277060985565,-0.019830429926514626
1763697200494186800,4.228186767578125,0.1124088317155838,0.063453808426857,-0.014874819666147232
1763697200504147500,4.2381474609375,0.12490198761224747,0.04247981682419777,-0.004682635888457298
1763697200514108700,4.248108642578125,0.12343991547822952,0.019166503101587296,0.00299286050722003
1763697200524069600,4.258069580078125,0.10111436992883682,-0.004720453172922134,0.014387194998562336
1763697200534030600,4.268030517578125,0.07236101478338242,-0.01563834771513939,0.026859311386942863
1763697200543990500,4.277990478515625,0.04162786900997162,-0.03050384670495987,0.03856923058629036
1763697200553951500,4.287951416015625,0.01236372534185648,-0.05740363895893097,0.048703890293836594
1763697200563912700,4.29791259765625,-0.004040548112243414,-0.10880078375339508,0.057322412729263306
1763697200573873400,4.307873291015625,-0.012325908057391644,-0.16399426758289337,0.05134521424770355
1763697200583834600,4.317834716796875,-0.02340066432952881,-0.21399778127670288,0.027571173384785652
1763697200593794600,4.327794677734375,-0.03600194305181503,-0.23912523686885834,-0.0019744676537811756
1763697200603755800,4.337755859375,-0.04717843234539032,-0.2404373735189438,-0.023800671100616455
1763697200613716500,4.347716552734375,-0.05992671847343445,-0.23300261795520782,-0.03550606220960617
1763697200623677400,4.357677490234375,-0.07214396446943283,-0.23187664151191711,-0.04729507863521576
1763697200633637600,4.3676376953125,-0.07560235261917114,-0.23830550909042358,-0.06374622136354446
1763697200643598600,4.3775986328125,-0.06726745516061783,-0.26059457659721375,-0.08271858096122742
1763697200653559800,4.387559814453125,-0.05118595436215401,-0.29636749625205994,-0.10057134926319122
1763697200663520500,4.3975205078125,-0.03985260799527168,-0.32530325651168823,-0.11574790626764297
1763697200673481700,4.407481689453125,-0.03477262705564499,-0.3475755453109741,-0.12347506731748581
1763697200683441700,4.417441650390625,-0.035476233810186386,-0.36757534742355347,-0.12773452699184418
1763697200693402600,4.427402587890625,-0.04454003646969795,-0.3834618926048279,-0.12314057350158691
1763697200703363600,4.437363525390625,-0.05890432745218277,-0.3977353870868683,-0.11490102112293243
1763697200713324500,4.447324462890625,-0.07818934321403503,-0.4115004539489746,-0.11395559459924698
1763697200723285800,4.45728564453125,-0.0955243930220604,-0.4279462695121765,-0.11658626794815063
1763697200733245700,4.46724560546875,-0.10436848551034927,-0.4380231499671936,-0.11700491607189178
1763697200743206400,4.477206298828125,-0.11432604491710663,-0.43816402554512024,-0.11057311296463013
1763697200753167600,4.487167724609375,-0.12148142606019974,-0.4412676692008972,-0.09613825380802155
1763697200763128600,4.497128662109375,-0.12171365320682526,-0.4427899420261383,-0.08133986592292786
1763697200773089500,4.507089599609375,-0.11723820865154266,-0.4304640293121338,-0.07060785591602325
1763697200783049500,4.517049560546875,-0.108891062438488,-0.4083957374095917,-0.07737601548433304
1763697200793010700,4.5270107421875,-0.10255646705627441,-0.3816525638103485,-0.09318587183952332
1763697200802971600,4.5369716796875,-0.09681335836648941,-0.3624117374420166,-0.1160280704498291
1763697200812932600,4.5469326171875,-0.09071925282478333,-0.3594476580619812,-0.142636239528656
1763697200822892500,4.556892578125,-0.08678948879241943,-0.36649516224861145,-0.16352660953998566
1763697200832853500,4.566853515625,-0.08798817545175552,-0.3849141299724579,-0.17793138325214386
1763697200842814700,4.576814697265625,-0.08692850917577744,-0.4065469801425934,-0.18031224608421326
1763697200852775700,4.586775634765625,-0.08503340184688568,-0.4294312596321106,-0.1782461702823639
1763697200862736600,4.596736572265625,-0.08245839178562164,-0.4509163200855255,-0.17447327077388763
1763697200872696600,4.606696533203125,-0.07947219163179398,-0.4675520062446594,-0.16860446333885193
1763697200882657500,4.616657470703125,-0.07627826184034348,-0.4856671094894409,-0.15776751935482025
1763697200892618800,4.62661865234375,-0.07247180491685867,-0.5018237233161926,-0.14761263132095337
1763697200902579500,4.636579345703125,-0.07120253890752792,-0.511140763759613,-0.14198696613311768
1763697200912539600,4.64653955078125,-0.07078708708286285,-0.5026980042457581,-0.1414002776145935
1763697200922500600,4.65650048828125,-0.07156100124120712,-0.4809780716896057,-0.15127740800380707
1763697200932461600,4.666461669921875,-0.07545587420463562,-0.45543116331100464,-0.1664920449256897
1763697200942422500,4.676422607421875,-0.08164026588201523,-0.4293596148490906,-0.18135966360569
1763697200952383500,4.686383544921875,-0.09148597717285156,-0.407431423664093,-0.19439105689525604
1763697200962343700,4.69634375,-0.08905051648616791,-0.38918423652648926,-0.19939672946929932
1763697200972304600,4.7063046875,-0.08466029167175293,-0.3742385804653168,-0.1989104300737381
1763697200982265600,4.716265625,-0.07173170894384384,-0.3606628477573395,-0.19480358064174652
1763697200992226600,4.7262265625,-0.06018158048391342,-0.34252166748046875,-0.19897408783435822
1763697201002187500,4.7361875,-0.052497562021017075,-0.3225801885128021,-0.20665010809898376
1763697201012147700,4.746147705078125,-0.050934020429849625,-0.29936859011650085,-0.21545904874801636
1763697201022108700,4.756108642578125,-0.052442967891693115,-0.27344298362731934,-0.22529304027557373
1763697201032069600,4.766069580078125,-0.058226022869348526,-0.2350386083126068,-0.227610781788826
1763697201042030600,4.776030517578125,-0.056768473237752914,-0.1881592571735382,-0.2276720404624939
1763697201051990500,4.785990478515625,-0.05267546325922012,-0.14307992160320282,-0.2311413437128067
1763697201061951700,4.79595166015625,-0.042101647704839706,-0.09843522310256958,-0.23685701191425323
1763697201071912400,4.805912353515625,-0.028986377641558647,-0.05577484890818596,-0.24036440253257751
1763697201081873700,4.815873779296875,-0.018991800025105476,-0.014244449324905872,-0.23509161174297333
1763697201091834600,4.825834716796875,-0.013705692254006863,0.017404289916157722,-0.22276969254016876
1763697201101794800,4.835794921875,-0.01330169104039669,0.035581961274147034,-0.2151799499988556
1763697201111755500,4.845755615234375,-0.01763864792883396,0.04343589022755623,-0.21026481688022614
1763697201121716500,4.855716552734375,-0.0256973747164011,0.0483720600605011,-0.20600642263889313
1763697201131677700,4.865677734375,-0.03489619866013527,0.04715952277183533,-0.202705979347229
1763697201141637600,4.8756376953125,-0.03497689217329025,0.04044089838862419,-0.2048277109861374
1763697201151598600,4.8855986328125,-0.03462029621005058,0.029271336272358894,-0.2098672091960907
1763697201161559600,4.8955595703125,-0.03796389326453209,0.008014516904950142,-0.21437887847423553
1763697201171520800,4.905520751953125,-0.03730529546737671,-0.01595180295407772,-0.2122640609741211
1763697201181481500,4.9154814453125,-0.037699442356824875,-0.047257792204618454,-0.2041214406490326
1763697201191441400,4.92544140625,-0.03247618302702904,-0.07776643335819244,-0.19588428735733032
1763697201201402600,4.935402587890625,-0.0226224884390831,-0.10340947657823563,-0.1932903677225113
1763697201211363600,4.945363525390625,-0.007786017842590809,-0.12679976224899292,-0.20150834321975708
1763697201221324800,4.95532470703125,0.008748750202357769,-0.1364465206861496,-0.209283709526062
1763697201231284700,4.96528466796875,0.023670975118875504,-0.1268969625234604,-0.21371175348758698
1763697201241245400,4.975245361328125,0.03524534031748772,-0.10041608661413193,-0.2149897962808609
1763697201251206700,4.98520654296875,0.038591332733631134,-0.06844377517700195,-0.20789887011051178
1763697201261167600,4.995167724609375,0.03606506064534187,-0.03936711326241493,-0.19830989837646484
1763697201271128600,5.005128662109375,0.027397535741329193,-0.014603976160287857,-0.18412776291370392
1763697201281088500,5.015088623046875,0.01805649884045124,0.020168118178844452,-0.17102260887622833
1763697201291049700,5.0250498046875,0.016088955104351044,0.06898386031389236,-0.15777871012687683
1763697201301010700,5.0350107421875,0.01756754145026207,0.1331479400396347,-0.1456187218427658
1763697201310971400,5.044971435546875,0.025660090148448944,0.1904652863740921,-0.13334980607032776
1763697201320931600,5.054931640625,0.02827930822968483,0.2360101342201233,-0.12462341785430908
1763697201330892500,5.064892578125,0.02600310556590557,0.2646564245223999,-0.1171809509396553
1763697201340853800,5.074853759765625,0.026333868503570557,0.28065457940101624,-0.1125718206167221
1763697201350814500,5.084814453125,0.02960236743092537,0.28111395239830017,-0.10931237787008286
1763697201360774400,5.0947744140625,0.032521191984415054,0.26585590839385986,-0.10448486357927322
1763697201370735600,5.104735595703125,0.029626335948705673,0.24302250146865845,-0.09003588557243347
1763697201380696600,5.114696533203125,0.018747322261333466,0.19720548391342163,-0.07083475589752197
1763697201390657500,5.124657470703125,0.010576211847364902,0.13661137223243713,-0.05402062460780144
1763697201400618500,5.134618408203125,0.012387960217893124,0.07182438671588898,-0.04719068109989166
1763697201410578400,5.144578369140625,0.026068618521094322,-0.00755112711340189,-0.046130210161209106
1763697201420539600,5.15453955078125,0.03918468579649925,-0.07592432200908661,-0.055875249207019806
1763697201430500600,5.16450048828125,0.03747360408306122,-0.13200277090072632,-0.06215525045990944
1763697201440461600,5.174461669921875,0.027691815048456192,-0.17754629254341125,-0.06932874023914337
1763697201450421500,5.18442138671875,0.018860239535570145,-0.20466472208499908,-0.07009866088628769
1763697201460382700,5.1943828125,0.009453422389924526,-0.2298811376094818,-0.06252063810825348
1763697201470344000,5.204343994140625,0.005901032127439976,-0.24481560289859772,-0.05421450361609459
1763697201480304600,5.2143046875,0.01744583621621132,-0.24909716844558716,-0.054672300815582275
1763697201490265900,5.224265869140625,0.04460368677973747,-0.23815397918224335,-0.06718702614307404
1763697201500225800,5.234225830078125,0.09113124012947083,-0.2001061886548996,-0.0857657715678215
1763697201510187000,5.24418701171875,0.14235900342464447,-0.13334260880947113,-0.09649591147899628
1763697201520147700,5.254147705078125,0.19582942128181458,-0.042928293347358704,-0.09473955631256104
1763697201530109000,5.26410888671875,0.23112855851650238,0.06716784834861755,-0.07567212730646133
1763697201540068900,5.27406884765625,0.24844177067279816,0.1624797284603119,-0.04476800560951233
1763697201550029800,5.28402978515625,0.2452598214149475,0.24186696112155914,-0.004306863993406296
1763697201559990800,5.29399072265625,0.22374626994132996,0.3202863931655884,0.031124629080295563
1763697201569951700,5.30395166015625,0.1903233379125595,0.3794213533401489,0.0536818690598011
1763697201579911700,5.31391162109375,0.16642625629901886,0.3939632773399353,0.06663788110017776
1763697201589873000,5.323872802734375,0.16413646936416626,0.3882036507129669,0.07046111673116684
1763697201599833600,5.33383349609375,0.17492280900478363,0.36938098073005676,0.053416620939970016
1763697201609794800,5.343794921875,0.19284135103225708,0.3521239459514618,0.018217353150248528
1763697201619755800,5.353755859375,0.20628365874290466,0.34124866127967834,-0.019169699400663376
1763697201629716000,5.363716064453125,0.21162889897823334,0.32856854796409607,-0.0376613587141037
1763697201639677000,5.373677001953125,0.20962274074554443,0.3000415861606598,-0.0419333353638649
1763697201649637600,5.3836376953125,0.2118331640958786,0.26904743909835815,-0.04729481041431427
1763697201659598800,5.393598876953125,0.21316100656986237,0.2390272319316864,-0.05799885466694832
1763697201669558800,5.403558837890625,0.21237963438034058,0.21156950294971466,-0.07350164651870728
1763697201679520000,5.41352001953125,0.19141097366809845,0.176445871591568,-0.09136426448822021
1763697201689480700,5.423480712890625,0.17368151247501373,0.17921049892902374,-0.09404847025871277
1763697201699442000,5.43344189453125,0.16241660714149475,0.21698343753814697,-0.08638256043195724
1763697201709401900,5.44340185546875,0.1505168080329895,0.25320589542388916,-0.08350634574890137
1763697201719362800,5.45336279296875,0.14144714176654816,0.2942907512187958,-0.08726859092712402
1763697201729323800,5.46332373046875,0.1327977329492569,0.3324040472507477,-0.08781000971794128
1763697201739284700,5.47328466796875,0.11821452528238297,0.3639148473739624,-0.08854611217975616
1763697201749245000,5.483244873046875,0.09708447009325027,0.38838157057762146,-0.0879620760679245
1763697201759206000,5.493205810546875,0.07379832118749619,0.40723487734794617,-0.07641807198524475
1763697201769166600,5.50316650390625,0.05247386172413826,0.41222885251045227,-0.06979825347661972
1763697201779127800,5.5131279296875,0.03338352218270302,0.4142152965068817,-0.06251903623342514
1763697201789088800,5.5230888671875,0.010939999483525753,0.4085685908794403,-0.053097840398550034
1763697201799049000,5.533049072265625,-0.008095743134617805,0.38703587651252747,-0.043046802282333374
1763697201809009700,5.543009765625,-0.022837670519948006,0.35009142756462097,-0.038058169186115265
1763697201818971000,5.552970947265625,-0.03057442046701908,0.30551570653915405,-0.04021107032895088
1763697201828931800,5.562931884765625,-0.03568582609295845,0.2621423900127411,-0.05271540954709053
1763697201838891800,5.572891845703125,-0.042093392461538315,0.2351294308900833,-0.059606339782476425
1763697201848853000,5.58285302734375,-0.057904310524463654,0.22280697524547577,-0.06294514238834381
1763697201858813700,5.592813720703125,-0.07537145167589188,0.20407935976982117,-0.06463838368654251
1763697201868775000,5.60277490234375,-0.093293197453022,0.17851008474826813,-0.06922301650047302
1763697201878734800,5.61273486328125,-0.11483363807201385,0.15524284541606903,-0.07877923548221588
1763697201888695800,5.62269580078125,-0.13662096858024597,0.13417351245880127,-0.09070993214845657
1763697201898656800,5.63265673828125,-0.15488731861114502,0.1196180135011673,-0.09365884959697723
1763697201908617700,5.64261767578125,-0.16568323969841003,0.11156061291694641,-0.09804373979568481
1763697201918578000,5.652577880859375,-0.16242432594299316,0.1062750369310379,-0.10999494045972824
1763697201928539000,5.662538818359375,-0.1472722738981247,0.09355764836072922,-0.1296970099210739
1763697201938499800,5.672499755859375,-0.12709270417690277,0.07225555181503296,-0.15328116714954376
1763697201948460800,5.682460693359375,-0.1115233302116394,0.052438974380493164,-0.16889101266860962
1763697201958421800,5.692421875,-0.10666652768850327,0.0443648025393486,-0.1754399985074997
1763697201968382000,5.7023818359375,-0.09835639595985413,0.056766875088214874,-0.17476968467235565
1763697201978342700,5.7123427734375,-0.09152831882238388,0.08167781680822372,-0.1759854108095169
1763697201988304000,5.722303955078125,-0.09160421788692474,0.11100827902555466,-0.1692899614572525
1763697201998264800,5.732264892578125,-0.09206601232290268,0.15961629152297974,-0.1418364942073822
1763697202008224800,5.742224853515625,-0.08507947623729706,0.19330048561096191,-0.10173381865024567
1763697202018185700,5.752185791015625,-0.051108457148075104,0.17063592374324799,-0.08906888961791992
1763697202028146700,5.762146728515625,0.00013928332191426307,0.13169971108436584,-0.1141798347234726
1763697202038108000,5.77210791015625,0.04800960421562195,0.14318566024303436,-0.16139236092567444
1763697202048067800,5.78206787109375,0.08515138179063797,0.21372106671333313,-0.19809897243976593
1763697202058028800,5.79202880859375,0.09817317128181458,0.29563456773757935,-0.2049105316400528
1763697202067989800,5.80198974609375,0.08372871577739716,0.3660304546356201,-0.1987956464290619
1763697202077950700,5.81195068359375,0.050273824483156204,0.4097782075405121,-0.18142172694206238
1763697202087911000,5.821910888671875,0.010188455693423748,0.4115060567855835,-0.16257719695568085
1763697202097872000,5.831871826171875,-0.03921797499060631,0.39295393228530884,-0.14009106159210205
1763697202107832800,5.841832763671875,-0.0763874500989914,0.3673226237297058,-0.12371262162923813
1763697202117793800,5.851793701171875,-0.09366817027330399,0.3205292820930481,-0.1084497794508934
1763697202127753700,5.861753662109375,-0.09140022099018097,0.2594107985496521,-0.08504325151443481
1763697202137715000,5.87171484375,-0.0743061900138855,0.2076685130596161,-0.07205821573734283
1763697202147675600,5.881675537109375,-0.05548509582877159,0.17737291753292084,-0.07137750834226608
1763697202157636900,5.891636962890625,-0.05107277259230614,0.1757262796163559,-0.07442869246006012
1763697202167596800,5.9015966796875,-0.05926305800676346,0.18871399760246277,-0.07100600004196167
1763697202177557800,5.911557861328125,-0.08080483227968216,0.21072767674922943,-0.06351932138204575
1763697202187518700,5.921518798828125,-0.10666918754577637,0.22632980346679688,-0.05582944303750992
1763697202197479700,5.931479736328125,-0.1143079325556755,0.21763618290424347,-0.062316104769706726
1763697202207440000,5.94143994140625,-0.1093113124370575,0.19187197089195251,-0.07998138666152954
1763697202217400800,5.95140087890625,-0.10278123617172241,0.1656358391046524,-0.09095653891563416
1763697202227361800,5.96136181640625,-0.09691376239061356,0.14230547845363617,-0.08959139883518219
1763697202237322800,5.97132275390625,-0.08598894625902176,0.11685870587825775,-0.0791986808180809
1763697202247283700,5.98128369140625,-0.07400684803724289,0.08575352281332016,-0.061406102031469345
1763697202257244000,5.991243896484375,-0.0621696300804615,0.0441908985376358,-0.03792314603924751
1763697202267204900,6.001204833984375,-0.05771522596478462,-0.008026501163840294,-0.017314808443188667
1763697202277165800,6.011165771484375,-0.057018544524908066,-0.04934224858880043,-0.008868592791259289
1763697202287126800,6.021126708984375,-0.059367984533309937,-0.07422895729541779,-0.0014500912511721253
1763697202297086700,6.031086669921875,-0.05885079875588417,-0.09065107256174088,0.007258179131895304
1763697202307048000,6.0410478515625,-0.06696917861700058,-0.10036841779947281,0.016868462786078453
1763697202317008600,6.051008544921875,-0.06851008534431458,-0.10417700558900833,0.028075575828552246
1763697202326969900,6.060969970703125,-0.06073099002242088,-0.10320547968149185,0.031209051609039307
1763697202336929800,6.0709296875,-0.040117859840393066,-0.09295577555894852,0.025603896006941795
1763697202346891000,6.08089111328125,-0.01709163561463356,-0.06860090047121048,0.016320116817951202
1763697202356851700,6.090851806640625,0.0037699707318097353,-0.022763902321457863,0.016475912183523178
1763697202366812700,6.100812744140625,0.013492639176547527,0.023839019238948822,0.021208615973591805
1763697202376772900,6.11077294921875,0.00600436283275485,0.0654493123292923,0.022705845534801483
1763697202386733800,6.12073388671875,-0.019872240722179413,0.11199843883514404,0.03363092988729477
1763697202396694800,6.13069482421875,-0.057972222566604614,0.16353780031204224,0.06686931103467941
1763697202406655700,6.14065576171875,-0.09083270281553268,0.205063134431839,0.1232907772064209
1763697202416615700,6.15061572265625,-0.11724060773849487,0.2547609210014343,0.19498573243618011
1763697202426577000,6.160576904296875,-0.1402316689491272,0.31760114431381226,0.2949807643890381
1763697202436537900,6.170537841796875,-0.15277916193008423,0.41063281893730164,0.42085427045822144
1763697202446498800,6.180498779296875,-0.1536438912153244,0.5265237092971802,0.5590696930885315
1763697202456458800,6.190458740234375,-0.15028883516788483,0.6451281309127808,0.6911800503730774
1763697202466419700,6.200419677734375,-0.1487055867910385,0.7421361804008484,0.815694272518158
1763697202476381000,6.210380859375,-0.152908593416214,0.7971517443656921,0.9255150556564331
1763697202486341600,6.220341552734375,-0.15665379166603088,0.8258811235427856,1.0160961151123047
1763697202496301800,6.2303017578125,-0.1594327986240387,0.83698970079422,1.0837403535842896
1763697202506262800,6.2402626953125,-0.1640176922082901,0.8302143812179565,1.1278162002563477
1763697202516224000,6.25022412109375,-0.16015905141830444,0.7996791005134583,1.1480714082717896
1763697202526184700,6.260184814453125,-0.15773797035217285,0.7331722378730774,1.162829875946045
1763697202536144600,6.27014453125,-0.15431047976016998,0.6235690712928772,1.1751078367233276
1763697202546105900,6.28010595703125,-0.15773290395736694,0.47951120138168335,1.1875197887420654
1763697202556066800,6.29006689453125,-0.17144978046417236,0.3233461081981659,1.203405737876892
1763697202566027800,6.30002783203125,-0.17207668721675873,0.18604443967342377,1.240016222000122
1763697202575987700,6.30998779296875,-0.1420849710702896,0.09967359900474548,1.3114111423492432
1763697202585948700,6.31994873046875,-0.08579906076192856,0.06179545819759369,1.4033945798873901
1763697202595910000,6.329909912109375,0.0023289343807846308,0.06548606604337692,1.504270315170288
1763697202605870800,6.339870849609375,0.12139514088630676,0.10822447389364243,1.591256856918335
1763697202615830800,6.349830810546875,0.2541057765483856,0.1906711459159851,1.6304439306259155
1763697202625791700,6.359791748046875,0.3733893036842346,0.2653259336948395,1.6052427291870117
1763697202635753000,6.3697529296875,0.4735153615474701,0.27609336376190186,1.5294184684753418
1763697202645714000,6.3797138671875,0.5566959977149963,0.24204859137535095,1.43181574344635
1763697202655673900,6.389673828125,0.6285638213157654,0.19854851067066193,1.3531657457351685
1763697202665634800,6.399634765625,0.6776354908943176,0.15012185275554657,1.3033233880996704
1763697202675595800,6.409595703125,0.6828989386558533,0.06566529721021652,1.2762539386749268
1763697202685557000,6.419556884765625,0.6412084698677063,-0.03996312990784645,1.2726562023162842
1763697202695517000,6.429516845703125,0.5743053555488586,-0.11881320178508759,1.30172598361969
1763697202705477600,6.4394775390625,0.4980364143848419,-0.133070170879364,1.3722819089889526
1763697202715438800,6.44943896484375,0.44061386585235596,-0.09454408288002014,1.4537975788116455
1763697202725399800,6.45939990234375,0.38556233048439026,-0.029616747051477432,1.5144768953323364
1763697202735360000,6.469360107421875,0.35068559646606445,0.010617224499583244,1.5185989141464233
1763697202745320700,6.47932080078125,0.37962669134140015,0.03516251593828201,1.4728626012802124
1763697202755282000,6.489281982421875,0.43576398491859436,0.09070007503032684,1.4040899276733398
1763697202765243000,6.499242919921875,0.5133775472640991,0.17678196728229523,1.324296474456787
1763697202775202800,6.509202880859375,0.607743501663208,0.25989362597465515,1.2624754905700684
1763697202785163800,6.519163818359375,0.698302149772644,0.29781436920166016,1.2265625
1763697202795124700,6.529124755859375,0.7803953886032104,0.29025259613990784,1.2224527597427368
1763697202805086000,6.5390859375,0.8530246019363403,0.23554354906082153,1.245682954788208
1763697202815046000,6.5490458984375,0.9183285236358643,0.13988520205020905,1.284166932106018
1763697202825006800,6.5590068359375,0.9709906578063965,0.05847715958952904,1.315326452255249
1763697202834967800,6.5689677734375,0.9993477463722229,-0.031094003468751907,1.3330508470535278
1763697202844928800,6.5789287109375,0.9899547696113586,-0.1311255246400833,1.3492673635482788
1763697202854889000,6.588888916015625,0.9576383829116821,-0.20906053483486176,1.372464895248413
1763697202864850000,6.598849853515625,0.9058428406715393,-0.29616880416870117,1.417020559310913
1763697202874810600,6.608810546875,0.8448846340179443,-0.41251832246780396,1.4806909561157227
1763697202884771800,6.618771728515625,0.8023696541786194,-0.5152454972267151,1.5552970170974731
1763697202894731800,6.628731689453125,0.7875497341156006,-0.5699923634529114,1.610089659690857
1763697202904693000,6.63869287109375,0.7980638742446899,-0.5742206573486328,1.6319057941436768
1763697202914653700,6.64865380859375,0.805522620677948,-0.5744590163230896,1.6207311153411865
1763697202924615000,6.658614990234375,0.7965072393417358,-0.6001819372177124,1.5947788953781128
1763697202934574800,6.668574951171875,0.7656763792037964,-0.615213930606842,1.5833379030227661
1763697202944535800,6.678535888671875,0.7281854748725891,-0.6176595091819763,1.5858074426651
1763697202954496800,6.688496826171875,0.6906474232673645,-0.6577904224395752,1.5947480201721191
1763697202964457700,6.698457763671875,0.6516091823577881,-0.76749587059021,1.5941014289855957
1763697202974418000,6.70841796875,0.6206344962120056,-0.8681297898292542,1.5920698642730713
1763697202984379000,6.71837890625,0.6008964776992798,-0.9107472896575928,1.5941274166107178
1763697202994339600,6.728339599609375,0.5989204049110413,-0.9071866273880005,1.5753133296966553
1763697203004300800,6.73830078125,0.5928382873535156,-0.869037926197052,1.5211994647979736
1763697203014260700,6.7482607421875,0.5786444544792175,-0.8337593078613281,1.4450546503067017
1763697203024222000,6.758221923828125,0.5568057298660278,-0.8021446466445923,1.3761203289031982
1763697203034183000,6.768182861328125,0.5370591878890991,-0.7752139568328857,1.31986665725708
1763697203044143900,6.778143798828125,0.5243950486183167,-0.7189831733703613,1.2699339389801025
1763697203054103800,6.788103759765625,0.5189549922943115,-0.6769492030143738,1.2103039026260376
1763697203064064800,6.798064697265625,0.5157336592674255,-0.6489585638046265,1.1575525999069214
1763697203074026000,6.80802587890625,0.5122369527816772,-0.6490437984466553,1.1120233535766602
1763697203083986700,6.817986572265625,0.4947165250778198,-0.6690648794174194,1.0781714916229248
1763697203093946600,6.827946533203125,0.4630534052848816,-0.6706387996673584,1.0464385747909546
1763697203103907800,6.837907958984375,0.4248431622982025,-0.6381431818008423,1.0143663883209229
1763697203113868800,6.847868896484375,0.39055630564689636,-0.5690522789955139,0.968255877494812
1763697203123829800,6.857829833984375,0.3654029965400696,-0.5030575394630432,0.9057695865631104
1763697203133789700,6.867789794921875,0.3457123935222626,-0.4384543299674988,0.8452715873718262
1763697203143751000,6.8777509765625,0.3172437250614166,-0.34473180770874023,0.7883611917495728
1763697203153711900,6.8877119140625,0.2771133482456207,-0.2597633898258209,0.7313708662986755
1763697203163672800,6.8976728515625,0.2297985702753067,-0.1838878095149994,0.672599196434021
1763697203173632800,6.9076328125,0.17384476959705353,-0.10477194935083389,0.6182027459144592
1763697203183593700,6.91759375,0.11950668692588806,-0.05699723958969116,0.5673779249191284
1763697203193555000,6.927554931640625,0.07261081784963608,-0.04884743317961693,0.5304641127586365
1763697203203515000,6.937514892578125,0.03437528386712074,-0.05149328336119652,0.49147865176200867
1763697203213475600,6.9474755859375,0.020205402746796608,-0.0145312724635005,0.42921048402786255
1763697203223436800,6.957436767578125,0.02582227624952793,0.0013430321123450994,0.3513015806674957
1763697203233397800,6.967397705078125,0.019626431167125702,-0.03963316231966019,0.2805024981498718
1763697203243358000,6.97735791015625,0.013530190102756023,-0.0613831989467144,0.20857930183410645
1763697203253319000,6.98731884765625,0.012432967312633991,-0.05788913369178772,0.1370214968919754
1763697203263279900,6.99727978515625,0.007266701199114323,-0.07895127683877945,0.08293243497610092
1763697203273240800,7.00724072265625,0.000907338981050998,-0.08693356812000275,0.03415743634104729
1763697203283200800,7.01720068359375,-0.008110657334327698,-0.09881366044282913,-0.021917017176747322
1763697203293162000,7.027161865234375,-0.02785826288163662,-0.14461471140384674,-0.08658576011657715
1763697203303122700,7.037122802734375,-0.05038034915924072,-0.1385459005832672,-0.1594964563846588
1763697203313084000,7.047083984375,-0.051352404057979584,-0.0799209326505661,-0.22603845596313477
1763697203323043800,7.0570439453125,-0.03309004381299019,-0.023145265877246857,-0.28280559182167053
1763697203333004800,7.0670048828125,-0.006016347091645002,0.008216917514801025,-0.33808135986328125
1763697203342965800,7.0769658203125,0.03050038404762745,0.0465557835996151,-0.39907389879226685
1763697203352926700,7.0869267578125,0.08328104019165039,0.08266372233629227,-0.47574788331985474
1763697203362887000,7.096886962890625,0.13853177428245544,0.09601308405399323,-0.5690352320671082
1763697203372847900,7.106847900390625,0.18684472143650055,0.08470077067613602,-0.6600056290626526
1763697203382808800,7.116808837890625,0.22011718153953552,0.06318163126707077,-0.7443916201591492
1763697203392769800,7.126769775390625,0.24121421575546265,0.05102989450097084,-0.8061423301696777
1763697203402729700,7.136729736328125,0.24431413412094116,0.04420820623636246,-0.8446561694145203
1763697203412691000,7.14669091796875,0.23333126306533813,0.03199281916022301,-0.8652181625366211
1763697203422651600,7.156651611328125,0.21361161768436432,0.04396665841341019,-0.8347806334495544
1763697203432612900,7.16661279296875,0.2218000441789627,-0.0007611314067617059,-0.7308099865913391
1763697203442572800,7.17657275390625,0.24466034770011902,-0.11009720712900162,-0.5194383859634399
1763697203452533800,7.18653369140625,0.27529630064964294,-0.18538103997707367,-0.23870711028575897
1763697203462495000,7.196494873046875,0.303725004196167,-0.2480952888727188,0.04035567864775658
1763697203472456200,7.206456298828125,0.32001635432243347,-0.33723077178001404,0.2283351719379425
1763697203482416000,7.216416015625,0.3261837065219879,-0.38720497488975525,0.3036480247974396
1763697203492377300,7.22637744140625,0.2995510399341583,-0.4479959011077881,0.2824189066886902
1763697203502338000,7.236338134765625,0.24167867004871368,-0.505160391330719,0.1940072923898697
1763697203512298000,7.246298095703125,0.13543611764907837,-0.5294010043144226,0.08667417615652084
1763697203522259200,7.25625927734375,-0.0073295519687235355,-0.46286699175834656,-0.007757521700114012
1763697203532220200,7.26622021484375,-0.12108141928911209,-0.3707495629787445,-0.06976230442523956
1763697203542181400,7.276181396484375,-0.18343107402324677,-0.29020944237709045,-0.13660205900669098
1763697203552141300,7.286141357421875,-0.20301702618598938,-0.24654613435268402,-0.21995580196380615
1763697203562102000,7.29610205078125,-0.20294539630413055,-0.2277844250202179,-0.2791195213794708
1763697203572063200,7.306063232421875,-0.20160262286663055,-0.22676709294319153,-0.28982117772102356
1763697203582024200,7.316024169921875,-0.2087273746728897,-0.242400124669075,-0.2482321709394455
1763697203591984400,7.325984375,-0.22702781856060028,-0.28495264053344727,-0.1722109168767929
1763697203601945000,7.335945068359375,-0.26671504974365234,-0.31339308619499207,-0.06677130609750748
1763697203611906300,7.34590625,-0.3295733630657196,-0.2894267439842224,0.06403730809688568
1763697203621867300,7.3558671875,-0.39950132369995117,-0.21567504107952118,0.1961841583251953
1763697203631827200,7.3658271484375,-0.45880886912345886,-0.13984471559524536,0.30980926752090454
1763697203641788200,7.3757880859375,-0.5020029544830322,-0.0854930654168129,0.37510916590690613
1763697203651749000,7.3857490234375,-0.5126577019691467,-0.06203647330403328,0.3462434411048889
1763697203661710300,7.39571044921875,-0.5128933787345886,-0.06425169110298157,0.23919154703617096
1763697203671670300,7.405670166015625,-0.4905007481575012,-0.0331995002925396,0.10710728168487549
1763697203681631000,7.415630859375,-0.45583009719848633,0.021887455135583878,-0.010365023277699947
1763697203691592200,7.42559228515625,-0.42493823170661926,0.06694068759679794,-0.09398801624774933
1763697203701552000,7.43555224609375,-0.4023998975753784,0.09099622070789337,-0.14184927940368652
1763697203711513300,7.445513427734375,-0.3962477445602417,0.12278557568788528,-0.14357633888721466
1763697203721474000,7.45547412109375,-0.4005442261695862,0.17721791565418243,-0.1334155797958374
1763697203731435300,7.465435302734375,-0.4245872497558594,0.21611285209655762,-0.12952204048633575
1763697203741395200,7.475395263671875,-0.452224463224411,0.22068683803081512,-0.1596495807170868
1763697203751356200,7.485356201171875,-0.47352921962738037,0.17913833260536194,-0.19466055929660797
1763697203761317400,7.4953173828125,-0.4872748553752899,0.15669400990009308,-0.2356090545654297
1763697203771278000,7.505278076171875,-0.5008434057235718,0.1633223444223404,-0.276712566614151
1763697203781238000,7.515238037109375,-0.5251663327217102,0.15360979735851288,-0.32036229968070984
1763697203791199200,7.52519921875,-0.5709819793701172,0.11925981193780899,-0.36532098054885864
1763697203801160200,7.53516015625,-0.6125451326370239,0.0719226598739624,-0.3964722454547882
1763697203811121200,7.54512109375,-0.6313979625701904,0.047216515988111496,-0.41373246908187866
1763697203821081000,7.5550810546875,-0.6226300001144409,0.050098855048418045,-0.4593460261821747
1763697203831042300,7.565042236328125,-0.5884363651275635,0.02955522947013378,-0.5714493989944458
1763697203841003300,7.575003173828125,-0.5450859665870667,-0.039035551249980927,-0.741722822189331
1763697203850964000,7.5849638671875,-0.5033693909645081,-0.12594781816005707,-0.8505041599273682
1763697203860924200,7.594924072265625,-0.4830995500087738,-0.23209822177886963,-0.875244677066803
1763697203870885000,7.604885009765625,-0.45814093947410583,-0.25343307852745056,-0.8968056440353394
1763697203880846300,7.614846435546875,-0.4184579849243164,-0.20727302134037018,-0.9475444555282593
1763697203890806300,7.62480615234375,-0.3631582260131836,-0.10719969123601913,-1.040116786956787
1763697203900767000,7.63476708984375,-0.2966359257698059,-0.023613184690475464,-1.1627733707427979
1763697203910728200,7.644728271484375,-0.23150859773159027,-0.020254138857126236,-1.2938456535339355
1763697203920689200,7.654689208984375,-0.19167941808700562,-0.015671636909246445,-1.3698920011520386
1763697203930649300,7.6646494140625,-0.15669427812099457,0.054844338446855545,-1.3857945203781128
1763697203940610000,7.674610107421875,-0.12023266404867172,0.08700041472911835,-1.366347074508667
1763697203950571300,7.6845712890625,-0.09198984503746033,0.03388632833957672,-1.3579354286193848
1763697203960532200,7.6945322265625,-0.0514349602162838,-0.027576234191656113,-1.3921655416488647
1763697203970492200,7.7044921875,-0.015156049281358719,-0.027605528011918068,-1.415664553642273
1763697203980453400,7.714453369140625,-0.0025630262680351734,-0.024884311482310295,-1.3901740312576294
1763697203990414000,7.7244140625,-0.007268831599503756,-0.04489583522081375,-1.3493385314941406
1763697204000375300,7.734375244140625,-0.013939517550170422,-0.08920390903949738,-1.3338165283203125
1763697204010335200,7.744335205078125,-0.007542870938777924,-0.13144724071025848,-1.3426235914230347
1763697204020296200,7.754296142578125,0.013273460790514946,-0.09977905452251434,-1.3477193117141724
1763697204030257200,7.764257080078125,0.04059403017163277,0.01206784788519144,-1.3375425338745117
1763697204040217000,7.774217041015625,0.06717877089977264,0.14978869259357452,-1.338944435119629
1763697204050178300,7.78417822265625,0.0878334492444992,0.2469719648361206,-1.377431869506836
1763697204060139300,7.79413916015625,0.0963587611913681,0.3290271461009979,-1.4332376718521118
1763697204070100000,7.804099853515625,0.09420053660869598,0.4042092561721802,-1.4766298532485962
1763697204080060200,7.81406005859375,0.08075396716594696,0.46553918719291687,-1.499813437461853
1763697204090021000,7.824021240234375,0.055039018392562866,0.48979634046554565,-1.4999186992645264
1763697204099982300,7.833982421875,0.0259234756231308,0.4968734085559845,-1.480009913444519
1763697204109943000,7.843943115234375,-0.01035383716225624,0.4943644404411316,-1.4414148330688477
1763697204119903000,7.853903076171875,-0.04560769721865654,0.5029613971710205,-1.3922990560531616
1763697204129864200,7.8638642578125,-0.07925114780664444,0.5128118991851807,-1.3653850555419922
1763697204139825200,7.8738251953125,-0.1151079460978508,0.48792412877082825,-1.361887812614441
1763697204149786000,7.8837861328125,-0.1482645720243454,0.4474744498729706,-1.3480894565582275
1763697204159746000,7.89374609375,-0.15269127488136292,0.44501128792762756,-1.3119522333145142
1763697204169707300,7.903707275390625,-0.11730079352855682,0.4909502863883972,-1.2803839445114136
1763697204179668200,7.913668212890625,-0.051964662969112396,0.5228655934333801,-1.276553750038147
1763697204189628200,7.923628173828125,0.019824836403131485,0.5152084827423096,-1.2764328718185425
1763697204199589400,7.93358935546875,0.08374736458063126,0.4973165690898895,-1.263238787651062
1763697204209550000,7.943550048828125,0.12279941886663437,0.4966995120048523,-1.227306842803955
1763697204219511300,7.95351123046875,0.13842125236988068,0.4827069938182831,-1.1795353889465332
1763697204229471200,7.96347119140625,0.134285107254982,0.45907092094421387,-1.1298508644104004
1763697204239432200,7.97343212890625,0.11509809643030167,0.4790302515029907,-1.0769426822662354
1763697204249393200,7.98339306640625,0.09143484383821487,0.5504655241966248,-1.0197374820709229
1763697204259354000,7.99335400390625,0.08613648265600204,0.6258196830749512,-0.9744711518287659
1763697204269314300,8.003314208984374,0.09310810267925262,0.6658992171287537,-0.958695650100708
1763697204279275300,8.013275146484375,0.10424118489027023,0.6795327067375183,-0.9566154479980469
1763697204289236000,8.023236083984376,0.11579716950654984,0.6764045357704163,-0.9549919962882996
1763697204299196200,8.033196044921874,0.12506018579006195,0.6693839430809021,-0.9428423643112183
1763697204309157000,8.0431572265625,0.11851466447114944,0.6331431269645691,-0.9094764590263367
1763697204319118300,8.053118408203124,0.09645969420671463,0.5564728379249573,-0.8478423357009888
1763697204329079000,8.0630791015625,0.07123769074678421,0.44698548316955566,-0.7719180583953857
1763697204339039000,8.0730390625,0.04613686725497246,0.3409045934677124,-0.7097731828689575
1763697204349000200,8.083000244140624,0.0263567715883255,0.2862464189529419,-0.651767909526825
1763697204358961200,8.092961181640625,0.011272095143795013,0.2815603017807007,-0.5976498126983643
1763697204368922000,8.102922119140626,0.0043683829717338085,0.30255427956581116,-0.5470036864280701
1763697204378882000,8.112882080078125,-0.0006628608098253608,0.3308919072151184,-0.51480633020401
1763697204388843300,8.12284326171875,0.0068360683508217335,0.381918340921402,-0.4973165690898895
1763697204398804200,8.13280419921875,0.026987675577402115,0.43553921580314636,-0.46461135149002075
1763697204408764200,8.14276416015625,0.04098072275519371,0.4605678617954254,-0.4112887382507324
1763697204418725400,8.152725341796875,0.043347474187612534,0.46073779463768005,-0.3488229811191559
1763697204428686000,8.16268603515625,0.030353644862771034,0.47288525104522705,-0.2973576486110687
1763697204438647300,8.172647216796875,0.003641606541350484,0.5205747485160828,-0.2808718681335449
1763697204448607200,8.182607177734376,-0.028075309470295906,0.5556525588035583,-0.28588181734085083
1763697204458568200,8.192568115234375,-0.05920073762536049,0.5361233353614807,-0.29322201013565063
1763697204468529200,8.202529052734375,-0.09035412967205048,0.45962992310523987,-0.3037162125110626
1763697204478490400,8.212490478515624,-0.11787230521440506,0.361261785030365,-0.3233868479728699
1763697204488450300,8.2224501953125,-0.1350046843290329,0.2883356511592865,-0.33647575974464417
1763697204498411500,8.23241162109375,-0.14427675306797028,0.2381872683763504,-0.32798853516578674
1763697204508372200,8.242372314453124,-0.15137647092342377,0.19105783104896545,-0.30018407106399536
1763697204518333200,8.252333251953125,-0.15772251784801483,0.1495913565158844,-0.29169416427612305
1763697204528293400,8.26229345703125,-0.14558249711990356,0.13836240768432617,-0.3150743246078491
1763697204538254300,8.27225439453125,-0.13415300846099854,0.12839552760124207,-0.36211055517196655
1763697204548215300,8.28221533203125,-0.14457395672798157,0.12743811309337616,-0.4107353389263153
1763697204558175200,8.29217529296875,-0.17918626964092255,0.12511025369167328,-0.4510659873485565
1763697204568136200,8.30213623046875,-0.2283460944890976,0.10673336684703827,-0.4653349220752716
1763697204578097400,8.312097412109376,-0.26481008529663086,0.10241904854774475,-0.4671136438846588
1763697204588058000,8.32205810546875,-0.2968093156814575,0.1206585094332695,-0.45706743001937866
1763697204598018300,8.332018310546875,-0.3277973234653473,0.15039749443531036,-0.4520076811313629
1763697204607979300,8.341979248046876,-0.34772947430610657,0.17311106622219086,-0.47240322828292847
1763697204617940500,8.3519404296875,-0.3591959774494171,0.1844683736562729,-0.49958983063697815
1763697204627900400,8.361900390625,-0.36803075671195984,0.18751797080039978,-0.517719030380249
1763697204637861400,8.371861328125,-0.37725088000297546,0.1876780241727829,-0.5205049514770508
1763697204647822300,8.381822265625,-0.37661758065223694,0.1969311684370041,-0.5181374549865723
1763697204657783300,8.391783203125,-0.3656916916370392,0.20454461872577667,-0.5218738317489624
1763697204667743200,8.4017431640625,-0.34991511702537537,0.21125072240829468,-0.5383385419845581
1763697204677704400,8.411704345703125,-0.3388616740703583,0.22335878014564514,-0.5619935393333435
1763697204687665200,8.4216650390625,-0.322925865650177,0.24113965034484863,-0.5861974358558655
1763697204697626400,8.43162646484375,-0.3013761043548584,0.2679020166397095,-0.59736168384552
1763697204707586300,8.44158642578125,-0.27597272396087646,0.2925514280796051,-0.603272020816803
1763697204717547500,8.451547607421874,-0.24570271372795105,0.2995118796825409,-0.6011471152305603
1763697204727508200,8.46150830078125,-0.20561814308166504,0.2520380914211273,-0.5750361084938049
1763697204737468200,8.47146826171875,-0.15199965238571167,0.12770789861679077,-0.5259798765182495
1763697204747429400,8.481429443359374,-0.10614028573036194,-0.037334054708480835,-0.47766536474227905
1763697204757390300,8.491390380859375,-0.07991506904363632,-0.13893471658229828,-0.4465567171573639
1763697204767351300,8.501351318359376,-0.04544977471232414,-0.15255385637283325,-0.46124351024627686
1763697204777311200,8.511311279296875,0.001704689348116517,-0.06712577491998672,-0.4890429377555847
1763697204787272200,8.521272216796875,0.026623887941241264,0.06937853991985321,-0.4811786115169525
1763697204797233400,8.5312333984375,0.02292076125741005,0.20446552336215973,-0.4267193675041199
1763697204807194000,8.541194091796875,-0.009427856653928757,0.2948646545410156,-0.3720476031303406
1763697204817154300,8.551154296875,-0.07625482231378555,0.3276630938053131,-0.3326495885848999
1763697204827115300,8.561115234375,-0.16553090512752533,0.33930137753486633,-0.2935898005962372
1763697204837076500,8.571076416015625,-0.24403797090053558,0.33434656262397766,-0.25446850061416626
1763697204847036400,8.581036376953126,-0.29023635387420654,0.292072594165802,-0.2300931215286255
1763697204856997400,8.590997314453125,-0.3042307198047638,0.22291244566440582,-0.21304942667484283
1763697204866958300,8.600958251953125,-0.2977834939956665,0.15826793015003204,-0.19196970760822296
1763697204876919300,8.610919189453124,-0.2788630723953247,0.0957515612244606,-0.18077324330806732
1763697204886879200,8.620879150390625,-0.2611503601074219,0.004851746838539839,-0.18571500480175018
1763697204896840400,8.63084033203125,-0.2309623807668686,-0.08963613957166672,-0.18782715499401093
1763697204906801200,8.64080126953125,-0.19768884778022766,-0.12948529422283173,-0.17846374213695526
1763697204916762400,8.650762451171875,-0.16635648906230927,-0.10317032784223557,-0.17320959270000458
1763697204926722300,8.660722412109376,-0.15309394896030426,-0.03846030682325363,-0.1909150928258896
1763697204936683500,8.67068359375,-0.17611484229564667,0.025121064856648445,-0.2088184654712677
1763697204946644200,8.680644287109375,-0.22167646884918213,0.06601310521364212,-0.18447184562683105
1763697204956604200,8.690604248046874,-0.2794356346130371,0.06986217200756073,-0.11515028774738312
1763697204966565400,8.7005654296875,-0.32515838742256165,0.05049246922135353,-0.02177507057785988
1763697204976526300,8.7105263671875,-0.3488005995750427,0.034099381417036057,0.08965052664279938
1763697204986487300,8.7204873046875,-0.362788587808609,0.02280997484922409,0.20890368521213531
1763697204996447200,8.730447265625,-0.3746258020401001,0.016384299844503403,0.3280215561389923
1763697205006408200,8.740408203125,-0.36787840723991394,0.014839133247733116,0.4407379627227783
1763697205016369400,8.750369384765625,-0.3313792645931244,0.020122578367590904,0.546030580997467
1763697205026329300,8.760329345703125,-0.28871968388557434,0.03700728714466095,0.6421794891357422
1763697205036290300,8.770290283203124,-0.24583560228347778,0.06474544107913971,0.7164755463600159
1763697205046251300,8.780251220703125,-0.1975357085466385,0.08623102307319641,0.780651330947876
1763697205056212500,8.79021240234375,-0.14900626242160797,0.11211242526769638,0.8427528142929077
1763697205066172400,8.80017236328125,-0.10509712249040604,0.13938958942890167,0.9056550860404968
1763697205076133400,8.81013330078125,-0.07849614322185516,0.1767750382423401,0.9842692017555237
1763697205086094300,8.82009423828125,-0.059251073747873306,0.22617986798286438,1.087222695350647
1763697205096054300,8.83005419921875,-0.027844414114952087,0.28946590423583984,1.2193858623504639
1763697205106015200,8.84001513671875,0.02936534583568573,0.37861549854278564,1.3822612762451172
1763697205115976400,8.8499765625,0.12246253341436386,0.5039039254188538,1.5584142208099365
1763697205125937200,8.859937255859375,0.2505216896533966,0.63375324010849,1.7214196920394897
1763697205135897300,8.8698974609375,0.39546236395835876,0.7270237803459167,1.8504610061645508
1763697205145858300,8.8798583984375,0.5202935338020325,0.7485541105270386,1.9503902196884155
1763697205155819500,8.889819580078125,0.6322080492973328,0.7143564820289612,2.027839422225952
1763697205165779500,8.899779541015626,0.7298664450645447,0.64024418592453,2.0486247539520264
1763697205175740200,8.909740234375,0.8020650148391724,0.5220581293106079,2.0042693614959717
1763697205185701400,8.919701416015625,0.8443642854690552,0.3776223957538605,1.9134790897369385
1763697205195662300,8.929662353515624,0.8597421646118164,0.19818419218063354,1.8040852546691895
1763697205205622300,8.939622314453125,0.8389015793800354,0.009787383489310741,1.7254524230957031
1763697205215583200,8.949583251953126,0.7838394045829773,-0.11933012306690216,1.734115481376648
1763697205225544200,8.959544189453124,0.7123388648033142,-0.19197796285152435,1.8248858451843262
1763697205235505400,8.96950537109375,0.6485832929611206,-0.2799016833305359,1.9347114562988281
1763697205245465300,8.97946533203125,0.6273118257522583,-0.39745256304740906,1.9933267831802368
1763697205255426300,8.98942626953125,0.6484813094139099,-0.4640054702758789,2.0026917457580566
1763697205265387300,8.99938720703125,0.6898851990699768,-0.41682279109954834,1.9714233875274658
1763697205275347200,9.00934716796875,0.7500289678573608,-0.31505993008613586,1.9111504554748535
1763697205285308400,9.019308349609375,0.8382443189620972,-0.23099060356616974,1.8405705690383911
1763697205295269400,9.029269287109376,0.9459934234619141,-0.15826527774333954,1.7947518825531006
1763697205305230300,9.039230224609375,1.0531425476074219,-0.11761584877967834,1.7846777439117432
1763697205315190300,9.049190185546875,1.1415759325027466,-0.11525522172451019,1.8226351737976074
1763697205325151200,9.059151123046876,1.1700395345687866,-0.152496337890625,1.906795620918274
1763697205335112400,9.069112548828125,1.1342581510543823,-0.24100488424301147,2.0141587257385254
1763697205345072400,9.079072265625,1.0609722137451172,-0.3671007752418518,2.0910561084747314
1763697205355033300,9.089033447265624,0.9910250902175903,-0.4857083857059479,2.1045403480529785
1763697205364994300,9.098994384765625,0.943231463432312,-0.542976438999176,2.0730459690093994
1763697205374955500,9.10895556640625,0.9213296175003052,-0.5432619452476501,2.0315001010894775
1763697205384915500,9.11891552734375,0.9089912176132202,-0.5333816409111023,2.007154703140259
1763697205394876200,9.128876220703125,0.8907911777496338,-0.5526801943778992,2.0268893241882324
1763697205404837400,9.13883740234375,0.8666602373123169,-0.6165990233421326,2.0689477920532227
1763697205414797300,9.14879736328125,0.8282601237297058,-0.726542055606842,2.1053450107574463
1763697205424758300,9.15875830078125,0.771382212638855,-0.8349859714508057,2.1236660480499268
1763697205434719200,9.16871923828125,0.7208449840545654,-0.8550184965133667,2.099769353866577
1763697205444680200,9.17868017578125,0.68732088804245,-0.7888450622558594,2.033264636993408
1763697205454640400,9.188640380859376,0.6611419916152954,-0.7321447730064392,1.9583648443222046
1763697205464600800,9.198600830078124,0.6371322870254517,-0.7228900194168091,1.9050019979476929
1763697205474562000,9.20856201171875,0.5995614528656006,-0.721394419670105,1.882865309715271
1763697205484522000,9.21852197265625,0.5465893149375916,-0.7178196310997009,1.859336495399475
1763697205494482700,9.228482666015625,0.4929830729961395,-0.725508987903595,1.8131862878799438
1763697205504444000,9.23844384765625,0.4541834890842438,-0.7107862234115601,1.7361165285110474
1763697205514404900,9.24840478515625,0.43258363008499146,-0.6335777640342712,1.6276038885116577
1763697205524364800,9.25836474609375,0.41677433252334595,-0.48516297340393066,1.4959145784378052
1763697205534325800,9.26832568359375,0.393648236989975,-0.3142884373664856,1.3652538061141968
1763697205544286700,9.27828662109375,0.36050039529800415,-0.1726149171590805,1.241942048072815
1763697205554247000,9.288246826171875,0.3099892735481262,-0.12531611323356628,1.132027506828308
1763697205564207900,9.298207763671876,0.24563613533973694,-0.13716983795166016,1.0332270860671997
1763697205574168800,9.3081689453125,0.18503403663635254,-0.11284053325653076,0.9138261675834656
1763697205584129800,9.3181298828125,0.12801095843315125,-0.08710960298776627,0.7701883316040039
1763697205594089700,9.32808984375,0.06245778501033783,-0.09197360277175903,0.629266083240509
1763697205604051000,9.338051025390625,-0.0029529130551964045,-0.11033795773983002,0.5075593590736389
1763697205614011600,9.34801171875,-0.05241047590970993,-0.08607469499111176,0.3966922163963318
1763697205623971600,9.3579716796875,-0.06699314713478088,-0.001490571303293109,0.2931136190891266
1763697205633932800,9.367932861328125,-0.04712037369608879,0.05867556482553482,0.192749485373497
1763697205643893800,9.377893798828126,-0.04306944087147713,0.05312526971101761,0.10994488000869751
1763697205653854700,9.387854736328125,-0.05110659450292587,0.005920207127928734,0.0390523262321949
1763697205663814700,9.397814697265625,-0.04771345853805542,-0.03760543093085289,-0.03991306200623512
1763697205673775900,9.40777587890625,-0.02172633446753025,-0.023491211235523224,-0.14231932163238525
1763697205683736800,9.41773681640625,0.03314357250928879,0.0557229183614254,-0.26197195053100586
1763697205693696800,9.42769677734375,0.09770525246858597,0.1389826536178589,-0.38512372970581055
1763697205703658000,9.437657958984374,0.13650831580162048,0.19291992485523224,-0.4918925166130066
1763697205713618700,9.44761865234375,0.1453835666179657,0.21674029529094696,-0.5746747255325317
1763697205723580000,9.457579833984376,0.14477050304412842,0.23114587366580963,-0.6442828178405762
1763697205733539800,9.467539794921874,0.13625851273536682,0.23970739543437958,-0.7172284126281738
1763697205743500800,9.477500732421875,0.11729440093040466,0.2302561104297638,-0.7969269752502441
1763697205753461800,9.487461669921874,0.097739078104496,0.19997915625572205,-0.8930593729019165
1763697205763421700,9.497421630859375,0.08803585171699524,0.16505473852157593,-1.011842966079712
1763697205773383000,9.5073828125,0.09205882251262665,0.15126141905784607,-1.1473376750946045
1763697205783343900,9.51734375,0.10438046604394913,0.16339904069900513,-1.288814902305603
1763697205793304800,9.527304931640625,0.11100561171770096,0.18925967812538147,-1.414471983909607
1763697205803264800,9.5372646484375,0.10258922725915909,0.2143956571817398,-1.5055546760559082
1763697205813225700,9.547225830078125,0.07097990065813065,0.24398203194141388,-1.552627682685852
1763697205823187000,9.55718701171875,0.011063303798437119,0.2774382531642914,-1.538149118423462
1763697205833147000,9.56714697265625,-0.05525366961956024,0.2653491199016571,-1.4562287330627441
1763697205843107600,9.577107666015625,-0.1622600108385086,0.18392403423786163,-1.2195192575454712
1763697205853068800,9.58706884765625,-0.3487345576286316,0.13339507579803467,-0.6510038375854492
1763697205863029800,9.59702978515625,-0.5996402502059937,0.2892336845397949,0.287548691034317
1763697205872990000,9.606989990234375,-0.8364224433898926,0.5084089040756226,1.222895860671997
1763697205882950700,9.61695068359375,-0.8947667479515076,0.2702607810497284,1.4672781229019165
1763697205892911900,9.626911865234375,-0.7831326127052307,-0.14678624272346497,0.8469392657279968
1763697205902871800,9.636871826171875,-0.5768516063690186,-0.2723947763442993,0.0072746905498206615
1763697205912832800,9.646832763671876,-0.29660823941230774,-0.3587743937969208,-0.6270402073860168
1763697205922794000,9.6567939453125,-0.1263105273246765,-0.4642057418823242,-0.9848654866218567
1763697205932754000,9.66675390625,-0.18099747598171234,-0.509419322013855,-1.0416560173034668
1763697205942715000,9.67671484375,-0.39941397309303284,-0.49839434027671814,-0.909457266330719
1763697205952675800,9.68667578125,-0.6595161557197571,-0.5996309518814087,-0.7639469504356384
1763697205962636800,9.69663671875,-0.8040911555290222,-0.6351881623268127,-0.7413641214370728
1763697205972597000,9.706596923828124,-0.8105146884918213,-0.4498273432254791,-0.8776580691337585
1763697205982557700,9.7165576171875,-0.774602472782135,-0.17519046366214752,-1.0717750787734985
1763697205992519000,9.726518798828126,-0.6546577215194702,-0.009150621481239796,-1.2822015285491943
1763697206002478800,9.736478759765625,-0.42602774500846863,-0.007782289292663336,-1.49687659740448
1763697206012439800,9.746439697265625,-0.17482054233551025,-0.008957276120781898,-1.568921685218811
1763697206022400800,9.75640087890625,0.0022540995851159096,0.06320426613092422,-1.432317852973938
1763697206032361700,9.76636181640625,0.07094687968492508,0.06307137757539749,-1.2347735166549683
1763697206042322000,9.776322021484376,0.08118300139904022,0.012113654054701328,-1.1277872323989868
1763697206052283000,9.786282958984375,0.040526121854782104,-0.015838351100683212,-1.1045100688934326
1763697206062243600,9.79624365234375,-0.04141401872038841,-0.05119607597589493,-1.1573517322540283
1763697206072203800,9.806203857421876,-0.14558063447475433,-0.12434059381484985,-1.2457133531570435
1763697206082164700,9.816164794921875,-0.22954849898815155,-0.1884295642375946,-1.3117780685424805
1763697206092126000,9.8261259765625,-0.2757841646671295,-0.16332687437534332,-1.3472745418548584
1763697206102086000,9.8360859375,-0.2911008298397064,-0.04635604843497276,-1.3611259460449219
1763697206112046600,9.846046630859375,-0.28726693987846375,0.08918420225381851,-1.3711923360824585
1763697206122007800,9.8560078125,-0.2811850607395172,0.20220422744750977,-1.3948402404785156
1763697206131968800,9.86596875,-0.27625128626823425,0.3174160420894623,-1.4242053031921387
1763697206141929000,9.875928955078125,-0.26105397939682007,0.42225056886672974,-1.4558266401290894
1763697206151890000,9.885889892578126,-0.23612810671329498,0.4634092152118683,-1.4767006635665894
1763697206161851000,9.895850830078125,-0.20289506018161774,0.4678095281124115,-1.4708892107009888
1763697206171810800,9.905810791015625,-0.1734125316143036,0.4628286361694336,-1.4543362855911255
1763697206181771800,9.915771728515624,-0.15762931108474731,0.45095041394233704,-1.4502581357955933
1763697206191733000,9.92573291015625,-0.15022891759872437,0.4524974226951599,-1.472975730895996
1763697206201693700,9.935693603515626,-0.14708586037158966,0.4610142111778259,-1.5150291919708252
1763697206211653600,9.945653564453124,-0.14038480818271637,0.5020740628242493,-1.5513427257537842
1763697206221614800,9.95561474609375,-0.14636839926242828,0.5284835696220398,-1.592586874961853
1763697206231575800,9.965575927734376,-0.16988810896873474,0.5387462973594666,-1.6207404136657715
1763697206241536000,9.975535888671875,-0.2158481329679489,0.558279812335968,-1.6232752799987793
1763697206251496700,9.98549658203125,-0.27232447266578674,0.5926744937896729,-1.610237956047058
1763697206261458000,9.9954580078125,-0.318108469247818,0.6037449836730957,-1.5991238355636597
1763697206271417900,10.00541796875,-0.3395194709300995,0.5595594644546509,-1.5801082849502563
1763697206281378800,10.01537890625,-0.33999377489089966,0.45934122800827026,-1.550903558731079
1763697206291339800,10.02533984375,-0.3266982138156891,0.3290135860443115,-1.5012028217315674
1763697206301300700,10.03530078125,-0.3050379455089569,0.21636559069156647,-1.4486160278320312
1763697206311260700,10.0452607421875,-0.27894189953804016,0.12974920868873596,-1.393563985824585
1763697206321222000,10.055221923828125,-0.2513321042060852,0.07163077592849731,-1.3443291187286377
1763697206331182600,10.0651826171875,-0.22634738683700562,0.043058253824710846,-1.2953029870986938
1763697206341142800,10.075142822265626,-0.2058221399784088,0.05662865936756134,-1.2582919597625732
1763697206351103700,10.085103759765625,-0.18848548829555511,0.08204693347215652,-1.2306917905807495
1763697206361065000,10.09506494140625,-0.17057307064533234,0.09676782041788101,-1.1898287534713745
1763697206371025000,10.10502490234375,-0.14862781763076782,0.11245623975992203,-1.1343872547149658
1763697206380985900,10.11498583984375,-0.12237571179866791,0.1024177148938179,-1.0731606483459473
1763697206390946800,10.12494677734375,-0.09314326196908951,0.06131529062986374,-1.0227683782577515
1763697206400907800,10.13490771484375,-0.0768793374300003,0.02027757465839386,-0.9803926944732666
1763697206410868000,10.144867919921875,-0.07236581295728683,-0.00860494002699852,-0.9368659853935242
1763697206420829000,10.154828857421874,-0.07598264515399933,-0.017222929745912552,-0.883243203163147
1763697206430789600,10.16478955078125,-0.07509847730398178,-0.017675399780273438,-0.809118926525116
1763697206440749800,10.174749755859375,-0.06661178171634674,0.010631338693201542,-0.7203482985496521
1763697206450710800,10.184710693359374,-0.05337534099817276,0.0713956207036972,-0.6369482278823853
1763697206460672000,10.194672119140625,-0.039387885481119156,0.10936989635229111,-0.5528554320335388
1763697206470631400,10.20463134765625,-0.020679179579019547,0.10982316732406616,-0.48521676659584045
1763697206480592400,10.21459228515625,-0.00443922309204936,0.13224272429943085,-0.4379088878631592
1763697206490553300,10.22455322265625,-0.002588059986010194,0.15758882462978363,-0.4240322411060333
1763697206500514600,10.2345146484375,-0.016034893691539764,0.1629527062177658,-0.4212169945240021
1763697206510474500,10.244474609375,-0.0423559807240963,0.14974261820316315,-0.40742528438568115
1763697206520435500,10.254435546875,-0.08197076618671417,0.14282186329364777,-0.3845396935939789
1763697206530396400,10.264396484375,-0.12392008304595947,0.14212331175804138,-0.36698946356773376
1763697206540356400,10.2743564453125,-0.1557009071111679,0.15076687932014465,-0.36039572954177856
1763697206550317600,10.284317626953126,-0.1604248285293579,0.17250892519950867,-0.3722987174987793
1763697206560278500,10.294278564453125,-0.1376611888408661,0.19280913472175598,-0.3916359543800354
1763697206570238500,10.304238525390625,-0.09848902374505997,0.17797665297985077,-0.40466946363449097
1763697206580199400,10.314199462890626,-0.06423650681972504,0.09683147072792053,-0.40273839235305786
1763697206590160400,10.324160400390625,-0.026451580226421356,0.005878661759197712,-0.3948538303375244
1763697206600121600,10.33412158203125,0.006542587652802467,-0.031037811189889908,-0.3998139798641205
1763697206610081500,10.34408154296875,0.02646676078438759,-0.020531106740236282,-0.41781163215637207
1763697206620042500,10.35404248046875,0.03674443066120148,0.007452589925378561,-0.4348742365837097
1763697206630003500,10.36400341796875,0.01641705632209778,0.021565213799476624,-0.43375036120414734
1763697206639963400,10.37396337890625,-0.030397852882742882,0.03957270830869675,-0.42513105273246765
1763697206649924600,10.383924560546875,-0.07795977592468262,0.06981983035802841,-0.4154645800590515
1763697206659885300,10.39388525390625,-0.12427747994661331,0.10545238852500916,-0.409528911113739
1763697206669845500,10.403845458984375,-0.17209666967391968,0.1392335295677185,-0.40361616015434265
1763697206679806500,10.413806396484375,-0.22623980045318604,0.1669519692659378,-0.3962179124355316
1763697206689767400,10.423767333984374,-0.2734280824661255,0.20282500982284546,-0.3843863010406494
1763697206699728400,10.433728271484375,-0.306338369846344,0.2529739439487457,-0.3836565911769867
1763697206709688300,10.443688232421875,-0.3266145884990692,0.30179473757743835,-0.3906417787075043
1763697206719649500,10.4536494140625,-0.3429970443248749,0.33207380771636963,-0.3956615924835205
1763697206729610500,10.463610595703125,-0.3562563955783844,0.32380229234695435,-0.40358901023864746
1763697206739570400,10.4735703125,-0.36794421076774597,0.28723177313804626,-0.4076615273952484
1763697206749531400,10.483531494140625,-0.3874790072441101,0.2488953024148941,-0.4011088013648987
1763697206759492400,10.493492431640625,-0.4158531427383423,0.21630114316940308,-0.3936719298362732
1763697206769452500,10.50345263671875,-0.4343293607234955,0.1894620656967163,-0.3973236680030823
1763697206779413500,10.51341357421875,-0.4317876398563385,0.18556639552116394,-0.41282859444618225
1763697206789374500,10.52337451171875,-0.41433167457580566,0.20711323618888855,-0.4389198422431946
1763697206799335400,10.53333544921875,-0.38780418038368225,0.2357131838798523,-0.48425376415252686
1763697206809295400,10.54329541015625,-0.3500024676322937,0.2633642554283142,-0.5344687104225159
1763697206819256600,10.553256591796876,-0.30560067296028137,0.2959171533584595,-0.5729063749313354
1763697206829217500,10.563217529296875,-0.2612158954143524,0.32428672909736633,-0.5850546956062317
1763697206839177500,10.573177490234375,-0.2225678265094757,0.326444149017334,-0.559418797492981
1763697206849138400,10.583138427734376,-0.18106672167778015,0.26357677578926086,-0.4934097230434418
1763697206859099400,10.593099365234375,-0.13644546270370483,0.09680457413196564,-0.4079616665840149
1763697206869059600,10.6030595703125,-0.11104023456573486,-0.1246495172381401,-0.31834736466407776
1763697206879020500,10.6130205078125,-0.11243493109941483,-0.277240127325058,-0.23716780543327332
1763697206888981500,10.6229814453125,-0.11336464434862137,-0.29905965924263,-0.1879616528749466
1763697206898942500,10.6329423828125,-0.08620759099721909,-0.24013829231262207,-0.16062083840370178
1763697206908902400,10.64290234375,-0.04872998967766762,-0.15517866611480713,-0.14151957631111145
1763697206918863600,10.652863525390625,-0.0461411289870739,-0.10048293322324753,-0.12869246304035187
1763697206928824300,10.66282421875,-0.09883736073970795,-0.1173950657248497,-0.10282411426305771
1763697206938784300,10.6727841796875,-0.1803354173898697,-0.1810464859008789,-0.049499642103910446
1763697206948745500,10.682745361328125,-0.2892206311225891,-0.2735476493835449,0.02214711345732212
1763697206958706400,10.69270654296875,-0.3999042510986328,-0.3768807053565979,0.11452125012874603
1763697206968666600,10.70266650390625,-0.45760589838027954,-0.4324800372123718,0.23233389854431152
1763697206978627300,10.71262744140625,-0.452155739068985,-0.37829458713531494,0.3448471426963806
1763697206988588500,10.722588623046875,-0.40855687856674194,-0.270254909992218,0.4405962824821472
1763697206998548500,10.732548583984375,-0.33450183272361755,-0.22388581931591034,0.5224751830101013
1763697207008509400,10.742509521484376,-0.23645514249801636,-0.2669922709465027,0.6066899299621582
1763697207018470400,10.752470458984375,-0.14971093833446503,-0.3085586428642273,0.7068820595741272
1763697207028431400,10.762431396484375,-0.09255576878786087,-0.28382185101509094,0.8328388929367065
1763697207038391600,10.7723916015625,-0.05837009847164154,-0.2327115386724472,0.9669700860977173
1763697207048352500,10.7823525390625,-0.04290352389216423,-0.2292984277009964,1.0865130424499512
1763697207058313500,10.7923134765625,-0.050212305039167404,-0.2653760015964508,1.18660306930542
1763697207068273700,10.802273681640624,-0.08903426676988602,-0.2763887047767639,1.2829240560531616
1763697207078234400,10.812234375,-0.1268186718225479,-0.2377486377954483,1.383089303970337
1763697207088195600,10.822195556640626,-0.13075189292430878,-0.15302950143814087,1.514082908630371
1763697207098155500,10.832155517578125,-0.09101060032844543,-0.03509780019521713,1.6741656064987183
1763697207108116500,10.842116455078125,0.0006319681415334344,0.07784872502088547,1.831091284751892
1763697207118077400,10.852077392578124,0.12336720526218414,0.21215513348579407,1.961842656135559
1763697207128037400,10.862037353515625,0.25722140073776245,0.3867591619491577,2.0682058334350586
1763697207137998600,10.87199853515625,0.3843972086906433,0.5779283046722412,2.160884380340576
1763697207147959600,10.88195947265625,0.4864040017127991,0.7155967354774475,2.2183289527893066
1763697207157920300,10.891920166015625,0.5692533254623413,0.7602371573448181,2.2162883281707764
1763697207167880400,10.90188037109375,0.6264122128486633,0.7096099257469177,2.1553847789764404
1763697207177841400,10.91184130859375,0.6558550596237183,0.5896134972572327,2.0356318950653076
1763697207187802600,10.921802734375,0.6444596648216248,0.45218876004219055,1.904028058052063
1763697207197762600,10.931762451171876,0.6124940514564514,0.3173401355743408,1.7914767265319824
1763697207207723300,10.94172314453125,0.5695005059242249,0.16422276198863983,1.720371961593628
1763697207217684500,10.9516845703125,0.5426398515701294,0.023152723908424377,1.7017103433609009
1763697207227644400,10.96164453125,0.55253005027771,-0.06298375874757767,1.7139146327972412
1763697207237605600,10.971605712890625,0.593326985836029,-0.05169089138507843,1.7298113107681274
1763697207247566300,10.98156640625,0.6717061996459961,0.0002790992730297148,1.7148810625076294
1763697207257526300,10.9915263671875,0.7889872789382935,0.0057191383093595505,1.676872730255127
1763697207267487500,11.001487548828125,0.9383165836334229,-0.04164651408791542,1.646177887916565
1763697207277448400,11.011448486328124,1.0782628059387207,-0.08584992587566376,1.651469111442566
1763697207287408600,11.02140869140625,1.1885226964950562,-0.08444750308990479,1.7006006240844727
1763697207297369600,11.03136962890625,1.2550711631774902,-0.058516040444374084,1.7703744173049927
1763697207307330300,11.041330322265624,1.2631324529647827,-0.10042966902256012,1.8562331199645996
1763697207317291500,11.05129150390625,1.2092937231063843,-0.24507392942905426,1.9565373659133911
1763697207327251500,11.06125146484375,1.103351354598999,-0.4183080494403839,2.05716872215271
1763697207337212700,11.071212646484375,0.9789750576019287,-0.621882975101471,2.121328592300415
1763697207347173400,11.08117333984375,0.8705759048461914,-0.8030522465705872,2.1533892154693604
1763697207357133300,11.09113330078125,0.7955669164657593,-0.9097493886947632,2.1757867336273193
1763697207367094500,11.101094482421875,0.7614126801490784,-0.9742578268051147,2.198688268661499
1763697207377055500,11.111055419921875,0.7564259171485901,-1.0127418041229248,2.231721878051758
1763697207387015700,11.121015625,0.764735221862793,-1.0285309553146362,2.2744359970092773
1763697207396976400,11.130976318359375,0.7736014127731323,-1.016017198562622,2.3038580417633057
1763697207406937300,11.140937255859376,0.7751761674880981,-0.9705173969268799,2.2892093658447266
1763697207416897500,11.1508974609375,0.7574298977851868,-0.876215934753418,2.2380857467651367
1763697207426858500,11.1608583984375,0.7152305245399475,-0.7735297679901123,2.1648919582366943
1763697207436819500,11.1708193359375,0.6472525596618652,-0.7029168605804443,2.085559368133545
1763697207446779400,11.180779296875,0.567107081413269,-0.690018355846405,2.0118234157562256
1763697207456740400,11.190740234375,0.4898541271686554,-0.7551292181015015,1.9439496994018555
1763697207466702600,11.20070263671875,0.428837388753891,-0.7902006506919861,1.865638017654419
1763697207476663600,11.21066357421875,0.38518044352531433,-0.736260175704956,1.7609771490097046
1763697207486623500,11.22062353515625,0.3513476550579071,-0.6060084104537964,1.6272183656692505
1763697207496584700,11.230584716796875,0.3241112232208252,-0.46725693345069885,1.465511679649353
1763697207506545700,11.240545654296875,0.28983235359191895,-0.3665772080421448,1.2885552644729614
1763697207516505600,11.250505615234376,0.2534447908401489,-0.2711300253868103,1.117841362953186
1763697207526466600,11.260466552734375,0.22227834165096283,-0.1444610357284546,0.95809006690979
1763697207536427500,11.270427490234376,0.20243513584136963,-0.02225630357861519,0.807475209236145
1763697207546387700,11.2803876953125,0.19229380786418915,0.006716492120176554,0.6632016897201538
1763697207556348700,11.2903486328125,0.18526439368724823,0.003510579001158476,0.519438624382019
1763697207566309600,11.3003095703125,0.17740115523338318,0.013923805207014084,0.37209099531173706
1763697207576269600,11.31026953125,0.16172631084918976,0.038289330899715424,0.2391848862171173
1763697207586230500,11.32023046875,0.13729314506053925,0.07326196134090424,0.12511476874351501
1763697207596191700,11.330191650390624,0.12453420460224152,0.08179579675197601,0.02286936342716217
1763697207606151700,11.340151611328125,0.1279638260602951,0.09754413366317749,-0.0764460414648056
1763697207616112600,11.350112548828125,0.1468203365802765,0.12321993708610535,-0.17645172774791718
1763697207626073600,11.360073486328124,0.16056330502033234,0.1355825960636139,-0.28088411688804626
1763697207636033500,11.370033447265625,0.1589595526456833,0.13921062648296356,-0.3687833547592163
1763697207645994800,11.379994873046876,0.155708909034729,0.12206731736660004,-0.44266292452812195
1763697207655955500,11.38995556640625,0.1599193662405014,0.13037025928497314,-0.5149043202400208
1763697207665916700,11.399916748046875,0.178927943110466,0.20119649171829224,-0.5916510820388794
1763697207675876600,11.409876708984376,0.1916533261537552,0.23384152352809906,-0.663936972618103
1763697207685837600,11.419837646484375,0.18258339166641235,0.19707125425338745,-0.729084312915802
1763697207695798500,11.429798583984375,0.16710244119167328,0.16444087028503418,-0.8217974305152893
1763697207705758500,11.439758544921874,0.16711708903312683,0.16352474689483643,-0.9476970434188843
1763697207715719700,11.4497197265625,0.176873579621315,0.17349456250667572,-1.0969027280807495
1763697207725680600,11.4596806640625,0.16610828042030334,0.1717507243156433,-1.2505693435668945
1763697207735640600,11.469640625,0.14255449175834656,0.17488420009613037,-1.3702517747879028
1763697207745601500,11.4796015625,0.11464535444974899,0.25112012028694153,-1.3364263772964478
1763697207755562500,11.4895625,0.11708374321460724,0.3550228178501129,-1.0810811519622803
1763697207765522700,11.499522705078125,0.09746024012565613,0.37445083260536194,-0.5532434582710266
1763697207775483600,11.509483642578125,0.016219982877373695,0.36696016788482666,0.09914735704660416
1763697207785444600,11.519444580078124,-0.0888180211186409,0.18735738098621368,0.5783959627151489
1763697207795404800,11.52940478515625,-0.17316965758800507,-0.16005171835422516,0.7106512188911438
1763697207805365500,11.539365478515625,-0.2764819264411926,-0.2828596532344818,0.5708168745040894
1763697207815326700,11.54932666015625,-0.4137393832206726,-0.3119320571422577,0.4155447483062744
1763697207825286700,11.55928662109375,-0.4984545409679413,-0.26383963227272034,0.2878301739692688
1763697207835247600,11.56924755859375,-0.5818482041358948,-0.08267250657081604,0.10962370038032532
1763697207845208600,11.57920849609375,-0.6581469774246216,0.1212763637304306,-0.10618822276592255
1763697207855168500,11.58916845703125,-0.7639740705490112,0.20607486367225647,-0.3001244068145752
1763697207865129700,11.599129638671876,-0.9269638061523438,0.13512426614761353,-0.41078248620033264
1763697207875090700,11.609090576171875,-1.1150532960891724,0.07848948240280151,-0.36197417974472046
1763697207885051400,11.619051513671875,-1.2458478212356567,0.21882475912570953,-0.2223276048898697
1763697207895011600,11.629011474609374,-1.2251653671264648,0.5160892009735107,-0.1405390053987503
1763697207904972500,11.63897265625,-1.0727609395980835,0.6835218667984009,-0.22279499471187592
1763697207914933800,11.648933837890626,-0.8628868460655212,0.5058724880218506,-0.49147093296051025
1763697207924893700,11.658893798828124,-0.6495481729507446,0.03664296492934227,-0.8171214461326599
1763697207934854400,11.6688544921875,-0.516671359539032,-0.4296107590198517,-0.9388918280601501
1763697207944815600,11.678815673828124,-0.4908868968486786,-0.5367699861526489,-0.8165267705917358
1763697207954775600,11.688775634765625,-0.4614270031452179,-0.39988163113594055,-0.7080053687095642
1763697207964736800,11.69873681640625,-0.3641909956932068,-0.2362801730632782,-0.7830569744110107
1763697207974697500,11.708697509765624,-0.2435884177684784,-0.11475401371717453,-0.9845205545425415
1763697207984657400,11.718657470703125,-0.13822712004184723,-0.06090676039457321,-1.1621371507644653
1763697207994618600,11.72861865234375,-0.06537900865077972,-0.022363895550370216,-1.224750280380249
1763697208004579600,11.73857958984375,-0.03948349505662918,-0.0010138654615730047,-1.1940889358520508
1763697208014539800,11.748539794921875,-0.038663238286972046,0.008461128920316696,-1.2329179048538208
1763697208024500700,11.758500732421876,-0.04387744143605232,0.02563958242535591,-1.346177577972412
1763697208034461400,11.76846142578125,-0.065144382417202,0.06179305911064148,-1.4268484115600586
1763697208044421600,11.778421630859375,-0.09950502216815948,0.13308268785476685,-1.4316354990005493
1763697208054382600,11.788382568359374,-0.14049772918224335,0.17733749747276306,-1.4227485656738281
1763697208064343800,11.79834375,-0.17740140855312347,0.16992245614528656,-1.425678014755249
1763697208074304500,11.808304443359376,-0.19363631308078766,0.1281324028968811,-1.411490797996521
1763697208084264400,11.818264404296874,-0.18880027532577515,0.10338950902223587,-1.3577274084091187
1763697208094225700,11.8282255859375,-0.165181502699852,0.09382636100053787,-1.289627194404602
1763697208104186600,11.8381865234375,-0.128736674785614,0.08492261171340942,-1.247413158416748
1763697208114146800,11.848146728515625,-0.08022665977478027,0.09789913147687912,-1.2343666553497314
1763697208124107500,11.858107421875,-0.03032541461288929,0.13916374742984772,-1.2496651411056519
1763697208134068500,11.868068359375,0.010433199815452099,0.17209745943546295,-1.2994606494903564
1763697208144028700,11.878028564453125,0.026148779317736626,0.19923508167266846,-1.3588427305221558
1763697208153989600,11.88798974609375,0.0062067629769444466,0.22218966484069824,-1.3969509601593018
1763697208163950600,11.89795068359375,-0.027299530804157257,0.25108015537261963,-1.4175649881362915
1763697208173910500,11.90791064453125,-0.060744840651750565,0.33250951766967773,-1.4242169857025146
1763697208183871500,11.91787158203125,-0.08911522477865219,0.3897440433502197,-1.4423118829727173
1763697208193832700,11.927832763671875,-0.11183332651853561,0.430784672498703,-1.453941822052002
1763697208203792600,11.937792724609375,-0.12737366557121277,0.4956371784210205,-1.449596881866455
1763697208213753600,11.947753662109376,-0.14844273030757904,0.5735756754875183,-1.4436314105987549
1763697208223714600,11.957714599609375,-0.18259218335151672,0.6488328576087952,-1.4386463165283203
1763697208233674500,11.967674560546875,-0.22412312030792236,0.728198766708374,-1.4379634857177734
1763697208243635700,11.9776357421875,-0.2514151930809021,0.8049771785736084,-1.4543977975845337
1763697208253596700,11.9875966796875,-0.2539856731891632,0.8572412133216858,-1.4962552785873413
1763697208263556600,11.997556640625,-0.24504438042640686,0.870533287525177,-1.5396127700805664
1763697208273517600,12.007517578125,-0.23020896315574646,0.8282931447029114,-1.5473921298980713
1763697208283478500,12.017478515625,-0.21211332082748413,0.7336350679397583,-1.5093798637390137
1763697208293438700,12.027438720703126,-0.19431860744953156,0.6149835586547852,-1.4471161365509033
1763697208303399700,12.037399658203125,-0.18442204594612122,0.49721455574035645,-1.3888301849365234
1763697208313360600,12.047360595703125,-0.1830664873123169,0.40028029680252075,-1.3447238206863403
1763697208323320600,12.057320556640626,-0.1905507743358612,0.34623995423316956,-1.2980787754058838
1763697208333281500,12.067281494140625,-0.19929206371307373,0.30297479033470154,-1.2572647333145142
1763697208343242800,12.07724267578125,-0.21154527366161346,0.2503957152366638,-1.2195866107940674
1763697208353202700,12.08720263671875,-0.2222229540348053,0.19433672726154327,-1.1833841800689697
1763697208363163600,12.09716357421875,-0.22278434038162231,0.1357937902212143,-1.1396307945251465
1763697208373124600,12.10712451171875,-0.20926932990550995,0.08281418681144714,-1.0877140760421753
1763697208383085600,12.11708544921875,-0.1971476823091507,0.033555563539266586,-1.0368047952651978
1763697208393045800,12.127045654296875,-0.18347075581550598,-0.0006639260682277381,-1.00232994556427
1763697208403006500,12.13700634765625,-0.17796041071414948,-0.031389880925416946,-0.9630634784698486
1763697208412967700,12.1469677734375,-0.17792019248008728,-0.015137674286961555,-0.9198734164237976
1763697208422927600,12.156927734375,-0.18068403005599976,0.025833994150161743,-0.8875860571861267
1763697208432888600,12.166888671875,-0.1812685877084732,0.06064896658062935,-0.8555846810340881
1763697208442849500,12.176849609375,-0.17703843116760254,0.09061592072248459,-0.8102906942367554
1763697208452809500,12.1868095703125,-0.16455219686031342,0.1193104162812233,-0.771375298500061
1763697208462770700,12.196770751953125,-0.15024729073047638,0.13298813998699188,-0.7288888096809387
1763697208472731400,12.2067314453125,-0.13296550512313843,0.1481444537639618,-0.6822741627693176
1763697208482691300,12.21669140625,-0.10739942640066147,0.16989529132843018,-0.6221565008163452
1763697208492652500,12.226652587890625,-0.07917844504117966,0.18076658248901367,-0.5491150617599487
1763697208502613200,12.23661328125,-0.05928249657154083,0.1672680824995041,-0.4840332567691803
1763697208512573200,12.2465732421875,-0.05349837988615036,0.13035614788532257,-0.45190194249153137
1763697208522534400,12.256534423828125,-0.056474994868040085,0.13044482469558716,-0.45410066843032837
1763697208532495400,12.266495361328126,-0.059060122817754745,0.1751483827829361,-0.46487605571746826
1763697208542455300,12.276455322265624,-0.07173304259777069,0.21827881038188934,-0.45291340351104736
1763697208552416300,12.286416259765625,-0.07802955061197281,0.23830817639827728,-0.4181024432182312
1763697208562377200,12.296377197265626,-0.08663689345121384,0.2304912656545639,-0.38361743092536926
1763697208572337400,12.30633740234375,-0.09055093675851822,0.2120789736509323,-0.381471186876297
1763697208582298400,12.31629833984375,-0.09451132267713547,0.20068755745887756,-0.4115462601184845
1763697208592259300,12.32625927734375,-0.08795036375522614,0.15961389243602753,-0.43977925181388855
