time,seconds_elapsed,z,y,x
1763698892839420000,0.211419921875,0.0003994623839389533,-0.29240646958351135,0.09959928691387177
1763698892879459000,0.251458984375,0.0185084231197834,-0.4371449947357178,0.39347043633461
1763698892889460700,0.261460693359375,0.02489982172846794,-0.4360797703266144,0.5181027054786682
1763698892899480300,0.271480224609375,0.01637795753777027,-0.4360797703266144,0.6459306478500366
1763698892909444600,0.281444580078125,-0.000665770610794425,-0.38814428448677063,0.7460625767707825
1763698892919490300,0.291490234375,-0.02729659713804722,-0.3306216895580292,0.7897371053695679
1763698892929489200,0.3014892578125,-0.04753602296113968,-0.2870802879333496,0.7694976925849915
1763698892939495200,0.3114951171875,-0.04966649040579796,-0.24873191118240356,0.7098446488380432
1763698892949497000,0.3214970703125,-0.04114462435245514,-0.19653549790382385,0.6342130899429321
1763698892959512300,0.33151220703125,-0.04434032365679741,-0.18481792509555817,0.5500596761703491
1763698892969519600,0.34151953125,-0.06884068250656128,-0.24021004140377045,0.49040666222572327
1763698892979527200,0.351527099609375,-0.09973244369029999,-0.29347169399261475,0.4978632926940918
1763698892989534500,0.361534423828125,-0.13381989300251007,-0.31038227677345276,0.6022561192512512
1763698892999529000,0.371529052734375,-0.16577689349651337,-0.2764279842376709,0.7758890986442566
1763698893009531000,0.38153076171875,-0.2041252851486206,-0.23168818652629852,0.9525846242904663
1763698893019550000,0.391550048828125,-0.27443066239356995,-0.19866596162319183,1.092130184173584
1763698893029559000,0.40155908203125,-0.35738566517829895,-0.21784014999866486,1.1794792413711548
1763698893039562000,0.41156201171875,-0.394668847322464,-0.2902759909629822,1.1890664100646973
1763698893049568500,0.421568603515625,-0.40106022357940674,-0.4158403277397156,1.1198261976242065
1763698893059570400,0.4315703125,-0.3808208107948303,-0.5085155963897705,1.0037158727645874
1763698893069575200,0.4415751953125,-0.3211677670478821,-0.46058014035224915,0.8579120635986328
1763698893079583000,0.4515830078125,-0.24247366189956665,-0.35405683517456055,0.6864095330238342
1763698893089588700,0.461588623046875,-0.15725502371788025,-0.2348838746547699,0.48081955313682556
1763698893099595000,0.471594970703125,-0.0667102187871933,-0.09959928691387177,0.25831902027130127
1763698893109600800,0.481600830078125,0.02809552103281021,0.032489608973264694,0.043141938745975494
1763698893119603700,0.491603759765625,0.10692276805639267,0.1496652364730835,-0.14327384531497955
1763698893129608200,0.501608154296875,0.1569887101650238,0.23594911396503448,-0.29347169399261475
1763698893139613200,0.51161328125,0.1687062829732895,0.26257994771003723,-0.39879661798477173
1763698893149618000,0.521617919921875,0.15379302203655243,0.20825305581092834,-0.4456668794155121
1763698893159646200,0.531646240234375,0.11970555782318115,0.11025162041187286,-0.4371449947357178
1763698893169661000,0.541660888671875,0.08668334037065506,0.017576344311237335,-0.4009270668029785
1763698893179647000,0.55164697265625,0.06750914454460144,-0.062316130846738815,-0.3583177626132965
1763698893189649400,0.5616494140625,0.07922670245170593,-0.11344731599092484,-0.33168694376945496
1763698893199663900,0.571663818359375,0.11757509410381317,-0.14327384531497955,-0.3284912407398224
1763698893209671700,0.581671630859375,0.16551057994365692,-0.14540430903434753,-0.350861132144928
1763698893219692000,0.591692138671875,0.20385897159576416,-0.13368675112724304,-0.37749195098876953
1763698893229700900,0.601700927734375,0.22622886300086975,-0.1070559173822403,-0.38388335704803467
1763698893239716400,0.61171630859375,0.22729410231113434,-0.08149032294750214,-0.350861132144928
1763698893249726000,0.621725830078125,0.20811989903450012,-0.061250898987054825,-0.2796236574649811
1763698893259725800,0.631725830078125,0.16977150738239288,-0.061250898987054825,-0.1805569976568222
1763698893269734400,0.641734375,0.13142313063144684,-0.06764229387044907,-0.08362079411745071
1763698893279735600,0.651735595703125,0.10798799991607666,-0.0846860259771347,-0.01438064593821764
1763698893289743400,0.661743408203125,0.11331415921449661,-0.1272953450679779,0.018641578033566475
1763698893299743000,0.671742919921875,0.17296721041202545,-0.1805569976568222,0.048468101769685745
1763698893309749800,0.681749755859375,0.25605538487434387,-0.2125139832496643,0.09853405505418777
1763698893319764500,0.691764404296875,0.31983622908592224,-0.2252967804670334,0.16351327300071716
1763698893329772300,0.701772216796875,0.345401793718338,-0.2146444469690323,0.24340574443340302
1763698893339750000,0.71175,0.34114086627960205,-0.15712186694145203,0.32316505908966064
1763698893349754600,0.721754638671875,0.3134448230266571,-0.0846860259771347,0.3711005449295044
1763698893359763000,0.731762939453125,0.2762948274612427,-0.006924014538526535,0.35299158096313477
1763698893369768000,0.741767822265625,0.23475073277950287,0.061250898987054825,0.26151469349861145
1763698893379794700,0.751794677734375,0.19427187740802765,0.1272953450679779,0.1166430190205574
1763698893389802000,0.761802001953125,0.14953207969665527,0.18801362812519073,-0.051663801074028015
1763698893399823400,0.7718232421875,0.10798799991607666,0.22742724418640137,-0.21784014999866486
1763698893409832000,0.78183203125,0.07283531129360199,0.2338186502456665,-0.3402087986469269
1763698893419816700,0.791816650390625,0.05472634732723236,0.22955772280693054,-0.4030575454235077
1763698893429823000,0.801822998046875,0.04940018057823181,0.19440503418445587,-0.4158403277397156
1763698893439844000,0.811843994140625,0.05259587988257408,0.12516488134860992,-0.389209508895874
1763698893449852000,0.821851806640625,0.05898727849125862,0.06870753318071365,-0.3284912407398224
1763698893459844000,0.831843994140625,0.05792204663157463,0.032489608973264694,-0.2540580630302429
1763698893469850000,0.84185009765625,0.05366111174225807,0.00585878174751997,-0.18375270068645477
1763698893479872000,0.8518720703125,0.0504654161632061,0.0047935484908521175,-0.1262301206588745
1763698893489879800,0.8618798828125,0.05579157918691635,0.026098208501935005,-0.08149032294750214
1763698893499885800,0.8718857421875,0.07070484012365341,0.06551183015108109,-0.051663801074028015
1763698893509893400,0.881893310546875,0.0824224054813385,0.10279498994350433,-0.035685304552316666
1763698893519898600,0.891898681640625,0.09627043455839157,0.13262151181697845,-0.036750540137290955
1763698893529906000,0.901906005859375,0.11544463038444519,0.1486000120639801,-0.053794268518686295
1763698893539909000,0.9119091796875,0.1367492824792862,0.16457849740982056,-0.07722939550876617
1763698893549916200,0.921916259765625,0.1559234857559204,0.16777420043945312,-0.1059906855225563
1763698893559924000,0.931924072265625,0.16977150738239288,0.15712186694145203,-0.12409964948892593
1763698893569931000,0.941930908203125,0.17509767413139343,0.15392617881298065,-0.11983871459960938
1763698893579937800,0.951937744140625,0.17509767413139343,0.15286093950271606,-0.0964035913348198
1763698893589944600,0.961944580078125,0.16977150738239288,0.14114338159561157,-0.058055199682712555
1763698893599949000,0.971948974609375,0.1580539494752884,0.11983871459960938,-0.0079892473295331
1763698893609955800,0.981955810546875,0.1452711522579193,0.10066451877355576,0.034620072692632675
1763698893619952600,0.99195263671875,0.1367492824792862,0.08362079411745071,0.055924732238054276
1763698893629958400,1.00195849609375,0.13248835504055023,0.059120431542396545,0.052729032933712006
1763698893639979000,1.01197900390625,0.13035789132118225,0.050598569214344025,0.041011471301317215
1763698893649986300,1.021986328125,0.11970555782318115,0.0644465982913971,0.023967742919921875
1763698893659990300,1.031990234375,0.10053136944770813,0.06870753318071365,0.00905448105186224
1763698893669997300,1.041997314453125,0.07603100687265396,0.06870753318071365,-0.0005326165119186044
1763698893680007000,1.0520068359375,0.05366111174225807,0.06764229387044907,0.0037283156998455524
1763698893690014200,1.06201416015625,0.03448691964149475,0.0633813664317131,0.032489608973264694
1763698893700014600,1.0720146484375,0.02063889056444168,0.07935985922813416,0.08149032294750214
1763698893710021000,1.082021240234375,0.00359516148455441,0.1070559173822403,0.12516488134860992
1763698893720022000,1.09202197265625,-0.004926702938973904,0.14327384531497955,0.14540430903434753
1763698893730028000,1.102028076171875,0.0025299284607172012,0.15712186694145203,0.13581721484661102
1763698893740048400,1.11204833984375,0.01637795753777027,0.1283605843782425,0.12090394645929337
1763698893750055700,1.1220556640625,0.02276935614645481,0.07296846061944962,0.11557777971029282
1763698893760062700,1.132062744140625,0.02596505545079708,0.012250179424881935,0.12516488134860992
1763698893770070000,1.142070068359375,0.03129122033715248,-0.026098208501935005,0.14540430903434753
1763698893780065800,1.152065673828125,0.04194355010986328,-0.039946239441633224,0.15712186694145203
1763698893790072000,1.162072021484375,0.05153064802289009,-0.042076703161001205,0.14327384531497955
1763698893800087300,1.17208740234375,0.06218297779560089,-0.042076703161001205,0.10066451877355576
1763698893810094300,1.18209423828125,0.06644391268491745,-0.044207170605659485,0.031424373388290405
1763698893820102700,1.1921025390625,0.06324820965528488,-0.08255556225776672,-0.044207170605659485
1763698893830110000,1.20210986328125,0.0504654161632061,-0.1177082508802414,-0.08681648969650269
1763698893840115000,1.212114990234375,0.03448691964149475,-0.12090394645929337,-0.08894696086645126
1763698893850122000,1.2221220703125,0.02276935614645481,-0.09959928691387177,-0.07083799690008163
1763698893860131300,1.23213134765625,0.007856093347072601,-0.07935985922813416,-0.061250898987054825
1763698893870138600,1.242138671875,-0.005991935729980469,-0.08255556225776672,-0.07616416364908218
1763698893880144600,1.25214453125,-0.015579032711684704,-0.13155627250671387,-0.10812114924192429
1763698893890151700,1.262151611328125,-0.014513799920678139,-0.19760072231292725,-0.14433906972408295
1763698893900163000,1.2721630859375,-0.008122402243316174,-0.24873191118240356,-0.1816222369670868
1763698893910170600,1.282170654296875,-0.000665770610794425,-0.26257994771003723,-0.21570968627929688
1763698893920169200,1.292169189453125,-0.0027962366584688425,-0.20931829512119293,-0.25192761421203613
1763698893930175700,1.30217578125,-0.01770949922502041,-0.14327384531497955,-0.3061213493347168
1763698893940187000,1.312186767578125,-0.03581846132874489,-0.08149032294750214,-0.3711005449295044
1763698893950194200,1.322194091796875,-0.06777545064687729,-0.043141938745975494,-0.42968836426734924
1763698893960181000,1.332180908203125,-0.12423279881477356,-0.054859500378370285,-0.4531235098838806
1763698893970186000,1.34218603515625,-0.18069015443325043,-0.06551183015108109,-0.435014545917511
1763698893980209700,1.352209716796875,-0.21797330677509308,-0.06657706201076508,-0.38494858145713806
1763698893990216400,1.362216552734375,-0.24247366189956665,-0.07829462736845016,-0.3263607621192932
1763698894000228000,1.37222802734375,-0.24993029236793518,-0.09959928691387177,-0.27110180258750916
1763698894010235400,1.3822353515625,-0.2488650679588318,-0.12409964948892593,-0.23168818652629852
1763698894020238600,1.392238525390625,-0.24140843749046326,-0.16138280928134918,-0.20931829512119293
1763698894030245600,1.40224560546875,-0.22436471283435822,-0.18481792509555817,-0.20505735278129578
1763698894040237600,1.412237548828125,-0.21264714002609253,-0.17310036718845367,-0.22636201977729797
1763698894050242800,1.422242919921875,-0.21903854608535767,-0.13368675112724304,-0.2742975056171417
1763698894060254500,1.43225439453125,-0.23288656771183014,-0.08042509108781815,-0.33168694376945496
1763698894070260500,1.442260498046875,-0.2382127344608307,-0.035685304552316666,-0.370035320520401
1763698894080273000,1.45227294921875,-0.24034319818019867,-0.015445878729224205,-0.3902747631072998
1763698894090279700,1.46227978515625,-0.24034319818019867,-0.029293907806277275,-0.3902747631072998
1763698894100284700,1.47228466796875,-0.23501703143119812,-0.061250898987054825,-0.370035320520401
1763698894110291200,1.482291259765625,-0.22116900980472565,-0.09320788830518723,-0.33275216817855835
1763698894120300000,1.492300048828125,-0.20945143699645996,-0.12516488134860992,-0.29347169399261475
1763698894130306600,1.502306640625,-0.2062557488679886,-0.15286093950271606,-0.24127528071403503
1763698894140313600,1.512313720703125,-0.20945143699645996,-0.14540430903434753,-0.17523083090782166
1763698894150320400,1.5223203125,-0.2158428430557251,-0.1166430190205574,-0.11344731599092484
1763698894160322600,1.532322509765625,-0.21264714002609253,-0.10386022180318832,-0.07296846061944962
1763698894170328800,1.542328857421875,-0.20199480652809143,-0.08681648969650269,-0.07083799690008163
1763698894180328700,1.55232861328125,-0.1828206181526184,-0.056989967823028564,-0.10492545366287231
1763698894190334200,1.562334228515625,-0.15938548743724823,-0.028228675946593285,-0.15712186694145203
1763698894200360700,1.572360595703125,-0.14873315393924713,0.0047935484908521175,-0.20079642534255981
1763698894210368500,1.582368408203125,-0.14873315393924713,0.037815771996974945,-0.21890538930892944
1763698894220344600,1.592344482421875,-0.15618979930877686,0.047402869910001755,-0.2146444469690323
1763698894230349000,1.60234912109375,-0.16471165418624878,0.027163442224264145,-0.19760072231292725
1763698894240388900,1.612388916015625,-0.16577689349651337,-0.0005326165119186044,-0.18268746137619019
1763698894250397200,1.622397216796875,-0.16045072674751282,-0.025032976642251015,-0.18268746137619019
1763698894260403500,1.632403564453125,-0.14979839324951172,-0.034620072692632675,-0.1922745555639267
1763698894270411300,1.642411376953125,-0.13488513231277466,-0.020772043615579605,-0.20079642534255981
1763698894280388400,1.652388427734375,-0.12423279881477356,0.00585878174751997,-0.2114487588405609
1763698894290393000,1.66239306640625,-0.11464570462703705,0.028228675946593285,-0.2114487588405609
1763698894300396000,1.67239599609375,-0.1093195378780365,0.048468101769685745,-0.19440503418445587
1763698894310400500,1.682400390625,-0.1093195378780365,0.07296846061944962,-0.16777420043945312
1763698894320445700,1.69244580078125,-0.10825430601835251,0.07083799690008163,-0.14646953344345093
1763698894330454300,1.702454345703125,-0.10718907415866852,0.060185667127370834,-0.11238208413124084
1763698894340441300,1.71244140625,-0.1295589655637741,0.032489608973264694,-0.0644465982913971
1763698894350447900,1.72244775390625,-0.15832026302814484,-0.00905448105186224,-0.01118494663387537
1763698894360467200,1.73246728515625,-0.18814678490161896,-0.052729032933712006,0.056989967823028564
1763698894370475000,1.74247509765625,-0.21903854608535767,-0.0964035913348198,0.15925233066082
1763698894380475100,1.75247509765625,-0.23075610399246216,-0.14433906972408295,0.27003657817840576
1763698894390482200,1.762482177734375,-0.22862564027309418,-0.1912093311548233,0.370035320520401
1763698894400496000,1.77249609375,-0.2264951765537262,-0.22955772280693054,0.430753618478775
1763698894410504000,1.78250390625,-0.2169080674648285,-0.27003657817840576,0.4318188428878784
1763698894420498200,1.792498291015625,-0.18069015443325043,-0.2753627300262451,0.38601380586624146
1763698894430504400,1.80250439453125,-0.13808083534240723,-0.222101092338562,0.33488261699676514
1763698894440524800,1.81252490234375,-0.11145000159740448,-0.1688394397497177,0.306254506111145
1763698894450532600,1.82253271484375,-0.1093195378780365,-0.15392617881298065,0.3189041316509247
1763698894460523800,1.832523681640625,-0.11890663951635361,-0.15712186694145203,0.33275216817855835
1763698894470529800,1.84252978515625,-0.11677616834640503,-0.17523083090782166,0.3189041316509247
1763698894480541400,1.85254150390625,-0.09334104508161545,-0.222101092338562,0.2785584330558777
1763698894490548000,1.8625478515625,-0.06777545064687729,-0.3009283244609833,0.2125139832496643
1763698894500561000,1.872560791015625,-0.05499265342950821,-0.40625324845314026,0.14220860600471497
1763698894510568000,1.88256787109375,-0.06457975506782532,-0.34233927726745605,0.12516488134860992
1763698894520569300,1.8925693359375,-0.06351451575756073,-0.20505735278129578,0.14220860600471497
1763698894530576100,1.902576171875,-0.0347532257437706,-0.15286093950271606,0.14327384531497955
1763698894540586000,1.9125859375,-0.02729659713804722,-0.15179570019245148,0.14646953344345093
1763698894550593000,1.922593017578125,-0.06031882017850876,-0.14007814228534698,0.14114338159561157
1763698894560587800,1.932587890625,-0.08162347972393036,-0.10918638855218887,0.10279498994350433
1763698894570593500,1.942593505859375,-0.05073172226548195,-0.052729032933712006,0.043141938745975494
1763698894580611300,1.952611328125,0.012117025442421436,-0.00585878174751997,-0.021837277337908745
1763698894590618400,1.962618408203125,0.05792204663157463,-0.023967742919921875,-0.08894696086645126
1763698894600616700,1.97261669921875,0.07709623873233795,-0.11238208413124084,-0.1390129029750824
1763698894610622700,1.982622802734375,0.08668334037065506,-0.19333979487419128,-0.17629607021808624
1763698894620642600,1.992642578125,0.08881380409002304,-0.2764279842376709,-0.20505735278129578
1763698894630650000,2.002650146484375,0.07816147059202194,-0.4222317337989807,-0.25086238980293274
1763698894640632600,2.012632568359375,0.1346188187599182,-0.5319507122039795,-0.3679048418998718
1763698894650637600,2.022637451171875,0.29866471886634827,-0.37749195098876953,-0.5266245603561401
1763698894660665300,2.032665283203125,0.34220612049102783,-0.13581721484661102,-0.5788210034370422
1763698894670672600,2.042672607421875,0.39546775817871094,-0.17523083090782166,-0.5916038155555725
1763698894680681000,2.052680908203125,0.5200999975204468,-0.38814428448677063,-0.5862776041030884
1763698894690688300,2.062688232421875,0.5232957005500793,-0.38601380586624146,-0.5756253004074097
1763698894700690000,2.07268994140625,0.46683835983276367,-0.2796236574649811,-0.5063851475715637
1763698894710696700,2.08269677734375,0.3880111277103424,-0.19333979487419128,-0.4371449947357178
1763698894720704800,2.092704833984375,0.33048853278160095,-0.23701435327529907,-0.3721657991409302
1763698894730711800,2.1027119140625,0.33901041746139526,-0.3380783200263977,-0.26897132396698
1763698894740718300,2.11271826171875,0.39653298258781433,-0.4669715166091919,-0.14327384531497955
1763698894750725000,2.12272509765625,0.4615122079849243,-0.6118432283401489,-0.010119713842868805
1763698894760730000,2.132730224609375,0.5041215419769287,-0.7247579097747803,0.11877348273992538
1763698894770737000,2.14273681640625,0.5137086510658264,-0.796128511428833,0.23275341093540192
1763698894780739600,2.152739501953125,0.48814302682876587,-0.8238245844841003,0.3082517981529236
1763698894790745900,2.162745849609375,0.433816134929657,-0.7418016195297241,0.31251272559165955
1763698894800756200,2.172756103515625,0.3773587942123413,-0.6576482653617859,0.2774932086467743
1763698894810762800,2.1827626953125,0.27949050068855286,-0.5234288573265076,0.2146444469690323
1763698894820771300,2.192771240234375,0.16551057994365692,-0.4094489514827728,0.14220860600471497
1763698894830778000,2.202778076171875,0.07709623873233795,-0.3476654291152954,0.06551183015108109
1763698894840786700,2.21278662109375,0.02916075475513935,-0.264710396528244,-0.0047935484908521175
1763698894850793700,2.222793701171875,0.01957365684211254,-0.08788172155618668,-0.06551183015108109
1763698894860796700,2.232796630859375,0.014247491955757141,0.1059906855225563,-0.08894696086645126
1763698894870803200,2.24280322265625,-0.02729659713804722,0.25192761421203613,-0.09107742458581924
1763698894880809000,2.25280908203125,-0.08162347972393036,0.2881455421447754,-0.06551183015108109
1763698894890815500,2.2628154296875,-0.11677616834640503,0.23701435327529907,-0.026098208501935005
1763698894900825600,2.27282568359375,-0.11251524090766907,0.16351327300071716,-0.0005326165119186044
1763698894910832400,2.282832275390625,-0.07629731297492981,0.045272402465343475,0.036750540137290955
1763698894920839200,2.292839111328125,-0.06884068250656128,-0.042076703161001205,0.0740336924791336
1763698894930846200,2.30284619140625,-0.010252867825329304,-0.1699046641588211,0.11131685227155685
1763698894940853500,2.312853515625,0.05898727849125862,-0.24979715049266815,0.16777420043945312
1763698894950860300,2.3228603515625,0.10905323177576065,-0.3009283244609833,0.2018616646528244
1763698894960872400,2.33287255859375,0.13994498550891876,-0.32316505908966064,0.19973118603229523
1763698894970879700,2.342879638671875,0.18042384088039398,-0.30931705236434937,0.1283605843782425
1763698894980881400,2.35288134765625,0.2539249360561371,-0.2679060995578766,-0.015445878729224205
1763698894990888200,2.36288818359375,0.3549889028072357,-0.17416560649871826,-0.18268746137619019
1763698895000899600,2.372899658203125,0.4551208019256592,-0.037815771996974945,-0.31038227677345276
1763698895010907000,2.382906982421875,0.5286219120025635,0.07616416364908218,-0.35299158096313477
1763698895020899800,2.39289990234375,0.555252730846405,0.11131685227155685,-0.3135779798030853
1763698895030905900,2.40290576171875,0.5339480638504028,0.1272953450679779,-0.21677492558956146
1763698895040919600,2.41291943359375,0.5051867365837097,0.2881455421447754,-0.12516488134860992
1763698895050926300,2.42292626953125,0.4604469835758209,0.3263607621192932,-0.036750540137290955
1763698895060939000,2.43293896484375,0.391206830739975,0.2849498391151428,0.06551183015108109
1763698895070946300,2.4429462890625,0.31877097487449646,0.1922745555639267,0.13581721484661102
1763698895080945400,2.4529453125,0.27949050068855286,0.0964035913348198,0.1720351278781891
1763698895090952000,2.462951904296875,0.30186042189598083,0.08788172155618668,0.1709699034690857
1763698895100962300,2.47296240234375,0.3688369393348694,0.1272953450679779,0.12090394645929337
1763698895110969000,2.482968994140625,0.4402075409889221,0.20612259209156036,0.049533337354660034
1763698895120970500,2.492970458984375,0.5030562877655029,0.29240646958351135,-0.022902509197592735
1763698895130976800,2.502976806640625,0.540339469909668,0.350861132144928,-0.08149032294750214
1763698895140992300,2.5129921875,0.5605788826942444,0.38388335704803467,-0.11025162041187286
1763698895150999600,2.52299951171875,0.6553846001625061,0.31144750118255615,-0.0953383520245552
1763698895161013800,2.533013671875,0.8055824637413025,-0.051663801074028015,-0.0633813664317131
1763698895171021600,2.543021484375,0.7864083051681519,-0.3252955377101898,-0.07935985922813416
1763698895181005600,2.553005615234375,0.6916025280952454,-0.32316505908966064,-0.030359141528606415
1763698895191011000,2.563010986328125,0.6138405203819275,-0.1720351278781891,0.10172975063323975
1763698895201031400,2.573031494140625,0.5307523608207703,-0.028228675946593285,0.23594911396503448
1763698895211038200,2.5830380859375,0.4402075409889221,0.029293907806277275,0.3306216895580292
1763698895221038600,2.59303857421875,0.3752283453941345,-0.016511112451553345,0.3924052119255066
1763698895231045000,2.603045166015625,0.3549889028072357,-0.13475197553634644,0.4147751033306122
1763698895241064000,2.61306396484375,0.3784240186214447,-0.25831902027130127,0.41797080636024475
1763698895251071500,2.623071533203125,0.4220985770225525,-0.30199354887008667,0.41690558195114136
1763698895261061000,2.63306103515625,0.4732297658920288,-0.26151469349861145,0.4126446545124054
1763698895271067000,2.64306689453125,0.5126433968544006,-0.1912093311548233,0.38814428448677063
1763698895281075200,2.6530751953125,0.5264914035797119,-0.1262301206588745,0.35405683517456055
1763698895291081200,2.663081298828125,0.5094476938247681,-0.036750540137290955,0.3242303133010864
1763698895301095000,2.673094970703125,0.45938172936439514,0.09427312016487122,0.2785584330558777
1763698895311101700,2.683101806640625,0.39546775817871094,0.14753477275371552,0.22423155605793
1763698895321103600,2.693103515625,0.345401793718338,0.1390129029750824,0.1390129029750824
1763698895331110000,2.70310986328125,0.3347494900226593,0.11983871459960938,0.022902509197592735
1763698895341097200,2.71309716796875,0.3549889028072357,0.08788172155618668,-0.08788172155618668
1763698895351101700,2.723101806640625,0.38588064908981323,0.029293907806277275,-0.17629607021808624
1763698895361114000,2.733114013671875,0.42635950446128845,-0.015445878729224205,-0.23168818652629852
1763698895371119000,2.743119140625,0.49133872985839844,0.07190322875976562,-0.23062294721603394
1763698895381159200,2.7531591796875,0.5627093315124512,0.17949175834655762,-0.2029268890619278
1763698895391167700,2.763167724609375,0.6010577082633972,0.21038351953029633,-0.1272953450679779
1763698895401168000,2.77316796875,0.6202319264411926,0.23062294721603394,0.0037283156998455524
1763698895411175700,2.78317578125,0.6340799331665039,0.2679060995578766,0.1688394397497177
1763698895421151700,2.79315185546875,0.625558078289032,0.2796236574649811,0.3306216895580292
1763698895431156200,2.80315625,0.6010577082633972,0.27110180258750916,0.4659062922000885
1763698895441200600,2.81320068359375,0.5797531008720398,0.2657756507396698,0.5596467852592468
1763698895451209200,2.823209228515625,0.555252730846405,0.2636451721191406,0.6182346343994141
1763698895461211400,2.83321142578125,0.5371437668800354,0.25938424468040466,0.6331478953361511
1763698895471219200,2.84321923828125,0.5275566577911377,0.22742724418640137,0.603321373462677
1763698895481210000,2.853210205078125,0.51796954870224,0.1912093311548233,0.5319507122039795
1763698895491216400,2.86321630859375,0.5211652517318726,0.19547025859355927,0.4232969582080841
1763698895501224200,2.87322412109375,0.5392742156982422,0.20505735278129578,0.2998631000518799
1763698895511230500,2.88323046875,0.556317925453186,0.2114487588405609,0.20931829512119293
1763698895521241900,2.893241943359375,0.5797531008720398,0.29453691840171814,0.16564373672008514
1763698895531248600,2.90324853515625,0.6063839197158813,0.3242303133010864,0.1283605843782425
1763698895541259000,2.913259033203125,0.6202319264411926,0.2572537660598755,0.09107742458581924
1763698895551266000,2.92326611328125,0.6426018476486206,0.18801362812519073,0.062316130846738815
1763698895561273300,2.9332734375,0.6884068250656128,0.19333979487419128,0.046337638050317764
1763698895571280600,2.94328076171875,0.7406032681465149,0.28281936049461365,0.050598569214344025
1763698895581289200,2.953289306640625,0.7533860802650452,0.39347043633461,0.061250898987054825
1763698895591296500,2.963296630859375,0.7129071950912476,0.4158403277397156,0.062316130846738815
1763698895601303300,2.97330322265625,0.6575151085853577,0.3412740230560303,0.0633813664317131
1763698895611310600,2.983310546875,0.6106448173522949,0.20505735278129578,0.058055199682712555
1763698895621304300,2.99330419921875,0.5914706587791443,0.035685304552316666,0.038881003856658936
1763698895631310000,3.00331005859375,0.5978620052337646,0.023967742919921875,0.048468101769685745
1763698895641330400,3.013330322265625,0.6234276294708252,0.10386022180318832,0.08362079411745071
1763698895651338000,3.023337890625,0.6745588183403015,0.29240646958351135,0.12090394645929337
1763698895661321200,3.0333212890625,0.732081413269043,0.36577439308166504,0.15605664253234863
1763698895671326200,3.043326171875,0.7682993412017822,0.2785584330558777,0.20399212837219238
1763698895681326300,3.053326416015625,0.7810820937156677,0.21890538930892944,0.2125139832496643
1763698895691330800,3.063330810546875,0.8119738698005676,0.21890538930892944,0.13475197553634644
1763698895701372400,3.073372314453125,0.8961272835731506,0.2966673970222473,-0.013315413147211075
1763698895711380500,3.08338037109375,0.9939955472946167,0.4264926612377167,-0.1699046641588211
1763698895721384000,3.093384033203125,1.074953317642212,0.6182346343994141,-0.3199693560600281
1763698895731391700,3.103391845703125,1.1505848169326782,0.8451292514801025,-0.46058014035224915
1763698895741401900,3.11340185546875,1.1793460845947266,1.0282161235809326,-0.5596467852592468
1763698895751410000,3.123409912109375,1.1836071014404297,1.0654993057250977,-0.5926690101623535
1763698895761385500,3.133385498046875,1.1974550485610962,0.985606849193573,-0.5479292273521423
1763698895771390200,3.14339013671875,1.2070422172546387,0.8600425124168396,-0.4531235098838806
1763698895781427500,3.153427490234375,1.1921288967132568,0.7087793946266174,-0.3284912407398224
1763698895791435500,3.163435546875,1.1857374906539917,0.5404726266860962,-0.17523083090782166
1763698895801439200,3.173439208984375,1.167628526687622,0.4115794003009796,-0.022902509197592735
1763698895811446800,3.18344677734375,1.1580414772033691,0.29453691840171814,0.11238208413124084
1763698895821438700,3.193438720703125,1.1740199327468872,0.2977326214313507,0.222101092338562
1763698895831444500,3.203444580078125,1.1804113388061523,0.34553495049476624,0.2636451721191406
1763698895841462300,3.213462158203125,1.1942594051361084,0.4137098789215088,0.2551233172416687
1763698895851469300,3.22346923828125,1.2336729764938354,0.4786891043186188,0.2114487588405609
1763698895861456600,3.23345654296875,1.2677603960037231,0.4861457347869873,0.137947678565979
1763698895871461600,3.243461669921875,1.296521782875061,0.4744281470775604,0.09959928691387177
1763698895881491200,3.2534912109375,1.2997174263000488,0.46164536476135254,0.11238208413124084
1763698895891498800,3.263498779296875,1.268825650215149,0.4339492917060852,0.16351327300071716
1763698895901494500,3.27349462890625,1.2070422172546387,0.38388335704803467,0.23168818652629852
1763698895911500800,3.283500732421875,1.137802004814148,0.3146432042121887,0.30518925189971924
1763698895921510000,3.293510009765625,1.0930622816085815,0.2572537660598755,0.40518802404403687
1763698895931516700,3.3035166015625,1.0632357597351074,0.19760072231292725,0.48081955313682556
1763698895941522700,3.313522705078125,1.0344743728637695,0.09214265644550323,0.47975432872772217
1763698895951529200,3.323529296875,1.0238220691680908,-0.0005326165119186044,0.39773139357566833
1763698895961550300,3.33355029296875,1.0291482210159302,-0.00905448105186224,0.28175413608551025
1763698895971558400,3.343558349609375,1.044061541557312,0.09214265644550323,0.18375270068645477
1763698895981564200,3.353564208984375,1.0717575550079346,0.20931829512119293,0.12409964948892593
1763698895991572000,3.363572021484375,1.0941274166107178,0.2849498391151428,0.09107742458581924
1763698896001556700,3.373556640625,1.0472571849822998,0.30931705236434937,0.028228675946593285
1763698896011562000,3.38356201171875,0.9726908802986145,0.18481792509555817,-0.06764229387044907
1763698896021578800,3.393578857421875,0.946060061454773,0.1390129029750824,-0.15605664253234863
1763698896031585300,3.403585205078125,0.9503210186958313,0.15925233066082,-0.24660144746303558
1763698896041604000,3.41360400390625,0.9386034607887268,0.14433906972408295,-0.36683961749076843
1763698896051612000,3.42361181640625,0.9151683449745178,0.09853405505418777,-0.5223636627197266
1763698896061613000,3.433613037109375,0.9067795872688293,0.028228675946593285,-0.665104866027832
1763698896071620000,3.4436201171875,0.9089100956916809,-0.031424373388290405,-0.7631062865257263
1763698896081625600,3.45362548828125,0.8971925377845764,-0.08362079411745071,-0.8366073966026306
1763698896091632600,3.463632568359375,0.8961272835731506,-0.22955772280693054,-0.9131709933280945
1763698896101638000,3.473637939453125,0.9471253156661987,-0.23275341093540192,-1.0058462619781494
1763698896111644700,3.483644775390625,1.0387353897094727,-0.1709699034690857,-1.0868040323257446
1763698896121656800,3.49365673828125,1.1921288967132568,0.06977276504039764,-1.1272828578948975
1763698896131664100,3.5036640625,1.466958999633789,0.4957328140735626,-1.1145000457763672
1763698896141671200,3.513671142578125,1.6223498582839966,0.6778876781463623,-1.1113044023513794
1763698896151678500,3.523678466796875,1.5840015411376953,0.8387378454208374,-1.1400656700134277
1763698896161659100,3.5336591796875,1.5690882205963135,0.5127765536308289,-0.8461945056915283
1763698896171663600,3.54366357421875,1.5307399034500122,0.0644465982913971,-0.27323228120803833
1763698896181697800,3.55369775390625,1.4637633562088013,-0.18907886743545532,0.2796236574649811
1763698896191705300,3.563705322265625,1.4829375743865967,-0.389209508895874,0.7513887286186218
1763698896201710000,3.5737099609375,1.641524076461792,-0.5820167064666748,1.1848053932189941
1763698896211717000,3.583717041015625,1.8343312740325928,-0.5947995185852051,1.5192886590957642
1763698896221713000,3.593712890625,1.9632244110107422,-0.39773139357566833,1.6672228574752808
1763698896231719000,3.603718994140625,2.020746946334839,-0.14327384531497955,1.6224830150604248
1763698896241729000,3.61372900390625,2.0282037258148193,0.0750989317893982,1.452178955078125
1763698896251735600,3.623735595703125,1.7682868242263794,-1.9878579378128052,0.5692338943481445
1763698896261753300,3.63375341796875,1.7714824676513672,-2.292381525039673,0.1177082508802414
1763698896271761000,3.643760986328125,1.8322007656097412,-0.6427350044250488,0.3391435742378235
1763698896281755400,3.65375537109375,1.6138280630111694,1.115565299987793,0.2742975056171417
1763698896291761700,3.66376171875,1.3082393407821655,1.4638965129852295,-0.45951488614082336
1763698896301775400,3.673775390625,1.6873290538787842,1.2583065032958984,0.5841471552848816
1763698896311782400,3.683782470703125,1.5371313095092773,-0.0026630824431777,0.046337638050317764
1763698896321785000,3.69378515625,1.2272815704345703,0.4318188428878784,0.22103585302829742
1763698896331791600,3.70379150390625,0.9684299826622009,0.12516488134860992,0.17629607021808624
1763698896341802000,3.713802001953125,0.9343425035476685,0.1603175699710846,0.24021004140377045
1763698896351809000,3.72380908203125,1.053648591041565,0.056989967823028564,0.21038351953029633
1763698896361797000,3.733797119140625,1.24539053440094,-0.08042509108781815,0.22423155605793
1763698896371802000,3.743802001953125,1.4190235137939453,-0.14646953344345093,0.2679060995578766
1763698896381829600,3.75382958984375,1.573349118232727,-0.2252967804670334,0.20718781650066376
1763698896391837000,3.7638369140625,1.7278079986572266,-0.00585878174751997,0.1912093311548233
1763698896401848300,3.773848388671875,1.6894595623016357,0.24979715049266815,0.30412402749061584
1763698896411856100,3.783856201171875,1.4786765575408936,0.18375270068645477,0.306254506111145
1763698896421845000,3.793844970703125,1.3646966218948364,-0.06870753318071365,0.3135779798030853
1763698896431851000,3.80385107421875,1.2911956310272217,-0.2774932086467743,0.36257869005203247
1763698896441864400,3.813864501953125,1.2134336233139038,-0.4552539587020874,0.4158403277397156
1763698896451871000,3.82387109375,1.1718894243240356,-0.6512568593025208,0.46271058917045593
1763698896461873700,3.833873779296875,1.204911708831787,-0.6320826411247253,0.4850804805755615
1763698896471879700,3.843879638671875,1.2943912744522095,-0.5553858876228333,0.5255593657493591
1763698896481871000,3.85387109375,1.3540443181991577,-0.7396711707115173,0.5308855175971985
1763698896491875600,3.86387548828125,1.343392014503479,-1.0633689165115356,0.32209983468055725
1763698896501883600,3.873883544921875,1.3465876579284668,-1.017563819885254,0.21038351953029633
1763698896511888600,3.883888671875,1.1942594051361084,-0.923823356628418,0.16351327300071716
1763698896521930000,3.893929931640625,0.8716269135475159,-0.9312799572944641,0.026098208501935005
1763698896531938600,3.9039384765625,0.7065157890319824,-0.9866721034049988,-0.17842653393745422
1763698896541923000,3.913923095703125,0.7757559418678284,-0.8504554033279419,-0.2561885416507721
1763698896551929300,3.923929443359375,0.7959953546524048,-0.6086475253105164,-0.24021004140377045
1763698896561922600,3.933922607421875,0.7746906876564026,-0.4446016252040863,-0.2146444469690323
1763698896571927600,3.943927490234375,0.7991910576820374,-0.34340450167655945,-0.16138280928134918
1763698896581933800,3.953933837890625,0.8865401744842529,-0.350861132144928,-0.039946239441633224
1763698896591938800,3.963938720703125,0.9716256856918335,-0.5181027054786682,0.09107742458581924
1763698896601947100,3.973947021484375,1.0163654088974,-0.710909903049469,0.11131685227155685
1763698896611952400,3.983952392578125,1.0184959173202515,-0.8248898386955261,0.07722939550876617
1763698896621978000,3.99397802734375,1.053648591041565,-0.8429988026618958,0.037815771996974945
1763698896631985400,4.0039853515625,1.0962579250335693,-0.8110417723655701,0.015445878729224205
1763698896642007000,4.014007080078125,0.7800168991088867,-0.580951452255249,-0.022902509197592735
1763698896652015900,4.024015869140625,0.8247566819190979,-0.22955772280693054,-0.026098208501935005
1763698896662025700,4.034025634765625,0.8098434209823608,-0.19440503418445587,0.0005326165119186044
1763698896672034600,4.04403466796875,0.8247566819190979,-0.26151469349861145,0.08042509108781815
1763698896682038300,4.054038330078125,0.8673660159111023,-0.29453691840171814,0.1720351278781891
1763698896692046600,4.064046630859375,0.8908011317253113,-0.26044946908950806,0.20825305581092834
1763698896702034200,4.0740341796875,0.8961272835731506,-0.2742975056171417,0.17310036718845367
1763698896712040400,4.08404052734375,0.8481917977333069,-0.350861132144928,0.060185667127370834
1763698896722047000,4.094046875,0.7693645358085632,-0.4009270668029785,-0.1059906855225563
1763698896732053200,4.10405322265625,0.7118419408798218,-0.3679048418998718,-0.2966673970222473
1763698896742070300,4.1140703125,0.663906455039978,-0.2870802879333496,-0.47123244404792786
1763698896752077800,4.124077880859375,0.6287537813186646,-0.20399212837219238,-0.5820167064666748
1763698896762092800,4.1340927734375,0.6766892671585083,-0.09214265644550323,-0.6097127795219421
1763698896772100900,4.144100830078125,0.755516529083252,0.07190322875976562,-0.5862776041030884
1763698896782084000,4.154083984375,0.8002563118934631,0.2135792225599289,-0.5053198933601379
1763698896792089600,4.164089599609375,0.7896040081977844,0.2135792225599289,-0.34553495049476624
1763698896802113800,4.17411376953125,0.7011896371841431,-0.17523083090782166,0.061250898987054825
1763698896812121300,4.184121337890625,0.7011896371841431,-0.42968836426734924,0.5830819010734558
1763698896822114600,4.194114501953125,0.6830806732177734,-0.3167736828327179,0.856846809387207
1763698896832120300,4.204120361328125,0.6777545213699341,-0.2338186502456665,0.8408682942390442
1763698896842145800,4.214145751953125,0.5019910335540771,-0.1486000120639801,0.6469959020614624
1763698896852153600,4.224153564453125,0.33901041746139526,-0.059120431542396545,0.3796224296092987
1763698896862151700,4.234151611328125,0.3475322723388672,-0.1720351278781891,0.15712186694145203
1763698896872158700,4.24415869140625,0.5754921436309814,-0.3274259865283966,-0.031424373388290405
1763698896882162700,4.25416259765625,0.9215596914291382,-0.3487306535243988,-0.21570968627929688
1763698896892169200,4.264169189453125,1.24539053440094,-0.3135779798030853,-0.3913399875164032
1763698896902179300,4.274179443359375,1.3732185363769531,-0.30931705236434937,-0.5415378212928772
1763698896912186400,4.284186279296875,1.3338048458099365,-0.389209508895874,-0.6246260404586792
1763698896922180400,4.294180419921875,1.3412615060806274,-0.46910199522972107,-0.7332797646522522
1763698896932186000,4.30418603515625,1.397718906402588,-0.4563191831111908,-0.8856080770492554
1763698896942205000,4.314204833984375,1.3881317377090454,-0.435014545917511,-0.985606849193573
1763698896952212000,4.3242119140625,1.3338048458099365,-0.41903603076934814,-0.9951939582824707
1763698896962226200,4.33422607421875,1.3093045949935913,-0.5543206334114075,-1.0133029222488403
1763698896972233700,4.344233642578125,1.335935354232788,-0.6810833811759949,-1.0836082696914673
1763698896982234000,4.354234130859375,1.4083712100982666,-0.5681686401367188,-1.0761516094207764
1763698896992241200,4.3642412109375,1.6425893306732178,-0.14007814228534698,-0.7886719107627869
1763698897002243600,4.37424365234375,1.6905248165130615,-0.07722939550876617,-0.44034069776535034
1763698897012249900,4.384249755859375,1.618088960647583,-0.09853405505418777,-0.09427312016487122
1763698897022249000,4.3942490234375,1.4477847814559937,-0.24873191118240356,0.26151469349861145
1763698897032254700,4.404254638671875,1.2879998683929443,-0.5308855175971985,0.6129084229469299
1763698897042272800,4.414272705078125,1.1569762229919434,-0.7673672437667847,0.9440627694129944
1763698897052279800,4.42427978515625,1.051518201828003,-0.8951951861381531,1.246588945388794
1763698897062291000,4.434291015625,0.9503210186958313,-0.9664326906204224,1.4649617671966553
1763698897072298200,4.44429833984375,0.639406144618988,-1.0431294441223145,1.3243509531021118
1763698897082296600,4.454296630859375,0.48920828104019165,-0.7418016195297241,1.0676298141479492
1763698897092303000,4.46430322265625,0.39333727955818176,-0.39773139357566833,0.5937342643737793
1763698897102315800,4.474315673828125,0.32835808396339417,0.2029268890619278,0.16138280928134918
1763698897112323000,4.484322998046875,0.4444684684276581,0.7204970121383667,-0.26897132396698
1763698897122320600,4.494320556640625,0.7352771162986755,1.2412627935409546,-0.5692338943481445
1763698897132326700,4.50432666015625,1.0099740028381348,1.658700942993164,-0.6896052360534668
1763698897142344200,4.51434423828125,1.191063642501831,1.9772056341171265,-0.6981270909309387
1763698897152351500,4.5243515625,1.2773475646972656,2.1357922554016113,-0.7151708006858826
1763698897162347500,4.534347412109375,1.3753490447998047,2.1199469566345215,-0.6981270909309387
1763698897172353800,4.544353759765625,1.4381977319717407,1.9548357725143433,-0.6949313879013062
1763698897182343400,4.554343505859375,1.3284786939620972,1.820616364479065,-0.673626720905304
1763698897192348000,4.564347900390625,1.2389991283416748,1.483070731163025,-0.5766905546188354
1763698897202386200,4.57438623046875,1.2539124488830566,1.0346075296401978,-0.49253711104393005
1763698897212394200,4.584394287109375,1.2560428380966187,0.7354102730751038,-0.4126446545124054
1763698897222384000,4.594384033203125,1.2368687391281128,0.7631062865257263,-0.35192635655403137
1763698897232390100,4.60439013671875,1.2336729764938354,0.8472597002983093,-0.29347169399261475
1763698897242405600,4.614405517578125,1.259238600730896,0.9408670663833618,-0.17736129462718964
1763698897252412700,4.62441259765625,1.3029131889343262,0.9451280236244202,-0.051663801074028015
1763698897262424300,4.63442431640625,1.374283790588379,0.8238245844841003,-0.027163442224264145
1763698897272431900,4.644431884765625,1.5595011711120605,0.6842790842056274,-0.10918638855218887
1763698897282405400,4.6544052734375,1.9280717372894287,0.44779732823371887,-0.18801362812519073
1763698897292409300,4.664409423828125,2.2006382942199707,0.34340450167655945,-0.1486000120639801
1763698897302454000,4.6744541015625,2.223008155822754,0.48188477754592896,0.0005326165119186044
1763698897312462000,4.684462158203125,2.1558985710144043,0.7194317579269409,0.25192761421203613
1763698897322455300,4.694455322265625,2.148441791534424,0.9525846242904663,0.5820167064666748
1763698897332461800,4.7044619140625,2.232595205307007,1.0388685464859009,0.8760210275650024
1763698897342475300,4.714475341796875,2.390249729156494,0.9280842542648315,1.0143681764602661
1763698897352482300,4.724482421875,2.4456417560577393,0.5500596761703491,0.9206276535987854
1763698897362482000,4.73448193359375,2.5020992755889893,0.32209983468055725,0.6800181269645691
1763698897372488400,4.744488525390625,2.5574913024902344,0.15179570019245148,0.4094489514827728
1763698897382510000,4.754510009765625,2.6373836994171143,-0.2636451721191406,0.2572537660598755
1763698897392518000,4.764517822265625,2.699167251586914,-0.6246260404586792,0.29347169399261475
1763698897402488000,4.774488037109375,2.8620147705078125,-0.6853442788124084,0.4019923210144043
1763698897412492000,4.784491943359375,2.9504292011260986,-0.5639077425003052,0.49466758966445923
1763698897422520000,4.79452001953125,2.7746658325195312,-0.7226274609565735,0.5681686401367188
1763698897432526600,4.804526611328125,2.596904993057251,-1.22954523563385,0.7034532427787781
1763698897442547700,4.814547607421875,2.679993152618408,-1.8003770112991333,0.8504554033279419
1763698897452555500,4.824555419921875,2.7906441688537598,-2.090120315551758,0.9101084470748901
1763698897462560500,4.834560546875,2.7597525119781494,-2.427665948867798,0.8951951861381531
1763698897472568300,4.844568359375,2.775730848312378,-2.6961047649383545,0.915301501750946
1763698897482562000,4.85456201171875,2.788513660430908,-2.7099528312683105,1.015433430671692
1763698897492568300,4.864568359375,2.7682743072509766,-2.586385726928711,1.152848482131958
1763698897502591200,4.87459130859375,2.7343199253082275,-2.3456430435180664,1.2678935527801514
1763698897512599300,4.884599365234375,2.704493522644043,-1.9942493438720703,1.346720814704895
1763698897522596900,4.894596923828125,2.507425308227539,-1.7481805086135864,1.3616341352462769
1763698897532604000,4.90460400390625,2.235790967941284,-1.7513762712478638,1.3264814615249634
1763698897542616300,4.9146162109375,1.5754796266555786,-1.8749432563781738,1.108108639717102
1763698897552623900,4.924623779296875,1.2581733465194702,-2.0347282886505127,1.0271509885787964
1763698897562631200,4.934631103515625,0.9183640480041504,-2.0272715091705322,1.0335423946380615
1763698897572638500,4.944638427734375,0.8151695728302002,-1.895182728767395,1.0644340515136719
1763698897582636300,4.95463623046875,0.839669942855835,-1.5075709819793701,1.037803292274475
1763698897592642800,4.964642822265625,0.9279510974884033,-0.9696283340454102,0.9536498785018921
1763698897602621700,4.97462158203125,0.9748213887214661,-0.4563191831111908,0.8525858521461487
1763698897612625400,4.98462548828125,0.9119726419448853,-0.035685304552316666,0.8025199174880981
1763698897622672400,4.99467236328125,0.7139724493026733,0.15392617881298065,0.8461945056915283
1763698897632680400,5.004680419921875,0.37203264236450195,0.06764229387044907,0.9951939582824707
1763698897642648800,5.01464892578125,-0.04966649040579796,-0.2018616646528244,1.1571093797683716
1763698897652652800,5.02465283203125,-0.46071329712867737,-0.4850804805755615,1.2188929319381714
1763698897662664200,5.034664306640625,-0.7941312193870544,-0.6224955320358276,1.1848053932189941
1763698897672669000,5.0446689453125,-1.0272841453552246,-0.5628424882888794,1.099586844444275
1763698897682688300,5.054688232421875,-1.1902647018432617,-0.39879661798477173,0.9802806973457336
1763698897692694500,5.064694580078125,-1.3074404001235962,-0.25086238980293274,0.8483249545097351
1763698897702690800,5.07469091796875,-1.3958547115325928,-0.11238208413124084,0.7609758377075195
1763698897712696000,5.084696044921875,-1.4874647855758667,0.00585878174751997,0.7173013091087341
1763698897722709200,5.094709228515625,-1.6780083179473877,-0.013315413147211075,0.6320826411247253
1763698897732715300,5.10471533203125,-1.976273536682129,-0.22636201977729797,0.4254274368286133
1763698897742739000,5.114739013671875,-2.2978408336639404,-0.5969299674034119,0.08149032294750214
1763698897752746800,5.124746826171875,-2.495974063873291,-1.045259952545166,-0.2881455421447754
1763698897762751700,5.134751708984375,-2.4746694564819336,-1.3584383726119995,-0.4999937415122986
1763698897772759300,5.14475927734375,-2.2648186683654785,-1.3712211847305298,-0.42968836426734924
1763698897782774500,5.1547744140625,-2.017817735671997,-1.1230219602584839,-0.1059906855225563
1763698897792782800,5.164782958984375,-1.8569674491882324,-0.8078460693359375,0.35192635655403137
1763698897802788000,5.1747880859375,-1.8345975875854492,-0.672561526298523,0.7758890986442566
1763698897812796000,5.1847958984375,-1.9155552387237549,-0.7396711707115173,1.0324771404266357
1763698897822803700,5.1948037109375,-2.0156872272491455,-1.0388685464859009,1.0761516094207764
1763698897832811500,5.2048115234375,-2.0625574588775635,-1.4511137008666992,0.9738892912864685
1763698897842801400,5.214801513671875,-2.003969669342041,-1.8429862260818481,0.7396711707115173
1763698897852807400,5.224807373046875,-1.8314018249511719,-2.11781644821167,0.39666613936424255
1763698897862816800,5.234816650390625,-1.5842678546905518,-2.207162857055664,-0.00585878174751997
1763698897872823300,5.2448232421875,-1.2978532314300537,-2.070946216583252,-0.4232969582080841
1763698897882836700,5.254836669921875,-0.9900009632110596,-1.7258106470108032,-0.7854762077331543
1763698897892843800,5.26484375,-0.7067821025848389,-1.2870677709579468,-1.0420641899108887
1763698897902860000,5.274860107421875,-0.48627886176109314,-0.8919994831085205,-1.1698921918869019
1763698897912868000,5.2848681640625,-0.3840165138244629,-0.626756489276886,-1.1773488521575928
1763698897922857700,5.294857666015625,-0.39999499917030334,-0.4872109591960907,-1.092130184173584
1763698897932863700,5.30486376953125,-0.47243085503578186,-0.46164536476135254,-0.9749545454978943
1763698897942869500,5.314869384765625,-0.5842803120613098,-0.4669715166091919,-0.8824124336242676
1763698897952875800,5.324875732421875,-0.6833469867706299,-0.4371449947357178,-0.8728253245353699
1763698897962886700,5.33488671875,-0.7227606177330017,-0.3924052119255066,-0.9334104657173157
1763698897972893200,5.34489306640625,-0.6812165379524231,-0.2657756507396698,-0.9930635094642639
1763698897982908200,5.354908203125,-0.5278229713439941,-0.1283605843782425,-1.0271509885787964
1763698897992915700,5.364915771484375,-0.29360485076904297,-0.060185667127370834,-1.0324771404266357
1763698898002892000,5.37489208984375,-0.05712312087416649,-0.00585878174751997,-1.0186290740966797
1763698898012896300,5.384896240234375,0.13994498550891876,0.054859500378370285,-0.9824111461639404
1763698898022921500,5.39492138671875,0.24007689952850342,0.19333979487419128,-0.879216730594635
1763698898032927700,5.404927734375,0.178293377161026,0.39666613936424255,-0.6619091629981995
1763698898042938000,5.414938232421875,0.06537867337465286,0.7247579097747803,-0.19014409184455872
1763698898052945000,5.42494482421875,-0.02090519852936268,1.0899996757507324,0.5234288573265076
1763698898062958300,5.434958251953125,-0.08588441461324692,1.3488513231277466,1.3105028867721558
1763698898072965600,5.444965576171875,-0.14340700209140778,1.508636236190796,2.0262062549591064
1763698898082975700,5.454975830078125,-0.16577689349651337,1.5606995820999146,2.586385726928711
1763698898092983600,5.464983642578125,-0.10718907415866852,1.589460849761963,3.0347156524658203
1763698898102996700,5.474996826171875,0.03661738336086273,1.6725490093231201,3.407414197921753
1763698898113005000,5.485005126953125,0.22942456603050232,1.8120945692062378,3.738701581954956
1763698898122990800,5.494990966796875,0.4402075409889221,1.7865289449691772,3.983572006225586
1763698898132996900,5.504996826171875,0.6596455574035645,1.4564398527145386,4.109269618988037
1763698898143010800,5.5150107421875,0.8961272835731506,0.8824124336242676,4.1497483253479
1763698898153017600,5.525017578125,1.1292802095413208,0.32316505908966064,4.111400127410889
1763698898163016700,5.5350166015625,1.3188916444778442,0.0079892473295331,3.9857025146484375
1763698898173022700,5.545022705078125,1.4797418117523193,-0.0633813664317131,3.7791805267333984
1763698898183032000,5.555031982421875,1.6692200899124146,0.048468101769685745,3.5448291301727295
1763698898193038300,5.565038330078125,1.8950495719909668,0.18375270068645477,3.3297853469848633
1763698898203063300,5.575063232421875,2.114487648010254,0.25086238980293274,3.1178038120269775
1763698898213071600,5.585071533203125,2.256030321121216,0.2753627300262451,2.864278554916382
1763698898223063000,5.59506298828125,2.330596685409546,0.3009283244609833,2.54803729057312
1763698898233069600,5.605069580078125,2.4030325412750244,0.2977326214313507,2.1720101833343506
1763698898243072300,5.615072265625,2.5191428661346436,0.24979715049266815,1.750311017036438
1763698898253078500,5.62507861328125,2.690645456314087,0.1922745555639267,1.2806763648986816
1763698898263083800,5.635083740234375,2.868406295776367,0.07829462736845016,0.7524539828300476
1763698898273089800,5.64508984375,3.0111474990844727,-0.06764229387044907,0.17949175834655762
1763698898283097600,5.65509765625,3.116605520248413,-0.21038351953029633,-0.3711005449295044
1763698898293103900,5.665103759765625,3.1837151050567627,-0.2966673970222473,-0.8589772582054138
1763698898303126300,5.675126220703125,3.2028894424438477,-0.3189041316509247,-1.2881330251693726
1763698898313134000,5.685134033203125,3.1379101276397705,-0.3178389072418213,-1.6544400453567505
1763698898323129900,5.6951298828125,2.925928831100464,-0.3263607621192932,-1.9399224519729614
1763698898333136600,5.70513671875,2.6171443462371826,-0.28068891167640686,-2.131531238555908
1763698898343143000,5.715142822265625,2.278400182723999,-0.2348838746547699,-2.231663227081299
1763698898353149400,5.7251494140625,1.9302022457122803,-0.2125139832496643,-2.225271701812744
1763698898363154200,5.735154296875,1.6191542148590088,-0.17310036718845367,-2.1114249229431152
1763698898373160700,5.74516064453125,1.374283790588379,-0.08894696086645126,-1.9069002866744995
1763698898383167200,5.755167236328125,1.2027812004089355,0.020772043615579605,-1.6107654571533203
1763698898393173500,5.765173583984375,1.0643008947372437,0.10386022180318832,-1.239132285118103
1763698898403190800,5.775190673828125,0.8886706233024597,0.13475197553634644,-0.8280855417251587
1763698898413198300,5.7851982421875,0.6298190355300903,0.11983871459960938,-0.4254274368286133
1763698898423191800,5.79519189453125,0.3049229383468628,0.046337638050317764,-0.07083799690008163
1763698898433197800,5.80519775390625,-0.04007939249277115,-0.047402869910001755,0.19760072231292725
1763698898443208400,5.81520849609375,-0.35525521636009216,-0.1709699034690857,0.3252955377101898
1763698898453215000,5.825215087890625,-0.6119763851165771,-0.2849498391151428,0.27323228120803833
1763698898463217000,5.835216796875,-0.7983921766281128,-0.3146432042121887,0.060185667127370834
1763698898473223000,5.845222900390625,-0.9081111550331116,-0.1816222369670868,-0.23275341093540192
1763698898483238100,5.855238037109375,-0.9708267450332642,0.08255556225776672,-0.5319507122039795
1763698898493245200,5.8652451171875,-1.0336755514144897,0.3817528784275055,-0.7588453888893127
1763698898503246600,5.87524658203125,-1.1295465230941772,0.5212984085083008,-0.8344769477844238
1763698898513253000,5.885253173828125,-1.20091712474823,0.35405683517456055,-0.688539981842041
1763698898523256800,5.8952568359375,-1.2978532314300537,0.01118494663387537,-0.34553495049476624
1763698898533263000,5.90526318359375,-1.5299409627914429,-0.37536147236824036,0.00585878174751997
1763698898543275300,5.915275146484375,-1.8196842670440674,-0.9143694043159485,0.1922745555639267
1763698898553281800,5.92528173828125,-1.9549689292907715,-1.3690907955169678,0.25831902027130127
1763698898563302700,5.935302734375,-1.8495107889175415,-1.5638952255249023,0.3082517981529236
1763698898573310700,5.945310791015625,-1.6215509176254272,-1.5670909881591797,0.2742975056171417
1763698898583300900,5.95530078125,-1.385202407836914,-1.5043753385543823,0.14007814228534698
1763698898593307100,5.96530712890625,-1.140198826789856,-1.2828068733215332,0.07083799690008163
1763698898603315500,5.9753154296875,-0.8985240459442139,-0.8472597002983093,0.1922745555639267
1763698898613322000,5.985322021484375,-0.735543429851532,-0.39560091495513916,0.49253711104393005
1763698898623337500,5.99533740234375,-0.7121082544326782,-0.21038351953029633,0.856846809387207
1763698898633344800,6.0053447265625,-0.8314144015312195,-0.3817528784275055,1.1720225811004639
1763698898643345400,6.015345458984375,-1.0134360790252686,-0.7758890986442566,1.3286118507385254
1763698898653352200,6.025352294921875,-1.1444597244262695,-1.1965229511260986,1.2902635335922241
1763698898663355000,6.03535498046875,-1.140198826789856,-1.4564398527145386,1.1145000457763672
1763698898673361200,6.045361083984375,-1.0453931093215942,-1.4809402227401733,0.865368664264679
1763698898683367200,6.0553671875,-0.9463263750076294,-1.337133765220642,0.5585815906524658
1763698898693373400,6.06537353515625,-0.9164998531341553,-1.0857387781143188,0.1688394397497177
1763698898703385000,6.075385009765625,-0.9537830352783203,-0.7609758377075195,-0.32316505908966064
1763698898713391900,6.085391845703125,-0.9825443029403687,-0.4243622124195099,-0.9058475494384766
1763698898723394600,6.09539453125,-0.9782834053039551,-0.13688243925571442,-1.5033100843429565
1763698898733400800,6.10540087890625,-0.949522078037262,0.0964035913348198,-2.014488697052002
1763698898743392800,6.115392822265625,-0.9123721122741699,0.2966673970222473,-2.3818609714508057
1763698898753397800,6.125397705078125,-0.8601756691932678,0.45205825567245483,-2.5693421363830566
1763698898763406300,6.13540625,-0.7909355163574219,0.5681686401367188,-2.562950611114502
1763698898773411600,6.14541162109375,-0.7057169079780579,0.6256912350654602,-2.3680129051208496
1763698898783455500,6.15545556640625,-0.6471290588378906,0.673626720905304,-1.9644228219985962
1763698898793464600,6.165464599609375,-0.6726946830749512,0.7013227939605713,-1.3712211847305298
1763698898803464700,6.175464599609375,-0.7866745591163635,0.7194317579269409,-0.7268883585929871
1763698898813473000,6.18547314453125,-0.9081111550331116,0.7364754676818848,-0.17842653393745422
1763698898823474400,6.195474365234375,-0.9580439329147339,0.8227593302726746,0.27323228120803833
1763698898833481700,6.205481689453125,-0.8655018210411072,0.9600412845611572,0.672561526298523
1763698898843495700,6.21549560546875,-0.6876079440116882,1.1400656700134277,1.0111724138259888
1763698898853504000,6.22550390625,-0.5001268982887268,1.3499165773391724,1.316894292831421
1763698898863473400,6.235473388671875,-0.329689621925354,1.5171581506729126,1.6437877416610718
1763698898873477600,6.2454775390625,-0.2509955167770386,1.7066364288330078,2.061359167098999
1763698898883505700,6.255505615234375,-0.33501577377319336,1.9122264385223389,2.5661463737487793
1763698898893512200,6.26551220703125,-0.4873441159725189,1.9708142280578613,3.045367956161499
1763698898903530200,6.2755302734375,-0.6109111309051514,1.803572654724121,3.360543966293335
1763698898913537800,6.285537841796875,-0.6141068339347839,1.4095696210861206,3.472393274307251
1763698898923534600,6.29553466796875,-0.4170387387275696,1.1240870952606201,3.4830455780029297
1763698898933541400,6.305541259765625,-0.04007939249277115,1.2572412490844727,3.551220655441284
1763698898943544600,6.315544677734375,0.42422905564308167,1.5372644662857056,3.6609396934509277
1763698898953550800,6.32555078125,0.8460613489151001,1.5734822750091553,3.697157621383667
1763698898963555300,6.335555419921875,1.144193410873413,1.2753502130508423,3.555481433868408
1763698898973561300,6.345561279296875,1.3306092023849487,0.9195623993873596,3.2733278274536133
1763698898983578600,6.35557861328125,1.4733504056930542,0.7939980626106262,2.9313881397247314
1763698898993585700,6.365585693359375,1.6511112451553345,0.9334104657173157,2.534189462661743
1763698899003583700,6.375583740234375,1.8790709972381592,1.2433933019638062,2.0634894371032715
1763698899013590300,6.38559033203125,2.1495070457458496,1.5553733110427856,1.5107667446136475
1763698899023601000,6.395600830078125,2.4530985355377197,1.7694852352142334,0.902651846408844
1763698899033607700,6.405607666015625,2.756556749343872,1.8312686681747437,0.3157084286212921
1763698899043609900,6.41560986328125,3.0217998027801514,1.7045060396194458,-0.18588316440582275
1763698899053616000,6.4256162109375,3.211411237716675,1.428743839263916,-0.566038191318512
1763698899063628800,6.43562890625,3.298760414123535,1.0665645599365234,-0.8131722807884216
1763698899073635600,6.445635498046875,3.2838470935821533,0.6991923451423645,-0.9515193700790405
1763698899083640600,6.455640625,3.1794543266296387,0.37536147236824036,-1.017563819885254
1763698899093647400,6.4656474609375,2.990907907485962,0.17310036718845367,-1.0463250875473022
1763698899103658800,6.47565869140625,2.7501654624938965,0.07616416364908218,-1.0697603225708008
1763698899113665800,6.485665771484375,2.5095558166503906,0.06551183015108109,-1.0718907117843628
1763698899123673300,6.49567333984375,2.301835298538208,0.14327384531497955,-1.0207595825195312
1763698899133680600,6.5056806640625,2.091052532196045,0.2444709837436676,-0.9069127440452576
1763698899143685600,6.515685546875,1.809830904006958,0.3476654291152954,-0.7407364249229431
1763698899153692700,6.525692626953125,1.44352388381958,0.430753618478775,-0.5457987785339355
1763698899163700200,6.5357001953125,1.0110392570495605,0.4339492917060852,-0.3263607621192932
1763698899173707300,6.545707275390625,0.5712311863899231,0.3359478712081909,-0.07190322875976562
1763698899183717600,6.555717529296875,0.1772281378507614,0.18375270068645477,0.20505735278129578
1763698899193725200,6.56572509765625,-0.17110306024551392,0.045272402465343475,0.42862313985824585
1763698899203727600,6.5757275390625,-0.4820179343223572,-0.1699046641588211,0.5181027054786682
1763698899213734700,6.585734619140625,-0.8026530742645264,-0.33381739258766174,0.4456668794155121
1763698899223742700,6.59574267578125,-1.1295465230941772,-0.3402087986469269,0.2252967804670334
1763698899233749800,6.605749755859375,-1.385202407836914,-0.23275341093540192,-0.0846860259771347
1763698899243747800,6.615747802734375,-1.5194216966629028,-0.025032976642251015,-0.40838369727134705
1763698899253753900,6.62575390625,-1.5863982439041138,0.1177082508802414,-0.5916038155555725
1763698899263761200,6.63576123046875,-1.620485782623291,0.034620072692632675,-0.5436683297157288
1763698899273767200,6.64576708984375,-1.6609646081924438,-0.24021004140377045,-0.4030575454235077
1763698899283783200,6.655783203125,-1.7632269859313965,-0.589473307132721,-0.35405683517456055
1763698899293790200,6.665790283203125,-1.8953158855438232,-1.0058462619781494,-0.46164536476135254
1763698899303791000,6.675791015625,-1.9038376808166504,-1.424482822418213,-0.6906704902648926
1763698899313797600,6.685797607421875,-1.6822692155838013,-1.6480486392974854,-0.9047822952270508
1763698899323811600,6.6958115234375,-1.3138318061828613,-1.542590618133545,-0.9866721034049988
1763698899333818600,6.705818603515625,-0.9463263750076294,-1.3243509531021118,-0.9611064791679382
1763698899343817700,6.715817626953125,-0.6503247618675232,-1.0931954383850098,-0.880281925201416
1763698899353824000,6.725823974609375,-0.413843035697937,-0.8174331784248352,-0.7215622067451477
1763698899363846700,6.7358466796875,-0.23288656771183014,-0.5734948515892029,-0.47336292266845703
1763698899373854700,6.745854736328125,-0.07629731297492981,-0.5436683297157288,-0.16457849740982056
1763698899383851000,6.75585107421875,0.03129122033715248,-0.8472597002983093,0.13262151181697845
1763698899393858000,6.765858154296875,0.05898727849125862,-1.3850692510604858,0.32209983468055725
1763698899403856100,6.775856201171875,0.004660394508391619,-1.942052960395813,0.3402087986469269
1763698899413862100,6.785862060546875,-0.08694964647293091,-2.314751386642456,0.1912093311548233
1763698899423877400,6.79587744140625,-0.14660269021987915,-2.356295347213745,-0.06657706201076508
1763698899433884400,6.805884521484375,-0.15938548743724823,-2.0730767250061035,-0.38601380586624146
1763698899443882500,6.815882568359375,-0.1615159511566162,-1.5553733110427856,-0.7481930255889893
1763698899453888800,6.825888671875,-0.19027724862098694,-0.9122389554977417,-1.1326090097427368
1763698899463910700,6.83591064453125,-0.26484355330467224,-0.2892107665538788,-1.5160928964614868
1763698899473918500,6.84591845703125,-0.36910325288772583,0.14327384531497955,-1.8632256984710693
1763698899483912000,6.855911865234375,-0.46071329712867737,0.40625324845314026,-2.1092946529388428
1763698899493918200,6.865918212890625,-0.5129097104072571,0.5106461048126221,-2.2060976028442383
1763698899503921400,6.87592138671875,-0.5310186743736267,0.4456668794155121,-2.1453793048858643
1763698899513927400,6.885927490234375,-0.5310186743736267,0.2742975056171417,-1.965488076210022
1763698899523940000,6.895940185546875,-0.5501928329467773,0.1272953450679779,-1.7204844951629639
1763698899533946600,6.905946533203125,-0.590671718120575,0.12090394645929337,-1.377612590789795
1763698899543958500,6.91595849609375,-0.6002588272094727,0.2742975056171417,-0.9216928482055664
1763698899553965800,6.9259658203125,-0.590671718120575,0.5649729371070862,-0.38494858145713806
1763698899563981000,6.93598095703125,-0.5842803120613098,0.8941299915313721,0.19866596162319183
1763698899573989000,6.945989013671875,-0.5853455662727356,1.1560441255569458,0.7684324979782104
1763698899583979800,6.955979736328125,-0.6013240218162537,1.3105028867721558,1.262567400932312
1763698899593985800,6.96598583984375,-0.6268896460533142,1.3882648944854736,1.6469833850860596
1763698899603996200,6.97599609375,-0.6354115009307861,1.4425917863845825,1.9356615543365479
1763698899614002700,6.986002685546875,-0.6023892760276794,1.5638952255249023,2.175205945968628
1763698899624009200,6.99600927734375,-0.5267577171325684,1.8323339223861694,2.436187982559204
1763698899634015700,7.006015625,-0.41916918754577637,2.165618658065796,2.7238008975982666
1763698899644028700,7.016028564453125,-0.2509955167770386,2.207162857055664,2.9303228855133057
1763698899654036000,7.026035888671875,0.00359516148455441,1.8898565769195557,3.041107177734375
1763698899664046000,7.036046142578125,0.38375020027160645,1.1741530895233154,3.1231300830841064
1763698899674053600,7.0460537109375,0.8151695728302002,0.3274259865283966,3.191304922103882
1763698899684057300,7.056057373046875,1.1420629024505615,-0.37642672657966614,3.1742613315582275
1763698899694064600,7.066064697265625,1.296521782875061,-0.7162360548973083,3.0070197582244873
1763698899704057600,7.0760576171875,1.3401962518692017,-0.5617772936820984,2.7238008975982666
1763698899714063400,7.0860634765625,1.3923927545547485,0.055924732238054276,2.38079571723938
1763698899724077800,7.096077880859375,1.511698842048645,0.9845415949821472,2.050706624984741
1763698899734084600,7.106084716796875,1.7150251865386963,1.865356206893921,1.7961159944534302
1763698899744098000,7.11609814453125,1.9909205436706543,2.4021005630493164,1.6182221174240112
1763698899754105300,7.126105224609375,2.282661199569702,2.5416460037231445,1.5043753385543823
1763698899764105200,7.136105224609375,2.5425779819488525,2.338186502456665,1.4276785850524902
1763698899774111700,7.14611181640625,2.7416434288024902,1.8962479829788208,1.3520469665527344
1763698899784118000,7.156117919921875,2.8811891078948975,1.3254162073135376,1.2508498430252075
1763698899794124500,7.16612451171875,2.9845166206359863,0.7386059761047363,1.125152349472046
1763698899804126700,7.176126708984375,3.064409017562866,0.26044946908950806,0.9760197401046753
1763698899814133000,7.186133056640625,3.098496675491333,-0.00905448105186224,0.7748238444328308
1763698899824144100,7.19614404296875,3.0622787475585938,-0.058055199682712555,0.49147188663482666
1763698899834150700,7.206150634765625,2.963212013244629,0.060185667127370834,0.12409964948892593
1763698899844154400,7.216154296875,2.827927350997925,0.29347169399261475,-0.32316505908966064
1763698899854160600,7.22616064453125,2.6640145778656006,0.5564510822296143,-0.7982590198516846
1763698899864168700,7.236168701171875,2.493577241897583,0.8099765777587891,-1.192262053489685
1763698899874175200,7.24617529296875,2.319944381713867,1.0431294441223145,-1.4042434692382812
1763698899884162000,7.256162109375,2.113422393798828,1.1986534595489502,-1.4085043668746948
1763698899894166500,7.26616650390625,1.823678970336914,1.286002516746521,-1.232740879058838
1763698899904179200,7.27617919921875,1.4477847814559937,1.3051767349243164,-0.916366696357727
1763698899914184400,7.286184326171875,0.9961260557174683,1.2689588069915771,-0.5319507122039795
1763698899924191500,7.29619140625,0.4977301359176636,1.1890664100646973,-0.14007814228534698
1763698899934197000,7.306197021484375,0.007856093347072601,1.0431294441223145,0.21570968627929688
1763698899944202500,7.316202392578125,-0.43088674545288086,0.8238245844841003,0.4872109591960907
1763698899954208000,7.3262080078125,-0.7962616682052612,0.5447335243225098,0.5979951620101929
1763698899964246000,7.33624609375,-1.085871934890747,0.3071865737438202,0.5234288573265076
1763698899974254800,7.3462548828125,-1.3159621953964233,0.20505735278129578,0.2796236574649811
1763698899984229000,7.35622900390625,-1.47894287109375,0.27323228120803833,-0.061250898987054825
1763698899994234400,7.366234375,-1.5736154317855835,0.4573844373226166,-0.33488261699676514
1763698900004247600,7.37624755859375,-1.6236814260482788,0.5532553791999817,-0.4243622124195099
1763698900014253600,7.386253662109375,-1.6886606216430664,0.40731847286224365,-0.4243622124195099
1763698900024272400,7.3962724609375,-1.8654893636703491,0.07296846061944962,-0.5149070024490356
1763698900034279700,7.40627978515625,-2.1275367736816406,-0.5010589957237244,-0.8259550333023071
1763698900044292400,7.416292236328125,-2.3031668663024902,-1.207175374031067,-1.293459177017212
1763698900054300200,7.426300048828125,-2.224339723587036,-1.7545719146728516,-1.7247453927993774
1763698900064308000,7.436307861328125,-1.9389903545379639,-1.975075125694275,-1.9974451065063477
1763698900074315800,7.446315673828125,-1.5555064678192139,-1.955901026725769,-2.07414174079895
1763698900084315000,7.45631494140625,-1.1615034341812134,-1.7673547267913818,-1.9335310459136963
1763698900094322000,7.466322021484375,-0.8239577412605286,-1.3999824523925781,-1.5777432918548584
1763698900104326100,7.476326171875,-0.5917369723320007,-0.9813459515571594,-1.068695068359375
1763698900114332700,7.486332763671875,-0.4671046733856201,-0.688539981842041,-0.49466758966445923
1763698900124344000,7.496343994140625,-0.413843035697937,-0.665104866027832,0.017576344311237335
1763698900134351000,7.50635107421875,-0.4244953691959381,-0.8930647373199463,0.3711005449295044
1763698900144366300,7.516366455078125,-0.5065183043479919,-1.1890664100646973,0.5308855175971985
1763698900154374100,7.5263740234375,-0.6386072039604187,-1.4042434692382812,0.5106461048126221
1763698900164375000,7.536375,-0.750456690788269,-1.438330888748169,0.34340450167655945
1763698900174382000,7.546382080078125,-0.7930659651756287,-1.2923939228057861,0.060185667127370834
1763698900184388600,7.556388671875,-0.7717612981796265,-1.0282161235809326,-0.32316505908966064
1763698900194395600,7.566395751953125,-0.7163692116737366,-0.7449973225593567,-0.7758890986442566
1763698900204402000,7.57640185546875,-0.666303277015686,-0.48401525616645813,-1.2615022659301758
1763698900214409000,7.586408935546875,-0.6460638046264648,-0.26257994771003723,-1.7439196109771729
1763698900224413400,7.596413330078125,-0.6471290588378906,-0.08255556225776672,-2.1762709617614746
1763698900234420200,7.606420166015625,-0.6386072039604187,0.054859500378370285,-2.487318992614746
1763698900244423400,7.61642333984375,-0.6066502332687378,0.18588316440582275,-2.6481692790985107
1763698900254429700,7.6264296875,-0.5555190443992615,0.3082517981529236,-2.633255958557129
1763698900264435700,7.636435791015625,-0.4894745647907257,0.44779732823371887,-2.408491849899292
1763698900274442000,7.64644189453125,-0.413843035697937,0.5212984085083008,-1.9665533304214478
1763698900284453000,7.656453125,-0.3414071798324585,0.4957328140735626,-1.3595036268234253
1763698900294460000,7.6664599609375,-0.28508299589157104,0.42755791544914246,-0.6459306478500366
1763698900304469000,7.676468994140625,-0.2488650679588318,0.39560091495513916,0.09107742458581924
1763698900314476000,7.68647607421875,-0.18921200931072235,0.4446016252040863,0.7737586498260498
1763698900324484000,7.696484130859375,-0.06777545064687729,0.5873428583145142,1.3595036268234253
1763698900334491100,7.7064912109375,0.10266183316707611,0.7705629467964172,1.7918550968170166
1763698900344492300,7.7164921875,0.302792489528656,0.9440627694129944,2.0773375034332275
1763698900354498800,7.726498779296875,0.5073172450065613,1.1720225811004639,2.287055253982544
1763698900364508000,7.7365078125,0.6926677823066711,1.499049186706543,2.507558584213257
1763698900374514700,7.7465146484375,0.8386046886444092,1.82700777053833,2.7407114505767822
1763698900384529700,7.75652978515625,0.9364729523658752,1.9058350324630737,2.8887789249420166
1763698900394537200,7.766537109375,1.0195611715316772,1.6011784076690674,2.895170211791992
1763698900404536300,7.776536376953125,1.1740199327468872,0.9983896613121033,2.8514957427978516
1763698900414542800,7.78654296875,1.429675817489624,0.42968836426734924,2.8749308586120605
1763698900424546600,7.796546630859375,1.7075685262680054,0.10066451877355576,3.0016934871673584
1763698900434552800,7.806552734375,1.9046366214752197,0.028228675946593285,3.1657392978668213
1763698900444554500,7.816554443359375,1.9802682399749756,0.16457849740982056,3.261610269546509
1763698900454560300,7.826560302734375,1.9792029857635498,0.4850804805755615,3.247762441635132
1763698900464573700,7.83657373046875,1.968550682067871,0.9515193700790405,3.1497609615325928
1763698900474580200,7.846580322265625,2.002638101577759,1.3488513231277466,2.9505622386932373
1763698900484587000,7.8565869140625,2.1059656143188477,1.6576356887817383,2.6545608043670654
1763698900494593500,7.866593505859375,2.275204658508301,1.8515081405639648,2.3126208782196045
1763698900504610000,7.876610107421875,2.4871859550476074,1.8941174745559692,1.951640009880066
1763698900514617600,7.88661767578125,2.7151458263397217,1.7843984365463257,1.5937217473983765
1763698900524615400,7.896615478515625,2.9376463890075684,1.5001144409179688,1.252980351448059
1763698900534622200,7.906622314453125,3.1229968070983887,1.092130184173584,0.947258472442627
1763698900544626400,7.91662646484375,3.225259304046631,0.6853442788124084,0.68747478723526
1763698900554632700,7.9266328125,3.214607000350952,0.38814428448677063,0.4680367708206177
1763698900564649500,7.9366494140625,3.1016921997070312,0.27003657817840576,0.26897132396698
1763698900574656800,7.94665673828125,2.9174070358276367,0.35618728399276733,0.051663801074028015
1763698900584657400,7.956657470703125,2.6938412189483643,0.5500596761703491,-0.2018616646528244
1763698900594664200,7.966664306640625,2.4552290439605713,0.7354102730751038,-0.45951488614082336
1763698900604686000,7.97668603515625,2.2166168689727783,0.8941299915313721,-0.6288869380950928
1763698900614694400,7.9866943359375,1.9568331241607666,1.0367380380630493,-0.6246260404586792
1763698900624684800,7.996684814453125,1.6351326704025269,1.1400656700134277,-0.4456668794155121
1763698900634691300,8.00669140625,1.221955418586731,1.1901315450668335,-0.14433906972408295
1763698900644701200,8.016701171875,0.7288857102394104,1.162435531616211,0.2135792225599289
1763698900654708000,8.0267080078125,0.1772281378507614,1.0591078996658325,0.5671034455299377
1763698900664706000,8.0367060546875,-0.36910325288772583,0.8706948161125183,0.8461945056915283
1763698900674712000,8.046712158203125,-0.8601756691932678,0.6192998290061951,0.9962592124938965
1763698900684723500,8.056723388671875,-1.2531135082244873,0.33381739258766174,0.985606849193573
1763698900694730000,8.06672998046875,-1.5352671146392822,0.060185667127370834,0.7652367949485779
1763698900704751400,8.07675146484375,-1.7238132953643799,-0.1283605843782425,0.30518925189971924
1763698900714759200,8.08675927734375,-1.8569674491882324,-0.15925233066082,-0.32316505908966064
1763698900724745200,8.0967451171875,-1.943251371383667,-0.0079892473295331,-0.9866721034049988
1763698900734751000,8.1067509765625,-1.9613603353500366,0.25192761421203613,-1.5022448301315308
1763698900744756500,8.116756591796875,-1.9272727966308594,0.5031894445419312,-1.6885274648666382
1763698900754762000,8.126761962890624,-1.9134248495101929,0.5820167064666748,-1.5033100843429565
1763698900764773600,8.136773681640625,-2.0007739067077637,0.3306216895580292,-1.1230219602584839
1763698900774780000,8.14677978515625,-2.281862258911133,-0.29134124517440796,-0.8994561433792114
1763698900784796700,8.156796630859375,-2.632323980331421,-1.3105028867721558,-1.010107159614563
1763698900794804000,8.166803955078125,-2.782388687133789,-2.258294105529785,-1.3456555604934692
1763698900804816600,8.176816650390625,-2.5492358207702637,-2.707822322845459,-1.7630938291549683
1763698900814824700,8.18682470703125,-2.003969669342041,-2.750298500061035,-2.22633695602417
1763698900824814300,8.196814453125,-1.2914619445800781,-2.572537660598755,-2.670539140701294
1763698900834820000,8.206820068359375,-0.5725627541542053,-2.1007726192474365,-2.9132790565490723
1763698900844841000,8.216841064453124,0.04513924941420555,-1.4479179382324219,-2.7992992401123047
1763698900854848500,8.2268486328125,0.4551208019256592,-0.9685631394386292,-2.353099822998047
1763698900864850000,8.236849853515626,0.5893401503562927,-0.864303469657898,-1.742854356765747
1763698900874856700,8.246856689453125,0.48920828104019165,-1.078282117843628,-1.1038477420806885
1763698900884856000,8.25685595703125,0.27949050068855286,-1.377612590789795,-0.5298202633857727
1763698900894862300,8.2668623046875,0.0930747389793396,-1.566025733947754,-0.1272953450679779
1763698900904869400,8.276869384765625,0.005725627299398184,-1.568156123161316,0.055924732238054276
1763698900914875600,8.286875732421874,0.005725627299398184,-1.407439112663269,0.033554840832948685
1763698900924879000,8.296879150390625,0.04940018057823181,-1.1379351615905762,-0.16138280928134918
1763698900934885000,8.306885009765624,0.07496577501296997,-0.8227593302726746,-0.496798038482666
1763698900944904200,8.316904296875,0.05259587988257408,-0.5628424882888794,-0.9312799572944641
1763698900954911500,8.326911376953126,-0.0027962366584688425,-0.41903603076934814,-1.4031782150268555
1763698900964907000,8.336906982421874,-0.06031882017850876,-0.36364391446113586,-1.8493776321411133
1763698900974913000,8.3469130859375,-0.09227581322193146,-0.34340450167655945,-2.1965105533599854
1763698900984923600,8.356923583984376,-0.07416684925556183,-0.3263607621192932,-2.408491849899292
1763698900994930200,8.36693017578125,-0.01877473294734955,-0.28068891167640686,-2.473471164703369
1763698901004940800,8.37694091796875,0.03661738336086273,-0.2018616646528244,-2.3413822650909424
1763698901014947800,8.38694775390625,0.10692276805639267,-0.10172975063323975,-1.9857275485992432
1763698901024963300,8.39696337890625,0.18042384088039398,0.00585878174751997,-1.4298089742660522
1763698901034971000,8.406970947265625,0.22835932672023773,0.050598569214344025,-0.7673672437667847
1763698901044946200,8.4169462890625,0.24433782696723938,0.006924014538526535,-0.1166430190205574
1763698901054950700,8.42695068359375,0.2315550297498703,-0.09001219272613525,0.4137098789215088
1763698901064991700,8.43699169921875,0.21557652950286865,-0.1496652364730835,0.8046503663063049
1763698901075000000,8.447,0.2517944574356079,-0.07616416364908218,1.0804126262664795
1763698901084969000,8.456968994140626,0.35072797536849976,0.12409964948892593,1.262567400932312
1763698901094973200,8.46697314453125,0.5051867365837097,0.4360797703266144,1.4319394826889038
1763698901105017000,8.47701708984375,0.6745588183403015,0.8099765777587891,1.6491138935089111
1763698901115025400,8.487025390625,0.8109086155891418,1.2167624235153198,1.9122264385223389
1763698901125001000,8.4970009765625,0.8673660159111023,1.508636236190796,2.216749906539917
1763698901135006000,8.507005859375,0.855648398399353,1.4596354961395264,2.487318992614746
1763698901145013500,8.517013427734375,0.8418003916740417,1.0910649299621582,2.6577563285827637
1763698901155018800,8.527018798828125,0.9311468005180359,0.4957328140735626,2.7726683616638184
1763698901165049900,8.5370498046875,1.144193410873413,0.019706811755895615,2.933518648147583
1763698901175057700,8.5470576171875,1.3796099424362183,-0.08788172155618668,3.1891744136810303
1763698901185060900,8.557060791015624,1.5563054084777832,0.09853405505418777,3.4851760864257812
1763698901195068200,8.567068115234376,1.6361979246139526,0.37536147236824036,3.6950271129608154
1763698901205052000,8.577052001953126,1.6468502283096313,0.6768224239349365,3.7589409351348877
1763698901215057000,8.587056884765625,1.6447198390960693,1.0665645599365234,3.7280492782592773
1763698901225087700,8.597087646484376,1.6830681562423706,1.391460657119751,3.5735905170440674
1763698901235095300,8.60709521484375,1.7885262966156006,1.6299396753311157,3.288241147994995
1763698901245103900,8.617103759765625,1.9504417181015015,1.789724588394165,2.919670581817627
1763698901255111400,8.627111328125,2.1399199962615967,1.8610951900482178,2.5139498710632324
1763698901265115000,8.637114990234375,2.3423142433166504,1.8067684173583984,2.0975770950317383
1763698901275122000,8.647121826171874,2.54577374458313,1.5969175100326538,1.7002450227737427
1763698901285122000,8.6571220703125,2.7395129203796387,1.2732198238372803,1.3520469665527344
1763698901295128600,8.667128662109375,2.8950369358062744,0.9302147626876831,1.0676298141479492
1763698901305139000,8.677138916015625,2.9919731616973877,0.6693658232688904,0.8259550333023071
1763698901315145700,8.687145751953125,3.0111474990844727,0.55751633644104,0.5958647131919861
1763698901325152800,8.69715283203125,2.9280593395233154,0.5937342643737793,0.32103461027145386
1763698901335159600,8.70715966796875,2.7491002082824707,0.7332797646522522,-0.032489608973264694
1763698901345164800,8.717164794921874,2.521273374557495,0.939801812171936,-0.4446016252040863
1763698901355171600,8.727171630859376,2.2943787574768066,1.176283597946167,-0.8515206575393677
1763698901365187000,8.73718701171875,2.0835957527160645,1.3978520631790161,-1.168826937675476
1763698901375194600,8.747194580078125,1.8790709972381592,1.5841346979141235,-1.3179595470428467
1763698901385194500,8.757194580078124,1.65750253200531,1.6981146335601807,-1.2583065032958984
1763698901395201300,8.767201171875,1.390262246131897,1.7087669372558594,-0.9813459515571594
1763698901405216000,8.777216064453125,1.014235019683838,1.621417760848999,-0.5362116694450378
1763698901415223600,8.7872236328125,0.5105129480361938,1.4266133308410645,-0.026098208501935005
1763698901425218600,8.797218505859375,-0.07097115367650986,1.1400656700134277,0.430753618478775
1763698901435224800,8.807224853515624,-0.6439333558082581,0.8206288814544678,0.7204970121383667
1763698901445232000,8.817232177734375,-1.1306116580963135,0.5489944815635681,0.7865414619445801
1763698901455238700,8.82723876953125,-1.486399531364441,0.3828181326389313,0.6118432283401489
1763698901465249000,8.8372490234375,-1.7089000940322876,0.31251272559165955,0.2029268890619278
1763698901475255800,8.847255859375,-1.8388584852218628,0.35299158096313477,-0.36577439308166504
1763698901485258800,8.8572587890625,-1.8910548686981201,0.49040666222572327,-0.9270190596580505
1763698901495265300,8.867265380859376,-1.8708155155181885,0.6224955320358276,-1.2338061332702637
1763698901505280800,8.87728076171875,-1.8601632118225098,0.6310173869132996,-1.1986534595489502
1763698901515288000,8.8872880859375,-1.9847954511642456,0.4573844373226166,-0.9579107761383057
1763698901525285000,8.89728515625,-2.2925145626068115,0.037815771996974945,-0.796128511428833
1763698901535291400,8.90729150390625,-2.6355197429656982,-0.6608439087867737,-0.8493902087211609
1763698901545300700,8.91730078125,-2.7196731567382812,-1.2572412490844727,-1.0015853643417358
1763698901555307300,8.927307373046874,-2.4096901416778564,-1.4841358661651611,-1.1198261976242065
1763698901565313000,8.93731298828125,-1.8676197528839111,-1.38400399684906,-1.192262053489685
1763698901575319600,8.947319580078124,-1.277613878250122,-1.1975882053375244,-1.2306104898452759
1763698901585325800,8.957325927734376,-0.7440652847290039,-1.0516513586044312,-1.1709574460983276
1763698901595332000,8.96733203125,-0.3392767310142517,-0.9643021821975708,-0.9451280236244202
1763698901605339100,8.977339111328124,-0.09653674066066742,-0.9515193700790405,-0.5798861980438232
1763698901615345700,8.987345703125,-0.010252867825329304,-1.094260573387146,-0.1603175699710846
1763698901625359400,8.997359375,-0.06884068250656128,-1.461766004562378,0.19760072231292725
1763698901635366400,9.007366455078126,-0.22116900980472565,-1.9037045240402222,0.4041227698326111
1763698901645374700,9.017374755859375,-0.4159734845161438,-2.231663227081299,0.4094489514827728
1763698901655382000,9.027382080078125,-0.6045197248458862,-2.3136861324310303,0.20931829512119293
1763698901665383000,9.0373828125,-0.735543429851532,-2.147509813308716,-0.16670896112918854
1763698901675389700,9.0473896484375,-0.7898702621459961,-1.780137538909912,-0.6438001990318298
1763698901685397000,9.05739697265625,-0.7866745591163635,-1.262567400932312,-1.1635007858276367
1763698901695403500,9.067403564453125,-0.7802832126617432,-0.7290188670158386,-1.6842665672302246
1763698901705409500,9.077409423828126,-0.8218272924423218,-0.2529928386211395,-2.15177059173584
1763698901715416300,9.087416259765625,-0.9113068580627441,0.12303441762924194,-2.5277979373931885
1763698901725419800,9.097419677734376,-1.0123708248138428,0.38707906007766724,-2.7779946327209473
1763698901735426000,9.107426025390625,-1.0869371891021729,0.5117112994194031,-2.8930397033691406
1763698901745446100,9.117446044921875,-1.109307050704956,0.5085155963897705,-2.853626012802124
1763698901755454000,9.127453857421875,-1.0507192611694336,0.4893414080142975,-2.605560064315796
1763698901765458000,9.1374580078125,-0.9134373068809509,0.49253711104393005,-2.126338243484497
1763698901775465500,9.147465576171875,-0.750456690788269,0.49360236525535583,-1.4958534240722656
1763698901785476000,9.15747607421875,-0.6236939430236816,0.46910199522972107,-0.8035851716995239
1763698901795483600,9.167483642578125,-0.5278229713439941,0.44779732823371887,-0.1283605843782425
1763698901805487900,9.17748779296875,-0.43301722407341003,0.47123244404792786,0.47975432872772217
1763698901815495200,9.1874951171875,-0.3222329914569855,0.5042546987533569,1.007976770401001
1763698901825498000,9.197498046875,-0.18921200931072235,0.47229769825935364,1.4255480766296387
1763698901835505000,9.2075048828125,-0.04860125854611397,0.4254274368286133,1.764159083366394
1763698901845523200,9.217523193359375,0.06857437640428543,0.41797080636024475,2.089055061340332
1763698901855531000,9.227531005859374,0.14314068853855133,0.5031894445419312,2.417013645172119
1763698901865531000,9.23753076171875,0.16444534063339233,0.795063316822052,2.730192184448242
1763698901875538000,9.247537841796875,0.15379302203655243,1.346720814704895,3.0091500282287598
1763698901885550600,9.257550537109376,0.15059731900691986,1.8163554668426514,3.143369436264038
1763698901895558100,9.26755810546875,0.18681524693965912,1.867486596107483,3.0336503982543945
1763698901905557500,9.2775576171875,0.32835808396339417,1.3808083534240723,2.7046265602111816
1763698901915564300,9.287564208984374,0.6468627452850342,0.496798038482666,2.2764029502868652
1763698901925562600,9.297562744140626,1.0632357597351074,-0.22423155605793,1.9463138580322266
1763698901935568400,9.307568359375,1.396653652191162,-0.4786891043186188,1.7961159944534302
1763698901945583000,9.3175830078125,1.5648273229599,-0.21784014999866486,1.7961159944534302
1763698901955589600,9.327589599609375,1.6298065185546875,0.46271058917045593,1.9154220819473267
1763698901965592800,9.3375927734375,1.6990467309951782,1.2359366416931152,2.0815985202789307
1763698901975599000,9.34759912109375,1.8385921716690063,1.8536386489868164,2.2433807849884033
1763698901985612800,9.35761279296875,2.06655216217041,2.1443140506744385,2.2891857624053955
1763698901995620000,9.3676201171875,2.344444751739502,2.1570968627929688,2.2188804149627686
1763698902005620500,9.377620361328125,2.6277966499328613,2.0027711391448975,2.0730767250061035
1763698902015627000,9.387626953125,2.88331937789917,1.7247453927993774,1.865356206893921
1763698902025635800,9.3976357421875,3.09423565864563,1.377612590789795,1.6139612197875977
1763698902035642600,9.407642578125,3.2497596740722656,1.0228899717330933,1.3381990194320679
1763698902045647400,9.4176474609375,3.3307173252105713,0.7002575397491455,1.0303466320037842
1763698902055653600,9.427653564453125,3.3296520709991455,0.4435364007949829,0.6949313879013062
1763698902065638000,9.437637939453126,3.2316505908966064,0.29134124517440796,0.3242303133010864
1763698902075642000,9.44764208984375,3.047365427017212,0.27323228120803833,-0.06764229387044907
1763698902085646600,9.457646484375,2.7981009483337402,0.38814428448677063,-0.4744281470775604
1763698902095650800,9.46765087890625,2.5010340213775635,0.5681686401367188,-0.8749557733535767
1763698902105663000,9.4776630859375,2.2059643268585205,0.7971937656402588,-1.1187609434127808
1763698902115668200,9.487668212890625,1.9323327541351318,1.0718907117843628,-1.0633689165115356
1763698902125671400,9.49767138671875,1.6053061485290527,1.2955896854400635,-0.7428668737411499
1763698902135676400,9.507676513671875,1.1963897943496704,1.368025541305542,-0.22742724418640137
1763698902145685800,9.517685791015625,0.7224943041801453,1.2891982793807983,0.42862313985824585
1763698902155691000,9.52769091796875,0.18148908019065857,1.0228899717330933,1.0633689165115356
1763698902165680600,9.5376806640625,-0.39040789008140564,0.6065170764923096,1.5065058469772339
1763698902175684600,9.5476845703125,-0.9218260049819946,0.18588316440582275,1.7013102769851685
1763698902185732000,9.557732177734374,-1.3415278196334839,-0.10279498994350433,1.6480486392974854
1763698902195740400,9.567740478515624,-1.6407251358032227,-0.19440503418445587,1.3381990194320679
1763698902205741300,9.5777412109375,-1.8367280960083008,-0.08894696086645126,0.833411693572998
1763698902215748900,9.587748779296875,-1.9464470148086548,0.16244803369045258,0.2742975056171417
1763698902225755000,9.5977548828125,-1.9677517414093018,0.46271058917045593,-0.14007814228534698
1763698902235762200,9.60776220703125,-1.9272727966308594,0.6981270909309387,-0.26044946908950806
1763698902245755000,9.6177548828125,-1.935794711112976,0.7684324979782104,-0.18375270068645477
1763698902255760600,9.6277607421875,-2.08918833732605,0.6129084229469299,-0.2018616646528244
1763698902265799700,9.637799560546876,-2.323406457901001,0.07190322875976562,-0.5021241903305054
1763698902275808800,9.647808837890626,-2.4373862743377686,-0.6491263508796692,-0.9653674364089966
1763698902285852700,9.657852783203126,-2.2413835525512695,-1.2348713874816895,-1.3978520631790161
1763698902295865600,9.667865478515624,-1.774944543838501,-1.5383296012878418,-1.6810709238052368
1763698902305845500,9.677845458984375,-1.2051780223846436,-1.6927884817123413,-1.820616364479065
1763698902315854800,9.687854736328125,-0.7035863995552063,-1.8259425163269043,-1.7886594533920288
1763698902325871900,9.697871826171875,-0.34779858589172363,-1.9782708883285522,-1.5361992120742798
1763698902335882000,9.707882080078125,-0.1519288569688797,-2.235924005508423,-1.084673523902893
1763698902345866800,9.71786669921875,-0.1306242048740387,-2.6492345333099365,-0.5671034455299377
1763698902355874300,9.727874267578125,-0.2776263654232025,-3.018737316131592,-0.15073047578334808
1763698902365867800,9.73786767578125,-0.4905398190021515,-3.0666728019714355,0.07829462736845016
1763698902375874000,9.7478740234375,-0.6418029069900513,-2.736583709716797,0.11344731599092484
1763698902385906000,9.757906005859375,-0.7025212049484253,-2.222076177597046,-0.038881003856658936
1763698902395914500,9.76791455078125,-0.7302172183990479,-1.7183539867401123,-0.33275216817855835
1763698902405916400,9.77791650390625,-0.7802832126617432,-1.2902635335922241,-0.6789528727531433
1763698902415924500,9.787924560546875,-0.8569799661636353,-1.040998935699463,-1.0441946983337402
1763698902425895400,9.7978955078125,-0.9399349689483643,-0.9174319505691528,-1.4170262813568115
1763698902435899600,9.807899658203125,-1.0198274850845337,-0.8781514763832092,-1.773746132850647
1763698902445895700,9.817895751953126,-1.0315450429916382,-0.9184971451759338,-2.098642110824585
1763698902455899100,9.827899169921874,-0.964435338973999,-0.9802806973457336,-2.3584258556365967
1763698902465933000,9.83793310546875,-0.8378057479858398,-0.9015865921974182,-2.4383184909820557
1763698902475939300,9.847939208984375,-0.6854774355888367,-0.6161041259765625,-2.2700116634368896
1763698902485900500,9.857900634765626,-0.544866681098938,-0.21784014999866486,-1.8525733947753906
1763698902495902500,9.86790234375,-0.46177852153778076,0.18268746137619019,-1.2401975393295288
1763698902505915400,9.877915283203125,-0.43301722407341003,0.44034069776535034,-0.5447335243225098
1763698902515918300,9.88791845703125,-0.42129966616630554,0.47123244404792786,0.13049104809761047
1763698902525929200,9.89792919921875,-0.3637770712375641,0.24873191118240356,0.7002575397491455
1763698902535933000,9.907932861328124,-0.24353890120983124,0.017576344311237335,1.1379351615905762
1763698902545943000,9.917943115234374,-0.05286218971014023,-0.031424373388290405,1.4937230348587036
1763698902555947500,9.927947509765625,0.16338011622428894,0.14433906972408295,1.8078335523605347
1763698902565954300,9.937954345703124,0.3592498302459717,0.5138418078422546,2.0720114707946777
1763698902575958800,9.947958740234375,0.5232957005500793,0.9813459515571594,2.3030338287353516
1763698902585959000,9.957958984375,0.639406144618988,1.4926577806472778,2.53525447845459
1763698902595963100,9.967963134765625,0.6873416304588318,2.0304672718048096,2.8046255111694336
1763698902605998300,9.977998291015625,0.671363115310669,2.5885162353515625,3.134847640991211
1763698902616005600,9.988005615234375,0.6362104415893555,2.995302200317383,3.4702627658843994
1763698902626042600,9.998042724609375,0.6553846001625061,3.045367956161499,3.730179786682129
1763698902636053000,10.008052978515625,0.7629731297492981,2.7620160579681396,3.883573293685913
1763698902646036200,10.0180361328125,0.9886693954467773,2.2572288513183594,3.96972393989563
1763698902656043800,10.028043701171875,1.3423267602920532,1.6576356887817383,4.048551082611084
1763698902666039800,10.038039794921875,1.733134150505066,1.084673523902893,4.169987678527832
1763698902676046300,10.04804638671875,1.9834638833999634,0.39666613936424255,4.221118927001953
1763698902686051000,10.058051025390625,1.9397892951965332,-0.26897132396698,4.041094779968262
1763698902696057300,10.068057373046875,1.6500459909439087,-0.3583177626132965,3.6247217655181885
1763698902706065200,10.078065185546874,1.3284786939620972,0.3497959077358246,2.9921064376831055
1763698902716071700,10.08807177734375,1.1761504411697388,1.4798749685287476,2.1634883880615234
1763698902726086400,10.09808642578125,1.2741518020629883,2.5746681690216064,1.2412627935409546
1763698902736093700,10.10809375,1.578675389289856,3.4095447063446045,0.38388335704803467
1763698902746108700,10.118108642578125,1.9419198036193848,3.8590729236602783,-0.3306216895580292
1763698902756116500,10.128116455078125,2.2581608295440674,3.8633339405059814,-0.8728253245353699
1763698902776125200,10.148125244140624,2.675732135772705,2.806755781173706,-1.3861345052719116
1763698902786129000,10.15812890625,2.7917094230651855,2.0304672718048096,-1.407439112663269
1763698902796135700,10.1681357421875,2.864145278930664,1.3318076133728027,-1.323285698890686
1763698902806137000,10.17813720703125,2.8822543621063232,0.7865414619445801,-1.201849102973938
1763698902816143600,10.1881435546875,2.8439059257507324,0.4211665093898773,-1.0772168636322021
1763698902826147000,10.19814697265625,2.743773937225342,0.21784014999866486,-0.9643021821975708
1763698902836153000,10.208153076171875,2.581991672515869,0.13688243925571442,-0.9047822952270508
1763698902846180900,10.218180908203125,2.39131498336792,0.18694838881492615,-0.8717600703239441
1763698902856189200,10.228189208984375,2.189985990524292,0.3274259865283966,-0.781215250492096
1763698902866184700,10.238184814453126,1.9717463254928589,0.48295003175735474,-0.5585815906524658
1763698902876191500,10.24819140625,1.692655324935913,0.6182346343994141,-0.20718781650066376
1763698902886205000,10.258204833984376,1.3178263902664185,0.6959966421127319,0.18481792509555817
1763698902896212500,10.26821240234375,0.8716269135475159,0.6693658232688904,0.534081220626831
1763698902906219000,10.278218994140625,0.4210333526134491,0.5266245603561401,0.772693395614624
1763698902916226600,10.2882265625,-0.011318100616335869,0.3497959077358246,0.8323464393615723
1763698902926222300,10.298222412109375,-0.4053211510181427,0.14007814228534698,0.6597787141799927
1763698902936228600,10.308228515625,-0.7270215153694153,-0.041011471301317215,0.2764279842376709
1763698902946245600,10.31824560546875,-0.9655005931854248,-0.09107742458581924,-0.2135792225599289
1763698902956253200,10.328253173828125,-1.1135679483413696,-0.047402869910001755,-0.7226274609565735
1763698902966257700,10.338257568359374,-1.2062432765960693,0.058055199682712555,-1.1166305541992188
1763698902976264700,10.3482646484375,-1.2520482540130615,0.14114338159561157,-1.2721545696258545
1763698902986272800,10.358272705078125,-1.2786791324615479,0.06551183015108109,-1.1496527194976807
1763698902996279800,10.36827978515625,-1.3447235822677612,-0.2338186502456665,-0.8110417723655701
1763698903006302000,10.378302001953125,-1.516226053237915,-0.7407364249229431,-0.5394073724746704
1763698903016310500,10.388310546875,-1.7738792896270752,-1.5097014904022217,-0.5756253004074097
1763698903026288600,10.39828857421875,-1.9283380508422852,-2.314751386642456,-0.8888037800788879
1763698903036294100,10.408294189453125,-1.7227481603622437,-2.8610827922821045,-1.3350032567977905
1763698903046306000,10.41830615234375,-1.1529816389083862,-2.9218010902404785,-1.7705504894256592
1763698903056312300,10.428312255859375,-0.38827744126319885,-2.5895814895629883,-2.0922508239746094
1763698903066317600,10.438317626953125,0.3581846058368683,-2.0997073650360107,-2.1666839122772217
1763698903076323600,10.448323486328125,0.914103090763092,-1.7204844951629639,-1.9484443664550781
1763698903086350000,10.45835009765625,1.144193410873413,-1.705571174621582,-1.5001144409179688
1763698903096358100,10.468358154296874,1.0163654088974,-1.9356615543365479,-0.9451280236244202
1763698903106360000,10.478360107421874,0.6894720792770386,-2.222076177597046,-0.4435364007949829
1763698903116367600,10.48836767578125,0.3997286856174469,-2.5182108879089355,-0.15286093950271606
1763698903126371000,10.49837109375,0.2954690158367157,-2.765211820602417,-0.18268746137619019
1763698903136378000,10.508378173828126,0.367771714925766,-2.8088862895965576,-0.45951488614082336
1763698903146376000,10.5183759765625,0.5137086510658264,-2.6108860969543457,-0.7790848016738892
1763698903156382200,10.52838232421875,0.6010577082633972,-2.3115556240081787,-1.0324771404266357
1763698903166383000,10.538383056640624,0.5573831796646118,-1.9399224519729614,-1.2114362716674805
1763698903176388600,10.548388671875,0.36244553327560425,-1.4340699911117554,-1.3520469665527344
1763698903186397200,10.558397216796875,0.07603100687265396,-0.9334104657173157,-1.4788097143173218
1763698903196403200,10.5684033203125,-0.17536398768424988,-0.4637758135795593,-1.5798736810684204
1763698903206424000,10.578424072265625,-0.3499290347099304,0.018641578033566475,-1.6629619598388672
1763698903216431600,10.588431640625,-0.4553871154785156,0.4648410677909851,-1.7300715446472168
1763698903226445600,10.598445556640625,-0.49480074644088745,0.8515206575393677,-1.7417891025543213
1763698903236454000,10.608453857421875,-0.4681699275970459,1.1358046531677246,-1.6544400453567505
1763698903246432300,10.618432373046875,-0.3967992961406708,1.29132878780365,-1.4393961429595947
1763698903256437200,10.628437255859374,-0.34460288286209106,1.3616341352462769,-1.1049129962921143
1763698903266471400,10.638471435546874,-0.3328853249549866,1.3797430992126465,-0.665104866027832
1763698903276479200,10.648479248046876,-0.35632044076919556,1.4362003803253174,-0.1603175699710846
1763698903286480000,10.65847998046875,-0.3722989559173584,1.5468515157699585,0.3679048418998718
1763698903296487200,10.668487060546875,-0.3520595133304596,1.6832013130187988,0.8291507363319397
1763698903306499600,10.67849951171875,-0.2680392563343048,1.8525733947753906,1.2178276777267456
1763698903316507100,10.688507080078125,-0.12742850184440613,2.005966901779175,1.5777432918548584
1763698903326509600,10.698509521484375,0.012117025442421436,2.090120315551758,1.9100959300994873
1763698903336516600,10.7085166015625,0.10585752874612808,2.161357879638672,2.22633695602417
1763698903346518300,10.718518310546875,0.15911918878555298,2.310490369796753,2.5895814895629883
1763698903356524800,10.72852490234375,0.16977150738239288,2.59171199798584,3.026193857192993
1763698903366550500,10.738550537109376,0.17403244972229004,2.7385809421539307,3.3988921642303467
1763698903376559000,10.74855908203125,0.25925108790397644,2.446840286254883,3.5437638759613037
1763698903386558200,10.75855810546875,0.5137086510658264,1.5937217473983765,3.4340450763702393
1763698903396565800,10.768565673828125,0.878018319606781,0.3796224296092987,3.0815858840942383
1763698903406549500,10.778549560546875,1.2549777030944824,-0.7183665037155151,2.6076903343200684
1763698903416554800,10.7885546875,1.5467183589935303,-1.293459177017212,2.161357879638672
1763698903426585300,10.79858544921875,1.7405908107757568,-1.0143681764602661,1.8302035331726074
1763698903436593200,10.80859326171875,1.854570746421814,0.06657706201076508,1.7215497493743896
1763698903446599000,10.818598876953125,1.9429850578308105,1.3722864389419556,1.873878002166748
1763698903456606500,10.8286064453125,2.0271384716033936,2.38079571723938,2.183727741241455
1763698903466611700,10.83861181640625,2.1166179180145264,2.7716031074523926,2.4489707946777344
1763698903476619000,10.848618896484375,2.2070295810699463,2.6353864669799805,2.568276882171631
1763698903486592500,10.858592529296875,2.3050310611724854,2.235924005508423,2.539515495300293
1763698903496596500,10.868596435546875,2.4403157234191895,1.666157603263855,2.356295347213745
1763698903506632000,10.8786318359375,2.606492042541504,1.037803292274475,2.042184829711914
1763698903516638700,10.888638671875,2.767209053039551,0.5053198933601379,1.6416572332382202
1763698903526622700,10.898622802734375,2.8609495162963867,0.17949175834655762,1.1975882053375244
1763698903536627200,10.908627197265625,2.8289926052093506,0.09959928691387177,0.7354102730751038
1763698903546655700,10.91865576171875,2.667210340499878,0.25086238980293274,0.25938424468040466
1763698903556662800,10.928662841796875,2.424337148666382,0.5841471552848816,-0.20505735278129578
1763698903566648000,10.93864794921875,2.137789487838745,1.0271509885787964,-0.641669750213623
1763698903576653000,10.948653076171874,1.8460488319396973,1.452178955078125,-1.0058462619781494
1763698903586702300,10.958702392578125,1.5967843532562256,1.8003770112991333,-1.213566780090332
1763698903596711700,10.968711669921875,1.3860013484954834,1.9878579378128052,-1.2359366416931152
1763698903606689000,10.97868896484375,1.1548457145690918,1.949509620666504,-1.084673523902893
1763698903616695000,10.988695068359375,0.8513875007629395,1.6832013130187988,-0.7993242144584656
1763698903626672000,10.998672119140625,0.4604469835758209,1.2977200746536255,-0.4094489514827728
1763698903636675300,11.00867529296875,0.00359516148455441,0.9005213379859924,0.017576344311237335
1763698903646733600,11.018733642578125,-0.4596480429172516,0.5244941115379333,0.435014545917511
1763698903656742400,11.028742431640625,-0.9006544947624207,0.18801362812519073,0.7769543528556824
1763698903666745000,11.0387451171875,-1.2935923337936401,-0.1294258087873459,0.9643021821975708
1763698903676753400,11.04875341796875,-1.630072832107544,-0.38494858145713806,0.9930635094642639
1763698903686738000,11.058738037109375,-1.9304685592651367,-0.5447335243225098,0.8429988026618958
1763698903696743700,11.06874365234375,-2.2051656246185303,-0.6565830111503601,0.5063851475715637
1763698903706732500,11.078732666015625,-2.3915812969207764,-0.7151708006858826,0.048468101769685745
1763698903716736500,11.088736572265624,-2.4576256275177,-0.6789528727531433,-0.39453569054603577
1763698903726766600,11.0987666015625,-2.370276689529419,-0.48188477754592896,-0.6129084229469299
1763698903736773400,11.1087734375,-2.201969861984253,-0.2561885416507721,-0.42968836426734924
1763698903746776300,11.1187763671875,-2.0753402709960938,-0.4137098789215088,0.013315413147211075
1763698903756782800,11.128782958984376,-2.129667043685913,-1.0164985656738281,0.30412402749061584
1763698903766788600,11.13878857421875,-2.3969075679779053,-1.9196830987930298,0.16564373672008514
1763698903776795000,11.148794921875,-2.6206064224243164,-2.868539333343506,-0.454188734292984
1763698903786813700,11.158813720703124,-2.473604202270508,-3.402087926864624,-1.4117000102996826
1763698903796821500,11.168821533203126,-1.9017072916030884,-3.41593599319458,-2.497971534729004
1763698903806809900,11.178809814453125,-1.0145013332366943,-3.1178038120269775,-3.5203287601470947
1763698903816815600,11.188815673828126,-0.04860125854611397,-2.5331242084503174,-4.241358280181885
1763698903826802400,11.198802490234375,0.6734935641288757,-1.713027834892273,-4.315924644470215
1763698903836806100,11.20880615234375,0.9748213887214661,-0.9376713633537292,-3.5810470581054688
1763698903846847500,11.218847412109374,0.8663007616996765,-0.5074504017829895,-2.323273181915283
1763698903856855000,11.22885498046875,0.475360244512558,-0.5639077425003052,-1.0058462619781494
1763698903866849000,11.23884912109375,-0.0017310036346316338,-0.9366061091423035,0.0037283156998455524
1763698903876855300,11.248855224609375,-0.4042559266090393,-1.3115681409835815,0.5415378212928772
1763698903886866000,11.258865966796876,-0.6343462467193604,-1.5947870016098022,0.589473307132721
1763698903896872400,11.26887255859375,-0.6716294288635254,-1.7929203510284424,0.2231663167476654
1763698903906883300,11.27888330078125,-0.582149863243103,-1.873878002166748,-0.430753618478775
1763698903916890400,11.288890380859375,-0.45432189106941223,-1.7843984365463257,-1.232740879058838
1763698903926877700,11.298877685546875,-0.3840165138244629,-1.4649617671966553,-2.004901647567749
1763698903936882700,11.308882568359374,-0.4074516296386719,-0.9813459515571594,-2.577863931655884
1763698903946879700,11.318879638671875,-0.4905398190021515,-0.454188734292984,-2.8664088249206543
1763698903956884000,11.328884033203124,-0.6045197248458862,0.053794268518686295,-2.9228663444519043
1763698903966897700,11.338897705078125,-0.7089125514030457,0.4765586256980896,-2.7758641242980957
1763698903976902700,11.348902587890626,-0.7664351463317871,0.7332797646522522,-2.45536208152771
1763698903986928000,11.35892822265625,-0.7568480372428894,0.7215622067451477,-2.032597780227661
1763698903996935400,11.368935302734375,-0.6769555807113647,0.4648410677909851,-1.5628299713134766
1763698904006935000,11.37893505859375,-0.5267577171325684,0.13581721484661102,-1.0346075296401978
1763698904016941300,11.38894140625,-0.3094501793384552,-0.08042509108781815,-0.39879661798477173
1763698904026960600,11.398960693359374,-0.12849372625350952,-0.16138280928134918,0.35192635655403137
1763698904036968200,11.40896826171875,-0.10505861043930054,-0.15179570019245148,1.1166305541992188
1763698904046982400,11.418982421875,-0.11784140020608902,-0.0079892473295331,1.8067684173583984
1763698904056990700,11.42899072265625,-0.004926702938973904,0.22423155605793,2.3040990829467773
1763698904066976500,11.4389765625,0.14101022481918335,0.6448654532432556,2.618342876434326
1763698904076982800,11.448982666015626,0.31877097487449646,1.1890664100646973,2.816343069076538
1763698904086979300,11.458979248046875,0.5062519907951355,1.773746132850647,2.980388879776001
1763698904096984300,11.468984375,0.6426018476486206,2.323273181915283,3.1923701763153076
1763698904107002000,11.479002197265626,0.7011896371841431,2.7875816822052,3.4521539211273193
1763698904117008400,11.48900830078125,0.7033200860023499,2.951627492904663,3.6002213954925537
1763698904127000800,11.499000732421875,0.7672340869903564,2.707822322845459,3.5874385833740234
1763698904137005600,11.509005615234376,1.014235019683838,2.0219454765319824,3.4606757164001465
1763698904147049000,11.519049072265625,1.4073059558868408,1.0644340515136719,3.3042197227478027
1763698904157057800,11.529057861328125,1.8066352605819702,0.10492545366287231,3.187044143676758
1763698904167069000,11.53906884765625,1.9909205436706543,-0.6832138299942017,3.09649920463562
1763698904177078000,11.549078125,1.91741943359375,-1.1656312942504883,2.9303228855133057
1763698904187091200,11.55909130859375,1.7086337804794312,-1.010107159614563,2.6779959201812744
1763698904197100800,11.569100830078124,1.5307399034500122,-0.2540580630302429,2.296642303466797
1763698904207062300,11.579062255859375,1.484002709388733,0.8121070265769958,1.7535066604614258
1763698904217067000,11.58906689453125,1.6266108751296997,1.8227468729019165,1.1198261976242065
1763698904227067100,11.599067138671876,1.9280717372894287,2.544841766357422,0.5170374512672424
1763698904237071000,11.609071044921874,2.2677478790283203,2.896235466003418,0.025032976642251015
1763698904247116800,11.61911669921875,2.5617523193359375,2.857887029647827,-0.3009283244609833
1763698904257125000,11.629125,2.7767961025238037,2.473471164703369,-0.4435364007949829
1763698904267118800,11.639118896484375,2.912080764770508,1.8472472429275513,-0.4435364007949829
1763698904277126000,11.6491259765625,2.9706685543060303,1.1326090097427368,-0.3679048418998718
1763698904287118300,11.659118408203126,2.972799062728882,0.4765586256980896,-0.2774932086467743
1763698904297123600,11.66912353515625,2.925928831100464,0.020772043615579605,-0.2114487588405609
1763698904307136500,11.679136474609376,2.827927350997925,-0.19014409184455872,-0.1805569976568222
1763698904317142800,11.689142822265625,2.6831889152526855,-0.19866596162319183,-0.19333979487419128
1763698904327159300,11.6991591796875,2.4957077503204346,-0.038881003856658936,-0.25086238980293274
1763698904337166600,11.70916650390625,2.264552354812622,0.2338186502456665,-0.3178389072418213
1763698904347182000,11.71918212890625,1.994116187095642,0.5149070024490356,-0.3252955377101898
1763698904357190100,11.729190185546875,1.6745463609695435,0.7087793946266174,-0.20612259209156036
1763698904367192000,11.739192138671875,1.2997174263000488,0.8131722807884216,0.032489608973264694
1763698904377199400,11.749199462890624,0.863105058670044,0.8547163605690002,0.350861132144928
1763698904387209700,11.759209716796875,0.36031508445739746,0.7758890986442566,0.6693658232688904
1763698904397217300,11.76921728515625,-0.18601632118225098,0.5905385613441467,0.9323452115058899
1763698904407193900,11.77919384765625,-0.7259563207626343,0.3359478712081909,1.0718907117843628
1763698904417198300,11.7891982421875,-1.1966561079025269,0.042076703161001205,1.0047810077667236
1763698904427234600,11.799234619140625,-1.5320713520050049,-0.2348838746547699,0.7449973225593567
1763698904437242400,11.809242431640625,-1.7025086879730225,-0.45099303126335144,0.350861132144928
1763698904447241000,11.819240966796874,-1.7461832761764526,-0.4882761836051941,-0.09001219272613525
1763698904457248000,11.829248046875,-1.7216829061508179,-0.3828181326389313,-0.46271058917045593
1763698904467262000,11.839261962890625,-1.6950520277023315,-0.3593829870223999,-0.7279536128044128
1763698904477269500,11.84926953125,-1.6961172819137573,-0.5383421182632446,-0.8994561433792114
1763698904487266000,11.85926611328125,-1.7408571243286133,-0.8536511063575745,-1.0324771404266357
1763698904497272300,11.869272216796874,-1.8654893636703491,-1.2732198238372803,-1.2338061332702637
1763698904507274800,11.879274658203125,-1.9933172464370728,-1.7790722846984863,-1.5649604797363281
1763698904517280800,11.88928076171875,-1.9379252195358276,-2.2806639671325684,-1.9612271785736084
1763698904527273200,11.899273193359376,-1.6055724620819092,-2.6353864669799805,-2.3317949771881104
1763698904537277700,11.909277587890625,-1.1061112880706787,-2.712083339691162,-2.608755588531494
1763698904547319800,11.91931982421875,-0.5501928329467773,-2.558689832687378,-2.7099528312683105
1763698904557328400,11.929328369140626,-0.07416684925556183,-2.296642303466797,-2.5895814895629883
1763698904567338000,11.939337890625,0.23475073277950287,-1.9878579378128052,-2.2881205081939697
1763698904577346300,11.94934619140625,0.3485974967479706,-1.6693532466888428,-1.8333991765975952
1763698904587325200,11.9593251953125,0.2826862037181854,-1.3722864389419556,-1.3083724975585938
1763698904597330700,11.96933056640625,0.09520520269870758,-1.1443265676498413,-0.8898690342903137
1763698904607356200,11.979356201171875,-0.12210233509540558,-0.9973244071006775,-0.6906704902648926
1763698904617363500,11.989363525390624,-0.3083849549293518,-0.8131722807884216,-0.6832138299942017
1763698904627371300,11.999371337890626,-0.4362129271030426,-0.5585815906524658,-0.8387378454208374
1763698904637378800,12.00937890625,-0.5033226013183594,-0.2668408751487732,-1.1187609434127808
1763698904647381200,12.01938134765625,-0.5363448262214661,0.019706811755895615,-1.4351352453231812
1763698904657388300,12.02938818359375,-0.5736280083656311,0.24021004140377045,-1.7332673072814941
1763698904667404500,12.039404541015625,-0.6418029069900513,0.39879661798477173,-1.9804013967514038
1763698904677412400,12.049412353515624,-0.7280867695808411,0.4999937415122986,-2.132596492767334
1763698904687428900,12.059428955078126,-0.8196967840194702,0.5489944815635681,-2.1634883880615234
1763698904697437700,12.069437744140625,-0.8910674452781677,0.5947995185852051,-2.069880962371826
1763698904707441400,12.07944140625,-0.9196955561637878,0.6512568593025208,-1.8781390190124512
1763698904717449700,12.08944970703125,-0.8889369368553162,0.7151708006858826,-1.6065045595169067
1763698904727453700,12.09945361328125,-0.7951964735984802,0.734345018863678,-1.2710893154144287
1763698904737461200,12.109461181640626,-0.6545857191085815,0.7204970121383667,-0.8898690342903137
1763698904747463400,12.11946337890625,-0.5022573471069336,0.7428668737411499,-0.4872109591960907
1763698904757470500,12.129470458984375,-0.3595161437988281,0.7833457589149475,-0.1070559173822403
1763698904787441700,12.159441650390624,0.3347494900226593,1.061238408088684,0.8089113235473633
1763698904797444400,12.1694443359375,0.6596455574035645,1.162435531616211,1.0772168636322021
1763698904807478300,12.179478271484374,0.9620385766029358,1.2061101198196411,1.344590425491333
1763698904817483800,12.18948388671875,1.205976963043213,1.2593717575073242,1.6704185009002686
1763698904827491800,12.199491943359375,1.3838708400726318,1.4340699911117554,2.160292625427246
1763698904837497600,12.20949755859375,1.4808070659637451,1.6789404153823853,2.8248648643493652
1763698904847519200,12.219519287109375,1.4563066959381104,1.7780070304870605,3.4851760864257812
1763698904857526500,12.229526611328126,1.3678923845291138,1.535133957862854,3.911269426345825
1763698904867525600,12.239525634765625,1.343392014503479,0.9749545454978943,4.028311729431152
1763698904877532400,12.249532470703125,1.4989160299301147,0.3785571753978729,3.9814414978027344
1763698904887542800,12.259542724609375,1.8673534393310547,0.01438064593821764,4.011268138885498
1763698904897549800,12.2695498046875,2.189985990524292,-0.3711005449295044,4.105008602142334
1763698904907564500,12.279564453125,2.1251399517059326,-0.7918676137924194,3.9995505809783936
1763698904917572400,12.289572265625,1.694785714149475,-0.6800181269645691,3.6438958644866943
1763698904927578000,12.299578125,1.237933874130249,0.2135792225599289,3.1497609615325928
1763698904937585400,12.30958544921875,1.0632357597351074,1.5596343278884888,2.6119513511657715
1763698904947606000,12.31960595703125,1.228346824645996,2.811016798019409,2.0954465866088867
1763698904957614800,12.32961474609375,1.6266108751296997,3.6289825439453125,1.6022436618804932
1763698904967590000,12.33958984375,2.0644216537475586,3.954810857772827,1.1603050231933594
1763698904977595100,12.34959521484375,2.4339241981506348,3.7781152725219727,0.8057156205177307
1763698904987603200,12.359603271484374,2.7405781745910645,3.2083487510681152,0.5671034455299377
1763698904997608700,12.369608642578125,2.999429941177368,2.399970054626465,0.42968836426734924
1763698905007645400,12.3796455078125,3.2231287956237793,1.515027642250061,0.3284912407398224
1763698905017654300,12.389654296875,3.417933225631714,0.734345018863678,0.20505735278129578
1763698905027657000,12.399656982421876,3.5926315784454346,0.16138280928134918,0.046337638050317764
1763698905037665000,12.4096650390625,3.75348162651062,-0.08681648969650269,-0.12196917831897736
1763698905047649500,12.4196494140625,3.8600049018859863,-0.0005326165119186044,-0.2860150635242462
1763698905057655300,12.4296552734375,3.8632006645202637,0.22742724418640137,-0.46164536476135254
1763698905067687000,12.43968701171875,3.725785732269287,0.49040666222572327,-0.6246260404586792
1763698905077695200,12.4496953125,3.450955629348755,0.734345018863678,-0.7268883585929871
1763698905087687000,12.45968701171875,3.0761265754699707,0.9005213379859924,-0.7226274609565735
1763698905097693400,12.469693359375,2.634188175201416,1.0207595825195312,-0.5852124094963074
1763698905107697700,12.47969775390625,2.1633551120758057,1.1049129962921143,-0.29240646958351135
1763698905117704000,12.489703857421874,1.662828803062439,1.1091738939285278,0.15925233066082
1763698905127690200,12.499690185546875,1.1154321432113647,0.9973244071006775,0.7055837512016296
1763698905137694500,12.509694580078126,0.5030562877655029,0.6683005690574646,1.2082405090332031
1763698905147739400,12.519739501953126,-0.16045072674751282,0.13368675112724304,1.5298078060150146
1763698905157747700,12.529747802734375,-0.7866745591163635,-0.454188734292984,1.5638952255249023
1763698905167751700,12.539751708984374,-1.2680267095565796,-0.9738892912864685,1.2551108598709106
1763698905177759700,12.549759765625,-1.5608327388763428,-1.3882648944854736,0.6352783441543579
1763698905187753200,12.559753173828126,-1.6748126745224,-1.6011784076690674,-0.16670896112918854
1763698905197759700,12.569759765625,-1.7014434337615967,-1.5266120433807373,-0.923823356628418
1763698905207752000,12.579751953125,-1.730204701423645,-1.3051767349243164,-1.4596354961395264
1763698905217757200,12.589757080078124,-1.8580327033996582,-1.1134347915649414,-1.8088988065719604
1763698905227760600,12.5997607421875,-2.187056541442871,-1.0388685464859009,-2.0965118408203125
1763698905237765600,12.609765625,-2.5961060523986816,-1.3030463457107544,-2.423405170440674
1763698905247777300,12.61977734375,-2.8644115924835205,-1.8642909526824951,-2.8152778148651123
1763698905257782800,12.62978271484375,-2.8313894271850586,-2.353099822998047,-3.1891744136810303
1763698905267815400,12.6398154296875,-2.4895827770233154,-2.446840286254883,-3.448958158493042
1763698905277823700,12.64982373046875,-1.9858607053756714,-2.3168818950653076,-3.5490901470184326
1763698905287811300,12.659811279296875,-1.476812481880188,-2.240185022354126,-3.4617409706115723
1763698905297817600,12.669817626953124,-1.0677629709243774,-2.1336617469787598,-3.1082167625427246
1763698905307848700,12.6798486328125,-0.7920007705688477,-1.824877381324768,-2.460688352584839
1763698905317857500,12.689857421875,-0.6886731386184692,-1.3381990194320679,-1.5766780376434326
1763698905327865300,12.699865234375,-0.773891806602478,-0.9845415949821472,-0.6469959020614624
1763698905337874000,12.7098740234375,-0.949522078037262,-0.8312812447547913,0.13155627250671387
1763698905347858200,12.719858154296874,-1.1252855062484741,-0.7844109535217285,0.627821683883667
1763698905357864400,12.729864501953125,-1.2488526105880737,-0.8035851716995239,0.8302159905433655
1763698905367881500,12.739881591796875,-1.318092703819275,-0.8611077666282654,0.7652367949485779
1763698905377888800,12.749888671875,-1.3447235822677612,-0.9111737012863159,0.4882761836051941
