time,seconds_elapsed,z,y,x
1763692621760418600,0.04441845703125,8.297704403686524,2.4124574478149414,1.4911387214660643
1763692621770367700,0.05436767578125,8.20388162612915,2.33045604095459,1.6127940933227538
1763692621780316700,0.064316650390625,8.646958570861816,2.2475568084716797,1.5515923133850096
1763692621790265900,0.074265869140625,9.180117353057861,2.3190835830688474,1.4662988792419434
1763692621800214800,0.08421484375,9.46846901550293,2.205807917022705,1.456871710205078
1763692621810163700,0.094163818359375,9.394248764038085,2.1511901916503904,1.4514847564697264
1763692621820112600,0.104112548828125,9.03317322616577,2.569128018951416,1.3385083656311034
1763692621830061600,0.1140615234375,9.086444213104247,2.8725930793762204,1.2533645690917967
1763692621840010800,0.1240107421875,9.528324057006836,2.878728221130371,1.1659762084960936
1763692621849959700,0.133959716796875,9.942969857025146,2.9906571487426756,1.0417769973754882
1763692621859908900,0.143908935546875,9.656413845825195,3.2570120834350584,1.1716624374389648
1763692621869857800,0.15385791015625,9.431209252166747,3.3616087684631344,1.2463316017150878
1763692621879807700,0.163807861328125,8.977807312774658,3.435978657531738,1.2220903099060059
1763692621889756700,0.173756591796875,8.751854531097411,3.4811692138671875,1.1222820281982422
1763692621899705600,0.18370556640625,8.330923951721191,3.5511996124267577,0.9747393508911132
1763692621909654500,0.193654541015625,8.476222064971923,3.449446041870117,0.769286920928955
1763692621919603700,0.203603759765625,9.221118056488036,3.266139977264404,0.4487631736755371
1763692621929553000,0.213552978515625,9.674819271087646,3.0277672744750976,0.22700024490356444
1763692621939501800,0.223501708984375,9.69187795791626,2.723105113220215,0.2292448089599609
1763692621949450800,0.23345068359375,9.894487273406982,2.426673020172119,0.11282675323486327
1763692621959399700,0.243399658203125,9.873238733673094,2.5822961280822754,-0.013168109130859374
1763692621969348600,0.2533486328125,9.907655382537842,2.7533319091796873,-0.10504559783935546
1763692621979297500,0.263297607421875,10.087519782257079,2.897732196807861,-0.35628713455200195
1763692621989246700,0.273246826171875,9.657610946655273,3.0755016700744626,-0.15248071823120116
1763692621999196000,0.28319580078125,9.14300722732544,3.437325395965576,-0.09696516723632811
1763692622009144800,0.293144775390625,7.725490206909179,3.432836267852783,0.09217676391601562
1763692622019094800,0.3030947265625,7.146542317962646,3.47937356262207,0.042646717071533204
1763692622029043700,0.313043701171875,7.0826470611572265,3.6342484825134274,0.4542997650146484
1763692622038992600,0.32299267578125,7.796867343902587,3.5462615715026855,0.6494272003173828
1763692622048941600,0.332941650390625,8.268525070953368,3.2433950614929197,0.5135562561035156
1763692622058890800,0.342890869140625,8.706065424346923,2.9228713142395017,0.6672340751647949
1763692622068839700,0.352839599609375,9.119813398742675,2.758569225311279,0.6405985816955566
1763692622078788900,0.362788818359375,9.398288979339599,3.03884045715332,0.3941454483032226
1763692622088737800,0.37273779296875,10.024971263885497,3.423109823608398,0.052073886108398436
1763692622098686700,0.382686767578125,10.545859762573242,3.3687913734436035,-0.26171616897583005
1763692622108635600,0.3926357421875,9.969455712890625,3.341706967163086,-0.2829647087097168
1763692622118584600,0.40258447265625,9.731831198120117,3.3969232429504395,-0.3796306007385254
1763692622128533500,0.412533447265625,9.450961415863036,3.69664736328125,-0.5527613082885742
1763692622138482700,0.422482666015625,9.369857834625243,4.094833026885986,-0.7549217109680175
1763692622148432000,0.432431884765625,9.324068727874755,4.271555036926269,-0.8059481338500976
1763692622158381800,0.4423818359375,9.57022258605957,4.135235179901123,-0.7000047103881836
1763692622168330800,0.452330810546875,9.382577030944823,3.845087866210937,-0.6934206558227539
1763692622178279700,0.46227978515625,9.509170443725585,3.4917934837341305,-0.8946832328796386
1763692622188228600,0.472228515625,10.169820464324951,3.699041564941406,-0.8991723609924316
1763692622198177800,0.482177734375,9.877428586578368,3.6680665809631345,-0.653766690826416
1763692622208126700,0.492126708984375,10.046369441223144,3.5773861930847164,-0.7556698989868164
1763692622218075600,0.50207568359375,9.597157354736327,3.5308488983154294,-0.5729623847961426
1763692622228024800,0.51202490234375,9.396044415283203,3.5194764404296874,-0.4804863456726074
1763692622237973800,0.521973876953125,9.311199893951416,3.753210377502441,-0.8047510330200195
1763692622247922700,0.531922607421875,9.47460415725708,3.88818349609375,-0.9903016616821289
1763692622257871600,0.54187158203125,9.48732335357666,4.070891010284424,-1.268627604675293
1763692622267820500,0.551820556640625,9.694721072387695,4.123563446807861,-1.707215421295166
1763692622277769700,0.561769775390625,10.64357311782837,3.9267899978637693,-2.0661960327148434
1763692622287719700,0.5717197265625,11.292102492523192,3.7823897102355954,-2.473659227752685
1763692622297668600,0.581668701171875,11.461342622375488,3.810820854949951,-2.680159120941162
1763692622307617800,0.59161767578125,11.39625026473999,4.074931225585937,-2.911947769165039
1763692622317566700,0.601566650390625,10.664223107147215,4.449025234985351,-3.063829936981201
1763692622327515600,0.611515625,9.246406811523437,4.30896443786621,-2.792985874176025
1763692622337464800,0.62146484375,8.766369378662109,3.69634808807373,-2.4534581512451172
1763692622347413800,0.631413818359375,8.290970711517334,3.546560846710205,-2.2554876014709473
1763692622357362700,0.64136279296875,8.148964625549317,3.549104685974121,-2.0691887847900388
1763692622367311600,0.6513115234375,8.091653423309326,3.470544944000244,-1.8745102622985839
1763692622377260800,0.6612607421875,8.028955267333984,3.3514334114074704,-1.6202759735107422
1763692622387209700,0.671209716796875,8.065766117858887,3.0246248847961423,-1.2810475257873535
1763692622397158700,0.68115869140625,7.4770917846679685,3.014000614929199,-1.045069024658203
1763692622407107600,0.691107666015625,7.696610149383544,3.1281741065979003,-1.215506255340576
1763692622417056800,0.701056884765625,7.8423571754455565,3.1465795318603513,-1.2955623733520507
1763692622427006700,0.7110068359375,7.17557201309204,3.068917615509033,-0.9196727127075195
1763692622436955600,0.72095556640625,6.9618895149230955,2.88561155090332,-0.8602665840148925
1763692622446904600,0.730904541015625,7.019799267578125,2.851045264434814,-1.068711766052246
1763692622456853500,0.740853515625,7.281665074157714,2.7365724975585937,-1.2364555198669434
1763692622466802700,0.750802734375,7.375338214111328,2.712181568145752,-1.331026485443115
1763692622476752000,0.760751953125,7.316979548645019,2.9263129791259765,-1.6831237670898436
1763692622486700800,0.77070068359375,7.745691283416748,3.393631215667724,-2.2686557106018066
1763692622496649700,0.780649658203125,8.754697645568847,3.4865561676025387,-2.793734062194824
1763692622506598700,0.7905986328125,9.834033681488037,2.6431986328124997,-2.9417256523132322
1763692622516547300,0.80054736328125,10.418069248962402,1.8471265808105468,-2.5474305664062498
1763692622526496500,0.81049658203125,10.53329020385742,1.7826327735900878,-2.4157494750976563
1763692622536445400,0.820445556640625,10.352228703308105,1.8785504776000976,-2.3808839134216306
1763692622546394400,0.830394287109375,9.890147782897948,1.926733786010742,-2.3150433677673337
1763692622556343300,0.84034326171875,8.992771073150633,2.142810485839844,-2.168847428894043
1763692622566293200,0.850293212890625,8.41352390899658,2.36861362991333,-2.1327847663879393
1763692622576242400,0.860242431640625,8.215104446411132,2.364723052215576,-2.3377882835388184
1763692622586191400,0.87019140625,8.448988021087645,2.497750881958008,-2.41320563583374
1763692622596140300,0.880140380859375,8.270769635009765,2.741510538482666,-2.6128221992492673
1763692622606089500,0.89008935546875,7.976881381225586,3.2679356285095214,-2.955193036651611
1763692622616038400,0.900038330078125,8.045714678955077,3.8111201301574704,-3.2281320259094235
1763692622625987300,0.9099873046875,8.186673301696777,3.8400001876831054,-3.681234690093994
1763692622635936300,0.919936279296875,8.496123866271972,3.7639842849731444,-3.8757635749816894
1763692622645885200,0.92988525390625,8.63842922744751,3.5281554214477535,-4.1100960624694824
1763692622655834400,0.93983447265625,8.68242268295288,3.453186981964111,-4.440944804382324
1763692622665783300,0.949783203125,8.662520881652831,3.484161965942383,-4.600009577178954
1763692622675732500,0.959732421875,8.517522043609619,3.4680011047363277,-4.657320779418945
1763692622685681400,0.969681396484375,8.608651344299316,3.6318542808532714,-4.935646722412109
1763692622695630300,0.97963037109375,8.315960191345214,3.6739024475097652,-5.26080923538208
1763692622705580300,0.989580322265625,8.569745567321776,3.4829648651123044,-5.198410354614258
1763692622715529500,0.999529541015625,8.548048114776611,3.097199122619629,-5.249436777496338
1763692622725478400,1.009478515625,8.306383384704588,3.135955261993408,-5.212625926971436
1763692622735427300,1.01942724609375,8.4666452583313,3.2366613693237305,-5.058948107910156
1763692622745376300,1.029376220703125,8.799588926696776,3.4208652595520017,-5.129427419281005
1763692622755325400,1.039325439453125,9.120411949157715,3.5052608680725097,-5.290886393737793
1763692622765274400,1.0492744140625,9.143755415344238,3.0174422798156737,-5.01151298751831
1763692622775223300,1.059223388671875,8.517522043609619,2.532616443634033,-4.765359129333496
1763692622785172200,1.069172119140625,8.019228823089598,2.4158991127014158,-4.67976641998291
1763692622795121400,1.079121337890625,7.521983065795898,2.9062615402221676,-4.754285946655274
1763692622805070300,1.0890703125,7.858069123840331,3.211971164703369,-4.9172412971496575
1763692622815019300,1.099019287109375,8.505251760101318,2.9116484939575193,-5.186289708709716
1763692622824968400,1.108968505859375,8.944587764739989,2.658012755584717,-5.4041620597839355
1763692622834918100,1.118918212890625,8.941445375061035,2.4343045379638673,-6.0042088508605955
1763692622844867300,1.128867431640625,8.679729206085204,2.770240958404541,-6.30123949432373
1763692622854816500,1.13881640625,8.526500299835204,3.216310655212402,-6.54380205001831
1763692622864765400,1.148765380859375,9.03422068939209,2.818124991607666,-6.714987468719482
1763692622874714400,1.15871435546875,8.192509168243408,2.848651062774658,-7.27777449645996
1763692622884663300,1.168663330078125,6.208164904785156,2.871096703338623,-7.255777768707275
1763692622894612200,1.1786123046875,6.9141551193237305,2.060659441375732,-6.709001964569091
1763692622904561400,1.1885615234375,8.51108762664795,1.9403508079528808,-5.878812538909912
1763692622914510300,1.19851025390625,9.437344393920897,2.3623288505554196,-5.10698177871704
1763692622924459300,1.208459228515625,9.542240354156494,2.4622867698669433,-4.631732749176025
1763692622934408400,1.218408447265625,8.9761612991333,2.3377882835388184,-4.950311207580566
1763692622944357400,1.228357421875,8.243685228729248,2.1645079383850097,-5.4147863296508785
1763692622954306300,1.238306396484375,8.36294639892578,1.799092910003662,-5.736956090545654
1763692622964256300,1.24825634765625,8.904634524536132,1.5264531959533691,-6.300491306304932
1763692622974205200,1.258205078125,9.316886122894287,1.6409259628295898,-6.995408338165283
1763692622984154000,1.268154052734375,9.503334577178954,1.7817349479675293,-7.4974424987792965
1763692622994103600,1.278103515625,9.300725261688232,1.7721581413269043,-7.745541645812988
1763692623004052500,1.288052490234375,8.992471797943114,1.753154165649414,-7.7602061309814445
1763692623014001400,1.29800146484375,8.679729206085204,1.5846622238159178,-7.383269007110595
1763692623023950300,1.307950439453125,8.179789971923828,1.1680711349487305,-6.619069764709472
1763692623033899300,1.317899169921875,7.243058572387695,1.3989619575500487,-5.912480999755859
1763692623043848200,1.32784814453125,6.48634121017456,1.8466776679992676,-5.559785167694091
1763692623053797000,1.337797119140625,6.171503691864014,2.4378958404541016,-5.4789808616638185
1763692623063746300,1.347746337890625,6.234052210235595,2.794931163024902,-5.463268913269043
1763692623073695500,1.357695556640625,6.545747338867187,3.035698067474365,-5.181800580596923
1763692623083644400,1.36764453125,6.937049672698974,3.0397382827758785,-4.503792597961426
1763692623093594400,1.377594482421875,7.245153498840332,3.0199861190795896,-3.95192911529541
1763692623103543300,1.387543212890625,7.018003616333007,3.3378163894653317,-3.7593455192565917
1763692623113492200,1.3974921875,6.54410132522583,3.7180455406188964,-3.610306465911865
1763692623123441200,1.407441162109375,6.12287147064209,3.7865795631408687,-3.254767519378662
1763692623133390300,1.417390380859375,6.0805240287780755,3.817255271911621,-3.0481179885864256
1763692623143339500,1.427339599609375,6.1094040863037105,4.017620023345947,-2.7211598243713375
1763692623153288400,1.437288330078125,6.591985358428954,3.951330564880371,-2.11318224029541
1763692623163237400,1.4472373046875,7.180360416412353,3.6094086402893066,-1.5771803436279297
1763692623173186300,1.457186279296875,7.6114663528442374,3.6920085975646972,-1.4989198768615721
1763692623183135200,1.46713525390625,8.12113203125,3.7789480453491207,-1.930025813293457
1763692623193084200,1.477084228515625,8.671648775482177,3.844489315795898,-2.45151286239624
1763692623203033300,1.487033447265625,9.13642317276001,4.0158243721008295,-2.87289235458374
1763692623212982500,1.496982421875,9.431658164978026,4.00340445098877,-2.8829180740356444
1763692623222932200,1.50693212890625,9.33978067626953,3.9457939735412597,-2.639308055114746
1763692623232881400,1.51688134765625,9.056965605163574,3.9175124664306638,-2.446275546264648
1763692623242830300,1.526830322265625,8.500014443969727,4.027496105194092,-2.1059996353149413
1763692623252779300,1.536779296875,7.893682873535155,4.2043677528381345,-1.6639701538085936
1763692623262728200,1.546728271484375,7.438934195709228,4.2390836769104006,-1.2364555198669434
1763692623272677400,1.556677490234375,7.074865905761718,4.2408793281555175,-1.0383353324890137
1763692623282626300,1.566626220703125,6.781725839996337,4.3059716857910155,-1.0938508834838867
1763692623292575200,1.5765751953125,6.757035635375976,4.3923125831604,-1.1763012031555176
1763692623302524400,1.5865244140625,6.8569935546875,4.5455414894104,-1.417965933227539
1763692623312473300,1.596473388671875,6.8578913803100585,4.522946211242676,-1.6192285102844237
1763692623322422300,1.60642236328125,6.976853275299072,4.365826727294921,-1.6008230850219725
1763692623332371200,1.61637109375,7.045686573028564,4.387374542236328,-1.480514451599121
1763692623342320400,1.6263203125,7.147739418792725,4.586841468048095,-1.446097802734375
1763692623352270300,1.636270263671875,7.346158881378173,4.789600421142578,-1.5689502754211424
1763692623362219300,1.64621923828125,7.427561737823486,4.881926822662353,-1.8234838394165038
1763692623372168200,1.656168212890625,7.356034963226318,4.94761773071289,-2.220322764587402
1763692623382117400,1.666117431640625,7.209988661956786,5.084087225341796,-2.6478373985290524
1763692623392066300,1.67606640625,6.954706909942627,5.36271244354248,-2.915090158843994
1763692623402015500,1.686015380859375,6.94572865371704,5.467159490966797,-2.9958944648742674
1763692623411964400,1.69596435546875,7.213579964447021,5.4804772377014155,-3.16663097076416
1763692623421913300,1.705913330078125,7.295880646514892,5.5343467750549316,-3.5716999641418457
1763692623431862300,1.7158623046875,7.296329559326171,5.659593449401855,-4.158279370880127
1763692623441811200,1.725811279296875,7.330446932983398,5.716455738830566,-4.771793546295166
1763692623451760400,1.735760498046875,7.462876212310791,5.607220288085937,-5.342960279846191
1763692623461709300,1.745709228515625,7.439233470916748,5.512948597717285,-5.876119062042236
1763692623471658200,1.755658203125,7.406313198089599,5.402216770935058,-6.181679048919677
1763692623481608400,1.7656083984375,7.364115393829345,5.168931746673584,-6.21175620727539
1763692623491557400,1.775557373046875,7.325658529663086,4.907664490509033,-6.085462069702148
1763692623501506300,1.78550634765625,7.221959670257568,4.679467144775391,-5.903353105926513
1763692623511455200,1.795455322265625,7.013963401031494,4.481496595001221,-5.710170959472656
1763692623521404400,1.805404296875,6.802974379730224,4.378695561218262,-5.600785871124267
1763692623531353600,1.815353515625,6.621314328765869,4.269310472869873,-5.622932236480713
1763692623541302800,1.825302734375,6.568192979431152,4.168005815124512,-5.78394229812622
1763692623551251700,1.835251708984375,6.490381425476074,4.25853656539917,-5.999420447540283
1763692623561200600,1.84520068359375,6.301838044738769,4.501996946716308,-6.202927588653564
1763692623571149600,1.855149658203125,6.226121417236328,4.787804769897461,-6.400149950408935
1763692623581098500,1.865098388671875,6.247968507385253,4.971110834503174,-6.6145806365966795
1763692623591047400,1.87504736328125,6.195595346069336,5.116708222961425,-6.761973676300048
1763692623600997600,1.88499755859375,6.082768592834472,5.072265854644775,-6.684760672760009
1763692623610946600,1.894946533203125,6.121973645019531,4.6432548446655275,-6.526893000793456
1763692623620895700,1.904895751953125,6.30752427368164,3.9077860221862792,-6.6723407516479485
1763692623630844700,1.9148447265625,6.406734004974365,3.343053705596924,-7.246649874877929
1763692623640793600,1.924793701171875,6.3901242309570305,3.1775545158386227,-8.009352741241454
1763692623650742500,1.934742431640625,6.444592318725586,3.0424317596435544,-8.719682446289061
1763692623660691500,1.94469140625,6.711845079040527,2.8233623077392576,-9.196876764678954
1763692623670640400,1.954640380859375,6.321141295623779,2.8803742347717285,-9.134777159118652
1763692623680589600,1.964589599609375,6.4667386840820305,2.8024130432128906,-8.512284727478027
1763692623690538800,1.974538818359375,6.268618496704101,2.1689970664978024,-7.53993957824707
1763692623700487700,1.98448779296875,5.79082562789917,2.327164013671875,-6.483049182891845
1763692623710436600,1.9944365234375,5.4339399429321285,2.60474176864624,-5.808183589935302
1763692623720385500,2.004385498046875,5.078101721191406,2.9677625953674314,-5.6181438331604
1763692623730335500,2.01433544921875,4.795735562896728,3.234267167663574,-5.780350995635986
1763692623740284700,2.02428466796875,4.793640636444091,3.4323873550415036,-6.21789134902954
1763692623750233600,2.034233642578125,5.061342309570312,3.7237317695617675,-6.632836424255371
1763692623760182500,2.0441826171875,5.245995112609863,3.9152679023742674,-6.858190655517578
1763692623770131700,2.054131591796875,5.327397969055175,4.089745348358154,-6.743268975830078
1763692623780080600,2.06408056640625,5.306448704528808,4.076726876831055,-6.511330690002441
1763692623790029600,2.074029541015625,5.320664276885986,3.904643632507324,-6.497863305664062
1763692623799978500,2.083978515625,5.387103372955322,3.8400001876831054,-6.715436381530761
1763692623809927400,2.093927490234375,5.358672228240967,3.8705262588500973,-7.088183652496338
1763692623819876600,2.103876708984375,5.214720853424072,4.106504759979248,-7.299023036193847
1763692623829825500,2.113825439453125,5.0483238380432125,4.246715194702148,-7.1297829063415525
1763692623839774700,2.123774658203125,4.897339495849609,3.732859663391113,-6.8296098731994626
1763692623849724400,2.133724365234375,4.696974744415283,3.045873424530029,-6.89530078125
1763692623859673600,2.143673583984375,4.350414054107666,3.015496990966797,-7.230788288879394
1763692623869622500,2.15362255859375,4.059967465209961,3.3833062210083007,-7.528267845153808
1763692623879571700,2.16357177734375,3.985148663330078,3.5609260566711423,-7.798064444732666
1763692623889520600,2.173520751953125,4.010287780761718,3.7389948051452633,-8.011746942901611
1763692623899469600,2.183469482421875,3.989039241027832,4.094683389282227,-8.25475841140747
1763692623909418500,2.19341845703125,4.313154290771484,3.6049195121765134,-8.476670977783202
1763692623919367400,2.203367431640625,3.9824551864624023,3.6942531616210936,-8.613589385223388
1763692623929316600,2.213316650390625,3.6357448585510252,4.010138143157959,-8.617031050109862
1763692623939265500,2.223265625,3.572597789764404,4.058770364379883,-8.584559690093993
1763692623949214700,2.233214599609375,3.630208267211914,4.005948290252685,-8.425494917297362
1763692623959164700,2.24316455078125,3.904045082092285,4.026598279571533,-8.334215979003906
1763692623969113600,2.253113525390625,4.376899909973145,4.269609748077392,-8.07579183731079
1763692623979062500,2.2630625,5.288192916870117,4.012532344818115,-7.592462377166748
1763692623989011500,2.273011474609375,5.887940432739257,4.379294111633301,-7.503128727722167
1763692623998960400,2.28296044921875,5.689820245361328,5.34400774307251,-7.506420755004882
1763692624008909600,2.29290966796875,5.570110162353515,5.840804587554931,-7.69930362625122
1763692624018858800,2.302858642578125,5.185541520690918,5.786336499786376,-7.791330752563476
1763692624028807700,2.3128076171875,4.030937770080566,5.111021994018555,-7.3359835243225096
1763692624038756600,2.322756591796875,2.657114929962158,5.221454545593262,-6.303184783172607
1763692624048705500,2.33270556640625,2.3035212722778318,5.4607250740051265,-5.639990923309326
1763692624058654500,2.342654541015625,2.629132698059082,5.718251390075683,-5.361964255523682
1763692624068603400,2.352603271484375,3.1624411178588865,6.072593235778808,-5.526864894866943
1763692624078553600,2.3625537109375,4.28397495803833,5.880907465362548,-6.088155546569824
1763692624088502500,2.37250244140625,5.184643695068359,5.640589473724365,-6.590040069580078
1763692624098451700,2.38245166015625,5.258564671325684,5.570708712768554,-6.777685624694824
1763692624108400600,2.392400634765625,5.181052392578125,5.3384711517333985,-7.04194563293457
1763692624118349600,2.402349609375,4.956595986938476,4.9823336547851556,-7.700500727081298
1763692624128298500,2.412298583984375,4.568735317993164,4.939537300109863,-8.36997936630249
1763692624138247400,2.422247314453125,4.4473792213439935,4.993556475067138,-8.97032543258667
1763692624148196600,2.432196533203125,4.564246189880371,5.1243397407531734,-9.477447271728515
1763692624158145800,2.442145751953125,4.707299739074707,5.164292980957031,-9.777171392059326
1763692624168094700,2.4520947265625,4.987570970916748,5.05655390625,-9.800365220642089
1763692624178043600,2.462043701171875,5.307496167755127,4.887313776397705,-9.580697218322753
1763692624187992600,2.47199267578125,4.491073401641845,4.991910461425781,-9.087641313934325
1763692624197942500,2.481942626953125,4.422389741516113,5.26664510192871,-8.674192614746094
1763692624207891500,2.491891357421875,4.908263040924072,4.63487513885498,-8.732401642608641
1763692624217840600,2.501840576171875,4.56439582748413,4.3822868637084955,-8.81664761352539
1763692624227789600,2.51178955078125,5.336376225280762,4.2782887290954585,-8.768763580322265
1763692624237738500,2.521738525390625,7.706935144042968,4.115632653808594,-8.629600608825683
1763692624247687700,2.531687744140625,3.999064960479736,4.508581001281738,-8.89311242904663
1763692624257636600,2.54163671875,5.9564744552612305,3.5072061569213866,-7.7890861885070795
1763692624267585500,2.55158544921875,6.4646437576293945,3.1815947311401365,-7.888445557403564
1763692624277534500,2.561534423828125,6.88243194732666,2.7831097923278807,-8.073247998046874
1763692624287483600,2.571483642578125,7.344063954925537,2.355146245574951,-8.088211758422851
1763692624297432600,2.5814326171875,7.377283502960204,2.551021868896484,-8.50375538406372
1763692624307381500,2.591381591796875,7.005284420013427,2.701706935882568,-8.56106658630371
1763692624317331500,2.60133154296875,6.507140837097167,2.982726355743408,-8.246079430389404
1763692624327280600,2.61128076171875,5.878513263702392,3.4358290199279784,-7.915829238891601
1763692624337229600,2.6212294921875,5.144241542053222,3.39018955078125,-7.460482010650634
1763692624347178800,2.6311787109375,4.591031320953369,3.215712104797363,-7.146093405151367
1763692624357127700,2.641127685546875,4.133439528656005,3.2133179031372068,-6.774992147827148
1763692624367076600,2.65107666015625,4.11144280090332,3.104082452392578,-6.273406900024414
1763692624377025500,2.661025634765625,4.480748406982421,3.1057284660339355,-5.719598128509521
1763692624386974500,2.670974365234375,5.331288546752929,2.8392238937377927,-5.1985599922180175
1763692624396923600,2.680923583984375,6.237942787933349,2.7166706962585447,-5.204545496368408
1763692624406872600,2.69087255859375,6.065260993194579,4.910507604980468,-6.004657763671875
1763692624416821500,2.700821533203125,5.70732784500122,5.3761798278808595,-5.884199492645263
1763692624426771700,2.710771728515625,5.778405706787109,5.110872356414794,-6.006603052520751
1763692624436720600,2.720720703125,5.42032292098999,4.740070374298096,-6.350470265960693
1763692624446669600,2.730669677734375,4.89015689086914,4.337245944976806,-6.636727001953124
1763692624456618500,2.740618408203125,4.318541244506836,4.071339923095703,-6.801328366088867
1763692624466567400,2.7505673828125,4.064755868530273,4.160972847747803,-6.44219811706543
1763692624476516600,2.7605166015625,4.049193557739257,4.3920133079528805,-6.0522425216674804
1763692624486465800,2.7704658203125,3.612251754760742,4.348468765258789,-6.116885966491699
1763692624496414700,2.780414794921875,2.8076503593444824,3.979312796783447,-6.486790122985839
1763692624506363600,2.79036376953125,2.0397101768493653,3.7229835815429686,-7.011120286560058
1763692624516312800,2.800312744140625,1.0935516082763672,3.846584242248535,-7.369203072357177
1763692624526262000,2.810261962890625,0.07422025146484375,4.127603662109375,-7.3943421897888175
1763692624536211000,2.8202109375,-0.09427169036865234,4.374505708312988,-7.149086157226562
1763692624546161000,2.830160888671875,0.6585550941467285,4.2323499847412105,-6.774992147827148
1763692624556109800,2.84010986328125,1.782483135986328,3.9631519355773923,-6.37830286026001
1763692624566058800,2.850058837890625,2.7052982383728024,4.010138143157959,-5.830928505706787
1763692624576008000,2.860008056640625,3.186832047271728,4.318690882110595,-5.41388850402832
1763692624585957000,2.86995703125,3.2243910858154297,4.777629412841796,-5.437082332611084
1763692624595906000,2.879906005859375,3.5232173805236813,5.313182396697997,-5.491550420379638
1763692624605855000,2.88985498046875,4.6645033843994135,5.354183100128173,-5.300612837982177
1763692624615804000,2.899803955078125,5.435286681365967,5.162048416900634,-4.957942725372314
1763692624625752800,2.9097529296875,5.895871225738525,5.110273805999755,-5.13915386352539
1763692624635702000,2.919701904296875,6.373364819335937,5.485714553833008,-5.909787522888183
1763692624645651000,2.92965087890625,5.396979454803467,5.951686051940918,-7.090128941345214
1763692624655601200,2.93960107421875,4.454711463928223,5.8610056640625,-7.979425220489501
1763692624665550000,2.949550048828125,4.085405857849121,5.516839175415039,-8.468141634368896
1763692624675499000,2.9594990234375,3.7961563697814937,5.370792874145508,-8.838494703674316
1763692624685448000,2.969447998046875,3.8226422256469723,5.341463903808593,-8.8236805809021
1763692624695396900,2.97939697265625,5.491999333190917,5.445013125610351,-9.204059369659424
1763692624705345800,2.989345703125,5.943007070922851,5.211428826141357,-9.373748412322998
1763692624715294700,2.999294677734375,2.485330960845947,5.63086302947998,-9.411457088470458
1763692624725244200,3.009244140625,3.168426622009277,5.780799908447265,-10.181043284606933
1763692624735193000,3.019193115234375,2.832041288757324,5.712116248321533,-10.007762939453125
1763692624745142000,3.02914208984375,2.7638065414428707,5.628618465423584,-9.586981997680663
1763692624755091000,3.039091064453125,2.983923456573486,5.321861377716064,-9.51904652557373
1763692624765041000,3.049041015625,3.108571580505371,5.214720853424072,-9.426570486450196
1763692624774989800,3.05898974609375,3.206733848571777,5.322011015319824,-9.331400970458985
1763692624784939000,3.06893896484375,3.2727240318298336,5.490951869964599,-9.412803826904296
1763692624794888000,3.078887939453125,3.0846295639038086,5.646574977874756,-9.69696563644409
1763692624804836900,3.0888369140625,2.9487586196899414,5.631311942291259,-10.006416201019286
1763692624814786000,3.0987861328125,2.6104279975891114,5.2645501754760735,-9.935936889648437
1763692624824735000,3.10873486328125,2.5062802253723144,4.803965631103515,-9.81936919631958
1763692624834684000,3.118683837890625,2.4224831672668454,4.230853608703613,-9.796773918151855
1763692624844632800,3.1286328125,2.245461882019043,3.7675755874633787,-10.17700306930542
1763692624854582000,3.13858203125,2.0018518630981443,3.6941035240173337,-10.44500401763916
1763692624864531000,3.148531005859375,1.8766051887512205,3.809623754119873,-10.61080248260498
1763692624874480000,3.158480224609375,1.7164929527282713,3.985747213745117,-10.147225186157225
1763692624884429800,3.168429931640625,1.5406687683105469,3.9927801811218258,-9.810091664886475
1763692624894379000,3.17837890625,1.3839981971740722,3.650409343719482,-9.186102857208251
1763692624904328000,3.188327880859375,1.2343605934143065,3.557484391784668,-8.40738876724243
1763692624914276900,3.19827685546875,0.898274535369873,3.455880458831787,-7.893832511138916
1763692624924226000,3.20822607421875,0.24361001892089842,3.482815227508545,-7.381323718261719
1763692624934175000,3.218175048828125,-0.38052842636108397,3.51783042678833,-6.826916396331787
1763692624944124000,3.2281240234375,-0.9549871871948241,3.1446342430114744,-6.714538555908203
1763692624954072800,3.23807275390625,-1.0746972702026367,2.685845349884033,-6.739976948547363
1763692624964022000,3.24802197265625,-0.6974608711242676,2.6036943054199218,-6.9153522201538085
1763692624973971000,3.257970947265625,0.2991255699157715,2.4705168380737303,-7.256525956726073
1763692624983919900,3.267919921875,1.2017395957946777,2.7519851707458494,-7.876025636291503
1763692624993870000,3.2778701171875,1.5744868667602538,3.0775965965270995,-8.148366075134277
1763692625003819000,3.287819091796875,1.4024036224365233,3.1699229980468746,-8.154800492095946
1763692625013768000,3.297767822265625,1.5345336265563965,2.761262702178955,-7.70618695602417
1763692625023716900,3.307716796875,0.5846341178894042,2.5671827301025387,-7.279570147705078
1763692625033665800,3.317665771484375,0.5433341392517089,2.571671858215332,-6.592284633636474
1763692625043615000,3.327614990234375,0.21054010848999022,2.6719290527343746,-5.90574730758667
1763692625053564200,3.337564208984375,-0.4248211570739746,2.910002480316162,-5.684582929229736
1763692625063513000,3.34751318359375,-0.5587468124389648,3.2595559226989743,-5.963357785034179
1763692625073462000,3.3574619140625,-0.14724340209960937,3.407248237609863,-6.282983706665039
1763692625083411000,3.367410888671875,0.05970540390014648,3.30714068069458,-6.599018325805663
1763692625093359900,3.37735986328125,0.601393529510498,3.393182302856445,-6.851456963348388
1763692625103309800,3.387309814453125,1.1923124267578125,3.4461540145874023,-7.053617366027831
1763692625113258800,3.3972587890625,1.5062521194458007,3.422511273193359,-7.331494396209717
1763692625123208000,3.4072080078125,1.1852794593811034,3.779995508575439,-7.59066672592163
1763692625133157000,3.4171572265625,0.7083844161987304,4.154239155578613,-7.880365126800537
1763692625143106000,3.42710595703125,0.36317046432495115,4.310311176300049,-7.906701345062255
1763692625153055000,3.437054931640625,0.14784195251464843,4.2706572113037105,-7.9278002471923825
1763692625163004000,3.44700390625,-0.12764087600708007,4.209156156158447,-8.276605501556396
1763692625172952800,3.456952880859375,0.1614589744567871,4.272303224945068,-8.764424089813232
1763692625182901800,3.46690185546875,0.8277952239990234,4.436754951477051,-9.112630793762207
1763692625192851000,3.476850830078125,1.2458826889038086,4.651335275268554,-9.747692784118652
1763692625202800000,3.486800048828125,1.7196353424072264,4.642207381439209,-9.90840357055664
1763692625212749000,3.4967490234375,2.916885810089111,4.370315855407714,-9.935338339233398
1763692625222699000,3.506698974609375,2.3802853630065917,4.658218605041504,-10.307187784576415
1763692625232648000,3.51664794921875,1.0254664985656738,4.744260227203369,-10.767772328948974
1763692625242596900,3.526596923828125,0.8361749298095703,4.393958596801758,-11.227608685302734
1763692625252546000,3.536546142578125,0.6280290229797363,4.123563446807861,-11.667543240356444
1763692625262495000,3.546494873046875,0.7826046676635742,4.024054440307617,-12.032658993530273
1763692625272444000,3.55644384765625,0.8628104232788085,3.8998552291870117,-11.963077507781982
1763692625282393000,3.56639306640625,1.1623849060058593,3.70263286743164,-11.762563118743897
1763692625292342000,3.576342041015625,1.6798317398071287,3.8326679450988768,-11.737723276519775
1763692625302291000,3.586291015625,2.1465514259338376,4.0249522659301755,-11.873444583129881
1763692625312239900,3.596239990234375,2.39420166015625,4.149001839447021,-12.075604985809326
1763692625322188800,3.606188720703125,2.559251937103271,4.400393013763427,-12.056601010131835
1763692625332139000,3.616138916015625,2.828898899078369,4.537909971618652,-12.094010411071777
1763692625342088000,3.626087890625,2.7685949447631835,4.654926577758789,-12.20130057296753
1763692625352036900,3.636036865234375,2.667439924621582,4.759672900390624,-11.949161210632324
1763692625361986000,3.645986083984375,2.49011936416626,4.644302307891845,-11.483040074920654
1763692625371935000,3.65593505859375,2.48323603439331,4.155735531616211,-11.088744989013671
1763692625381884000,3.6658837890625,2.6856957122802734,3.3077392311096188,-11.046247909545897
1763692625391833000,3.6758330078125,2.9870658462524413,2.618209152984619,-11.484835726165771
1763692625401782000,3.685781982421875,3.5166333259582516,2.133084041595459,-12.090269470977782
1763692625411731000,3.69573095703125,3.557484391784668,1.8203414497375487,-12.55758770751953
1763692625421679900,3.705679931640625,3.398269981384277,1.7609353210449217,-12.595296383666991
1763692625431629000,3.715629150390625,3.3304841468811035,1.3890858757019042,-12.358120781707763
1763692625441578800,3.725578857421875,3.6924575103759762,0.9919476753234863,-11.681010624694823
1763692625451528200,3.735528076171875,4.34128616027832,0.5609913764953613,-11.155483360290527
1763692625461477000,3.74547705078125,4.695927281188965,0.2599205177307129,-10.86533604660034
1763692625471426000,3.755426025390625,4.8650177734375,0.050727147674560547,-10.746673426818846
1763692625481375000,3.765375,5.182997681427001,0.1849520782470703,-10.601076038360596
1763692625491324000,3.775323974609375,5.241206709289551,0.28535891036987304,-10.32319900817871
1763692625501272800,3.78527294921875,4.657919329833984,0.3182791831970215,-9.925611894989013
1763692625511221800,3.7952216796875,3.770418701934814,0.3963900123596191,-9.358186101531983
1763692625521171000,3.8051708984375,3.130717945861816,0.601992079925537,-8.533682904815674
1763692625531120000,3.8151201171875,2.546682378387451,0.7356184600830078,-7.724293106079101
1763692625541069000,3.825069091796875,2.3521534934997557,0.6197989547729492,-7.044489472198486
1763692625551019000,3.83501904296875,2.574365335083008,0.5662286926269531,-6.908768165588379
1763692625560968000,3.844968017578125,2.0437503921508786,1.262193187713623,-6.810456259918213
1763692625570916900,3.854916748046875,1.4438532386779783,2.0569185012817384,-6.316801805114745
1763692625580865800,3.86486572265625,1.3869909492492676,2.6708815895080567,-5.971887128448486
1763692625590815000,3.87481494140625,0.9475053070068359,2.903568063354492,-5.571756175994873
1763692625600764200,3.88476416015625,0.2454056701660156,2.5761609863281247,-4.98637387008667
1763692625610713000,3.894713134765625,-0.004489128112792969,2.4091654205322266,-4.913201081848144
1763692625620662000,3.904662109375,0.022146365356445312,2.3874679679870603,-5.038447756195068
1763692625630611000,3.91461083984375,0.0026934768676757813,2.3514053054809567,-4.913799632263183
1763692625640559900,3.924559814453125,0.031872809600830075,2.6617536956787107,-4.7183729217529295
1763692625650508800,3.9345087890625,0.42796354675292964,2.8075007217407224,-4.806808745574951
1763692625660459000,3.944458984375,0.28356325912475583,2.9975404785156248,-4.940884038543701
1763692625670408000,3.954407958984375,0.48991351470947264,3.23696064453125,-5.071667304229736
1763692625680356900,3.96435693359375,0.9938929641723632,3.222146521759033,-5.063586873626709
1763692625690306000,3.97430615234375,0.9720458740234375,3.352331237030029,-5.286995816040038
1763692625700255000,3.9842548828125,1.1041758781433104,3.099593324279785,-5.3019595764160155
1763692625710204000,3.994203857421875,1.0146925910949707,3.2357635437011716,-6.34568186264038
1763692625720152800,4.00415283203125,0.9603741409301757,3.3387142150878906,-7.066486199951171
1763692625730102000,4.01410205078125,0.5104138664245605,3.7503672630310056,-7.546822908020019
1763692625740051000,4.024051025390625,0.5063736511230469,4.280383655548095,-8.648155671691894
1763692625750000000,4.034000244140625,0.6426935081481934,4.490774126434326,-9.339182125854492
1763692625759949000,4.043948974609375,0.8123825508117676,4.6076410949707025,-9.875483297729492
1763692625769899000,4.05389892578125,0.7255927406311035,4.34158543548584,-11.176731900024413
1763692625779848000,4.063847900390625,0.8713397666931152,3.932027313995361,-11.796530854797362
1763692625789797000,4.073797119140625,0.8481459381103515,3.6673183929443356,-12.244396202850341
1763692625799746000,4.08374609375,0.6811503723144531,3.5116952850341794,-12.399570397949217
1763692625809695000,4.093695068359375,0.2651578338623047,3.4005145454406738,-12.495338464355468
1763692625819644000,4.103643798828125,-0.757166275024414,3.45393516998291,-12.261903802490234
1763692625829592800,4.1135927734375,-0.9485527702331542,3.3451486320495603,-12.285995456695556
1763692625839542000,4.1235419921875,-0.31184476623535157,3.3358711006164548,-11.818377944946288
1763692625849491000,4.133490966796875,-0.7321767951965331,3.460968137359619,-11.842469599151611
1763692625859439900,4.14343994140625,-0.8925883064270019,3.206733848571777,-11.906813768768309
1763692625869389000,4.15338916015625,-0.6102221481323242,2.816179702758789,-12.13695640335083
1763692625879339000,4.163339111328125,-0.7311293319702148,2.940678189086914,-11.934047812652587
1763692625889288000,4.173287841796875,-0.9006687370300293,3.1841385704040523,-11.24272208328247
1763692625899236900,4.18323681640625,-0.9913491249084472,3.793612530517578,-10.778396598815917
1763692625909185800,4.193185791015625,-0.9888052856445312,4.733037406921387,-10.708066925048827
1763692625919135000,4.203135009765625,-1.0175357055664063,5.166687182617188,-10.233566083526611
1763692625929084200,4.213084228515625,-1.624166551208496,4.583250165557861,-10.096198763275146
1763692625939033000,4.223033203125,-1.0983400115966797,2.771438059234619,-11.81044715194702
1763692625948982000,4.23298193359375,-0.6423942329406738,0.8803180229187011,-13.60430274581909
1763692625958931000,4.242930908203125,-0.6706757400512695,-0.07781155395507812,-15.063867932891846
1763692625968879900,4.2528798828125,-2.053776111602783,0.15113397979736326,-15.78826357269287
1763692625978828800,4.262828857421875,-3.7288194480895993,0.6416460449218749,-15.369577557373045
1763692625988779000,4.272779052734375,-4.32213254699707,0.7740753242492675,-14.65221488494873
1763692625998728000,4.28272802734375,-4.182670300292968,0.42751463394165035,-13.084312072753905
1763692626008677000,4.292677001953125,-3.0961516593933105,-0.8080430603027343,-10.911873341369628
1763692626018626000,4.3026259765625,-1.8764555511474608,-0.8948328704833984,-8.22932001876831
1763692626028575000,4.312574951171875,-1.6217723495483398,-0.45878889312744137,-6.224026490783691
1763692626038524000,4.32252392578125,-1.2891279563903808,0.4997895965576172,-5.440523997497558
1763692626048472800,4.332472900390625,-1.3997101455688477,1.7082628845214842,-5.850979944610596
1763692626058421800,4.342421875,-0.7680898200988769,2.1046528968811034,-6.446238332366943
1763692626068371000,4.352370849609375,0.5069722015380859,2.114678616333008,-6.943184814453125
1763692626078320000,4.362320068359375,0.8566752815246581,1.6639701538085936,-7.154922023773193
1763692626088269000,4.37226904296875,0.3298012786865234,1.7705121276855467,-8.321796057891845
1763692626098219000,4.382218994140625,-0.02259527816772461,1.9719243423461912,-9.509619356536865
1763692626108168000,4.39216796875,0.3929483474731445,1.9764134704589842,-9.836876795959473
1763692626118116900,4.402116943359375,0.8077437850952148,2.3307553161621093,-10.026318002319336
1763692626128066000,4.412066162109375,1.3156138122558594,3.1253309921264645,-10.071358921051024
1763692626138015000,4.422014892578125,1.4116811538696288,3.693953886413574,-10.053402408599853
1763692626147964000,4.4319638671875,1.0971429107666015,3.9223008697509765,-9.983521647644043
1763692626157913000,4.4419130859375,0.6169558403015136,3.949834188842773,-9.628730889129638
1763692626167862000,4.451862060546875,0.1236006607055664,4.388272367858886,-9.130138393402099
1763692626177811000,4.46181103515625,-0.2991255699157715,3.922600144958496,-8.412326808166503
1763692626187759900,4.471759765625,-0.8837596878051758,3.746476685333252,-7.590068175506591
1763692626197708800,4.481708740234375,-1.4082394889831542,4.21394455947876,-6.9545572723388664
1763692626207659000,4.491658935546875,-1.645115815734863,4.53940634765625,-6.866719998931885
1763692626217608000,4.50160791015625,-1.5767314308166502,4.846462710571289,-6.909217078399657
1763692626227556900,4.511556884765625,-1.493383285522461,4.988319158935546,-6.838588129425048
1763692626237505800,4.521505859375,-1.8743606246948241,5.046677824401855,-6.764816790771484
1763692626247455000,4.531455078125,-2.1027076080322264,5.019593418121338,-6.931662718963623
1763692626257404000,4.54140380859375,-2.3341969810485836,5.112518370056152,-7.13142891998291
1763692626267353000,4.55135302734375,-0.9446621925354003,5.251531703948975,-7.41903239440918
1763692626277302000,4.561302001953125,-3.9137715263366695,5.0842368629455565,-7.399729143524169
1763692626287251000,4.5712509765625,-4.086453321075439,4.835688803100585,-8.300397880554199
1763692626297199900,4.581199951171875,-3.8048353507995603,4.69847112045288,-9.210793061828612
1763692626307149000,4.591149169921875,-4.469974499511719,4.701912785339355,-9.739163440704345
1763692626317098800,4.6010986328125,-4.525639688110351,4.682759172058105,-10.300154817199706
1763692626327048000,4.6110478515625,-4.492120864868164,4.407575618743897,-10.682778170013426
1763692626336997000,4.6209970703125,-3.732859663391113,3.99038597946167,-10.862044019317626
1763692626346946000,4.630946044921875,-2.71966344833374,3.5028666664123533,-11.131541343688964
1763692626356895000,4.64089501953125,-2.417694763946533,2.7914894981384277,-11.220276442718506
1763692626366844000,4.650843994140625,-1.8875287338256834,2.731185543823242,-11.212644924926757
1763692626376792800,4.660792724609375,-1.8939631507873533,2.506429862976074,-11.026046833038329
1763692626386741800,4.67074169921875,-1.9041385078430175,2.0178630867004395,-10.928034202575683
1763692626396691000,4.68069091796875,-2.205209366607666,1.5358803649902344,-10.925789638519287
1763692626406640000,4.69064013671875,-2.8817209732055664,0.9524433479309081,-10.746673426818846
1763692626416589000,4.700589111328125,-3.615394144439697,0.5349544334411621,-10.648062245941162
1763692626426539000,4.7105390625,-3.8756139373779295,0.52986675491333,-10.397718534851073
1763692626436488000,4.720488037109375,-3.695749537658691,0.6238391700744629,-9.790189863586425
1763692626446436900,4.730436767578125,-3.5315970863342283,0.8708908538818358,-9.331101695251464
1763692626456385800,4.7403857421875,-3.640832537078857,0.8119336380004882,-9.092579354858398
1763692626466335000,4.7503349609375,-3.932176951599121,0.3550900337219238,-9.067739512634278
1763692626476284000,4.760283935546875,-4.191349281311035,-0.15427636947631834,-9.40397520828247
1763692626486233000,4.770233154296875,-4.318690882110595,-0.4343979637145996,-10.135553453063965
1763692626496182000,4.78018212890625,-4.478503842926025,-0.7592612014770508,-10.362703335571288
1763692626506131000,4.790130859375,-4.592976609802246,-1.0076596237182616,-10.49558152770996
1763692626516079600,4.80007958984375,-4.714033431243896,-0.8933364944458008,-10.548852514648438
1763692626526029600,4.810029541015625,-4.604349067687988,-0.5783493385314941,-10.202441461944579
1763692626535978500,4.819978515625,-4.476109641265869,-0.33907881011962887,-9.66015478591919
1763692626545927400,4.829927490234375,-4.210652532196045,-0.060303954315185544,-9.146149617004394
1763692626555876600,4.839876708984375,-3.8486791687011714,0.5225345123291015,-8.819939640808105
1763692626565825500,4.849825439453125,-3.641131812286377,1.036090768432617,-8.360701834869385
1763692626575774700,4.859774658203125,-3.595193067932129,1.3251906188964844,-7.668627917480468
1763692626585723600,4.8697236328125,-3.760991532897949,1.6588824752807616,-7.334636785888671
1763692626595672600,4.879672607421875,-3.8883331336975093,1.9045874206542968,-6.796689600372314
1763692626605621500,4.88962158203125,-3.8111201301574704,1.9936217948913573,-6.049100131988525
1763692626615570400,4.8995703125,-3.4865561676025387,1.9758149200439452,-5.3101896446228025
1763692626625519600,4.90951953125,-3.3782185424804685,2.051681185150146,-5.049371301269531
1763692626635469600,4.919469482421875,-3.4377743087768553,2.081907981109619,-4.975001412200927
1763692626645418800,4.929418701171875,-3.705924894714355,2.2842180213928223,-5.03725065536499
1763692626655367700,4.93936767578125,-3.609707915496826,2.7118822929382325,-5.354931288146973
1763692626665316600,4.949316650390625,-3.2899323562622067,3.3535283378601073,-5.595099642181396
1763692626675265500,4.959265625,-2.8420670082092285,3.899406316375732,-5.912480999755859
1763692626685214500,4.96921435546875,-2.3331495178222657,4.280234017944336,-6.3992521247863765
1763692626695163400,4.979163330078125,-1.935712042236328,4.246565557098388,-6.546495526885986
1763692626705112600,4.989112548828125,-1.6300024177551269,4.160972847747803,-6.60126288986206
1763692626715061800,4.999061767578125,-1.4438532386779783,4.44378791885376,-6.734290719604492
1763692626725010700,5.0090107421875,-1.6831237670898436,4.848856912231445,-6.665756697082519
1763692626734959600,5.018959716796875,-1.986139914703369,4.41790061340332,-6.150704064941406
1763692626744909600,5.02890966796875,-2.069787335205078,4.7275008155822755,-5.613953980255126
1763692626754858500,5.0388583984375,-1.6690578323364256,5.478831224060058,-5.668571705627441
1763692626764807400,5.048807373046875,-1.0136451278686522,5.820154598236083,-5.745036521148681
1763692626774756600,5.058756591796875,-0.19153613281249998,6.5758244972229,-5.952434239959716
1763692626784705500,5.06870556640625,0.8279448616027831,7.408408124542236,-6.189011291503906
1763692626794654700,5.07865478515625,2.1365257064819336,7.785195610809326,-6.415712261199951
1763692626804603600,5.088603759765625,3.717147714996338,7.643638437652587,-6.98433515548706
1763692626814552600,5.098552490234375,4.694879817962646,7.2997712242126465,-7.532457698059082
1763692626824501500,5.10850146484375,5.871480296325683,6.702417910003661,-8.072200534820556
1763692626834450400,5.118450439453125,8.837447240447997,6.779630913543701,-8.95655877304077
1763692626844399600,5.128399658203125,8.820837466430664,7.473051569366454,-8.732252005004883
1763692626854349600,5.138349609375,7.396586753845215,8.140435282135009,-10.028861841583252
1763692626864298500,5.148298583984375,5.972635316467285,8.016984259033203,-9.697264911651612
1763692626874247400,5.158247314453125,3.8735190109252926,8.20298380050659,-9.718214176177979
1763692626884196600,5.168196533203125,2.940079638671875,8.68945565032959,-9.607631986999511
1763692626894145500,5.1781455078125,3.5332430999755857,8.551639417266845,-8.727912514495848
1763692626904094700,5.1880947265625,4.910058692169189,7.957877405548095,-8.66985312423706
1763692626914043600,5.198043701171875,4.294748865509033,7.199813304901123,-9.436895481109618
1763692626923992600,5.20799267578125,2.4440309822082518,6.830358061218261,-10.670507886505126
1763692626933941500,5.21794140625,1.526602833557129,7.630171053314209,-11.505784990692138
1763692626943890700,5.227890625,2.170044529724121,6.909067440795898,-11.208455072021483
1763692626953840400,5.23784033203125,2.876782932281494,6.270414147949219,-10.194660306549071
1763692626963789600,5.24778955078125,3.662230714416504,5.701791253662109,-10.389039553833006
1763692626973738800,5.25773876953125,3.6016274848937986,4.796334113311767,-11.119420697784424
1763692626983687700,5.267687744140625,3.4771289985656737,4.649240348815917,-11.705700829315186
1763692626993636600,5.27763671875,3.5227684677124023,4.854692778778076,-12.045527827453613
1763692627003585500,5.28758544921875,3.6917093223571773,5.168782109069824,-11.898284425354003
1763692627013534500,5.297534423828125,3.4726398704528805,5.173869787597656,-11.343727465820312
1763692627023483400,5.3074833984375,2.999785042572021,4.792742810821533,-10.428992794036864
1763692627033432600,5.3174326171875,2.450914311981201,4.378695561218262,-9.592518589019775
1763692627043381800,5.3273818359375,1.9506758026123046,3.9338229652404784,-8.391527181243896
1763692627053330700,5.33733056640625,1.5496470245361327,3.703381055450439,-7.4685624412536615
1763692627063280600,5.34728076171875,1.3210007659912109,3.7478234237670898,-6.75464143371582
1763692627073229600,5.3572294921875,1.548898836517334,3.8934208122253415,-6.075137075042724
1763692627083178500,5.367178466796875,1.9589058708190916,3.9131729759216305,-5.590161601257324
1763692627093127400,5.37712744140625,2.0020015007019043,3.604470599365234,-5.1800049293518065
1763692627103076600,5.38707666015625,2.1639093879699707,3.3674446350097655,-5.086780702209472
1763692627113025800,5.39702587890625,2.1347300552368162,3.3647511581420897,-5.097554609680175
1763692627122974700,5.406974609375,2.4206875160217285,3.151367935180664,-5.462071812438965
1763692627132923600,5.416923583984375,1.9831471626281738,3.124433166503906,-6.168959852600097
1763692627142872600,5.42687255859375,2.225111167907715,3.7949592689514158,-5.749974562072754
1763692627152821500,5.436821533203125,2.3138462669372557,3.5013702903747554,-5.847089366912842
1763692627162770400,5.4467705078125,2.3973440498352048,3.330783422088623,-5.543624306488037
1763692627172720600,5.456720703125,2.199523137664795,3.112312520599365,-5.283853426361084
1763692627182669600,5.466669677734375,1.9113211128234862,2.881421697998047,-5.225794036102295
1763692627192618500,5.476618408203125,1.5617676704406738,2.861370259094238,-5.243151998138427
1763692627202567700,5.486567626953125,1.2990040382385253,3.1350574363708494,-5.0954596832275385
1763692627212516600,5.4965166015625,0.9578303016662597,3.308786694335937,-4.962581491088867
1763692627222465500,5.506465576171875,1.6774375381469726,3.568258299255371,-4.9275662918090815
1763692627232414500,5.51641455078125,1.6563386360168455,3.882048354339599,-4.6818613464355465
1763692627242363600,5.52636376953125,1.691204197692871,4.497956731414795,-4.478354205322265
1763692627252312600,5.5363125,2.0527286483764646,4.813392800140381,-4.422689016723632
1763692627262261500,5.546261474609375,2.2475568084716797,4.971559747314453,-4.537012145996093
1763692627272211500,5.55621142578125,2.231096672058105,5.200954193878173,-4.9634793167114255
1763692627282160600,5.56616064453125,2.282572007751465,5.331887097167969,-5.789628527069091
1763692627292109600,5.576109619140625,2.5905261962890624,5.657049610137939,-6.715735656738281
1763692627302058800,5.586058837890625,2.9314006576538083,5.902754555511474,-7.621043159484863
1763692627312007700,5.596007568359375,3.0633810241699218,5.689969882965087,-8.61792887573242
1763692627321956600,5.60595654296875,3.1536124992370604,5.316025511169434,-9.994594830322265
1763692627331905500,5.615905517578125,3.4880525436401366,5.153967986297607,-11.08350767288208
1763692627341854500,5.6258544921875,3.899406316375732,5.134215822601318,-11.744606606292724
1763692627351803600,5.6358037109375,4.4656350090026855,4.910657242584228,-12.147580673217773
1763692627361752600,5.645752685546875,4.811297873687744,4.887613051605224,-12.374580918121337
1763692627371701500,5.655701416015625,4.773888472747802,4.901379711151122,-12.553248217010497
1763692627381651700,5.665651611328125,4.620659566497802,4.759972175598144,-12.621034051513671
1763692627391600600,5.6756005859375,4.218583325195312,4.433762199401855,-12.312780587768554
1763692627401549600,5.685549560546875,4.252999974060058,4.310311176300049,-12.121094817352294
1763692627411498500,5.69549853515625,4.183717763519287,4.445134657287597,-11.678017872619629
1763692627421447400,5.705447509765625,4.2874166229248045,4.46294153213501,-11.40881982345581
1763692627431396600,5.715396728515625,4.364629626464843,4.348917678070068,-10.931775142669677
1763692627441345800,5.725345703125,4.308814800262451,4.401590114593506,-10.360009858703613
1763692627451294700,5.735294677734375,4.234594548797607,4.470273774719238,-10.020182860565185
1763692627461243600,5.74524365234375,3.9360675292968748,4.573523721313476,-10.004770187377929
1763692627471192600,5.755192626953125,3.669114044189453,4.43047017211914,-10.870423725128173
1763692627481141500,5.7651416015625,3.426401850891113,3.8789059646606443,-12.062137601470946
1763692627491091500,5.775091552734375,3.6354455833435058,3.0591911712646485,-12.878710005187987
1763692627501040600,5.78504052734375,4.230703971099853,2.4603414810180664,-12.962058150482177
1763692627510989600,5.794989501953125,4.677970768737793,2.1383213577270506,-12.717999218749998
1763692627520939000,5.80493896484375,4.841375032043457,2.0503344467163083,-12.712761902618407
1763692627530888200,5.81488818359375,4.751143556976318,2.0114286697387693,-12.697049954223631
1763692627540837000,5.824837158203125,4.488828837585449,1.7887679153442382,-11.9894137260437
1763692627550786000,5.8347861328125,4.241028965759277,1.5652093353271483,-11.0447515335083
1763692627560735000,5.84473486328125,3.9921816307067868,1.398812319946289,-9.868300692749022
1763692627570684200,5.85468408203125,3.7247792327880855,1.2279261764526366,-8.426392742919921
1763692627580633000,5.864633056640625,3.2339678924560546,1.046415763092041,-8.62526111831665
1763692627590582000,5.87458203125,2.418442951965332,1.6852186935424804,-7.436091081237793
1763692627600532000,5.884531982421875,1.5318401496887206,1.9282301620483397,-6.5780690612792965
1763692627610481000,5.89448095703125,1.0781389350891113,2.3151930053710936,-5.90559766998291
1763692627620430000,5.90443017578125,0.8836100502014159,2.778620664215088,-5.464017101287841
1763692627630379000,5.91437890625,0.3468599655151367,2.8725930793762204,-4.997447052764892
1763692627640328200,5.924328125,-0.1949777976989746,2.8788778587341306,-4.2800843803405755
1763692627650277000,5.934277099609375,-0.027533319091796873,2.9433716659545897,-3.8070799148559566
1763692627660226000,5.94422607421875,0.13437456817626953,2.8535891036987304,-3.2392052085876464
1763692627670175000,5.954175048828125,0.03007715835571289,2.8239608581542965,-3.1757588645935058
1763692627680124200,5.964124267578125,-0.5454290657043457,2.5872341690063476,-3.536235852050781
1763692627690073000,5.974072998046875,-0.45714287948608395,1.703923394012451,-4.3436803619384765
1763692627700023300,5.984023193359375,-0.06569090805053711,2.5206454353332517,-3.649212242889404
1763692627709972200,5.99397216796875,0.06389525680541992,3.3680431854248045,-3.2589573722839353
1763692627719921200,6.003921142578125,0.3779845870971679,3.9342718780517574,-3.6462194908142087
1763692627729870000,6.0138701171875,0.4186860153198242,4.410269095611572,-4.319139794921875
1763692627739819000,6.023819091796875,0.3001730331420898,4.432116185760497,-4.731092118072509
1763692627749768000,6.033767822265625,-0.006284779357910156,4.459350229644775,-4.892102179718017
1763692627759716900,6.043716796875,0.25213936233520506,4.431816910552978,-5.38800119857788
1763692627769666300,6.053666259765625,0.4665700485229492,4.26497098236084,-5.692962635040283
1763692627779615200,6.063615234375,0.8089408859252929,4.362385062408447,-6.132897190093994
1763692627789564200,6.073564208984375,1.2728174575805664,4.873696754455566,-7.325957804870605
1763692627799513000,6.08351318359375,1.696890426635742,5.389946487426758,-8.538172032928466
1763692627809463000,6.093463134765625,2.1110873138427735,5.684732566833496,-9.662698625183104
1763692627819412000,6.103411865234375,2.3406313980102538,5.691615896606445,-10.589254667663573
1763692627829361000,6.11336083984375,2.0688895095825193,5.571307263183593,-11.65213056716919
1763692627839310000,6.12331005859375,2.1088427497863766,5.550806911468506,-12.938864321899413
1763692627849259300,6.13325927734375,2.4998458084106443,5.145887555694579,-13.558812914276123
1763692627859208200,6.143208251953125,1.7497125007629393,5.0945618576049805,-14.268095156097411
1763692627869157000,6.1531572265625,1.0513538040161132,5.918915416717529,-13.918990626525877
1763692627879106000,6.16310595703125,1.2702736183166503,6.307973186492919,-13.444639422607422
1763692627889055000,6.173054931640625,1.354669226837158,6.439055727386474,-12.955623733520508
1763692627899004000,6.18300390625,0.5452794281005859,6.806116769409179,-12.357671868896484
1763692627908953000,6.192953125,-0.201112939453125,6.899191358947753,-12.580332623291016
1763692627918903000,6.202903076171875,-0.7007528984069824,6.755239984130859,-13.391518073272705
1763692627928852000,6.21285205078125,-0.626981559753418,6.53721799545288,-13.532177420806883
1763692627938801200,6.22280126953125,-0.31693244476318355,6.3250318733215325,-13.012186747741698
1763692627948750000,6.23275,-0.28969840087890625,6.099528004455566,-12.35258419036865
1763692627958699000,6.242698974609375,-0.5680243438720702,5.638195272064209,-11.648988177490233
1763692627968648200,6.252648193359375,-0.9475053070068359,4.937442373657226,-11.314099220275878
1763692627978597000,6.26259716796875,-1.1522095489501953,4.004900827026367,-11.679663886260986
1763692627988546000,6.272546142578125,-1.4897919830322264,3.3602620300292965,-12.192771229553221
1763692627998495000,6.282494873046875,-1.9410989959716796,3.027467999267578,-12.492046437072753
1763692628008444200,6.292444091796875,-2.261173830413818,3.0270190864562987,-12.36620121231079
1763692628018393000,6.30239306640625,-2.5418939750671385,3.0214824951171875,-11.852196043395995
1763692628028343000,6.312343017578125,-2.588131994628906,2.8470050491333008,-11.098471433258055
1763692628038292200,6.322292236328125,-2.708141352844238,2.2876596862792966,-10.390535929870605
1763692628048241200,6.3322412109375,-2.79627790145874,1.9328689277648925,-9.310451705932616
1763692628058190000,6.342190185546875,-2.80929637298584,1.40464818649292,-8.148066799926758
1763692628068139000,6.352138916015625,-3.107374479675293,1.0877157417297363,-7.562385218811035
1763692628078088000,6.362087890625,-3.267636353302002,1.0910077690124511,-6.790554458618164
1763692628088037000,6.372037109375,-2.79627790145874,1.3006500518798827,-6.453121662139893
1763692628097986000,6.381986083984375,-1.8650830932617186,1.4030021728515625,-6.246472131347656
1763692628107935200,6.391935302734375,-1.1581950531005858,1.556380716705322,-6.162375798034668
1763692628117884200,6.40188427734375,-0.773776049041748,1.8938135131835936,-6.044012453460693
1763692628127833000,6.4118330078125,-0.6407482192993164,2.073079362487793,-5.98849690246582
1763692628137783000,6.421782958984375,0.9822212310791015,1.635539009094238,-5.641337661743163
1763692628147732000,6.43173193359375,1.7135002006530762,1.6521487831115722,-5.352387448883056
1763692628157681000,6.441680908203125,1.149216796875,2.3413795860290527,-6.216694248199462
1763692628167630000,6.451630126953125,0.6934206558227539,2.9114988563537594,-6.974309436035155
1763692628177579300,6.461579345703125,0.2742857276916504,3.461417050170898,-7.749731498718261
1763692628187528200,6.471528076171875,-0.18555062866210936,3.927538185882568,-8.288426872253417
1763692628197477000,6.48147705078125,-0.3269581642150879,4.07971962890625,-8.551938692474364
1763692628207426000,6.491426025390625,-0.1518821678161621,3.9737762054443357,-8.489539811706543
1763692628217375000,6.501375,-0.2792237686157226,3.956118968200683,-8.296806578063965
1763692628227324000,6.511323974609375,-0.4951508308410644,3.771166889953613,-7.963264359283447
1763692628237273000,6.521273193359375,-0.6099228729248046,3.6878187446594235,-7.638101846313476
1763692628247223000,6.53122314453125,-0.9220669143676757,3.8070799148559566,-7.409305950164795
1763692628257172200,6.541172119140625,-1.2951134605407715,4.053383410644531,-7.246799512481689
1763692628267121200,6.55112109375,-1.5466542724609373,4.3628339752197265,-7.123647764587402
1763692628277070000,6.561070068359375,-1.533486163330078,4.622754492950439,-7.13786333694458
1763692628287019000,6.57101904296875,-1.2586018852233887,4.6645033843994135,-7.034613390350342
1763692628296968000,6.580968017578125,-0.6781576202392577,4.634575863647461,-6.989722109222412
1763692628306917000,6.590917236328125,-0.20081366424560546,4.791096797180176,-7.332990772247314
1763692628316866000,6.600865966796875,-0.021398177337646485,5.109974530792236,-8.097040377044678
1763692628326815200,6.610815185546875,0.08649053497314453,5.293280595397949,-9.111134417724609
1763692628336764200,6.62076416015625,-0.05820902786254883,5.262305611419677,-9.963320571136475
1763692628346713000,6.630713134765625,-0.3447650390625,5.163245517730712,-10.562020623779297
1763692628356663000,6.6406630859375,-0.6070797584533691,5.0580502822875975,-10.780042612457274
1763692628366612200,6.6506123046875,-0.7330746208190918,4.918588035583496,-10.630554646301269
1763692628376561200,6.66056103515625,-0.7691372833251953,4.517409619903564,-10.19615668258667
1763692628386510000,6.670510009765625,-0.831236888885498,4.031237045288086,-9.842263749694824
1763692628396459000,6.680458984375,-1.1031284149169922,3.834912509155273,-9.613318215942382
1763692628406408200,6.690408203125,-1.4426561378479004,3.723133219146728,-9.414749115753173
1763692628416357000,6.700357177734375,-1.6467618293762205,3.4515409683227536,-9.109189128875732
1763692628426306000,6.71030615234375,-1.7335516395568846,3.030460751342773,-8.63738176422119
1763692628436255000,6.7202548828125,-1.5254057327270507,2.442235330963135,-8.137143254852294
1763692628446204200,6.7302041015625,-1.472134745788574,2.2212205902099607,-7.6288243148803705
1763692628456153000,6.740153076171875,-1.4643535903930662,2.042104378509521,-7.352742935943603
1763692628466103000,6.75010302734375,-0.9712976860046386,1.6361375595092773,-7.475146495819091
1763692628476052000,6.760052001953125,-0.7736264114379883,1.4989198768615721,-8.11469761428833
1763692628486001000,6.7700009765625,-0.6723217536926269,1.6202759735107422,-9.223811533355713
1763692628495950000,6.7799501953125,-0.31753099517822264,1.8412907142639159,-10.590751043701172
1763692628505899300,6.789899169921875,0.21832126388549802,2.10046304397583,-11.78590658493042
1763692628515848200,6.79984814453125,1.0726023437499999,2.3834277526855465,-12.81945351409912
1763692628525796400,6.80979638671875,2.168697791290283,2.6062381446838376,-13.575721963500976
1763692628535745300,6.819745361328125,3.10917013092041,2.6485855865478514,-14.12878254699707
1763692628545694500,6.829694580078125,3.5859155364990234,2.698564546203613,-14.574253693389892
1763692628555643400,6.839643310546875,3.5327941871643063,3.0796915229797364,-15.07913096847534
1763692628565592300,6.84959228515625,2.6467899353027344,3.610905016326904,-15.583708968353271
1763692628575542500,6.85954248046875,1.6826748542785643,4.293851039886475,-15.638177056121826
1763692628585491500,6.869491455078125,1.1818377944946288,4.820725042724609,-15.300744259643555
1763692628595440400,6.8794404296875,1.1192892761230469,5.309142181396484,-14.887894110870361
1763692628605389300,6.889389404296875,1.1724106254577635,6.166116738128662,-14.737059406280517
1763692628615338200,6.899338134765625,1.0696095916748045,7.068581126403808,-14.946851326751709
1763692628625287200,6.909287109375,0.7318775199890136,7.615057655334472,-15.219341403198241
1763692628635236400,6.919236328125,0.2507926239013672,7.677905448913574,-15.183727653503418
1763692628645185500,6.929185546875,-0.17896657409667968,7.3657614074707025,-14.412345806121825
1763692628655134500,6.939134521484375,-0.7363666481018066,7.04194563293457,-12.856114727020262
1763692628665083400,6.94908349609375,-1.2153566177368162,6.752247232055663,-10.90409218597412
1763692628675033300,6.959033447265625,-1.420509772491455,6.4269350814819335,-8.874557366180419
1763692628684982300,6.968982177734375,-1.25770405960083,6.341492009735107,-7.189937223052978
1763692628694931200,6.97893115234375,-0.903362213897705,6.577919423675537,-6.046556292724609
1763692628704880400,6.98888037109375,-0.419434203338623,6.820033066558837,-5.088875628662109
1763692628714829600,6.99882958984375,-0.011971008300781249,6.9433344520568845,-3.9700352653503415
1763692628724778500,7.008778564453125,0.029628245544433593,6.991368122863769,-2.4823382087707517
1763692628734727400,7.0187275390625,-0.11162965240478515,6.941838076019287,-1.024119760131836
1763692628744676400,7.02867626953125,-0.3368342460632324,6.854000802612305,0.044592005920410155
1763692628754625300,7.038625244140625,-0.5898714340209961,6.9235822883605955,0.7570166374206543
1763692628764574200,7.04857421875,-0.9268553176879882,6.925228302001953,1.1384428894042968
1763692628774523100,7.058523193359375,-1.283890640258789,6.58210927658081,1.30873048248291
1763692628784472600,7.06847265625,-1.3678373359680176,6.099528004455566,1.309478670501709
1763692628794422300,7.07842236328125,-1.5222633430480956,5.749824924468994,1.343895319366455
1763692628804371500,7.088371337890625,-1.4651017784118652,5.3467012199401855,1.1164461616516113
1763692628814320400,7.0983203125,-1.3670891479492187,5.067627088928222,0.6111199737548828
1763692628824269300,7.108269287109375,-1.3242927932739257,5.144540817260742,-0.09382277755737305
1763692628834218200,7.11821826171875,-1.2419921112060546,5.631760855102539,-1.1489175216674803
1763692628844167400,7.12816748046875,-1.164479832458496,6.150105514526367,-2.395548398590088
1763692628854116400,7.138116455078125,-0.9573813888549804,6.496965480041504,-4.183568125915527
1763692628864065500,7.1480654296875,-1.1414356414794922,7.303212889099121,-6.1176341545104975
1763692628874014500,7.158014404296875,-1.5415665939331054,7.975983555603027,-7.970446964263916
1763692628883963400,7.16796337890625,-2.0301333702087403,8.122778044891357,-9.990853890228271
1763692628893913300,7.177913330078125,-2.9843723693847655,8.187571127319336,-11.803563822174072
1763692628903862500,7.187862548828125,-4.339490509033203,8.278999703216552,-12.973729883575439
1763692628913811500,7.1978115234375,-5.862352402496337,8.486098146820067,-13.124564588165283
1763692628923760400,7.207760498046875,-7.471704830932617,9.278578896331787,-12.510451862335204
1763692628933709300,7.217709228515625,-9.186252494812011,10.592696332550048,-11.913846736145018
1763692628943658200,7.227658203125,-10.563217724609375,12.272677709960936,-12.178555657196044
1763692628953607400,7.237607421875,-10.941651224517821,13.640365408325195,-13.715333847808838
1763692628963556400,7.247556396484375,-10.245537091827392,13.9553525642395,-16.41509549484253
1763692628973505300,7.25750537109375,-8.52994196472168,13.271508715057372,-20.076428383636472
1763692628983454500,7.267454345703125,-7.0382046928405755,12.32175884399414,-23.548918616485594
1763692628997135400,7.28113525390625,-4.934449621582031,10.793061083984375,-26.793061865997313
1763692629007085300,7.291085205078125,-3.095852384185791,9.029881198883055,-27.131242850494385
1763692629017034200,7.3010341796875,-0.9645639938354491,8.189965328979492,-24.90493458175659
1763692629026983200,7.310983154296875,0.9065046035766601,6.782773303222656,-21.018546736907957
1763692629036932400,7.320932373046875,2.0774188529968263,6.139181969451904,-16.865504682159422
1763692629046881500,7.330881591796875,3.2691327293395993,5.501127227020263,-13.54744045639038
1763692629056830500,7.34083056640625,3.564218083953857,4.304026396942138,-10.753407118988036
1763692629066779400,7.350779296875,3.1988030555725095,2.7329811950683593,-8.438962301635742
1763692629076728300,7.360728271484375,2.3464672645568845,1.638232485961914,-6.641365767669678
1763692629086677200,7.37067724609375,1.1507131729125977,1.1909656883239745,-5.697002850341796
1763692629096626200,7.380626220703125,0.3886088569641113,0.8999205490112304,-5.442020373535156
1763692629106575600,7.39057568359375,0.2769792045593262,0.6643909606933593,-5.292083494567871
1763692629116524500,7.400524658203125,0.7694365585327148,0.2796726814270019,-4.881477909851074
1763692629126474500,7.410474609375,1.7111059989929198,-0.390703783416748,-4.30312857131958
1763692629136423400,7.42042333984375,3.0729578308105467,-1.23855044631958,-3.6649241912841797
1763692629146372400,7.430372314453125,4.4844893470764156,-2.0890905860900877,-3.008164748382568
1763692629156321300,7.4403212890625,5.4810757881164545,-2.854337291717529,-2.292597727203369
1763692629166270200,7.450270263671875,5.895422312927246,-3.621678923797607,-1.821538550567627
1763692629176219400,7.460219482421875,5.7417444938659665,-4.245967006683349,-1.424250712585449
1763692629186168300,7.470168212890625,5.339817890167236,-4.56469510269165,-0.7876923461914062
1763692629196117500,7.480117431640625,4.932055419921875,-4.621707029724121,0.17687164764404295
1763692629206066400,7.49006640625,4.720318210601806,-4.557961410522461,1.2961609237670897
1763692629216015400,7.500015380859375,4.8309003997802735,-4.4945150665283204,2.217330012512207
1763692629225964300,7.50996435546875,4.988319158935546,-4.39216294555664,3.0364462554931637
1763692629235914500,7.51991455078125,5.441122547912597,-3.957615344238281,3.4687492927551267
1763692629245863400,7.529863525390625,6.045359191894531,-3.2344168052673337,3.3469442832946776
1763692629255812400,7.539812255859375,6.5497875541687005,-2.3874679679870603,2.4052748428344723
1763692629265761300,7.54976123046875,6.909965266418457,-1.408987677001953,0.7647977928161621
1763692629275710500,7.55971044921875,6.8876692634582515,-0.43140521163940426,-0.9127893829345702
1763692629285659400,7.569659423828125,6.781426564788818,0.4613327323913574,-2.705148600769043
1763692629295608300,7.5796083984375,6.721571523284911,1.565957523345947,-4.493766878509521
1763692629305557200,7.58955712890625,6.809708071899414,2.6879402763366698,-6.2769982025146485
1763692629315506400,7.59950634765625,6.742371150207519,4.074631950378418,-8.303989183044433
1763692629325455400,7.609455322265625,6.1644707244873045,6.1070098846435545,-10.325892485046387
1763692629335404300,7.619404296875,5.2730795188903805,8.096591464233398,-11.508777742767334
1763692629345354200,7.629354248046875,3.125031716918945,9.611372927093505,-10.562319898986816
1763692629355303200,7.63930322265625,1.6593313880920408,11.883769577789305,-9.882067352294921
1763692629365252400,7.64925244140625,2.0319290214538572,14.788534741973876,-12.552200753784179
1763692629375201500,7.659201416015625,2.365471240234375,16.80370435180664,-18.524387157440184
1763692629385150500,7.669150390625,1.4252981758117675,17.76811870803833,-26.652402518463134
1763692629395099400,7.679099365234375,-0.7064391273498535,18.461240088653565,-34.02504725570679
1763692629405048300,7.68904833984375,-0.7830535804748535,17.4290398979187,-38.06481364440918
1763692629414997200,7.698997314453125,-2.560598675537109,16.02334424819946,-35.05051375427246
1763692629424946400,7.708946533203125,-3.822342950439453,15.342942063903807,-28.126482553100583
1763692629434895400,7.718895263671875,-2.3732523956298825,14.103942704772948,-21.05730287628174
1763692629444844500,7.728844482421875,-0.617404753112793,13.05662911605835,-14.74154853439331
1763692629454794500,7.73879443359375,1.3078326568603516,12.076502811431885,-10.279504827880858
1763692629464743400,7.748743408203125,2.139368820953369,11.41450605239868,-7.072172428894042
1763692629474692400,7.7586923828125,2.0649989318847655,10.264989980316162,-4.490474851226806
1763692629484641300,7.768641357421875,1.7767969070434568,8.722974473571776,-2.0781670410156248
1763692629494590200,7.778590087890625,0.7890390846252441,7.491008081817626,0.39234979705810547
1763692629504539100,7.7885390625,-0.4251204322814941,6.65872372970581,2.386420504760742
1763692629514488600,7.798488525390625,-1.6609774017333983,6.00151537399292,3.736899878692627
1763692629524438000,7.80843798828125,-2.5403975990295407,5.658994898986816,4.54599040222168
1763692629534387500,7.818387451171875,-2.8698996025085446,5.721693054962158,4.687248300170898
1763692629544336400,7.82833642578125,-2.779219214630127,6.26308190536499,4.440196616363525
1763692629554285300,7.838285400390625,-2.579901926422119,6.485443384552002,4.00879140472412
1763692629564235300,7.8482353515625,-2.2863129478454587,6.118681617736816,3.418171782684326
1763692629574184200,7.85818408203125,-2.477849080657959,5.919513967132568,2.8968343711853026
1763692629584133000,7.868133056640625,-3.17935016708374,5.660042362213135,2.085798558807373
1763692629594082300,7.878082275390625,-3.7366006034851074,5.345653756713867,1.0925041450500488
1763692629604031200,7.88803125,-4.179078997802734,5.421071109008789,0.086191259765625
1763692629613980400,7.89798046875,-4.5072342628479,6.000018997955322,-0.8708908538818358
1763692629623929300,7.907929443359375,-4.595670086669921,6.574477758789062,-1.987337015533447
1763692629633878300,7.917878173828125,-4.2317514343261715,7.076811194610595,-3.548506135559082
1763692629643827200,7.9278271484375,-3.6228760246276854,7.711274634552002,-5.476586660003662
1763692629653776100,7.937776123046875,-3.265541426849365,8.493729664611816,-7.570316011810302
1763692629663725000,7.94772509765625,-3.2803555496215817,9.170091633605956,-9.69157868270874
1763692629673675300,7.95767529296875,-4.014477633666992,9.726294606781005,-11.35689557495117
1763692629683624200,7.967624267578125,-4.796932663726806,10.120589692687988,-12.503568532562255
1763692629693573000,7.977572998046875,-5.361066429901123,10.428693518829345,-12.998569725799559
1763692629703522300,7.987522216796875,-5.636100345611572,11.002104816436766,-12.993930960083008
1763692629713471200,7.99747119140625,-5.877615438079833,12.127080321502685,-12.71171443939209
1763692629723420200,8.007420166015624,-6.111199737548827,13.291260878753661,-12.068422380828856
1763692629733369300,8.017369384765624,-6.0996776420593255,14.093168797302246,-12.063334702301026
1763692629743318300,8.027318359375,-6.165518187713623,14.952687193298338,-13.45152275238037
1763692629753267200,8.03726708984375,-6.443095942687988,15.784672270202636,-16.022745697784423
1763692629763216400,8.04721630859375,-5.754164414978027,15.583708968353271,-19.142989011383055
1763692629773165300,8.057165283203124,-4.421491915893554,14.561235221862793,-21.389947269439695
1763692629783114200,8.0671142578125,-3.346645008087158,13.535619085693359,-21.540033786010742
1763692629793064400,8.077064453125,-1.9499276145935058,12.62118368911743,-20.187758760833738
1763692629803013400,8.087013427734375,-0.33264439315795896,11.705251916503906,-18.183811971282957
1763692629812962300,8.09696240234375,0.9142857589721679,10.759242985534668,-16.308403883361816
1763692629822911200,8.1069111328125,1.6512509574890135,9.412354914093017,-14.685434432983397
1763692629832860200,8.116860107421875,1.8652327308654784,7.714716299438476,-13.008745082855224
1763692629842809000,8.12680908203125,1.5272013839721679,6.049549044799805,-11.106402226257323
1763692629852758300,8.13675830078125,0.9765350021362305,4.5878889312744136,-9.273790493011473
1763692629862707200,8.146707275390625,0.5141548065185546,3.4581250228881832,-7.564330507659911
1763692629872656400,8.156656494140625,0.5478232673645019,2.990956423950195,-6.029946518707275
1763692629882605300,8.166605224609375,1.0535983680725096,1.9217957450866698,-5.167136095428466
1763692629892554200,8.17655419921875,0.9888052856445312,1.4036007232666015,-3.9502831016540525
1763692629902504200,8.186504150390626,2.995595189666748,0.64478843460083,-3.5878608253479003
1763692629912453000,8.196453125,4.069993184661865,-0.52986675491333,-3.2677859909057614
1763692629922402000,8.206402099609376,4.417601338195801,-1.390582251739502,-3.226635649871826
1763692629932351200,8.216351318359376,4.866813424682617,-2.3555951583862305,-3.312078721618652
1763692629942300400,8.226300537109376,5.2828059631347655,-3.478625374603271,-3.4823663146972654
1763692629952249300,8.236249267578126,5.261557423400879,-4.391714032745361,-3.378068904876709
1763692629962198300,8.2461982421875,5.253476992797851,-4.920533324432372,-2.961477816009521
1763692629972147200,8.256147216796874,5.307496167755127,-5.028721311950683,-2.1416133850097654
1763692629982096100,8.26609619140625,5.364807369995117,-4.745906240844726,-1.0347440299987793
1763692629992045000,8.276045166015624,5.473893183135986,-4.173542406463623,-0.020649989318847654
1763692630001994200,8.285994140625,5.85442160949707,-3.33257907333374,0.3072060005187988
1763692630011943400,8.295943359375,6.418705013275146,-2.4061726684570313,-0.09861118087768554
1763692630021893400,8.305893310546875,6.636278089141845,-1.7229273696899412,-1.0206780952453613
1763692630031842300,8.31584228515625,6.293458338928223,-1.4329296936035156,-2.1199159324645995
1763692630041791200,8.325791259765625,5.454589932250976,-1.3603554557800293,-3.1310172210693357
1763692630051740200,8.335740234375,4.184166676330566,-1.175852290344238,-3.881000891113281
1763692630061689000,8.345689208984375,2.996941928100586,-1.0013748443603514,-4.672883090209961
1763692630071638300,8.35563818359375,2.0355203239440915,-0.7725789482116698,-5.818508584594726
1763692630081587200,8.365587158203125,1.127519344329834,0.10100538253784179,-7.499836700439452
1763692630091536400,8.375536376953125,0.5144540817260742,1.3564648780822752,-9.520991814422606
1763692630101485300,8.3854853515625,0.20201076507568358,2.7720366096496583,-11.665597951507568
1763692630111434200,8.395434326171875,-0.3037643356323242,4.352209705352783,-12.976423360443114
1763692630121383200,8.405383056640625,-0.6739677673339843,5.9856537879943845,-13.203872518157958
1763692630131333400,8.41533349609375,-0.9276035057067871,7.914931413269042,-12.231228093719482
1763692630141282300,8.4252822265625,-1.163881282043457,10.726023437499999,-11.342680002593994
1763692630151231200,8.435231201171876,0.19946692581176756,12.318766091918945,-11.045499721527099
1763692630161180200,8.44518017578125,0.6145616386413574,13.453468041229247,-11.837531558227539
1763692630171129300,8.45512939453125,-0.390703783416748,14.554800804901122,-14.468609545135497
1763692630181078300,8.465078369140626,-1.9000982925415038,13.639467582702636,-18.869152196502686
1763692630191027200,8.475027099609376,-4.703109886169433,11.925069556427001,-23.56433128967285
1763692630200976100,8.48497607421875,-8.60595786743164,11.719168213653564,-26.076297743988036
1763692630210925300,8.49492529296875,-11.51715744857788,11.44099190826416,-25.114726502227782
1763692630220874200,8.504874267578124,-12.21297230606079,11.79159281387329,-22.25066276626587
1763692630230823200,8.5148232421875,-11.79772795562744,12.447753706359862,-18.54683279800415
1763692630240772400,8.5247724609375,-10.674997014617919,12.316820803070067,-15.40578985748291
1763692630250722000,8.53472216796875,-9.003245705413818,11.359589051818848,-12.616844198608398
1763692630260671200,8.544671142578125,-7.576451153564452,10.525808323669432,-9.638307695770264
1763692630270620400,8.554620361328125,-7.151330721282958,10.10652375793457,-6.543203499603271
1763692630280569300,8.5645693359375,-6.709301239776611,9.068637338256835,-3.3372178390502927
1763692630290518300,8.574518310546875,-5.913678100585937,7.925555683135986,-0.3097498397827148
1763692630300467200,8.58446728515625,-5.448454790496826,7.306654553985595,1.8996493797302245
1763692630310416100,8.594416015625,-4.96722025680542,6.93989278717041,3.220201232910156
1763692630320365300,8.604365234375,-4.289661186981201,6.515670180511474,3.847182792663574
1763692630330314200,8.614314208984375,-3.777601306915283,6.362890187072754,3.791068691253662
1763692630340263200,8.62426318359375,-3.774458917236328,6.489633237457275,3.291578369903564
1763692630350212400,8.63421240234375,-3.6457705780029293,6.347926426696777,2.436249826812744
1763692630360161300,8.644161376953125,-3.287238879394531,5.786635774993896,1.4233528869628906
1763692630370111200,8.654111328125,-3.0163948165893553,5.19077883682251,0.3559878593444824
1763692630380060200,8.66406005859375,-3.0288147377014156,4.808604396820068,-0.6166565650939941
1763692630390009000,8.674009033203125,-3.122487877655029,4.374356070709228,-1.3801076194763182
1763692630399958000,8.6839580078125,-3.1745617637634274,4.216189123535156,-2.177676047515869
1763692630409907500,8.693907470703126,-3.526509407806396,4.671985264587402,-2.972999911499023
1763692630419856400,8.7038564453125,-3.7542578407287595,5.059696295928955,-3.6246716758728024
1763692630429805300,8.713805419921876,-3.7647324729919434,5.257367570495605,-4.313752841186523
1763692630439754200,8.723754150390626,-3.9936780067443847,5.787234325408935,-5.258415033721923
1763692630449703200,8.733703125,-4.517858532714843,6.387430754089355,-6.120926181793212
1763692630459652000,8.743652099609376,-4.961683665466309,6.623259617614746,-6.74162296218872
1763692630469601300,8.753601318359374,-5.296273347473144,6.7550903465270995,-7.186345920562744
1763692630479551200,8.76355126953125,-5.436334144592285,7.2541317550659175,-8.033594033050537
1763692630489500200,8.773500244140624,-5.907692596435546,8.594435771942138,-9.368960009002684
1763692630499449300,8.783449462890625,-6.863727246856689,10.522366658782959,-10.456077200317383
1763692630509398300,8.793398193359375,-8.078335676574707,12.73685355682373,-10.676194115447997
1763692630519347200,8.80334716796875,-9.450063590240479,15.350124668884277,-9.841066648864745
1763692630529295600,8.813295654296875,-10.127323384857178,17.815404190826413,-9.032125762939453
1763692630539244500,8.82324462890625,-9.816526081848144,18.76964319000244,-9.215581465148926
1763692630549193700,8.83319384765625,-9.420136069488525,18.56553749847412,-10.829722296905517
1763692630559142700,8.843142578125,-9.28276874923706,18.57915452041626,-14.643685541534422
1763692630569091800,8.853091796875,-8.387935878753662,18.635118984222412,-19.693954668426514
1763692630579040800,8.863040771484375,-6.333710854339599,18.564190760040283,-24.449736991119384
1763692630588990700,8.87299072265625,-3.1625907554626465,17.908478780364987,-26.964097647094725
1763692630598939600,8.882939697265625,-1.7366940292358397,15.881787075042723,-25.903915224456785
1763692630608888600,8.892888671875,-0.706738402557373,13.570035734558104,-22.412570653533933
1763692630618837500,8.90283740234375,0.9142857589721679,11.923423542785644,-18.532317950439452
1763692630628786700,8.91278662109375,1.9077298103332518,9.277980345916747,-14.902408958435057
1763692630638736000,8.92273583984375,2.0144214218139647,7.122001750946045,-11.90651449356079
1763692630648684800,8.932684814453125,2.2361843505859373,4.842871408081054,-9.739313078308104
1763692630658633700,8.9426337890625,1.8499696952819824,2.9390321754455564,-7.851335431671142
1763692630668582700,8.952582763671876,1.3201029403686522,1.648557480621338,-6.244077929687499
1763692630678531600,8.962531494140626,1.0914566818237303,0.7827543052673339,-4.998045603179931
1763692630688480500,8.97248046875,1.3114239593505859,0.12075754623413085,-4.174290594482422
1763692630698429700,8.9824296875,1.9211971946716306,-0.7127239067077636,-3.5606267814636228
1763692630708379000,8.99237890625,3.0181904678344726,-1.785625525665283,-3.053056029510498
1763692630718328800,9.002328857421874,4.310760089111328,-2.982127805328369,-2.486827336883545
1763692630728277800,9.01227783203125,5.234473017120361,-4.365527452087402,-1.7842787872314452
1763692630738226700,9.022226806640624,5.901557454681396,-5.894674124908447,-0.9738415252685546
1763692630748175600,9.032175537109374,6.272209799194336,-7.2057988090515135,0.03890577697753906
1763692630758124500,9.04212451171875,6.4004492256164545,-8.106018633270264,1.1119570335388183
1763692630768073700,9.05207373046875,6.475417665100097,-8.636334300994873,2.0925322509765625
1763692630778022700,9.062022705078125,6.2846297203063965,-8.70202520904541,3.0940567329406736
1763692630787971800,9.071971923828125,6.267421395874023,-8.224232340240478,3.8985084907531737
1763692630797920800,9.081920654296875,6.523600973510741,-7.490858444213867,4.294449590301514
1763692630807869700,9.09186962890625,6.781426564788818,-6.776488523864746,4.154089517974853
1763692630817818600,9.101818603515625,6.790554458618164,-5.949441487884521,3.2974142364501953
1763692630827767600,9.111767578125,6.294056889343262,-5.182399131011962,2.09402862701416
1763692630837717800,9.1217177734375,5.842899514007568,-4.553173007202148,0.6042366439819336
1763692630847666700,9.131666748046875,5.172523049163818,-3.7400422683715817,-0.9180266990661621
1763692630857615600,9.14161572265625,4.676923305511474,-2.804507969665527,-2.5469816535949708
1763692630867564800,9.151564697265625,4.28981082458496,-1.8751088127136228,-4.172794218444824
1763692630877513700,9.161513671875,4.029142118835449,-0.5837362922668456,-5.867290443420409
1763692630887462700,9.171462646484375,3.892971899414062,1.425597451019287,-7.7513775123596185
1763692630897411600,9.18141162109375,3.289633081054687,3.994426194763183,-9.576806640625
1763692630907360800,9.19136083984375,1.9051859710693357,6.5868976799011225,-10.869226624298095
1763692630917309700,9.201309814453126,1.0027215827941893,9.832686943054199,-11.739369290161132
1763692630927258600,9.211258544921876,-1.0378864196777342,13.137583059692382,-10.409390267944335
1763692630937207800,9.221207763671876,0.34386721343994137,14.437933836364746,-10.779444062042236
1763692630947156700,9.23115673828125,0.6304232246398925,17.80537847137451,-14.532504801940917
1763692630957106700,9.241106689453124,0.8789712844848633,20.50139917831421,-21.147534351348877
1763692630967056000,9.251055908203124,1.4465467155456542,21.2735292137146,-30.858715560150145
1763692630977004800,9.2610048828125,-0.10115502014160156,20.28861450576782,-37.28265788955688
1763692630986953700,9.27095361328125,-1.9641431869506836,18.011579089355468,-38.407034844207764
1763692630996902700,9.280902587890624,-4.1115924385070795,17.48006632080078,-35.99786942367553
1763692631006851600,9.2908515625,-5.466261665344238,17.78173572998047,-31.068657118225097
1763692631016800800,9.30080078125,-4.888810152435302,17.19949581375122,-25.233389122009275
1763692631026749700,9.310749755859375,-3.5303999855041504,15.894655908966064,-19.302053784179687
1763692631036699000,9.320698974609375,-2.4447791702270507,14.579042096710204,-13.817985243988037
1763692631046647800,9.330647705078125,-1.9569605819702147,13.34946990661621,-9.035717065429687
1763692631056596700,9.3405966796875,-1.8312649948120117,12.10493395614624,-4.9257706405639645
1763692631066545700,9.350545654296875,-1.8206407249450682,10.640430728149413,-1.1703156990051269
1763692631076495600,9.36049560546875,-1.39177935256958,9.578153379058838,1.8155530464172362
1763692631086444500,9.370444580078125,-1.7845780624389647,8.621520178222656,4.408922357177734
1763692631096393500,9.3803935546875,-1.7886182777404784,7.663839514160156,6.0227639137268065
1763692631106343000,9.390343017578125,-1.7841291496276854,7.109581829833984,6.790404821014404
1763692631116291800,9.400291748046875,-1.9823989746093749,6.777535987091064,7.059004319763183
1763692631126240800,9.41024072265625,-2.101211231994629,6.3432876609802245,6.7088523269653315
1763692631136189700,9.420189697265625,-1.9901801300048827,5.5659203094482415,5.847239004516601
1763692631146138600,9.430138671875,-2.051232272338867,4.507982450866699,4.852897127532959
1763692631156087600,9.440087646484375,-2.3509563926696777,3.7392940803527828,3.620481822967529
1763692631166036500,9.450036376953125,-3.1940146522521973,3.4771289985656737,2.5062802253723144
1763692631175986000,9.45998583984375,-3.755305303955078,3.2607530235290527,1.6379332107543945
1763692631185934800,9.469934814453126,-3.854215760040283,2.9198785621643064,0.8445546356201171
1763692631195884800,9.479884765625,-3.9872435897827145,3.4638112518310544,0.021098902130126954
1763692631205833700,9.489833740234374,-5.2085857116699215,3.7038299682617186,-0.8381202186584472
1763692631215782700,9.49978271484375,-5.033958628082275,4.53940634765625,-2.3267151008605955
1763692631225731600,9.509731689453124,-6.832752262878418,5.810428153991699,-3.0207343070983885
1763692631235680800,9.5196806640625,-7.022492744445801,5.890933184814453,-4.3251252990722655
1763692631245629700,9.529629638671874,-7.334038235473632,6.25664748840332,-6.269665959930419
1763692631255579000,9.539578857421875,-8.282291730499267,7.439832021331787,-8.864082733917236
1763692631265527800,9.54952783203125,-9.482235675048827,8.735244757080078,-11.15997248840332
1763692631275476700,9.559476806640625,-10.45667575073242,9.751134449005127,-12.203844412231444
1763692631285425700,9.56942578125,-11.72171205291748,11.66948852920532,-11.936292376708984
1763692631295374600,9.57937451171875,-12.727875300598145,14.583231949615477,-11.119121422576903
1763692631305323500,9.589323486328125,-12.890980288696289,17.98509323348999,-11.093533392333983
1763692631315273700,9.599273681640625,-12.588113778686523,20.60839006500244,-13.19654027557373
1763692631325222700,9.60922265625,-11.844414888000488,21.091869162750243,-17.688810778045653
1763692631335171600,9.619171630859375,-10.276661713409423,19.464260946655273,-23.076662339019773
1763692631345120800,9.629120849609375,-9.548974046325682,17.281646858215332,-27.49635860366821
1763692631355069700,9.639069580078125,-9.224709358978272,15.478064820098876,-30.285453900146482
1763692631365018600,9.6490185546875,-6.95844785003662,13.335254334259032,-29.141175144195554
1763692631374967800,9.6589677734375,-4.203021014404297,11.744307331085205,-24.928726960754393
1763692631384916700,9.668916748046875,-1.898003366088867,10.773608195495605,-19.825486122131345
1763692631394865700,9.67886572265625,0.48976387710571284,9.427468312072753,-15.398158339691161
1763692631404814800,9.68881494140625,2.46408242111206,7.136516598510742,-11.914146011352539
1763692631414763800,9.698763671875,3.2582091842651364,4.393659321594238,-8.813804499053955
1763692631424712700,9.708712646484376,2.9225720390319823,1.8433856407165525,-6.086359895324707
1763692631434663000,9.718662841796874,2.051681185150146,-0.03696048812866211,-3.9223008697509765
1763692631444611800,9.72861181640625,1.397465581512451,-1.1763012031555176,-2.2309470344543456
1763692631454560800,9.738560791015624,1.3085808448791503,-1.6819266662597656,-1.074547632598877
1763692631464509700,9.748509765625,2.305316923522949,-2.2290017456054687,-0.5835866546630859
1763692631474458600,9.758458740234374,4.285022421264649,-3.375973978424072,-0.3172317199707031
1763692631484407600,9.768407470703124,6.179135209655762,-4.872200378417968,0.3054103492736816
1763692631494356700,9.778356689453124,7.792976766204833,-6.30752427368164,1.3039420791625975
1763692631504305700,9.7883056640625,8.873509902954101,-7.575254052734374,2.6563667419433594
1763692631514254800,9.7982548828125,9.368810371398926,-8.558822022247314,3.7606922576904296
1763692631524203800,9.808203857421875,9.42866541290283,-9.39185456237793,4.53282229309082
1763692631534152700,9.818152587890625,9.005789544677734,-9.447968663787842,4.7946880996704095
1763692631544101600,9.8281015625,8.14028564453125,-8.791807771301269,4.761917464447021
1763692631554051800,9.8380517578125,7.638850034332275,-8.120084568023682,4.325873487091064
1763692631564000800,9.848000732421875,7.249792264556884,-7.1683894081115715,3.3611598556518554
1763692631573949700,9.85794970703125,6.995109062957764,-5.827337203216552,1.5634136840820312
1763692631583899000,9.86789892578125,7.208193010711669,-4.316895230865478,-0.8684966522216796
1763692631593847800,9.877847900390625,7.100902848815918,-2.3437737876892086,-4.160075022125244
1763692631603796700,9.887796630859375,6.362590911865234,-0.3532943824768066,-7.371597274017334
1763692631613746000,9.897745849609375,5.721992330169678,1.1350012245178223,-10.373177967834472
1763692631623694800,9.90769482421875,4.696076918792724,2.039261264038086,-12.377424032592772
1763692631633643800,9.917643798828125,3.591003215026855,3.1172505615234374,-14.132224211883544
1763692631643593000,9.927593017578126,2.5752631607055663,5.08827707824707,-15.84512586212158
1763692631653542000,9.9375419921875,1.1825859825134277,7.709628620910644,-15.275455504608153
1763692631663491800,9.947491943359376,0.033518823242187495,9.821613760375977,-12.972083869934082
1763692631673441000,9.95744091796875,-0.4875193130493164,10.717643731689453,-10.493037688446044
1763692631683390000,9.967389892578124,-0.4514566505432129,14.571859491729736,-10.367940651702881
1763692631693339000,9.9773388671875,-1.061828436279297,18.85897683944702,-13.496713308715819
1763692631703287800,9.987287841796874,-1.1140519599914551,19.932626646423337,-21.097256116485596
1763692631713236700,9.99723681640625,-1.6525976959228514,19.968240396118162,-30.074913791656492
1763692631723185700,10.007185546875,-4.466083921813965,20.242526123809814,-36.86576752548218
1763692631733134800,10.017134765625,-6.7544917961120605,19.421763867187497,-37.52013276672363
1763692631743083800,10.027083740234374,-8.183530912017822,18.573917204284665,-31.502905444335937
1763692631753033000,10.037032958984375,-8.329876488494872,18.406173450469968,-23.29034483718872
1763692631762983000,10.04698291015625,-7.532308060455322,17.918654137420653,-16.279224550628662
1763692631772931800,10.056931884765625,-6.121225457000732,16.992547007751465,-11.777975791931151
1763692631782880800,10.066880859375,-4.869955814361572,15.68651000213623,-8.91840118408203
1763692631792829700,10.07682958984375,-4.118475768280029,14.019247821044921,-6.549039366149902
1763692631802778600,10.086778564453125,-3.784035723876953,12.045677465057372,-3.871424084472656
1763692631812727800,10.096727783203125,-3.496731524658203,10.07345384750366,-0.6507739387512207
1763692631822677000,10.106677001953125,-3.017741555023193,8.341997134399413,2.4238299057006834
1763692631832626000,10.1166259765625,-2.363376313781738,6.795492499542236,4.8883612396240235
1763692631842574800,10.126574951171875,-1.7989432723999021,5.483170714569091,6.602759265899658
1763692631852523800,10.136523681640625,-1.2499229042053221,4.37974302444458,7.523479441833496
1763692631862473700,10.1464736328125,-0.687584789276123,4.083610206604003,6.880785933685302
1763692631872423000,10.1564228515625,-1.4098855026245116,3.4427123497009275,6.904727950286865
1763692631882371800,10.166371826171876,-1.473481484222412,2.428019758605957,6.625504181671142
1763692631892320800,10.17632080078125,-1.7350480155944823,1.4404115737915038,6.123021108245849
1763692631902270000,10.18627001953125,-2.0491373458862303,0.9421183532714843,5.299565374755859
1763692631912219000,10.196218994140626,-2.355295883178711,1.1423334671020506,3.7765538436889647
1763692631922167800,10.206167724609376,-2.9417256523132322,1.764676261138916,2.1197662948608396
1763692631932116700,10.21611669921875,-3.4006641830444333,2.424278818511963,0.8662520881652832
1763692631942065700,10.226065673828124,-3.838952724456787,3.143137866973877,0.20201076507568358
1763692631952014800,10.236014892578124,-3.8790556022644043,4.010138143157959,-0.3425204750061035
1763692631961964800,10.24596484375,-4.6273932586669915,4.786308393859863,-0.6157587394714356
1763692631971913700,10.255913818359375,-4.664054471588135,5.6878749565124505,-1.0699088668823242
1763692631981862700,10.265862548828125,-4.996100314331055,8.255955512237549,-2.3801357254028317
1763692631991811800,10.275811767578125,-5.775412954711913,10.515782604217529,-4.3345524681091305
1763692632001760800,10.2857607421875,-5.419275457763671,11.632976953887939,-6.590638619995117
1763692632011710000,10.2957099609375,-6.195595346069336,13.105111699676513,-8.12098239364624
1763692632021659000,10.305658935546875,-8.077138575744629,15.397709426879882,-8.347384088134765
1763692632031607800,10.31560791015625,-9.857077872467041,17.727267642211913,-6.826018570709228
1763692632041556700,10.325556640625,-9.921422042083739,20.400543433380125,-6.274903276062012
1763692632051506700,10.335506591796875,-9.783007258605956,22.991817817687988,-8.793304147338867
1763692632061455600,10.34545556640625,-9.968108974456786,24.015189389801023,-13.239935180664062
1763692632071405000,10.355405029296875,-8.795997624206542,23.291691575622558,-19.730466243743894
1763692632081354000,10.36535400390625,-7.625831562805176,21.619790628814695,-25.751584143829344
1763692632091303000,10.375302978515625,-6.742820063018798,20.57681653060913,-29.804369004058834
1763692632101251800,10.385251953125,-4.661660269927978,19.253720838165282,-29.921535247802733
1763692632111200800,10.39520068359375,-1.968931590270996,17.054945888519285,-26.43647545623779
1763692632121149700,10.405149658203126,0.00852934341430664,14.97797594833374,-21.52312473678589
1763692632131100000,10.415099853515626,1.7817349479675293,13.095235617828369,-17.12871722717285
1763692632141048800,10.425048828125,3.4467525650024413,10.267982732391356,-13.551779946899414
1763692632150997800,10.434997802734374,4.118176493072509,7.634809819030761,-10.616787986755371
1763692632160947000,10.444947021484374,3.99667075881958,5.323507391357421,-8.35681125717163
1763692632170896000,10.454895751953124,3.4769793609619137,3.3865982482910155,-6.4655415832519525
1763692632180844800,10.4648447265625,3.023727059173584,1.9826982498168944,-4.801272154235839
1763692632190793700,10.474793701171874,3.0419828468322754,0.672920304107666,-3.2206501457214354
1763692632200742700,10.48474267578125,3.5476083099365234,-0.6768108818054199,-1.8846856193542478
1763692632210691800,10.49469189453125,4.334103555297851,-2.0783166786193847,-0.9570821136474609
1763692632220641800,10.504641845703125,5.3199160888671875,-3.7196915542602538,-0.4676175117492676
1763692632230590700,10.5145908203125,6.1727007926940916,-5.279513935852051,-0.2488473350524902
1763692632240540000,10.524539794921875,6.779182000732422,-6.642712506103515,-0.056413376617431635
1763692632250488800,10.53448876953125,7.22076256942749,-7.7705311256408685,0.3796306007385254
1763692632260437800,10.544437744140625,7.700949639892578,-8.65010096054077,1.024718310546875
1763692632270387000,10.554386962890625,8.107215734100341,-9.020304392242432,1.8071733406066894
1763692632280336000,10.5643359375,7.949946612548827,-8.333767066192626,1.840692163848877
1763692632290284800,10.574284912109375,7.639448584747314,-8.091204510498047,1.939004069519043
1763692632300233700,10.584233642578125,7.589469625091552,-7.783549597167968,1.6959926010131834
1763692632310183700,10.59418359375,6.6711436508178705,-6.547094077301025,1.1990461189270019
1763692632320132600,10.604132568359375,5.839008936309814,-5.018845230102539,0.19797054977416992
1763692632330082000,10.61408203125,5.593603266143798,-3.361309493255615,-1.6102502540588377
1763692632340031000,10.624031005859376,5.2642509002685545,-1.7037737564086912,-3.5959412559509274
1763692632349980000,10.63397998046875,5.01779776687622,-0.32306758651733397,-5.182249493408203
1763692632359928800,10.6439287109375,4.173841681671142,0.37888241271972656,-6.185719264221191
1763692632369877800,10.653877685546876,4.236988750457764,1.2722189071655272,-8.4651488822937
1763692632379826700,10.66382666015625,2.722955475616455,2.8815713356018064,-9.757269590759277
1763692632389776000,10.67377587890625,0.3829226280212402,4.995801039123535,-11.129745692443848
1763692632399725800,10.683725830078124,2.1868039413452145,5.543325031280517,-10.9681370803833
1763692632409675000,10.693675048828124,0.22101474075317382,9.435548742675781,-10.773308920288086
1763692632419624000,10.7036240234375,-0.5321113189697265,13.174244272613524,-10.781688626098632
1763692632429572900,10.71357275390625,-1.2785036865234374,16.3441672706604,-9.616759880828857
1763692632439521800,10.723521728515625,-0.8035539321899413,18.990209017944334,-9.145999979400635
1763692632449470700,10.733470703125,0.7378630241394043,20.981586248779294,-11.097573607635498
1763692632459419600,10.743419677734375,1.560869844818115,22.054038954925534,-16.04354532470703
1763692632469368800,10.753368896484375,2.073079362487793,21.98804877166748,-23.339126696014404
1763692632479318000,10.763318115234375,1.3712790008544922,21.187337953948973,-28.425308847808836
1763692632489267700,10.773267822265625,-0.5792471641540528,19.821745182037354,-28.05989381942749
1763692632499217000,10.783216796875,-2.0331261222839356,18.46423284072876,-24.218546893310545
1763692632509165800,10.793165771484375,-2.8986300224304196,17.635090878295898,-18.64813745574951
1763692632519114800,10.80311474609375,-2.6583120307922363,16.883610832214355,-13.416357915496825
1763692632529063700,10.813063720703125,-1.6903063720703124,15.653739366912841,-9.709834470367431
1763692632539012600,10.8230126953125,-1.116595799255371,13.923479754638672,-6.983886242675781
1763692632548961500,10.83296142578125,-0.8674491889953613,11.845462351226805,-4.659116430664063
1763692632558910700,10.84291064453125,-0.9709984107971191,10.107421583557128,-2.433855625152588
1763692632568860000,10.85285986328125,-1.4661492416381836,8.594585409545898,-0.36047698745727536
1763692632578809900,10.862809814453126,-1.790713204193115,6.993313411712646,1.703923394012451
1763692632588758800,10.8727587890625,-1.9152116905212402,5.646425340270996,3.9613562843322754
1763692632598707700,10.882707763671876,-2.1525369300842283,4.8014217918396,5.7317187744140625
1763692632608656600,10.89265673828125,-2.3599346488952637,4.2968437919616695,6.393266620635986
1763692632618605600,10.90260546875,-2.271648462677002,4.0343794349670405,6.002562837219238
1763692632628554800,10.9125546875,-2.334645893859863,3.71550170135498,4.878485157775879
1763692632638503700,10.922503662109374,-1.8477251312255858,3.7850831871032713,3.723881407165527
1763692632648452900,10.932452880859374,-1.5869067878723144,4.314949942016601,2.6517279762268067
1763692632658401800,10.94240185546875,-2.0011036750793454,4.457255303192138,2.3766940605163573
1763692632668351700,10.952351806640625,-2.0433014793395996,4.2974423423767085,1.9491794265747069
1763692632678300700,10.96230078125,-2.195034009552002,4.020014225006103,1.3109750465393066
1763692632688249600,10.97224951171875,-3.0578444328308105,4.004900827026367,0.8860042518615722
1763692632698198800,10.98219873046875,-3.8099230293273925,4.261379679870605,0.23388357467651366
1763692632708147700,10.992147705078125,-4.052485585021972,5.071218391418457,-0.9195230751037597
1763692632718096600,11.0020966796875,-3.969735990142822,6.656928078460693,-2.388814706420898
1763692632728045800,11.0120458984375,-3.6906618591308593,8.36384422454834,-3.84329221496582
1763692632737994800,11.021994873046875,-3.0732571060180662,9.738115977478026,-5.5549967643737785
1763692632747943700,11.031943603515625,-1.6846201431274412,10.716596268463134,-8.282740643310547
1763692632757894000,11.041893798828125,-1.521365517425537,13.08116968307495,-11.439495532226562
1763692632767842800,11.0518427734375,-1.682225941467285,15.381249290466307,-13.12007546005249
1763692632777791700,11.061791748046875,-0.9959878906249999,16.31094772262573,-13.40723002166748
1763692632787740700,11.07174072265625,-0.23089082260131835,16.566379112243652,-12.530802576446533
1763692632797689600,11.081689697265626,0.21891981430053709,16.839467739105224,-11.476007107543944
1763692632807638500,11.091638427734376,1.534084713745117,17.029208220672608,-12.376526206970214
1763692632817587700,11.101587646484376,2.057666689300537,17.724723802948,-15.39247211074829
1763692632827537000,11.111536865234376,2.169595616912842,17.562217365264893,-18.39450171737671
1763692632837485800,11.12148583984375,4.405331054687499,17.00736113052368,-21.505766774749755
1763692632847435800,11.131435791015624,5.370942511749267,16.48392879257202,-22.45551664581299
1763692632857384700,11.141384765625,6.768108818054198,14.78629017791748,-21.68802537612915
1763692632867333600,11.151333740234374,8.135048328399657,12.906991512298584,-20.138228713989257
1763692632877282600,11.161282470703124,8.684517609405518,10.153210690307617,-17.922544715118406
1763692632887231500,11.1712314453125,9.248801013183593,8.894608805084228,-15.657929219818115
1763692632897180700,11.1811806640625,9.233687615203857,6.229263806915283,-13.08715518722534
1763692632907129900,11.1911298828125,8.74093098602295,4.177732259368896,-10.77016653060913
1763692632917078800,11.201078857421875,7.870189769744872,3.4407670608520506,-9.290100991821289
1763692632927027700,11.21102783203125,6.573729570770263,2.7213094619750975,-7.884106066894531
1763692632936977700,11.220977783203125,5.48421817779541,1.861042877960205,-6.3609448982238765
1763692632946926600,11.230926513671875,4.515763606262206,0.9005190994262695,-4.6836569976806635
1763692632956875800,11.240875732421875,3.9845501129150387,0.1345242057800293,-3.1808465431213375
1763692632966824700,11.25082470703125,3.72193611831665,-0.5837362922668456,-2.0171148986816405
1763692632976773600,11.260773681640625,3.77954659576416,-1.3895347885131835,-1.1158476112365723
1763692632986722800,11.270722900390625,4.3622354248046875,-2.169445979309082,-0.4745008415222168
1763692632996671700,11.280671630859375,4.642656294250488,-2.666691736602783,-0.2727893516540527
1763692633006620700,11.29062060546875,4.594472985839843,-3.3271921195983887,0.04638765716552734
1763692633016569600,11.300569580078125,5.004180744934081,-4.226065205383301,0.5922656356811523
1763692633026519800,11.310519775390626,5.131821620941162,-4.9546506980895995,0.9479542198181152
1763692633036468700,11.32046875,5.34325955505371,-4.495861804962158,1.5222633430480956
1763692633046417700,11.330417724609376,4.767753330993652,-5.025279647064209,1.7640777107238768
1763692633056366600,11.34036669921875,4.2125978210449215,-5.354482375335693,2.268356435394287
1763692633066315800,11.350315673828124,4.013579808044433,-5.4981344749450685,2.0477906074523924
1763692633076264700,11.3602646484375,3.3596634796142575,-5.090671279907227,1.682824491882324
1763692633086213600,11.370213623046874,2.8330887519836425,-3.518877890014648,0.9100959060668945
1763692633096162800,11.380162841796874,2.4191911399841306,-2.0688895095825193,-0.32606033859252925
1763692633106111700,11.39011181640625,2.6131214744567868,-1.0161889671325683,-1.6201263359069824
1763692633116061700,11.400061767578125,3.81141940536499,0.044891281127929686,-2.620902629852295
1763692633126010600,11.4100107421875,4.833593876647949,1.0428244606018067,-2.7136779441833494
1763692633135959600,11.41995947265625,5.660790550231933,2.105101809692383,-3.514538399505615
1763692633145908500,11.429908447265625,6.854599353027344,4.123563446807861,-4.732139581298828
1763692633155858000,11.43985791015625,5.81626402053833,7.152527822113036,-5.46536383972168
1763692633165806800,11.449806884765625,6.224176128387451,9.09138225402832,-5.6678235176086424
1763692633175755800,11.459755859375,5.936572653961181,11.668889978790283,-6.505943736267089
1763692633185704700,11.46970458984375,5.27322915649414,13.711892182922362,-6.442347754669189
1763692633195653600,11.479653564453125,6.254702199554443,14.152574925994871,-6.501604245758056
1763692633205603600,11.489603515625,8.374318856811524,13.737180937957763,-8.429535132598877
1763692633215552800,11.499552734375,9.835530057525634,13.728651594543456,-11.656769332885741
1763692633225501700,11.509501708984375,10.78976905670166,13.665055612945556,-14.91991655807495
1763692633235450600,11.51945068359375,11.189451096343994,14.228141915893554,-17.56161881484985
1763692633245399800,11.52939990234375,10.525509048461913,14.609268892669677,-17.789816160583495
1763692633255348700,11.5393486328125,9.97873324432373,13.938742790222166,-15.932065309906005
1763692633265297700,11.549297607421876,9.305364027404785,12.708572049713133,-13.11319213027954
1763692633275246600,11.55924658203125,8.251466384124756,11.554267574310302,-9.684396077728271
1763692633285196800,11.56919677734375,6.917596784210205,10.657788690185546,-6.738330934906005
1763692633295145700,11.579145751953124,5.521029028320312,9.983222372436522,-4.429422708892822
1763692633305094700,11.5890947265625,4.377947373199462,9.169044170379639,-2.381931376647949
1763692633315043600,11.599043701171874,3.3761236160278316,8.179490696716307,-0.4487631736755371
1763692633324992800,11.60899267578125,2.724900764465332,6.985083343505859,1.0015244819641114
1763692633334941700,11.618941650390624,1.617732134246826,6.8210805297851556,2.113930428314209
1763692633344890600,11.628890625,0.3130418670654297,6.699574795532226,2.5727193214416504
1763692633354839800,11.63883984375,-0.38367081604003905,6.516568006134033,2.217479650115967
1763692633364789800,11.648789794921875,-0.6868366012573242,6.461950280761719,1.3370119895935058
1763692633374738700,11.65873876953125,-0.7085340538024902,6.484545558929443,0.17911621170043945
1763692633384687600,11.6686875,-0.795473501586914,6.378452497863769,-1.005564697265625
1763692633394636500,11.678636474609375,-0.8397662322998046,5.9953802322387695,-2.0247464164733886
1763692633404585500,11.68858544921875,-0.8200140686035156,5.821501336669922,-2.822464482116699
1763692633414535000,11.698534912109375,-0.8837596878051758,6.430376746368408,-2.817376803588867
1763692633424483800,11.70848388671875,-0.6408978569030761,6.673986765289306,-2.6319758125305173
1763692633434432800,11.718432861328125,0.29433716659545894,6.179733760070801,-2.833836940002441
1763692633444382700,11.7283828125,1.195754091644287,6.133046827697753,-3.3969232429504395
1763692633454331600,11.73833154296875,1.3956699302673339,6.9533601715087885,-4.058321451568603
1763692633464280600,11.748280517578126,1.5536872398376464,7.891438309478759,-4.989665897369385
1763692633474229800,11.758229736328126,1.9307740013122558,8.843732019805907,-6.134992116546631
1763692633484178700,11.7681787109375,2.2192753013610838,9.733028298950195,-7.279420510101318
1763692633494127900,11.7781279296875,2.471414663696289,10.29835916595459,-8.14597187347412
1763692633504076800,11.788076904296876,2.417694763946533,11.041459506225586,-8.776694373321533
1763692633514025700,11.798025634765626,2.480542557525635,12.056301734924316,-9.28217019882202
1763692633523975700,11.8079755859375,2.897732196807861,13.341389476013182,-9.240122032165527
1763692633533925000,11.817925048828124,4.3740567955017085,14.09661046218872,-9.290849179840087
1763692633543874000,11.8278740234375,6.5385647338867185,14.018050720214843,-9.372850586700439
1763692633553823000,11.837822998046875,8.884732723236084,13.197438101196289,-9.87069489440918
1763692633563772000,11.84777197265625,11.193790586853027,12.01485211868286,-10.727819088745116
1763692633573721000,11.85772119140625,13.071592876434325,11.445780311584471,-11.994202129364012
1763692633583670000,11.867669921875,14.396035307312012,11.700613150787353,-13.302932611846924
1763692633593620000,11.877619873046875,15.464896710968016,12.35348201599121,-14.472200847625732
1763692633603569200,11.887569091796875,16.31094772262573,12.53843409423828,-15.74367156677246
1763692633613518000,11.89751806640625,16.51580160217285,11.577760678100585,-16.249297029876708
1763692633623467000,11.907467041015625,15.978602604675292,9.93444051361084,-15.671396604156493
1763692633633416200,11.917416259765625,14.451999771118164,7.781155395507812,-14.213178155517577
1763692633643365000,11.927365234375,12.139799517822265,5.6407391113281244,-12.11690496444702
1763692633653314000,11.93731396484375,9.504681315612793,4.253598524475097,-9.644592475128173
1763692633663263000,11.947262939453125,6.976254724884033,2.9831752685546875,-7.390301974487304
1763692633673213000,11.957212890625,4.84586416015625,1.871816785430908,-5.627720639801025
1763692633683161900,11.967161865234376,3.56885684967041,1.0378864196777342,-4.178929360198975
1763692633693111300,11.977111328125,2.5487773048400877,0.3199251968383789,-2.862866635131836
1763692633703060200,11.987060302734376,2.3885154312133787,-0.25049334869384765,-1.904437783050537
1763692633713009200,11.997009033203126,2.208351756286621,-1.0723030685424804,-0.8089408859252929
1763692633722958000,12.0069580078125,2.944269491577148,-2.1058499977111813,-0.0008978256225585938
1763692633732907000,12.016906982421874,3.6906618591308593,-3.3420062423706054,0.7012018112182616
1763692633742857000,12.02685693359375,4.0632594924926755,-4.550629167938232,1.3934253662109375
1763692633752806100,12.03680615234375,4.251204322814941,-5.4810757881164545,2.101809782409668
1763692633762755000,12.046755126953125,4.246715194702148,-5.7900774398803705,2.4690204620361325
1763692633772704000,12.0567041015625,3.641580725097656,-5.589114138031006,2.7512369827270504
1763692633782653200,12.066653076171875,3.3988685317993164,-5.985354512786865,3.2600048355102538
1763692633792602000,12.07660205078125,3.41562794342041,-6.055235273742675,3.593696691894531
1763692633802551000,12.086551025390625,3.394379403686523,-5.65675033493042,3.637690147399902
1763692633812501200,12.096501220703125,3.614795594024658,-5.026327110290527,2.934842322540283
1763692633822450200,12.1064501953125,3.8001965850830075,-4.138976119995117,1.6787842765808105
1763692633832399000,12.116399169921875,3.852270471191406,-3.1714193740844725,0.20395605392456054
1763692633842348000,12.12634814453125,4.0334816093444825,-2.467524085998535,-1.084124439239502
1763692633852297000,12.136296875,4.183568125915527,-1.867477294921875,-1.9394529823303222
1763692633862246100,12.14624609375,4.652083463287354,-1.2973580245971679,-2.6433482704162596
1763692633872195000,12.156195068359375,5.248538951873779,-0.2684498611450195,-3.731662562561035
1763692633882145300,12.166145263671876,4.715829082489013,2.056469588470459,-5.343409192657471
1763692633892094200,12.17609423828125,4.271555036926269,3.967042513275146,-6.42873073272705
1763692633902043100,12.186043212890626,3.5419220809936522,6.303932971191406,-8.763376626586913
1763692633911992000,12.195991943359376,2.6131214744567868,8.948179067230225,-9.63366893005371
1763692633921941000,12.20594091796875,2.5788544631958006,11.643900498962402,-10.637587613677978
1763692633931890000,12.215889892578126,3.324947555541992,12.809128519439696,-13.06171679458618
1763692633941839000,12.225839111328124,6.286575009155273,13.077129467773437,-17.351677256774902
1763692633951789000,12.2357890625,8.603414028167725,11.757026527404784,-22.679973051452635
1763692633961738000,12.245738037109374,9.009530484771728,9.878027136993408,-27.8355870513916
1763692633971687200,12.255687255859375,6.791452284240722,8.384494213867187,-31.585655039215087
1763692633981636000,12.265635986328125,4.2205286140441896,7.582885570526122,-32.4201839553833
1763692633991585000,12.2755849609375,2.3473650901794434,8.085518281555176,-29.677775591278074
1763692634001534000,12.285533935546875,1.2873323051452636,9.216030377960205,-24.77684479293823
1763692634011484200,12.295484130859375,1.179293955230713,9.569324760437011,-19.638888030242917
1763692634021433000,12.30543310546875,1.9521721786499022,8.444199617767334,-15.339650036621093
1763692634031382000,12.315382080078125,3.3215058906555175,7.674912696838378,-12.56462067489624
1763692634041331000,12.3253310546875,1.8602946899414061,7.853879270935058,-9.859322436523437
1763692634051280100,12.335280029296875,0.3284545402526855,8.263736667633056,-7.304409989929199
1763692634061229000,12.34522900390625,0.30630817489624024,8.247575806427001,-5.188683910369873
1763692634071178000,12.355177978515625,-1.0718541557312011,7.491905907440185,-2.9683611457824703
1763692634081128200,12.365128173828126,-2.012326495361328,7.762450695037841,-0.9708487731933593
1763692634091077000,12.3750771484375,-3.194164289855957,7.234080316162109,0.5662286926269531
1763692634101026000,12.385026123046876,-4.4391491531372065,6.719775872039794,1.8650830932617186
1763692634110975000,12.39497509765625,-4.460248055267334,6.193350782012939,2.507926239013672
1763692634120924000,12.404923828125,-4.744559502410889,5.389048661804199,2.5836428665161133
1763692634130873000,12.414873046875,-5.20963317489624,5.066579625701904,2.2508488357543945
1763692634140823000,12.424822998046874,-5.6215854980468745,4.630834923553467,1.885882720184326
1763692634150772000,12.43477197265625,-5.914875201416015,3.969137439727783,1.4044985488891601
1763692634160721200,12.44472119140625,-5.777657518768311,3.4329859054565426,0.430956298828125
1763692634170670000,12.454670166015624,-6.504746635437011,4.197484423065185,-0.7181108604431152
1763692634180619000,12.464618896484374,-6.873453691101074,4.651036000061035,-1.8332102836608886
1763692634190568000,12.47456787109375,-5.989843640899658,4.3725604194641114,-3.425055112457275
1763692634200518100,12.48451806640625,-5.264400537872314,4.365826727294921,-5.263801987457275
1763692634210467000,12.494467041015625,-5.120598800659179,4.853495677947998,-7.231835752105712
1763692634220416000,12.504416015625,-5.520430477905273,5.05026912689209,-9.20016879196167
1763692634230365000,12.514364990234375,-5.850830307006835,4.622455217742919,-10.940304486083983
1763692634240314000,12.524314208984375,-6.817788502502441,4.844667059326172,-12.358270419311523
1763692634250263000,12.534262939453125,-8.258948264312744,5.341613541412353,-13.567791170501708
1763692634260213200,12.544213134765625,-9.485677339935302,5.545719232940674,-14.651466696929932
1763692634270162200,12.554162109375,-10.326341397857666,6.087706633758544,-15.531934357452391
1763692634280111000,12.564111083984375,-9.874136559295653,6.565349864959717,-16.188394525146485
1763692634290060000,12.57406005859375,-8.656535377502442,6.985382618713379,-17.092804202270507
1763692634300009000,12.584009033203126,-7.32266577758789,7.127089429473877,-17.99661532897949
1763692634309958000,12.5939580078125,-4.859930094909668,6.529586477661132,-19.545065252685546
1763692634319908000,12.603908203125,-2.8666075752258298,6.2593409652709955,-21.17566622085571
1763692634329857000,12.61385693359375,-1.915361328125,6.474968752288818,-22.781726622009277
1763692634339806000,12.623805908203124,-1.550095937347412,6.776787799072265,-23.822306518554687
1763692634349755100,12.633755126953124,-0.7594108390808105,6.607398031616211,-24.143279178619384
1763692634359704000,12.6437041015625,0.15352818145751954,5.887641157531738,-23.221810814666746
1763692634369653000,12.653653076171874,0.802506468963623,4.725854801940918,-21.340267584991455
1763692634379603200,12.663603271484375,0.6657376991271973,3.4235587364196776,-18.952350704193115
1763692634389552000,12.67355224609375,0.6744166801452637,2.4383447532653806,-16.56682802505493
1763692634399501000,12.6835009765625,0.7591115638732909,1.7238251953125,-14.548815300750732
1763692634409450000,12.693449951171875,0.598251139831543,1.3418003929138183,-12.895020503997802
1763692634419399000,12.70339892578125,0.5358522590637207,0.9801263046264648,-11.183764867401122
1763692634429348000,12.71334814453125,0.8726865051269531,0.7344213592529296,-9.231293413543701
1763692634439298000,12.723298095703125,1.7188871543884277,0.49739539489746093,-7.125742691040038
1763692634449247200,12.733247314453125,3.1377509132385253,-0.01631049880981445,-5.095310045623779
1763692634459196200,12.743196044921875,4.923675714111328,-0.7435492530822754,-3.3358711006164548
1763692634469145000,12.75314501953125,6.501604245758056,-1.60246909866333,-1.8969559028625487
1763692634479094000,12.763093994140625,7.356783151245117,-2.4890719009399414,-0.7549217109680175
