time,seconds_elapsed,z,y,x
1763693273453195000,0.145195068359375,9.014959335327148,2.8498518466949463,1.5014961957931519
1763693273503038200,0.1950380859375,10.039685249328613,2.964707374572754,1.841277003288269
1763693273513045000,0.205044921875,9.79083251953125,2.9694929122924805,1.6450655460357666
1763693273533057500,0.2250576171875,9.336195945739746,3.2279176712036133,1.5158531665802002
1763693273543081700,0.235081787109375,9.106484413146973,3.1417760848999023,1.4057832956314087
1763693273553075700,0.24507568359375,9.014959335327148,3.0029923915863037,1.1994023323059082
1763693273563083500,0.25508349609375,9.120841979980469,2.754138946533203,1.017547845840454
1763693273573054500,0.265054443359375,9.575477600097656,2.4424736499786377,0.8883354067802429
1763693273583105300,0.275105224609375,10.145567893981934,2.059622049331665,0.7878368496894836
1763693273593113900,0.28511376953125,10.801201820373535,1.542174220085144,0.802193820476532
1763693273603094000,0.295093994140625,11.462218284606934,1.0301101207733154,0.8404789566993713
1763693273613047600,0.305047607421875,12.108281135559082,0.6616154313087463,0.9074779748916626
1763693273623093200,0.31509326171875,12.673584938049316,0.388235479593277,0.9505487680435181
1763693273633085700,0.325085693359375,12.874582290649414,0.23030917346477509,0.8979067206382751
1763693273643102000,0.33510205078125,12.54437255859375,0.30209386348724365,0.802193820476532
1763693273653104600,0.345104736328125,11.538788795471191,0.6424728631973267,0.6729813814163208
1763693273663118000,0.3551181640625,10.408778190612793,1.1162517070770264,0.6346961855888367
1763693273673125400,0.36512548828125,9.369695663452148,1.5086746215820312,0.44327038526535034
1763693273683125200,0.375125244140625,8.58903694152832,1.810768485069275,0.21296121180057526
1763693273693129200,0.385129150390625,8.167900085449219,2.011765718460083,0.10289137065410614
1763693273703131000,0.395130859375,8.038089752197266,2.0883359909057617,0.02632104977965355
1763693273713134000,0.405134033203125,8.273183822631836,1.9782661199569702,-0.02632104977965355
1763693273723158300,0.415158203125,8.58903694152832,1.7485551834106445,-0.11724831163883209
1763693273733170200,0.425170166015625,8.86660385131836,1.6145570278167725,-0.3038884699344635
1763693273743158000,0.435157958984375,9.010173797607422,1.6193426847457886,-0.4666004180908203
1763693273753159400,0.445159423828125,9.010173797607422,1.6815561056137085,-0.6628118753433228
1763693273763206400,0.455206298828125,8.871390342712402,1.8442680835723877,-0.8500502705574036
1763693273773227000,0.46522705078125,8.804390907287598,2.0787646770477295,-0.9984052777290344
1763693273783219500,0.475219482421875,8.804390907287598,2.193620204925537,-1.0223335027694702
1763693273793227800,0.485227783203125,8.823533058166504,2.2654049396514893,-0.9649057388305664
1763693273803206000,0.495205810546875,8.900103569030762,2.303689956665039,-0.8309076428413391
1763693273813201400,0.505201416015625,8.909674644470215,2.193620204925537,-0.6005984544754028
1763693273823207000,0.51520703125,8.785248756408691,2.097907304763794,-0.3565305769443512
1763693273833206800,0.525206787109375,8.57468032836914,1.9974087476730347,-0.15553347766399384
1763693273843244000,0.535244140625,8.182256698608398,1.9591234922409058,-0.007178467698395252
1763693273853259800,0.545259765625,7.774878978729248,2.1026928424835205,0.0933200865983963
1763693273863255000,0.555255126953125,7.631309509277344,2.3467607498168945,0.064606212079525
1763693273873261800,0.56526171875,7.516454219818115,2.620140790939331,-0.059820566326379776
1763693273883268400,0.575268310546875,7.482954502105713,2.878565549850464,-0.24646073579788208
1763693273893275100,0.585275146484375,7.449455261230469,3.146561861038208,-0.34217363595962524
1763693273903275800,0.59527587890625,7.34895658493042,3.38105845451355,-0.37088751792907715
1763693273913279700,0.60527978515625,7.272386074066162,3.4672000408172607,-0.39960137009620667
1763693273923278800,0.61527880859375,7.2436723709106445,3.414557933807373,-0.34217363595962524
1763693273933282600,0.625282470703125,7.344171047210693,3.328416347503662,-0.15074782073497772
1763693273943295500,0.63529541015625,7.583453178405762,3.2374889850616455,0.10289137065410614
1763693273953300000,0.645300048828125,7.995018482208252,3.1800613403320312,0.34277185797691345
1763693273963300000,0.655300048828125,8.411968231201172,3.1034910678863525,0.39062830805778503
1763693273973304000,0.665303955078125,8.794819831848145,3.0556344985961914,0.4289134442806244
1763693273983314000,0.67531396484375,9.072386741638184,3.1130621433258057,0.5246263742446899
1763693273993318400,0.685318359375,9.18305492401123,3.2470602989196777,0.6442674994468689
1763693274003324700,0.69532470703125,9.264410972595215,3.404986619949341,0.649053156375885
1763693274013329400,0.705329345703125,9.41755199432373,3.5533416271209717,0.6969096064567566
1763693274023328800,0.715328857421875,9.628120422363281,3.5437703132629395,0.802193820476532
1763693274033333000,0.7253330078125,9.671191215515137,3.5198421478271484,0.8691928386688232
1763693274043341800,0.735341796875,9.604191780090332,3.5533416271209717,0.9266205430030823
1763693274053346600,0.7453466796875,9.723833084106445,3.697509288787842,0.9696913957595825
1763693274063345700,0.755345703125,9.900901794433594,3.7645082473754883,0.9553344249725342
1763693274073350000,0.765349853515625,9.876974105834961,3.731008768081665,1.017547845840454
1763693274083368400,0.775368408203125,9.881759643554688,3.5533416271209717,1.165902853012085
1763693274093374200,0.785374267578125,10.403992652893066,3.25663161277771,1.1850453615188599
1763693274103376100,0.795376220703125,11.054841041564941,2.964707374572754,1.3100703954696655
1763693274113381400,0.80538134765625,11.337791442871094,2.988635540008545,1.2185449600219727
1763693274123354600,0.815354736328125,11.514861106872559,3.4241292476654053,1.194616675376892
1763693274133356500,0.8253564453125,11.60100269317627,3.951148271560669,1.165902853012085
1763693274143389400,0.835389404296875,11.514861106872559,3.9798622131347656,1.6115660667419434
1763693274153394700,0.845394775390625,10.250852584838867,3.912863254547119,1.1180464029312134
1763693274163391500,0.8553916015625,9.407979965209961,4.161716938018799,0.7016952633857727
1763693274173395700,0.865395751953125,9.881759643554688,4.429712772369385,1.1802598237991333
1763693274183403500,0.875403564453125,10.901700019836426,4.267001152038574,1.6737794876098633
1763693274193408000,0.885407958984375,12.017353057861328,3.5150563716888428,2.1332013607025146
1763693274203426000,0.895426025390625,12.40558910369873,2.7972097396850586,2.338984251022339
1763693274213431800,0.905431884765625,12.439088821411133,2.083550214767456,2.4113669395446777
1763693274223415600,0.91541552734375,12.108281135559082,1.5134602785110474,2.48315167427063
1763693274233419000,0.9254189453125,11.768500328063965,1.23589289188385,2.286342144012451
1763693274243444700,0.93544482421875,11.356934547424316,1.0923235416412354,1.812563180923462
1763693274253450500,0.945450439453125,11.356934547424316,1.140179991722107,1.2759727239608765
1763693274263454200,0.9554541015625,11.639287948608398,1.3028919696807861,1.0079765319824219
1763693274273459700,0.965459716796875,11.806785583496094,1.4321043491363525,1.1515458822250366
1763693274283467800,0.9754677734375,11.543574333190918,1.3555340766906738,1.2472587823867798
1763693274293473800,0.985473876953125,10.743773460388184,1.1162517070770264,1.3483555316925049
1763693274303469800,0.9954697265625,9.776474952697754,1.0013962984085083,1.6929219961166382
1763693274313474600,1.005474609375,8.909674644470215,1.2550355195999146,2.38265323638916
1763693274323481600,1.015481689453125,8.139185905456543,1.7772690057754517,3.0765717029571533
1763693274333486600,1.025486572265625,7.530810832977295,2.1505494117736816,3.248854875564575
1763693274343493600,1.03549365234375,7.013961315155029,2.270190477371216,2.775076150894165
1763693274353499000,1.045498779296875,6.831508636474609,2.3706889152526855,2.3294129371643066
1763693274363473200,1.05547314453125,7.033103942871094,2.475973129272461,2.0231316089630127
1763693274373475000,1.06547509765625,7.258029460906982,2.715853691101074,1.8460626602172852
1763693274383516700,1.0755166015625,7.435098171234131,2.864208698272705,1.4679967164993286
1763693274393522700,1.085522705078125,7.593024253845215,2.964707374572754,1.1371889114379883
1763693274403524400,1.0955244140625,7.573882102966309,2.878565549850464,0.8548358678817749
1763693274413530000,1.105530029296875,7.669594764709473,2.792423963546753,0.6873382925987244
1763693274423530800,1.11553076171875,7.932805061340332,2.6536402702331543,0.5772684812545776
1763693274433535700,1.12553564453125,8.11525821685791,2.5669004917144775,0.49591249227523804
1763693274443548200,1.135548095703125,8.11525821685791,2.5669004917144775,0.3236292600631714
1763693274453554000,1.145553955078125,7.94716215133667,2.5429723262786865,0.07896314561367035
1763693274463556000,1.15555615234375,8.076972961425781,2.5190439224243164,0.23688943684101105
1763693274473561600,1.1655615234375,8.694320678710938,2.404188632965088,0.6873382925987244
1763693274483563800,1.175563720703125,8.565108299255371,2.0644078254699707,0.735194742679596
1763693274493568800,1.18556884765625,8.210970878601074,1.7389838695526123,0.8835497498512268
1763693274503572500,1.195572509765625,7.8418779373168945,1.8394824266433716,0.9984052777290344
1763693274513577500,1.205577392578125,7.41117000579834,2.155334949493408,0.8069794178009033
1763693274523578000,1.215578125,7.1718878746032715,2.3706889152526855,0.6346961855888367
1763693274533582800,1.225582763671875,7.459026336669922,2.5046870708465576,0.46719861030578613
1763693274543584000,1.235583984375,8.12961483001709,2.38983154296875,0.20817556977272034
1763693274553588200,1.245588134765625,8.928817749023438,1.9591234922409058,-0.05503492057323456
1763693274563572700,1.25557275390625,9.795618057250977,1.537388563156128,-0.0933200865983963
1763693274573575000,1.265574951171875,10.442277908325195,1.2454642057418823,-0.3086741268634796
1763693274583617800,1.27561767578125,10.269994735717773,1.3411771059036255,-0.6771687865257263
1763693274593624000,1.2856240234375,9.857831001281738,2.0165512561798096,-0.9744769930839539
1763693274603594500,1.295594482421875,9.671191215515137,2.6967110633850098,-0.8739784955978394
1763693274613597200,1.30559716796875,9.235696792602539,3.122633457183838,-0.7345965504646301
1763693274623629000,1.315629150390625,8.971888542175293,3.022135019302368,-0.6484549641609192
1763693274633634800,1.325634765625,9.081958770751953,2.7349963188171387,-0.7878368496894836
1763693274643648300,1.335648193359375,9.484550476074219,2.667997360229492,-0.97926265001297
1763693274653654500,1.345654541015625,10.05404281616211,2.0069799423217773,-0.8691928386688232
1763693274663658500,1.355658447265625,10.738987922668457,1.4033905267715454,-0.5096712112426758
1763693274673664800,1.365664794921875,11.648859024047852,1.29810631275177,-0.638883650302887
1763693274683634200,1.37563427734375,12.0604248046875,1.29810631275177,-1.2281162738800049
1763693274693636600,1.38563671875,11.993425369262695,1.5619150400161743,-1.908276081085205
1763693274703665400,1.39566552734375,11.658430099487305,2.011765718460083,-2.128415822982788
1763693274713670400,1.40567041015625,11.22772216796875,2.3850460052490234,-1.9896320104599
1763693274723678200,1.41567822265625,10.327422142028809,1.9591234922409058,-1.3573286533355713
1763693274733683500,1.425683349609375,10.360921859741211,1.9878374338150024,-0.9218349456787109
1763693274743691000,1.43569091796875,10.85862922668457,2.9934210777282715,-1.0845468044281006
1763693274753696800,1.44569677734375,10.418350219726562,2.318047046661377,-0.9984052777290344
1763693274763709200,1.455709228515625,10.48534870147705,2.131406784057617,-1.4578272104263306
1763693274773715700,1.4657158203125,10.106684684753418,2.38983154296875,-2.142772674560547
1763693274783715800,1.4757158203125,9.829116821289062,2.207977056503296,-2.6213371753692627
1763693274793721600,1.4857216796875,10.145567893981934,1.6959130764007568,-2.8660032749176025
1763693274803726300,1.495726318359375,10.638489723205566,-0.243469700217247,-2.3916261196136475
1763693274813731800,1.50573193359375,11.538788795471191,-0.4588237404823303,-1.347757339477539
1763693274823727000,1.51572705078125,11.72542953491211,0.03888336941599846,-1.2233306169509888
1763693274833731600,1.525731689453125,11.4382905960083,0.46480581164360046,-1.8269200325012207
1763693274843749400,1.535749267578125,10.911271095275879,1.0683952569961548,-2.4059832096099854
1763693274853755400,1.54575537109375,10.246066093444824,1.5134602785110474,-2.640479803085327
1763693274863757600,1.555757568359375,9.427123069763184,1.5954145193099976,-2.372483730316162
1763693274873763000,1.56576318359375,9.000602722167969,1.3938192129135132,-1.5774682760238647
1763693274883731700,1.575731689453125,8.6033935546875,1.054038405418396,-0.9409775137901306
1763693274893733600,1.585733642578125,8.493324279785156,0.9535398483276367,-0.729810893535614
1763693274903741200,1.5957412109375,8.536395072937012,1.3507484197616577,-1.0654042959213257
1763693274913743400,1.605743408203125,8.746963500976562,1.7964116334915161,-2.018345832824707
1763693274923797500,1.615797607421875,8.952746391296387,1.949552297592163,-2.8755745887756348
1763693274933805000,1.62580517578125,8.97667407989502,2.0452651977539062,-3.325425386428833
1763693274943762200,1.63576220703125,8.97667407989502,1.9974087476730347,-3.5120654106140137
1763693274953764600,1.6457646484375,9.159127235412598,1.9543378353118896,-3.492922782897949
1763693274963774500,1.6557744140625,9.058030128479004,1.3411771059036255,-3.2105698585510254
1763693274973777700,1.665777587890625,9.474979400634766,1.1353943347930908,-3.3302109241485596
1763693274983781400,1.675781494140625,9.369695663452148,2.8450660705566406,-3.559921979904175
1763693274993784600,1.68578466796875,8.182256698608398,3.865006685256958,-3.9194436073303223
1763693275003829500,1.69582958984375,7.516454219818115,4.109074592590332,-4.890929698944092
1763693275013837000,1.705837158203125,7.090531826019287,3.1657042503356934,-4.551148891448975
1763693275023825200,1.7158251953125,7.435098171234131,2.4951157569885254,-4.130012035369873
1763693275033830700,1.72583056640625,8.469395637512207,2.32761812210083,-3.717848300933838
1763693275043849500,1.735849365234375,8.971888542175293,2.1984057426452637,-3.019144058227539
1763693275053856300,1.745856201171875,8.732605934143066,2.1170499324798584,-2.693121910095215
1763693275063854800,1.755854736328125,8.330612182617188,2.193620204925537,-2.688336133956909
1763693275073860900,1.76586083984375,7.937591075897217,2.3467607498168945,-2.8755745887756348
1763693275083835600,1.775835693359375,7.679165840148926,2.547757863998413,-3.1818559169769287
1763693275093838600,1.785838623046875,7.545167922973633,2.7828526496887207,-3.215355396270752
1763693275103876900,1.795876953125,7.459026336669922,2.840280532836914,-3.057429075241089
1763693275113883400,1.80588330078125,7.813164234161377,2.6967110633850098,-3.263211965560913
1763693275123876600,1.815876708984375,7.918448448181152,2.6632115840911865,-3.3828530311584473
1763693275133881600,1.825881591796875,7.6839518547058105,2.830709218978882,-3.4498519897460938
1763693275143894500,1.83589453125,7.368099212646484,3.06999135017395,-3.555136203765869
1763693275153900300,1.845900390625,7.229315280914307,3.160918712615967,-3.4307093620300293
1763693275163871200,1.855871337890625,7.3537421226501465,3.160918712615967,-3.1866414546966553
1763693275173873400,1.865873291015625,7.650452136993408,3.0412776470184326,-2.9377880096435547
1763693275183883000,1.875883056640625,8.072187423706055,2.864208698272705,-2.5782663822174072
1763693275193886000,1.885885986328125,8.665607452392578,2.7876384258270264,-2.338984251022339
1763693275203927000,1.895927001953125,9.010173797607422,2.691925525665283,-2.3150558471679688
1763693275213933800,1.905933837890625,9.269196510314941,2.5812573432922363,-2.4059832096099854
1763693275223929300,1.915929443359375,9.403194427490234,2.5046870708465576,-2.8175487518310547
1763693275233934800,1.925934814453125,9.728618621826172,2.6153552532196045,-3.435495138168335
1763693275243949600,1.935949462890625,9.886545181274414,2.778067111968994,-3.8662030696868896
1763693275253956000,1.9459560546875,9.647262573242188,2.9599215984344482,-3.7369906902313232
1763693275263955000,1.955954833984375,9.494122505187988,3.1657042503356934,-3.3828530311584473
1763693275273960700,1.965960693359375,9.20698356628418,3.13220477104187,-2.9760732650756836
1763693275283958300,1.975958251953125,9.081958770751953,3.0795626640319824,-2.5639095306396484
1763693275293963300,1.98596337890625,9.092127799987793,3.1800613403320312,-2.1332013607025146
1763693275303976700,1.995976806640625,9.226125717163086,3.4911282062530518,-2.118844509124756
1763693275313982500,2.005982421875,9.934401512145996,5.36351203918457,-3.033500909805298
1763693275323974700,2.015974609375,10.034899711608887,3.9320058822631836,-2.971287488937378
1763693275333979100,2.025979248046875,9.465408325195312,2.3371894359588623,-2.688336133956909
1763693275343995400,2.035995361328125,8.96231746673584,1.705484390258789,-1.9417755603790283
1763693275354001000,2.0460009765625,10.566704750061035,1.7772690057754517,-0.8787640929222107
1763693275363971800,2.055971923828125,12.573086738586426,2.4568307399749756,-0.4713860750198364
1763693275373974000,2.06597412109375,12.89372444152832,3.13220477104187,-1.0414760112762451
1763693275384018000,2.076017822265625,11.333005905151367,3.1130621433258057,-2.334198474884033
1763693275394024400,2.0860244140625,8.608179092407227,2.2654049396514893,-3.04307222366333
1763693275404019700,2.096019775390625,6.874579429626465,1.144965648651123,-3.5886356830596924
1763693275414024700,2.106024658203125,8.440681457519531,1.0875378847122192,-3.583850145339966
1763693275424028000,2.11602783203125,11.423933982849121,1.5469598770141602,-3.1004998683929443
1763693275434033000,2.126032958984375,12.9894380569458,1.4943177700042725,-2.1858434677124023
1763693275444048600,2.136048583984375,12.759726524353027,1.2263215780258179,-1.0845468044281006
1763693275454054700,2.1460546875,11.24207878112793,0.8865407705307007,-0.2847459018230438
1763693275464046000,2.156046142578125,9.163912773132324,0.6664010882377625,0.4145565330982208
1763693275474050600,2.166050537109375,7.229315280914307,0.9918249845504761,0.6681957244873047
1763693275484032500,2.176032470703125,6.027520179748535,1.8299111127853394,0.44805604219436646
1763693275494035000,2.186034912109375,5.534000396728516,2.4185454845428467,0.3236292600631714
1763693275504078800,2.196078857421875,5.974878311157227,2.6871397495269775,-0.08374879509210587
1763693275514085000,2.206085205078125,7.516454219818115,2.8498518466949463,-0.3900300860404968
1763693275524075000,2.216074951171875,8.885746955871582,2.2749760150909424,-0.6675975322723389
1763693275534080000,2.226080078125,12.127423286437988,0.9726824164390564,-0.6245267391204834
1763693275544099300,2.236099365234375,10.590633392333984,0.8147560954093933,-0.6436693072319031
1763693275554105600,2.246105712890625,12.156137466430664,0.656829833984375,-1.252044439315796
1763693275564074800,2.25607470703125,7.851449489593506,2.131406784057617,-4.651647090911865
1763693275574077200,2.2660771484375,8.335397720336914,4.990231513977051,-4.460221290588379
1763693275584086500,2.27608642578125,10.351350784301758,4.037290096282959,-2.5782663822174072
1763693275594089700,2.28608984375,9.283554077148438,2.691925525665283,-2.372483730316162
1763693275604126200,2.296126220703125,9.508479118347168,2.1505494117736816,-0.7926225066184998
1763693275614132700,2.3061328125,8.885746955871582,1.4416756629943848,1.0223335027694702
1763693275624132400,2.31613232421875,7.449455261230469,0.6520441770553589,1.688136339187622
1763693275634138000,2.32613818359375,10.29870891571045,0.6041877269744873,0.7304090857505798
1763693275644112600,2.336112548828125,11.333005905151367,1.72941255569458,-0.605384111404419
1763693275654115000,2.346114990234375,7.272386074066162,3.462414264678955,-1.9417755603790283
1763693275664145400,2.3561455078125,4.911268711090088,4.755734920501709,-2.152343988418579
1763693275674151000,2.36615087890625,12.93200969696045,2.5669004917144775,-0.23210379481315613
1763693275684166700,2.376166748046875,10.231709480285645,0.5802595019340515,0.11724831163883209
1763693275694173200,2.386173095703125,10.786844253540039,-0.4061816334724426,-0.6245267391204834
1763693275704177000,2.396177001953125,3.197409152984619,2.754138946533203,1.7982062101364136
1763693275714183200,2.40618310546875,11.347363471984863,1.5278172492980957,1.3052847385406494
1763693275724177000,2.416177001953125,7.703094482421875,2.0548365116119385,-0.016749758273363113
1763693275734182000,2.426181884765625,8.584251403808594,2.160120725631714,0.26620152592658997
1763693275744197400,2.436197265625,9.388837814331055,2.744567632675171,0.2512463629245758
1763693275754203400,2.446203369140625,10.140782356262207,2.715853691101074,-0.42352959513664246
1763693275764204500,2.45620458984375,9.623334884643555,2.4807589054107666,-0.9840483069419861
1763693275774210000,2.4662099609375,10.518848419189453,2.2606191635131836,0.14117653667926788
1763693275784215300,2.47621533203125,11.126625061035156,2.2127628326416016,1.7694923877716064
1763693275794220800,2.486220703125,10.911271095275879,1.6719847917556763,1.0558329820632935
1763693275804192300,2.496192138671875,11.222936630249023,0.9631111025810242,1.4632110595703125
1763693275814194400,2.5061943359375,-0.19262222945690155,1.1928220987319946,1.8556339740753174
1763693275824228400,2.516228271484375,12.692728042602539,0.6520441770553589,2.142772674560547
1763693275834233600,2.526233642578125,10.753344535827637,0.7190431952476501,1.2089736461639404
1763693275844215000,2.536215087890625,10.518848419189453,0.5515456199645996,1.6546368598937988
1763693275854217700,2.5462177734375,10.987841606140137,0.38344982266426086,1.9609181880950928
1763693275864225800,2.556225830078125,11.49093246459961,0.08673982322216034,1.7455641031265259
1763693275874229200,2.566229248046875,11.543574333190918,0.129810631275177,1.8747764825820923
1763693275884266000,2.576265869140625,11.050054550170898,-0.07597211748361588,3.1627132892608643
1763693275894272500,2.5862724609375,10.849058151245117,-0.20518454909324646,3.436093330383301
1763693275904243000,2.596242919921875,10.85862922668457,-0.11904292553663254,3.3684961795806885
1763693275914246000,2.606245849609375,10.777273178100586,-0.2386840581893921,2.3198416233062744
1763693275924287500,2.61628759765625,11.24207878112793,-0.6221339106559753,2.521436929702759
1763693275934294300,2.626294189453125,11.4382905960083,-0.7992027401924133,3.0861430168151855
1763693275944294400,2.63629443359375,11.658430099487305,-0.9044869542121887,3.7471601963043213
1763693275954300400,2.646300537109375,11.706286430358887,-0.8997012972831726,3.9625144004821777
1763693275964277200,2.65627734375,11.553146362304688,-0.8183453679084778,3.6849467754364014
1763693275974280700,2.66628076171875,11.481361389160156,-0.9044869542121887,3.704089403152466
1763693275984285000,2.676284912109375,11.409576416015625,-1.3304094076156616,4.019941806793213
1763693275994288400,2.686288330078125,11.323434829711914,-1.795215129852295,4.225724697113037
1763693276004293000,2.696293212890625,11.175080299377441,-2.1158533096313477,4.278367042541504
1763693276014296600,2.706296630859375,11.054841041564941,-2.2402801513671875,4.278367042541504
1763693276024309000,2.71630908203125,10.75813102722168,-2.101496458053589,4.1730828285217285
1763693276034313500,2.7263134765625,10.092328071594238,-2.0967109203338623,3.7902309894561768
1763693276044314600,2.736314697265625,9.058030128479004,-1.9627127647399902,3.004786968231201
1763693276054318800,2.74631884765625,8.483752250671387,-1.3639088869094849,2.1092731952667236
1763693276064323000,2.756322998046875,8.091329574584961,-0.8374879360198975,1.592423439025879
1763693276074327300,2.766327392578125,7.454240798950195,-0.33439695835113525,0.9026923179626465
1763693276084338400,2.77633837890625,7.908876895904541,0.04366901144385338,-0.29431718587875366
1763693276094343200,2.78634326171875,10.2747802734375,3.1657042503356934,-4.685146808624268
1763693276104347400,2.796347412109375,11.49093246459961,3.2997024059295654,-4.000799655914307
1763693276114352000,2.80635205078125,10.2747802734375,0.43609192967414856,-0.02632104977965355
1763693276124380400,2.81638037109375,9.154341697692871,-1.124626636505127,1.8891334533691406
1763693276134387500,2.826387451171875,8.708678245544434,-0.7848458290100098,2.190629243850708
1763693276144387300,2.83638720703125,9.029315948486328,-0.4540380835533142,2.444866418838501
1763693276154393600,2.8463935546875,9.3457670211792,-0.5359922647476196,2.9760732650756836
1763693276164394800,2.856394775390625,9.20698356628418,-0.46839502453804016,7.611568927764893
1763693276174400500,2.866400390625,8.244470596313477,-1.9674984216690063,7.366902828216553
1763693276184385300,2.87638525390625,11.514861106872559,-2.2019951343536377,0.4049852192401886
1763693276194389000,2.886388916015625,11.140982627868652,-2.7050859928131104,2.252842426300049
1763693276204429300,2.89642919921875,10.269994735717773,-1.7282161712646484,-0.9457631707191467
1763693276214436600,2.9064365234375,9.637691497802734,-1.0959128141403198,-1.7545372247695923
1763693276224426000,2.916426025390625,9.685547828674316,-0.2961117923259735,-1.323829174041748
1763693276234431500,2.926431396484375,9.072386741638184,0.33080771565437317,-1.1802598237991333
1763693276244448300,2.9364482421875,8.804390907287598,0.22552353143692017,-0.5144568681716919
1763693276254455000,2.946455078125,8.656036376953125,0.005383851006627083,0.10767702013254166
1763693276264457500,2.95645751953125,8.57468032836914,-0.1381855010986328,0.8261220455169678
1763693276274463700,2.966463623046875,8.675178527832031,-0.22432711720466614,2.252842426300049
1763693276284431400,2.976431396484375,8.967103004455566,-0.11425728350877762,3.0000014305114746
1763693276294433800,2.986433837890625,9.06281566619873,0.08673982322216034,2.9377880096435547
1763693276304478700,2.996478759765625,8.914461135864258,0.17766708135604858,2.152343988418579
1763693276314485500,3.006485595703125,8.579465866088867,0.45523449778556824,1.420140266418457
1763693276324473300,3.016473388671875,8.522037506103516,0.6807580590248108,0.4336991012096405
1763693276354497300,3.046497314453125,9.278767585754395,1.0875378847122192,0.6777670383453369
1763693276374479600,3.066479736328125,9.671191215515137,0.7334001660346985,2.118844509124756
1763693276384516000,3.07651611328125,9.436694145202637,0.6807580590248108,2.3198416233062744
1763693276394522400,3.0865224609375,9.350552558898926,0.7334001660346985,2.23848557472229
1763693276404525300,3.096525390625,9.235696792602539,0.7860422134399414,2.0518453121185303
1763693276414531300,3.10653125,9.29312515258789,0.8386843204498291,1.8029918670654297
1763693276424523300,3.116523193359375,9.776474952697754,0.98703932762146,1.8077775239944458
1763693276434527700,3.12652783203125,10.600204467773438,0.9966106414794922,1.7982062101364136
1763693276444511700,3.13651171875,10.916056632995605,0.9152546525001526,2.1332013607025146
1763693276454514400,3.146514404296875,10.724631309509277,0.7525427341461182,3.277568817138672
1763693276464531700,3.15653173828125,9.178269386291504,1.4368900060653687,5.288736343383789
1763693276474535700,3.16653564453125,6.750152587890625,1.4225330352783203,7.1228346824646
1763693276484567300,3.1765673828125,7.214958667755127,-1.2299108505249023,3.957728624343872
1763693276494574000,3.186573974609375,8.383254051208496,0.5754738450050354,3.507878065109253
1763693276504575200,3.1965751953125,9.599406242370605,1.3698909282684326,3.315854072570801
1763693276514581500,3.20658154296875,10.145567893981934,1.1976077556610107,3.7088751792907715
1763693276524574000,3.216573974609375,10.38485050201416,0.5515456199645996,4.422534465789795
1763693276534579000,3.226578857421875,10.638489723205566,-0.004187439568340778,5.748756408691406
1763693276544588800,3.2365888671875,10.604990005493164,-0.0568295381963253,6.476174354553223
1763693276554594000,3.246593994140625,9.317052841186523,0.5126622319221497,6.246463298797607
1763693276564579300,3.256579345703125,8.220541954040527,2.026122570037842,1.079761266708374
1763693276574582800,3.266582763671875,8.861818313598633,0.16809579730033875,5.0255255699157715
1763693276584586000,3.2765859375,9.881759643554688,-2.0967109203338623,3.339782238006592
1763693276594589200,3.286589111328125,10.164710998535156,-0.8039883971214294,3.1148569583892822
1763693276604628500,3.29662841796875,11.112268447875977,-1.306481122970581,2.9377880096435547
1763693276614635300,3.30663525390625,11.68714427947998,-1.9770697355270386,2.736790895462036
1763693276624631600,3.316631591796875,12.046067237854004,-2.2019951343536377,2.9521448612213135
1763693276634637600,3.326637451171875,11.572288513183594,-1.1868400573730469,3.5844483375549316
1763693276644646400,3.336646484375,10.26042366027832,-1.1102696657180786,3.94815731048584
1763693276654652700,3.346652587890625,9.029315948486328,-0.6939185857772827,4.810171604156494
1763693276664631600,3.356631591796875,8.914461135864258,-0.6125625967979431,5.097310543060303
1763693276674634800,3.366634765625,9.384052276611328,-0.4253242313861847,5.078167915344238
1763693276684664000,3.3766640625,9.838688850402832,-0.023330021649599075,4.72881555557251
1763693276694670000,3.386670166015625,9.829116821289062,0.2063809484243393,4.230510234832764
1763693276704642000,3.39664208984375,9.714262008666992,0.16331014037132263,4.388436794281006
1763693276714644700,3.406644775390625,9.460622787475586,0.014955141581594944,4.364508628845215
1763693276724681200,3.41668115234375,8.971888542175293,-0.15732808411121368,2.837289333343506
1763693276734687200,3.426687255859375,8.62732219696045,-0.4061816334724426,1.903490424156189
1763693276744695000,3.436695068359375,8.790034294128418,-0.28175488114356995,2.2193429470062256
1763693276754701300,3.446701416015625,8.833105087280273,-0.3439682424068451,1.5637096166610718
1763693276764688000,3.45668798828125,8.751749038696289,-0.31046873331069946,1.4009976387023926
1763693276774692000,3.466692138671875,9.010173797607422,-0.2147558331489563,1.5876377820968628
1763693276784685800,3.476685791015625,9.202198028564453,-0.20518454909324646,1.6977076530456543
1763693276794688800,3.486688720703125,9.081958770751953,-0.18125630915164948,1.9178473949432373
1763693276804705800,3.496705810546875,8.871390342712402,-0.3774677813053131,1.9800606966018677
1763693276814710300,3.506710205078125,8.608179092407227,-0.49232324957847595,2.5405795574188232
1763693276824734700,3.516734619140625,8.167900085449219,-0.3966103494167328,2.54536509513855
1763693276834741200,3.5267412109375,7.650452136993408,-0.24825534224510193,3.0957143306732178
1763693276844744000,3.536743896484375,7.549953460693359,0.03888336941599846,2.3294129371643066
1763693276854750200,3.546750244140625,7.918448448181152,0.3164508044719696,1.7455641031265259
1763693276864757000,3.556757080078125,8.263612747192383,0.48394837975502014,1.5541383028030396
1763693276874763300,3.56676318359375,8.665607452392578,0.49351966381073,1.439282774925232
1763693276884732700,3.576732666015625,8.86660385131836,0.5228317379951477,1.3722838163375854
1763693276894735000,3.586735107421875,8.780462265014648,0.7286145091056824,1.3196417093276978
1763693276904743000,3.596742919921875,8.617751121520996,0.9631111025810242,1.3674981594085693
1763693276914745900,3.606745849609375,8.459824562072754,1.0971091985702515,1.573280930519104
1763693276924777200,3.616777099609375,8.297112464904785,1.1353943347930908,1.6211373805999756
1763693276934783000,3.626782958984375,8.220541954040527,1.0875378847122192,1.5828521251678467
1763693276944799700,3.6367998046875,8.670392990112305,0.8291130661964417,1.592423439025879
1763693276954806500,3.646806640625,9.302696228027344,0.714257538318634,1.7359927892684937
1763693276964807000,3.656806884765625,9.920044898986816,0.6520441770553589,2.142772674560547
1763693276974813000,3.66681298828125,10.246066093444824,0.7046862840652466,2.23848557472229
1763693276984813600,3.6768134765625,10.169496536254883,0.9391828775405884,2.2576282024383545
1763693276994819000,3.686819091796875,9.915258407592773,1.0396814346313477,2.1571295261383057
1763693277004798500,3.696798583984375,9.862616539001465,1.0444670915603638,1.9226330518722534
1763693277014801400,3.706801513671875,10.097113609313965,1.144965648651123,2.334198474884033
1763693277024831700,3.716831787109375,10.169496536254883,1.317248821258545,2.3198416233062744
1763693277034837500,3.72683740234375,10.025328636169434,1.077966570854187,2.4017956256866455
1763693277044845600,3.736845458984375,10.217352867126465,0.7908278703689575,2.4783661365509033
1763693277054851300,3.746851318359375,10.327422142028809,0.867398202419281,2.7559335231781006
1763693277064823300,3.7568232421875,9.958329200744629,1.1593226194381714,3.1148569583892822
1763693277074825700,3.76682568359375,9.326624870300293,1.5954145193099976,3.431307554244995
1763693277094868700,3.78686865234375,8.163114547729492,2.7110681533813477,3.5270206928253174
1763693277104874500,3.79687451171875,8.072187423706055,2.912065267562866,3.383451223373413
1763693277114880500,3.806880615234375,8.37846851348877,2.816352367401123,3.2727832794189453
1763693277124886300,3.81688623046875,9.18305492401123,2.3850460052490234,3.1387851238250732
1763693277134892300,3.826892333984375,10.269994735717773,2.0644078254699707,2.760719060897827
1763693277144899600,3.836899658203125,10.834700584411621,2.083550214767456,2.324627161026001
1763693277154905600,3.846905517578125,10.930414199829102,2.365903377532959,1.8077775239944458
1763693277164908500,3.856908447265625,10.820343971252441,2.6057839393615723,1.3148560523986816
1763693277174914300,3.866914306640625,10.939985275268555,2.6297121047973633,1.1228320598602295
1763693277194925800,3.88692578125,11.266007423400879,2.3563320636749268,1.568495273590088
1763693277204929800,3.8969296875,11.572288513183594,1.8634105920791626,2.104487419128418
1763693277214935300,3.906935302734375,11.749357223510742,1.1497513055801392,2.4975085258483887
1763693277224940300,3.916940185546875,11.629715919494629,0.5467599630355835,2.6075785160064697
1763693277234945800,3.92694580078125,11.208579063415527,0.5324030518531799,2.516651153564453
1763693277244931300,3.936931396484375,10.566704750061035,0.46480581164360046,2.1858434677124023
1763693277254935000,3.94693505859375,10.077970504760742,0.4217349886894226,1.8317056894302368
1763693277264956200,3.9569560546875,9.948758125305176,0.6137589812278748,1.2711870670318604
1763693277274961400,3.96696142578125,10.289137840270996,0.47916272282600403,0.8500502705574036
1763693277284963800,3.9769638671875,10.451848983764648,0.0771685317158699,0.6825526356697083
1763693277294968800,3.98696875,10.432706832885742,-0.1333998590707779,0.9170492887496948
1763693277304947200,3.996947265625,10.49970531463623,-0.33918261528015137,1.3627125024795532
1763693277314949600,4.00694970703125,10.600204467773438,-0.607776939868927,1.8029918670654297
1763693277324974600,4.016974609375,10.41356372833252,-0.7800601720809937,2.17627215385437
1763693277334979300,4.026979248046875,9.967901229858398,-0.8183453679084778,2.4640090465545654
1763693277344992500,4.036992431640625,9.618548393249512,-0.9475577473640442,2.7320053577423096
1763693277354998000,4.046998046875,9.005388259887695,-1.459621787071228,4.029513359069824
1763693277365007000,4.057007080078125,8.790034294128418,-2.0105693340301514,3.0717861652374268
1763693277375013000,4.06701318359375,8.584251403808594,-1.6325032711029053,1.5589239597320557
1763693277385019400,4.077019287109375,8.871390342712402,-0.698704183101654,0.8739784955978394
1763693277395025200,4.087025146484375,9.202198028564453,-0.6843472719192505,0.7208378314971924
1763693277404992000,4.096991943359375,9.135198593139648,-0.3200400173664093,0.6346961855888367
1763693277414994000,4.106993896484375,8.876175880432129,-0.30568310618400574,0.8261220455169678
1763693277425024500,4.1170244140625,8.612964630126953,-0.6843472719192505,0.802193820476532
1763693277435029200,4.127029296875,8.23011302947998,-0.4588237404823303,1.3722838163375854
1763693277445044700,4.137044677734375,7.971090316772461,-0.01375873014330864,1.439282774925232
1763693277455050800,4.14705078125,7.664809226989746,0.48873403668403625,1.6689938306808472
1763693277465056000,4.157055908203125,7.143173694610596,0.6903293132781982,2.0039889812469482
1763693277475062000,4.16706201171875,6.7070817947387695,0.867398202419281,2.0231316089630127
1763693277485032000,4.177031982421875,6.577869415283203,1.1497513055801392,1.6689938306808472
1763693277495034000,4.1870341796875,6.52044153213501,1.322034478187561,0.9553344249725342
1763693277505042400,4.19704248046875,6.52044153213501,1.3986048698425293,0.7543373107910156
1763693277515045000,4.207045166015625,6.759724140167236,1.5469598770141602,1.420140266418457
1763693277525075200,4.2170751953125,6.912864685058594,1.5565310716629028,1.0271191596984863
1763693277535080700,4.227080810546875,7.559525012969971,1.4656038284301758,1.4536397457122803
1763693277545092000,4.237092041015625,8.062616348266602,1.4895321130752563,2.018345832824707
1763693277555098400,4.247098388671875,8.541180610656738,1.2837493419647217,2.406581401824951
1763693277565105000,4.25710498046875,9.005388259887695,1.1736794710159302,2.42093825340271
1763693277575111000,4.26711083984375,9.3457670211792,1.4368900060653687,2.3198416233062744
1763693277585112600,4.277112548828125,9.57069206237793,1.2215359210968018,2.3682961463928223
1763693277595118300,4.287118408203125,9.809974670410156,0.7668996453285217,2.6458635330200195
1763693277605128000,4.2971279296875,10.025328636169434,0.6041877269744873,2.703291416168213
1763693277615134200,4.30713427734375,10.106684684753418,0.7812566161155701,2.8660032749176025
1763693277625126700,4.317126708984375,10.058828353881836,0.9391828775405884,3.1866414546966553
1763693277635131400,4.32713134765625,10.025328636169434,-0.04247260093688965,2.3294129371643066
1763693277645149000,4.33714892578125,10.188638687133789,-0.03768695518374443,3.2823543548583984
1763693277655155000,4.347155029296875,10.241280555725098,-0.17168502509593964,2.9521448612213135
1763693277665159200,4.3571591796875,10.566704750061035,-0.4061816334724426,3.334996461868286
1763693277675165000,4.3671650390625,10.638489723205566,-0.6843472719192505,3.84765887260437
1763693277685168600,4.377168701171875,10.738987922668457,-0.9667003750801086,4.1347975730896
1763693277695174100,4.387174072265625,11.006983757019043,-1.0289137363433838,4.077369689941406
1763693277705176600,4.397176513671875,11.409576416015625,-0.7657032608985901,3.7184464931488037
1763693277715181800,4.407181884765625,11.84028434753418,-0.5694918036460876,3.594019651412964
1763693277725178000,4.41717822265625,12.252448081970215,-0.6221339106559753,3.8189449310302734
1763693277735182300,4.427182373046875,12.362518310546875,-0.8039883971214294,4.1730828285217285
1763693277745194500,4.437194580078125,12.424731254577637,-0.9332008361816406,4.484747886657715
1763693277755199700,4.44719970703125,12.659228324890137,-0.9092726111412048,4.613960266113281
1763693277765172700,4.4571728515625,12.855439186096191,-0.8374879360198975,4.613960266113281
1763693277775174700,4.467174560546875,12.874582290649414,-0.6939185857772827,4.518247127532959
1763693277785183700,4.477183837890625,12.7549409866333,-0.607776939868927,4.335794448852539
1763693277795186400,4.4871865234375,12.616157531738281,-0.5838487148284912,4.163511276245117
1763693277805229600,4.4972294921875,12.324233055114746,-0.5886343717575073,4.000799655914307
1763693277815236400,4.507236328125,11.859427452087402,-0.5742774605751038,3.8045880794525146
1763693277825228800,4.517228759765625,11.337791442871094,-0.5455635786056519,3.594019651412964
1763693277835234000,4.527234130859375,10.829915046691895,-0.4253242313861847,3.349353551864624
1763693277845249800,4.537249755859375,10.39920711517334,-0.243469700217247,3.2440693378448486
1763693277855256000,4.547256103515625,9.915258407592773,-0.11425728350877762,3.1004998683929443
1763693277865256700,4.557256591796875,9.41755199432373,0.019740786403417587,3.1100711822509766
1763693277875262500,4.567262451171875,8.914461135864258,0.07238288223743439,3.191427230834961
1763693277885238000,4.577238037109375,8.39282512664795,0.024526432156562805,3.2297122478485107
1763693277895240700,4.58724072265625,7.9280195236206055,0.010169495828449726,3.16749906539917
1763693277905276400,4.5972763671875,7.559525012969971,-0.008973085321485996,2.9425735473632812
1763693277915282400,4.607282470703125,7.272386074066162,0.029312077909708023,2.727219581604004
1763693277925277000,4.61727685546875,7.104888439178467,-0.03290131315588951,2.554936408996582
1763693277935281700,4.62728173828125,7.023532867431641,-0.10468599200248718,2.4783661365509033
1763693277945293300,4.637293212890625,6.960721015930176,-0.17168502509593964,2.4735803604125977
1763693277955298800,4.647298828125,6.927221775054932,-0.2147558331489563,2.4640090465545654
1763693277965306600,4.657306640625,6.936792850494385,-0.15732808411121368,2.276770830154419
1763693277975312400,4.6673125,7.095317363739014,-0.11904292553663254,2.152343988418579
1763693277985320000,4.67731982421875,7.176673412322998,-0.1381855010986328,2.152343988418579
1763693277995325700,4.68732568359375,7.128817081451416,-0.04247260093688965,2.626721143722534
1763693278005328600,4.69732861328125,7.363313674926758,-0.1908276081085205,1.8460626602172852
1763693278015334100,4.707334228515625,7.459026336669922,-0.08075776696205139,2.228914260864258
1763693278025322800,4.71732275390625,7.502097129821777,0.3068794906139374,1.841277003288269
1763693278035326500,4.727326416015625,7.688737392425537,0.3978067636489868,1.5637096166610718
1763693278045348900,4.737348876953125,7.736593723297119,0.46002015471458435,1.6737794876098633
1763693278055354600,4.747354736328125,7.755736351013184,0.4504488706588745,1.4679967164993286
1763693278065355800,4.757355712890625,7.755736351013184,0.537188708782196,1.482353687286377
1763693278075361000,4.767361083984375,7.827520847320557,0.7573283910751343,1.4344971179962158
1763693278085369000,4.777369140625,8.048258781433105,1.0157532691955566,1.4057832956314087
1763693278095374600,4.78737451171875,8.244470596313477,1.2167502641677856,1.4727823734283447
1763693278105374500,4.79737451171875,8.388039588928223,1.3555340766906738,1.6211373805999756
1763693278115379500,4.80737939453125,8.608179092407227,1.389033555984497,1.8747764825820923
1763693278125374200,4.817374267578125,8.775676727294922,1.317248821258545,2.118844509124756
1763693278135378000,4.8273779296875,8.823533058166504,1.2741780281066895,2.2337000370025635
1763693278145397200,4.837397216796875,8.761320114135742,1.384247899055481,2.190629243850708
1763693278155402800,4.84740283203125,8.737391471862793,1.542174220085144,2.0997018814086914
1763693278165409500,4.857409423828125,8.833105087280273,1.6289139986038208,2.142772674560547
1763693278175415000,4.8674150390625,9.058030128479004,1.6767704486846924,2.1619153022766113
1763693278185383000,4.8773828125,9.41755199432373,1.7629120349884033,2.1379871368408203
1763693278195384600,4.887384521484375,9.857831001281738,1.8011972904205322,2.118844509124756
1763693278205428700,4.8974287109375,10.317851066589355,1.705484390258789,2.200200319290161
1763693278215434800,4.907434814453125,10.686346054077148,1.5134602785110474,2.334198474884033
1763693278225430500,4.917430419921875,11.10748291015625,1.412961721420288,2.4113669395446777
1763693278235435500,4.927435546875,11.586645126342773,1.4081761837005615,2.4161527156829834
1763693278245422300,4.93742236328125,12.271591186523438,1.3746765851974487,2.286342144012451
1763693278255425300,4.94742529296875,12.979866027832031,1.4033905267715454,2.080559253692627
1763693278265430500,4.957430419921875,13.674383163452148,1.5038890838623047,1.9848463535308838
1763693278275434000,4.96743408203125,14.152947425842285,1.5565310716629028,2.1092731952667236
1763693278285438000,4.97743798828125,14.512469291687012,1.5230315923690796,2.4496521949768066
1763693278295441200,4.987441162109375,14.756537437438965,1.4895321130752563,2.7942185401916504
1763693278305446000,4.99744580078125,15.105889320373535,1.3651052713394165,3.0526435375213623
1763693278315449300,5.007449462890625,15.374484062194824,1.1114661693572998,3.4025938510894775
1763693278325452800,5.017452880859375,15.498910903930664,0.7381857633590698,3.6705899238586426
1763693278335456300,5.027456298828125,15.551552772521973,0.43609192967414856,3.737588882446289
1763693278345465300,5.03746533203125,15.565909385681152,0.22552353143692017,3.799802303314209
1763693278355469300,5.04746923828125,15.345769882202148,-0.04247260093688965,3.6131622791290283
1763693278385521200,5.077521240234375,12.912867546081543,-0.11904292553663254,3.200998544692993
1763693278395529000,5.087529052734375,11.735000610351562,0.13459627330303192,2.813361167907715
1763693278405529000,5.097529052734375,10.600204467773438,0.4983053207397461,2.2911276817321777
1763693278415536000,5.1075361328125,9.65683364868164,0.8865407705307007,1.755135416984558
1763693278425527800,5.11752783203125,8.9910306930542,1.207179069519043,1.3435698747634888
1763693278435533600,5.127533447265625,8.402397155761719,1.4464613199234009,1.0845468044281006
1763693278445547000,5.137547119140625,7.9280195236206055,1.6193426847457886,1.0079765319824219
1763693278455553500,5.147553466796875,7.559525012969971,1.6767704486846924,0.9457631707191467
1763693278465524000,5.15752392578125,7.339385032653809,1.6959130764007568,0.9409775137901306
1763693278475526700,5.167526611328125,7.214958667755127,1.6719847917556763,1.012762188911438
1763693278485535000,5.177534912109375,7.061817646026611,1.6432709693908691,1.1132607460021973
1763693278495538400,5.187538330078125,6.912864685058594,1.5810575485229492,1.2376874685287476
1763693278505545500,5.19754541015625,6.687939167022705,1.4943177700042725,1.3435698747634888
1763693278515549200,5.207549072265625,6.453442573547363,1.4608181715011597,1.4105689525604248
1763693278525580300,5.217580322265625,6.1950178146362305,1.412961721420288,1.3962119817733765
1763693278535586800,5.2275869140625,5.979663848876953,1.4033905267715454,1.3818551301956177
1763693278545596000,5.237595947265625,5.816353797912598,1.4033905267715454,1.3818551301956177
1763693278555602700,5.247602783203125,5.725426197052002,1.470389485359192,1.3435698747634888
1763693278565609700,5.257609619140625,5.6584272384643555,1.4991034269332886,1.32921302318573
1763693278575616500,5.267616455078125,5.5483574867248535,1.537388563156128,1.3052847385406494
1763693278585583900,5.277583984375,5.457430362701416,1.4895321130752563,1.3196417093276978
1763693278595586600,5.287586669921875,5.385645389556885,1.4368900060653687,1.357926845550537
1763693278605623800,5.297623779296875,5.294718265533447,1.3746765851974487,1.32921302318573
1763693278615630000,5.307630126953125,5.251647472381592,1.3698909282684326,1.256830096244812
1763693278625627600,5.317627685546875,5.251647472381592,1.4177473783493042,1.1563315391540527
1763693278635633200,5.327633056640625,5.26600456237793,1.4368900060653687,1.1180464029312134
1763693278645614600,5.337614501953125,5.309075355529785,1.451246976852417,1.1324033737182617
1763693278655617500,5.347617431640625,5.385645389556885,1.4416756629943848,1.1515458822250366
1763693278665623800,5.357623779296875,5.534000396728516,1.456032633781433,1.2185449600219727
1763693278675627000,5.367626953125,5.701498031616211,1.5182459354400635,1.2903295755386353
1763693278685635600,5.377635498046875,5.878567218780518,1.5810575485229492,1.4249259233474731
1763693278695639300,5.387639404296875,5.950351715087891,1.6432709693908691,1.6115660667419434
1763693278705650700,5.397650634765625,5.970092296600342,1.6671991348266602,1.841277003288269
1763693278715655200,5.4076552734375,5.989234924316406,1.6049858331680298,2.0709879398345947
1763693278725677000,5.417677001953125,6.013163089752197,1.475175142288208,2.286342144012451
1763693278735683600,5.42768359375,6.080162525177002,1.4273186922073364,2.4257240295410156
1763693278745688300,5.437688232421875,6.271588325500488,1.412961721420288,2.4879374504089355
1763693278755694300,5.4476943359375,6.439085960388184,1.384247899055481,2.48315167427063
1763693278765707800,5.457707763671875,6.563512325286865,1.3268201351165771,2.492722988128662
1763693278775714800,5.46771484375,6.702296257019043,1.3411771059036255,2.54536509513855
1763693278785720300,5.47772021484375,6.836294174194336,1.3363914489746094,2.665006160736084
1763693278795726800,5.487726806640625,6.965506553649902,1.3316057920455933,2.971287488937378
1763693278805731600,5.497731689453125,7.124031066894531,1.2406785488128662,3.4648072719573975
1763693278815738000,5.507738037109375,7.229315280914307,1.054038405418396,3.981656789779663
1763693278825728800,5.517728759765625,7.3058857917785645,0.8626125454902649,4.566103935241699
1763693278835733500,5.5277333984375,7.463811874389648,0.7190431952476501,5.078167915344238
1763693278845714700,5.537714599609375,7.6839518547058105,0.656829833984375,5.379663467407227
1763693278855717000,5.547717041015625,7.913662910461426,0.7621139883995056,5.605186939239502
1763693278865761500,5.557761474609375,8.057829856872559,0.9631111025810242,5.720042705535889
1763693278875768300,5.567768310546875,8.26839828491211,1.1066805124282837,5.8923258781433105
1763693278885734000,5.57773388671875,8.522037506103516,1.164108157157898,6.189035892486572
1763693278895736300,5.587736328125,8.775676727294922,1.1545369625091553,6.620342254638672
1763693278905746000,5.597745849609375,9.053244590759277,1.1353943347930908,7.079763889312744
1763693278915749000,5.6077490234375,9.43190860748291,1.1162517070770264,7.668996810913086
1763693278925779000,5.617779052734375,9.671191215515137,1.1066805124282837,8.267202377319336
1763693278935785000,5.627784912109375,9.7669038772583,1.0301101207733154,9.000003814697266
1763693278945799200,5.637799072265625,9.5324068069458,1.0444670915603638,9.804591178894043
1763693278955806000,5.647805908203125,9.125627517700195,1.1497513055801392,10.292726516723633
1763693278965809200,5.65780908203125,8.684749603271484,1.1497513055801392,10.570294380187988
1763693278975815400,5.6678154296875,8.46461009979248,1.1114661693572998,10.527223587036133
1763693278985811200,5.677811279296875,8.37846851348877,1.23589289188385,10.130014419555664
1763693278995816700,5.687816650390625,8.042875289916992,1.5038890838623047,9.866804122924805
1763693279005801500,5.697801513671875,7.4015984535217285,1.7102699279785156,9.574281692504883
1763693279015804700,5.7078046875,6.711867332458496,1.6049858331680298,9.268000602722168
1763693279025835800,5.717835693359375,5.821139335632324,1.4991034269332886,9.382855415344238
1763693279035841800,5.727841796875,4.844269275665283,1.4895321130752563,9.382855415344238
1763693279045838800,5.7378388671875,4.150351047515869,1.5619150400161743,9.363713264465332
1763693279055844000,5.747843994140625,3.321835994720459,1.5182459354400635,9.253643035888672
1763693279065825800,5.75782568359375,2.5124638080596924,1.4321043491363525,9.05264663696289
1763693279075828700,5.767828857421875,1.856830358505249,1.3746765851974487,8.937790870666504
1763693279085863200,5.77786328125,1.028315544128418,1.3555340766906738,8.429914474487305
1763693279095869200,5.787869140625,0.5300102233886719,1.1976077556610107,8.01356315612793
1763693279105847000,5.797846923828125,0.22372891008853912,1.058824062347412,7.70249605178833
1763693279115850000,5.80785009765625,-0.3367897868156433,0.8865407705307007,7.228118896484375
1763693279125889500,5.8178896484375,-0.6239284873008728,0.7668996453285217,6.8309102058410645
1763693279135896300,5.827896240234375,-0.786640465259552,0.776470959186554,6.644270420074463
1763693279145901800,5.83790185546875,-0.9493523836135864,0.8482556343078613,6.591628074645996
1763693279155908600,5.84790869140625,-0.8249256014823914,0.9439685344696045,6.950551509857178
1763693279165912300,5.857912353515625,-0.4660021960735321,1.054038405418396,7.357331275939941
1763693279175918800,5.8679189453125,-0.32721850275993347,1.0827522277832031,7.616354465484619
1763693279185922600,5.877922607421875,-0.45164528489112854,0.9774680733680725,7.668996810913086
1763693279195928800,5.8879287109375,-0.34636107087135315,0.900897741317749,7.994420528411865
1763693279205897500,5.8978974609375,-0.5138586759567261,0.900897741317749,8.051848411560059
1763693279215899600,5.907899658203125,-0.5904290080070496,0.714257538318634,8.080561637878418
1763693279225928000,5.917927978515625,-0.3798605799674988,0.6759724020957947,8.104490280151367
1763693279235933000,5.927932861328125,-0.04426721855998039,0.8865407705307007,8.271987915039062
1763693279245915100,5.9379150390625,0.20937198400497437,1.1066805124282837,8.544769287109375
1763693279255917800,5.947917724609375,0.5778666734695435,1.3363914489746094,9.062217712402344
1763693279265960700,5.957960693359375,0.7166503667831421,1.542174220085144,9.392427444458008
1763693279275967500,5.967967529296875,0.7698906660079956,1.5906288623809814,9.69930648803711
1763693279285963300,5.97796337890625,0.8129615187644958,1.576271891593933,10.082158088684082
1763693279295969000,5.987968994140625,0.8608179688453674,1.5954145193099976,10.436295509338379
1763693279305945900,5.99794580078125,0.9421738982200623,1.7629120349884033,10.767104148864746
1763693279315948800,6.00794873046875,1.057029366493225,2.002194404602051,11.078170776367188
1763693279325980400,6.01798046875,1.1001001596450806,2.2606191635131836,11.470593452453613
1763693279335986000,6.02798583984375,0.9996016621589661,2.562114953994751,11.959327697753906
1763693279345999600,6.03799951171875,0.7794619798660278,2.7972097396850586,12.380464553833008
1763693279356006000,6.048005859375,0.5730810165405273,2.8929226398468018,12.739986419677734
1763693279366009600,6.058009521484375,0.4007977843284607,2.9694929122924805,13.055838584899902
1763693279376016000,6.068015869140625,0.2955136001110077,3.050848960876465,13.299906730651855
1763693279385991700,6.07799169921875,0.33379876613616943,3.1657042503356934,13.677972793579102
1763693279395994600,6.08799462890625,0.3720839321613312,3.25663161277771,14.094922065734863
1763693279405997600,6.09799755859375,0.2763710021972656,3.1561331748962402,14.377274513244629
1763693279416000500,6.10800048828125,0.12323036789894104,2.912065267562866,14.539986610412598
1763693279426014200,6.11801416015625,-0.11605189740657806,2.6632115840911865,14.573486328125
1763693279436018200,6.12801806640625,-0.37507495284080505,2.490330219268799,14.453845024108887
1763693279446017800,6.138017822265625,-0.6287141442298889,2.3515465259552,14.372488975524902
1763693279456021200,6.148021240234375,-0.8392825126647949,2.184048891067505,14.47298812866211
1763693279466026800,6.15802685546875,-1.1359925270080566,1.944766640663147,14.554344177246094
1763693279476030500,6.168030517578125,-1.404586911201477,1.7102699279785156,14.592628479003906
1763693279486038300,6.178038330078125,-1.5098711252212524,1.5469598770141602,14.468202590942383
1763693279496042500,6.18804248046875,-1.490728497505188,1.3986048698425293,14.32463264465332
1763693279506048800,6.198048828125,-1.3423734903335571,1.1784651279449463,14.271990776062012
1763693279516053200,6.20805322265625,-1.3184453248977661,0.8769695162773132,14.329418182373047
1763693279526075100,6.2180751953125,-1.4428720474243164,0.5228317379951477,14.358132362365723
1763693279536081200,6.2280810546875,-1.5242279767990112,0.10588239878416061,14.343775749206543
1763693279546087200,6.238087158203125,-1.4620146751403809,-0.2721835672855377,14.271990776062012
1763693279556093200,6.24809326171875,-1.303490161895752,-0.5742774605751038,14.037493705749512
1763693279566075600,6.25807568359375,-1.0546365976333618,-0.7465606927871704,13.59183120727539
1763693279576079400,6.268079345703125,-0.6191428303718567,-0.7752745151519775,13.041481971740723
1763693279586085400,6.27808544921875,-0.19740787148475647,-0.7226324677467346,12.366106986999512
1763693279596089300,6.28808935546875,0.09451649338006973,-0.7657032608985901,11.748759269714355
1763693279606127600,6.298127685546875,0.21415762603282928,-1.0145567655563354,11.169097900390625
1763693279616135200,6.30813525390625,0.10887342691421509,-1.306481122970581,10.603793144226074
1763693279626127400,6.31812744140625,-0.11126625537872314,-1.4883357286453247,10.04865837097168
1763693279636133000,6.328133056640625,-0.16390834748744965,-1.5122638940811157,9.445069313049316
1763693279646116900,6.338116943359375,-0.13040883839130402,-1.3782658576965332,8.933005332946777
1763693279656120300,6.348120361328125,-0.10169496387243271,-1.191625714302063,8.583653450012207
1763693279666148400,6.3581484375,-0.25004997849464417,-1.0289137363433838,8.46341323852539
1763693279676154400,6.368154296875,-0.4995017349720001,-1.0241280794143677,8.516056060791016
1763693279686168800,6.3781689453125,-0.8536394834518433,-1.196411371231079,8.626724243164062
1763693279696175600,6.388175537109375,-1.1407781839370728,-1.3591232299804688,8.612366676330566
1763693279706176500,6.398176513671875,-1.3519448041915894,-1.4165509939193726,8.520841598510742
1763693279716182800,6.408182861328125,-1.423729419708252,-1.3878371715545654,8.401200294494629
1763693279726182700,6.4181826171875,-1.4763715267181396,-1.3160524368286133,8.276773452758789
1763693279736188200,6.428188232421875,-1.5002998113632202,-1.2346965074539185,8.109275817871094
1763693279746202400,6.438202392578125,-1.4572290182113647,-1.1150553226470947,7.922635555267334
1763693279756209000,6.448208984375,-1.4715858697891235,-1.100698471069336,7.76470947265625
1763693279766175500,6.458175537109375,-1.5625132322311401,-1.2203395366668701,7.692924976348877
1763693279776178000,6.468177978515625,-1.6773686408996582,-1.4021940231323242,7.597211837768555
1763693279786185200,6.478185302734375,-1.8352949619293213,-1.5655041933059692,7.45782995223999
1763693279796188200,6.488188232421875,-1.8544375896453857,-1.594218134880066,7.199405193328857
1763693279806220300,6.49822021484375,-1.825723648071289,-1.5409778356552124,6.931408882141113
1763693279816226300,6.508226318359375,-1.7778671979904175,-1.4691931009292603,6.6969122886657715
1763693279826234000,6.518234130859375,-1.7539390325546265,-1.4404792785644531,6.5150580406188965
1763693279836240100,6.528240234375,-1.8352949619293213,-1.5361921787261963,6.4905314445495605
1763693279846249200,6.538249267578125,-2.0027925968170166,-1.7377874851226807,6.5150580406188965
1763693279856255700,6.548255859375,-2.194218397140503,-1.9196419715881348,6.428318023681641
1763693279866225700,6.5582255859375,-2.4149563312530518,-1.9722840785980225,6.332605361938477
1763693279876228400,6.568228271484375,-2.534597396850586,-1.9722840785980225,6.169893264770508
1763693279886269000,6.57826904296875,-2.6015963554382324,-1.9387845993041992,5.9545392990112305
1763693279896275500,6.588275390625,-2.6255247592926025,-1.9196419715881348,5.801398277282715
1763693279906269400,6.59826953125,-2.6638097763061523,-1.9435701370239258,5.700900077819824
1763693279916274700,6.608274658203125,-2.7595226764678955,-2.0584256649017334,5.667400360107422
1763693279926281700,6.61828173828125,-2.826521635055542,-2.1780667304992676,5.729613780975342
1763693279936287000,6.628286865234375,-2.9318058490753174,-2.297708034515381,5.921039581298828
1763693279946292500,6.63829248046875,-3.084946632385254,-2.4364917278289795,6.150750637054443
1763693279956298000,6.648298095703125,-3.1998021602630615,-2.6189444065093994,6.423532485961914
1763693279966313700,6.658313720703125,-3.3433713912963867,-2.772084951400757,6.7447686195373535
1763693279976320300,6.6683203125,-3.473181962966919,-2.939582586288452,7.132406234741211
1763693279986306000,6.67830615234375,-3.5928232669830322,-3.126222848892212,7.534400463104248
1763693279996310300,6.688310302734375,-3.6358940601348877,-3.332005500793457,8.032705307006836
1763693280006331000,6.698330810546875,-3.731606960296631,-3.513859987258911,8.583653450012207
1763693280016336600,6.708336669921875,-3.793820381164551,-3.6532418727874756,9.043074607849121
1763693280026330000,6.718330078125,-3.8321053981781006,-3.7776687145233154,9.478569030761719
1763693280036334800,6.7283349609375,-3.8368911743164062,-3.9451663494110107,9.905089378356934
1763693280046353000,6.738352783203125,-3.8464624881744385,-4.160520553588867,10.206584930419922
1763693280056359000,6.74835888671875,-3.8560338020324707,-4.5338006019592285,10.512866020202637
1763693280066361000,6.758361083984375,-3.913461446762085,-5.027320384979248,10.714461326599121
1763693280076366800,6.768366943359375,-3.9661035537719727,-5.453242778778076,10.948958396911621
1763693280086362400,6.7783623046875,-4.033102512359619,-5.7164530754089355,11.10209846496582
1763693280096366800,6.788366943359375,-4.071387767791748,-5.941977024078369,11.202597618103027
1763693280106377700,6.798377685546875,-4.023531436920166,-6.257829189300537,11.23609733581543
1763693280116383000,6.808383056640625,-3.8464624881744385,-6.521039962768555,11.23609733581543
1763693280126380300,6.81838037109375,-3.5545380115509033,-6.635895252227783,11.188240051269531
1763693280136384500,6.828384521484375,-3.1663026809692383,-6.655037879943848,11.154741287231445
1763693280146395100,6.83839501953125,-2.678166627883911,-6.544968128204346,11.106884956359863
1763693280156400000,6.848400146484375,-2.132004976272583,-6.329614162445068,11.054242134094238
1763693280166407000,6.858406982421875,-1.5433706045150757,-5.932405471801758,11.078170776367188
1763693280176412200,6.868412109375,-1.0737791061401367,-5.563312530517578,11.145169258117676
1763693280186412000,6.878412109375,-0.7962117195129395,-5.328815937042236,11.269596099853516
1763693280196416800,6.888416748046875,-0.6622136831283569,-5.252245903015137,11.403594970703125
1763693280206427100,6.89842724609375,-0.6478567123413086,-5.376672267913818,11.571091651916504
1763693280216432400,6.908432373046875,-0.6574280261993408,-5.501099109649658,11.59980583190918
1763693280226427600,6.918427734375,-0.633499801158905,-5.44845724105835,11.513664245605469
1763693280236432000,6.928431884765625,-0.5186443328857422,-5.26181697845459,11.365309715270996
1763693280246450200,6.9384501953125,-0.4372883439064026,-5.07517671585083,11.164312362670898
1763693280256456000,6.9484560546875,-0.34636107087135315,-4.826323509216309,10.97767162322998
1763693280266464300,6.95846435546875,-0.29850462079048157,-4.500301361083984,10.814960479736328
1763693280276470000,6.968469970703125,-0.37028929591178894,-4.237090587615967,10.728818893432617
1763693280286459100,6.978459228515625,-0.4899304509162903,-4.026522159576416,10.594222068786621
1763693280296463400,6.98846337890625,-0.6765705943107605,-3.8015968799591064,10.40758228302002
1763693280306475800,6.998475830078125,-0.844068169593811,-3.528217077255249,10.029516220092773
1763693280316480800,7.008480712890625,-0.9732806086540222,-3.2745778560638428,9.612566947937012
1763693280326478800,7.018478759765625,-1.064207911491394,-3.0113673210144043,9.162715911865234
1763693280336483000,7.028483154296875,-1.1838489770889282,-2.700300455093384,8.626724243164062
1763693280346493200,7.0384931640625,-1.236491084098816,-2.3647069931030273,8.157132148742676
1763693280356498200,7.048498291015625,-1.3471591472625732,-2.111067771911621,7.769495010375977
1763693280376508200,7.068508056640625,-1.6534404754638672,-1.862214207649231,7.280761241912842
1763693280386523600,7.078523681640625,-1.8065811395645142,-1.7665013074874878,7.1371917724609375
1763693280396529700,7.08852978515625,-1.911865234375,-1.6564314365386963,7.007979393005371
1763693280406531000,7.098531005859375,-1.9262222051620483,-1.5361921787261963,6.931408882141113
1763693280416536600,7.10853662109375,-1.9214365482330322,-1.5170495510101318,6.974479675292969
1763693280426531800,7.11853173828125,-1.8687944412231445,-1.521835207939148,7.084549427032471
1763693280436536300,7.128536376953125,-1.8831514120101929,-1.5607185363769531,7.362117290496826
1763693280446549800,7.1385498046875,-1.9597218036651611,-1.6277176141738892,7.668996810913086
1763693280456555000,7.148554931640625,-2.0554347038269043,-1.7186448574066162,7.95134973526001
1763693280466529300,7.158529296875,-2.203789710998535,-1.8239290714263916,8.22413158416748
1763693280476531500,7.168531494140625,-2.3330020904541016,-1.9818553924560547,8.57348346710205
1763693280486559700,7.178559814453125,-2.4580271244049072,-2.1206390857696533,8.961718559265137
1763693280496564700,7.188564697265625,-2.6015963554382324,-2.268994092941284,9.320642471313477
1763693280506580700,7.198580810546875,-2.7116663455963135,-2.3647069931030273,9.694520950317383
1763693280516586800,7.208586669921875,-2.7355945110321045,-2.4029922485351562,9.967302322387695
1763693280526564900,7.21856494140625,-2.6877379417419434,-2.3647069931030273,10.14437198638916
1763693280536568000,7.228568115234375,-2.659024238586426,-2.2737796306610107,10.230513572692871
1763693280546572000,7.238572021484375,-2.706880569458008,-2.292922258377075,10.402796745300293
1763693280556575200,7.2485751953125,-2.788236618041992,-2.4747767448425293,10.608579635620117
1763693280566580200,7.258580322265625,-2.8839495182037354,-2.7912275791168213,10.843673706054688
1763693280576583700,7.268583740234375,-2.8935208320617676,-3.0592236518859863,11.059027671813965
1763693280586590200,7.278590087890625,-2.8791637420654297,-3.212364435195923,11.202597618103027
1763693280596594000,7.288593994140625,-2.802593469619751,-3.3894333839416504,11.398808479309082
1763693280606633000,7.298633056640625,-2.788236618041992,-3.5330026149749756,11.61416244506836
1763693280616640300,7.30864013671875,-2.8935208320617676,-3.7058839797973633,11.84447193145752
1763693280626610200,7.318610107421875,-3.0275187492370605,-3.782454490661621,11.944971084594727
1763693280636613600,7.328613525390625,-3.046661376953125,-3.768097400665283,12.026326179504395
1763693280646641400,7.338641357421875,-3.1280174255371094,-3.768097400665283,12.107682228088379
1763693280656647400,7.3486474609375,-3.33858585357666,-3.9738802909851074,12.227323532104492
1763693280666648600,7.358648681640625,-3.669393539428711,-4.361517429351807,12.31825065612793
1763693280676654000,7.368654052734375,-3.975674867630005,-4.711467742919922,12.351750373840332
1763693280686669600,7.378669677734375,-4.147958278656006,-4.840680122375488,12.217752456665039
1763693280696676000,7.388676025390625,-4.219742774963379,-4.878965377807617,12.141181945800781
1763693280706673200,7.398673095703125,-4.205385684967041,-5.003392219543457,12.0933256149292
1763693280716678700,7.4086787109375,-4.171886444091797,-5.290530681610107,12.102896690368652
1763693280726681300,7.418681396484375,-4.0905303955078125,-5.577669620513916,12.155538558959961
1763693280736686600,7.4286865234375,-3.889533281326294,-5.721837043762207,12.212966918945312
1763693280746701600,7.43870166015625,-3.544966697692871,-5.697310924530029,12.241681098937988
1763693280756707800,7.448707763671875,-3.1040892601013184,-5.505885124206543,12.05504035949707
1763693280766709800,7.458709716796875,-2.5489542484283447,-5.1182475090026855,11.753544807434082
1763693280776715500,7.468715576171875,-1.954936146736145,-4.6438703536987305,11.379666328430176
1763693280786709800,7.478709716796875,-1.3950155973434448,-4.174877166748047,10.948958396911621
1763693280796714500,7.488714599609375,-0.9780662655830383,-3.8781673908233643,10.6564359664917
1763693280806717400,7.498717529296875,-0.8344969153404236,-4.012165546417236,10.522438049316406
1763693280816721700,7.5087216796875,-0.8632107973098755,-4.43330192565918,10.465009689331055
1763693280826730000,7.51872998046875,-0.9397810697555542,-4.922036170959473,10.378868103027344
1763693280836734700,7.528734619140625,-0.9397810697555542,-5.319244861602783,10.211370468139648
1763693280846753300,7.538753173828125,-0.8344969153404236,-5.548955917358398,9.929018020629883
1763693280856759600,7.548759521484375,-0.6765705943107605,-5.663811206817627,9.68494987487793
1763693280866754000,7.558754150390625,-0.5377869009971619,-5.760122299194336,9.435498237609863
1763693280876759000,7.568759033203125,-0.47557350993156433,-5.879763603210449,9.34457015991211
1763693280886773200,7.578773193359375,-0.5330012440681458,-6.018547058105469,9.373284339904785
1763693280896779300,7.588779296875,-0.7244270443916321,-6.142973899841309,9.507282257080078
1763693280906770400,7.5987705078125,-0.9158528447151184,-6.114260196685791,9.521639823913574
1763693280916774700,7.608774658203125,-1.0259226560592651,-5.932405471801758,9.373284339904785
1763693280926782000,7.618781982421875,-1.1072787046432495,-5.6685967445373535,9.100502967834473
1763693280936786700,7.62878662109375,-1.2077772617340088,-5.400600910186768,8.779864311218262
1763693280946803700,7.6388037109375,-1.399801254272461,-5.113461971282959,8.439485549926758
1763693280956809700,7.648809814453125,-1.5290136337280273,-4.855037212371826,8.080561637878418
1763693280966817000,7.658817138671875,-1.6247265338897705,-4.615156650543213,7.769495010375977
1763693280976823000,7.668822998046875,-1.7204394340515137,-4.4189453125,7.443472862243652
1763693280986812700,7.678812744140625,-1.820937991142273,-4.261018753051758,7.199405193328857
1763693280996817000,7.68881689453125,-1.9022940397262573,-4.17009162902832,7.055835723876953
1763693281006824200,7.69882421875,-2.0027925968170166,-4.174877166748047,7.036693096160889
1763693281016829000,7.708828857421875,-2.117648124694824,-4.23230504989624,7.031907558441162
1763693281026832100,7.71883203125,-2.122433662414551,-4.179663181304932,6.955337047576904
1763693281036836600,7.728836669921875,-2.117648124694824,-4.112663745880127,6.811768054962158
1763693281046853400,7.738853271484375,-2.1511476039886475,-4.074378967285156,6.663413047790527
1763693281056859000,7.74885888671875,-2.194218397140503,-4.055236339569092,6.447460651397705
1763693281066866200,7.7588662109375,-2.2372891902923584,-4.012165546417236,6.289534091949463
1763693281076872000,7.768871826171875,-2.280359983444214,-4.040879249572754,6.165107727050781
1763693281086870500,7.77887060546875,-2.304288148880005,-4.055236339569092,5.949753284454346
1763693281096875500,7.78887548828125,-2.328216314315796,-4.0217366218566895,5.772684574127197
1763693281106875000,7.798875,-2.3473589420318604,-3.9738802909851074,5.5621161460876465
1763693281116879400,7.80887939453125,-2.362314224243164,-3.9355950355529785,5.3748779296875
1763693281126888000,7.818887939453125,-2.4053850173950195,-3.978665828704834,5.216951370239258
1763693281136892700,7.828892578125,-2.4675984382629395,-3.9834516048431396,5.111667156219482
1763693281146903000,7.838903076171875,-2.5298118591308594,-3.9738802909851074,5.0255255699157715
1763693281156908500,7.848908447265625,-2.5633113384246826,-3.9116668701171875,4.920241355895996
1763693281166881000,7.858881103515625,-2.572882652282715,-3.8877387046813965,4.834099769592285
1763693281176883000,7.868883056640625,-2.620738983154297,-4.007379531860352,4.767100811004639
1763693281186911700,7.878911865234375,-2.706880569458008,-4.160520553588867,4.85324239730835
1763693281196916500,7.88891650390625,-2.7595226764678955,-4.323232173919678,5.0638108253479
1763693281206926600,7.898926513671875,-2.77866530418396,-4.447659015655518,5.370092391967773
1763693281216931800,7.908931884765625,-2.8552355766296387,-4.567300319671631,5.758327484130859
1763693281226930000,7.918929931640625,-3.008376359939575,-4.744967460632324,6.088537216186523
1763693281236934400,7.928934326171875,-3.2333016395568848,-4.917250633239746,6.4666032791137695
1763693281246921500,7.93892138671875,-3.5545380115509033,-5.146961688995361,6.873981475830078
1763693281256924200,7.948924072265625,-3.946960926055908,-5.606383323669434,7.319046497344971
1763693281266967300,7.95896728515625,-4.36809778213501,-6.1573309898376465,7.7838521003723145
1763693281276974000,7.96897412109375,-4.713262557983398,-6.6454668045043945,8.080561637878418
1763693281286961700,7.978961669921875,-4.7850470542907715,-7.105486869812012,8.281558990478516
1763693281296966700,7.988966552734375,-4.794618606567383,-7.478767395019531,8.506484031677246
1763693281306987800,7.99898779296875,-4.741976261138916,-7.751548767089844,8.81814956665039
1763693281316994300,8.008994384765625,-4.593621253967285,-8.01057243347168,9.2919282913208
1763693281326985200,8.018985107421875,-4.382454872131348,-8.283353805541992,9.842875480651855
1763693281336990200,8.028990234375,-4.100101470947266,-8.469993591308594,10.378868103027344
1763693281347003400,8.03900341796875,-3.6981074810028076,-8.393424034118652,10.829317092895508
1763693281357009400,8.049009521484376,-3.2380871772766113,-8.020143508911133,11.135598182678223
1763693281367018000,8.05901806640625,-2.6111676692962646,-7.359126091003418,11.264810562133789
1763693281377024000,8.06902392578125,-2.021935224533081,-6.578467845916748,11.283953666687012
1763693281387016200,8.07901611328125,-1.5864413976669312,-5.879763603210449,11.274381637573242
1763693281397020700,8.089020751953125,-1.3615161180496216,-5.505885124206543,11.365309715270996
1763693281407025000,8.09902490234375,-1.4141582250595093,-5.491528034210205,11.537592887878418
1763693281417029600,8.109029541015625,-1.5625132322311401,-5.654240131378174,11.681161880493164
1763693281427036000,8.119035888671876,-1.6917256116867065,-5.760122299194336,11.729616165161133
1763693281437040600,8.12904052734375,-1.7539390325546265,-5.697310924530029,11.571091651916504
1763693281447026400,8.1390263671875,-1.710868239402771,-5.429314613342285,11.307881355285645
1763693281457029400,8.149029296875,-1.667797327041626,-5.1182475090026855,11.054242134094238
1763693281467057200,8.15905712890625,-1.7060825824737549,-4.859822750091553,10.867602348327637
1763693281477062400,8.1690625,-1.820937991142273,-4.648656368255615,10.680961608886719
1763693281487067000,8.17906689453125,-1.9692929983139038,-4.447659015655518,10.417153358459473
1763693281497072000,8.189072021484375,-2.108076810836792,-4.155734539031982,10.01994514465332
1763693281507076900,8.199076904296875,-2.1415762901306152,-3.8111681938171387,9.56471061706543
1763693281517082000,8.20908203125,-2.1511476039886475,-3.48993182182312,9.023932456970215
1763693281527086000,8.219086181640625,-2.108076810836792,-3.1932218074798584,8.449056625366211
1763693281537091000,8.229091064453126,-2.0410776138305664,-2.93001127243042,7.975277900695801
1763693281547109000,8.239109130859376,-1.97407865524292,-2.748156785964966,7.549355506896973
1763693281557115400,8.249115478515625,-1.887937068939209,-2.5944180488586426,7.242475986480713
1763693281567105000,8.25910498046875,-1.8544375896453857,-2.4604198932647705,6.99840784072876
1763693281577109500,8.269109619140625,-1.7635103464126587,-2.3599212169647217,6.816553592681885
1763693281587124200,8.279124267578124,-1.6821542978286743,-2.283350944519043,6.658627033233643
1763693281597130000,8.2891298828125,-1.5912270545959473,-2.211566209793091,6.572485446929932
1763693281607130600,8.299130615234375,-1.423729419708252,-2.0919251441955566,6.582056999206543
1763693281617135900,8.309135986328124,-1.3184453248977661,-1.9866410493850708,6.620342254638672
1763693281627140400,8.319140380859375,-1.2077772617340088,-1.9866410493850708,6.692126750946045
1763693281637145300,8.329145263671874,-1.1072787046432495,-2.0057835578918457,6.893123626708984
1763693281647134200,8.33913427734375,-1.0402796268463135,-2.0201404094696045,7.1611199378967285
1763693281657137400,8.349137451171876,-1.0402796268463135,-2.1589243412017822,7.505686283111572
1763693281667139000,8.35913916015625,-1.059422254562378,-2.2785654067993164,7.893921852111816
1763693281677142300,8.369142333984374,-1.0977073907852173,-2.383849620819092,8.295916557312012
1763693281687147800,8.379147705078125,-1.217348575592041,-2.431705951690674,8.688937187194824
1763693281697151200,8.389151123046876,-1.2891331911087036,-2.536990165710449,9.08135986328125
1763693281707153200,8.399153076171874,-1.3615161180496216,-2.6524438858032227,9.459425926208496
1763693281717156600,8.409156494140625,-1.466800332069397,-2.6811578273773193,9.78544807434082
1763693281727161600,8.41916162109375,-1.5337992906570435,-2.685943365097046,10.0343017578125
1763693281737165000,8.4291650390625,-1.557727575302124,-2.662015199661255,10.206584930419922
1763693281747182300,8.439182373046876,-1.5050854682922363,-2.6524438858032227,10.364511489868164
1763693281757187000,8.44918701171875,-1.404586911201477,-2.7146573066711426,10.436295509338379
1763693281767184400,8.459184326171876,-1.3471591472625732,-2.853440999984741,10.61815071105957
1763693281777188600,8.469188720703125,-1.2939188480377197,-3.0927233695983887,10.972886085510254
1763693281787202800,8.479202880859376,-1.2939188480377197,-3.3272199630737305,11.379666328430176
1763693281797207800,8.489207763671875,-1.3710874319076538,-3.5856447219848633,11.834900856018066
1763693281807228400,8.499228515625,-1.4859428405761719,-3.830310821533203,12.222537994384766
1763693281817235200,8.509235107421874,-1.6534404754638672,-4.0456647872924805,12.571889877319336
1763693281827239200,8.5192392578125,-1.8065811395645142,-4.155734539031982,12.67717456817627
1763693281837245700,8.52924560546875,-1.8831514120101929,-4.17009162902832,12.69153118133545
1763693281847248000,8.539247802734375,-1.97407865524292,-4.136591911315918,12.643674850463867
1763693281857254000,8.54925390625,-2.132004976272583,-4.275375843048096,12.614960670471191
1763693281867255300,8.55925537109375,-2.510669231414795,-4.701896667480469,12.725030899047852
1763693281877260800,8.5692607421875,-2.8839495182037354,-5.218746185302734,12.787842750549316
1763693281887266000,8.57926611328125,-3.1854450702667236,-5.525027275085449,12.75912857055664
1763693281897271600,8.589271484375,-3.3098719120025635,-5.501099109649658,12.52881908416748
1763693281907276500,8.599276611328126,-3.2380871772766113,-5.429314613342285,12.270394325256348
1763693281917282000,8.609281982421875,-3.108874797821045,-5.615954875946045,12.184252738952637
1763693281927284700,8.61928466796875,-3.0370900630950928,-5.98026180267334,12.212966918945312
1763693281937289700,8.629289794921876,-2.8217360973358154,-6.320042610168457,12.332608222961426
1763693281947300600,8.639300537109374,-2.462812662124634,-6.410970211029053,12.346964836120605
1763693281957306000,8.64930615234375,-1.9692929983139038,-6.3631134033203125,12.323036193847656
1763693281967304000,8.659303955078125,-1.3232308626174927,-6.0472612380981445,12.131610870361328
1763693281977309000,8.669308837890625,-0.6574280261993408,-5.587240695953369,11.944971084594727
1763693281987326700,8.67932666015625,-0.17347964644432068,-5.209175109863281,11.710474014282227
1763693281997332700,8.689332763671874,0.17587246000766754,-5.07517671585083,11.494522094726562
1763693282007327200,8.6993271484375,0.3577269911766052,-5.166104316711426,11.317452430725098
1763693282017332200,8.709332275390626,0.3002992272377014,-5.4867424964904785,11.130812644958496
1763693282027341800,8.719341796875,0.11844471842050552,-5.922834396362305,10.944172859191895
1763693282037347300,8.729347412109375,-0.06819544732570648,-6.329614162445068,10.671390533447266
1763693282047356200,8.739356201171875,-0.18305093050003052,-6.602396011352539,10.340582847595215
1763693282057362200,8.749362060546876,-0.2841476798057556,-6.7555365562438965,10.029516220092773
1763693282067359000,8.75935888671875,-0.4468596279621124,-6.8279194831848145,9.804591178894043
1763693282077363700,8.76936376953125,-0.6287141442298889,-6.861418724060059,9.569496154785156
1763693282087346200,8.77934619140625,-0.8057830333709717,-6.837490558624268,9.368498802185059
1763693282097348900,8.789348876953126,-0.997208833694458,-6.7316083908081055,9.143573760986328
1763693282107381000,8.799381103515625,-1.2077772617340088,-6.525825500488281,8.947361946105957
1763693282117386500,8.809386474609376,-1.3902299404144287,-6.276971817016602,8.712865829467773
1763693282127385000,8.819385009765625,-1.4811571836471558,-6.037689685821533,8.516056060791016
1763693282137389800,8.829389892578124,-1.5864413976669312,-5.803193092346191,8.267202377319336
1763693282147401700,8.839401611328125,-1.667797327041626,-5.61116886138916,7.984848976135254
1763693282157407200,8.8494072265625,-1.6534404754638672,-5.343173027038574,7.6737823486328125
1763693282167411000,8.859410888671874,-1.5433706045150757,-5.017749309539795,7.366902828216553
1763693282177416400,8.86941650390625,-1.3902299404144287,-4.768895626068115,7.151548862457275
1763693282187407400,8.879407470703125,-1.3471591472625732,-4.596014022827148,7.0462646484375
1763693282197411300,8.889411376953126,-1.3280165195465088,-4.471587181091309,7.0031938552856445
1763693282207431200,8.89943115234375,-1.3567304611206055,-4.3758745193481445,6.988836765289307
1763693282217436700,8.909436767578125,-1.308275818824768,-4.299304008483887,6.993622303009033
1763693282227443500,8.919443359375,-1.3567304611206055,-4.194019794464111,6.917052268981934
1763693282237449200,8.92944921875,-1.3663017749786377,-4.0935211181640625,6.763911247253418
1763693282247454700,8.939454833984374,-1.308275818824768,-4.002593994140625,6.596413612365723
1763693282257460500,8.94946044921875,-1.2843475341796875,-3.940380573272705,6.433103561401367
1763693282267442000,8.95944189453125,-1.1934202909469604,-3.9260237216949463,6.284748554229736
1763693282277444900,8.96944482421875,-1.0929217338562012,-3.8733816146850586,6.150750637054443
1763693282287455200,8.979455322265625,-1.0163514614105225,-3.9260237216949463,6.07896614074707
1763693282297459000,8.989458984375,-0.9780662655830383,-3.9978084564208984,5.997610092163086
1763693282307478800,8.999478759765625,-0.9254241585731506,-4.040879249572754,5.944967746734619
1763693282317484300,9.009484375,-0.9302098155021667,-4.055236339569092,5.882754325866699
1763693282327487500,9.019487548828126,-0.9828519225120544,-4.122235298156738,5.815755367279053
1763693282337492700,9.02949267578125,-1.1359925270080566,-4.237090587615967,5.830112457275391
1763693282347502300,9.03950244140625,-1.3615161180496216,-4.3519463539123535,5.748756408691406
1763693282357508000,9.049508056640626,-1.495514154434204,-4.3998026847839355,5.662614822387695
1763693282367511300,9.05951123046875,-1.6103696823120117,-4.323232173919678,5.566901683807373
1763693282377516800,9.069516845703125,-1.672582983970642,-4.261018753051758,5.480760097503662
1763693282387500500,9.07950048828125,-1.7826528549194336,-4.251447677612305,5.528616905212402
1763693282397503700,9.089503662109376,-1.911865234375,-4.337589263916016,5.595615863800049
1763693282407532500,9.099532470703124,-2.021935224533081,-4.442873477935791,5.74397087097168
1763693282417538300,9.109538330078125,-2.1272194385528564,-4.538586139678955,5.925825119018555
1763693282427543300,9.119543212890624,-2.194218397140503,-4.672584533691406,6.189035892486572
1763693282437549000,9.129549072265625,-2.2372891902923584,-4.783252239227295,6.5389862060546875
1763693282447557400,9.139557373046875,-2.2707886695861816,-4.864608287811279,6.912266254425049
1763693282457563400,9.1495634765625,-2.2085752487182617,-4.883750915527344,7.400402069091797
1763693282467559200,9.15955908203125,-2.1750757694244385,-4.8502516746521,7.984848976135254
1763693282477564200,9.169564208984376,-2.1272194385528564,-4.783252239227295,8.598010063171387
1763693282487576800,9.179576904296875,-2.304288148880005,-4.878965377807617,9.253643035888672
1763693282497582600,9.18958251953125,-2.826521635055542,-5.19960355758667,9.991230964660645
1763693282507580700,9.19958056640625,-3.3966116905212402,-5.525027275085449,10.465009689331055
1763693282517585400,9.20958544921875,-3.7986059188842773,-5.615954875946045,10.603793144226074
1763693282527595300,9.21959521484375,-3.985246181488037,-5.515456199645996,10.527223587036133
1763693282537600800,9.229600830078125,-4.109673023223877,-5.395814895629883,10.498509407043457
1763693282547608800,9.23960888671875,-4.2723846435546875,-5.467599868774414,10.541580200195312
1763693282557614300,9.2496142578125,-4.415954113006592,-5.654240131378174,10.704890251159668
1763693282567611600,9.259611572265625,-4.348955154418945,-5.745765209197998,10.867602348327637
1763693282577616400,9.269616455078125,-4.004388809204102,-5.678168296813965,10.972886085510254
1763693282587627000,9.279626953125,-3.511467218399048,-5.434100151062012,11.039885520935059
1763693282597632300,9.28963232421875,-2.8600213527679443,-5.036891460418701,11.025528907775879
1763693282607631600,9.299631591796874,-2.1846470832824707,-4.576871395111084,10.996814727783203
1763693282617636400,9.30963623046875,-1.5242279767990112,-4.131806373596191,10.972886085510254
1763693282627639000,9.31963916015625,-1.0689935684204102,-3.8733816146850586,11.082956314086914
1763693282637643500,9.3296435546875,-0.8632107973098755,-3.8973097801208496,11.298310279846191
1763693282647649800,9.33964990234375,-0.8727820515632629,-4.208376884460449,11.489736557006836
1763693282657654500,9.349654541015624,-0.906281590461731,-4.48115873336792,11.604591369628906
1763693282667662300,9.359662353515626,-0.9254241585731506,-4.591228485107422,11.551949501037598
1763693282677667300,9.369667236328125,-0.8201399445533752,-4.538586139678955,11.432308197021484
1763693282687683600,9.37968359375,-0.7244270443916321,-4.4189453125,11.255239486694336
1763693282697689600,9.389689697265625,-0.6861419081687927,-4.308875560760498,11.154741287231445
1763693282707678000,9.399677978515625,-0.7435696125030518,-4.299304008483887,11.059027671813965
1763693282717682200,9.40968212890625,-0.9349954724311829,-4.289732933044434,10.86281681060791
1763693282727687400,9.4196875,-1.1168500185012817,-4.241876125335693,10.565508842468262
1763693282737691600,9.429691650390625,-1.2939188480377197,-4.174877166748047,10.187442779541016
1763693282747697000,9.43969677734375,-1.4476577043533325,-4.122235298156738,9.689735412597656
1763693282757701400,9.449701416015625,-1.5098711252212524,-3.930809497833252,9.110074043273926
1763693282767708000,9.4597080078125,-1.5002998113632202,-3.7058839797973633,8.559126853942871
1763693282777712400,9.46971240234375,-1.4380863904953003,-3.4995031356811523,8.056633949279785
1763693282787717600,9.479717529296876,-1.3710874319076538,-3.3032915592193604,7.6977105140686035
1763693282797722400,9.489722412109375,-1.3423734903335571,-3.1310083866119385,7.453044414520264
1763693282807709000,9.499708984375,-1.2604193687438965,-2.977867841720581,7.299903869628906
1763693282817711900,9.5097119140625,-1.212562918663025,-2.882154941558838,7.175477027893066
1763693282827720200,9.51972021484375,-1.1455638408660889,-2.8007988929748535,7.084549427032471
1763693282837723400,9.529723388671876,-1.0977073907852173,-2.6811578273773193,7.036693096160889
1763693282847727400,9.539727294921875,-1.0259226560592651,-2.5704896450042725,6.940980434417725
1763693282857730800,9.549730712890625,-0.9828519225120544,-2.4269204139709473,6.854838848114014
1763693282867740000,9.559739990234375,-0.9349954724311829,-2.3359930515289307,6.864409923553467
1763693282877743900,9.569743896484376,-0.96370929479599,-2.316850423812866,6.93619441986084
1763693282887756300,9.57975634765625,-0.9589236974716187,-2.316850423812866,7.094120979309082
1763693282897761000,9.589760986328125,-0.9493523836135864,-2.3503501415252686,7.280761241912842
1763693282907763500,9.599763427734375,-0.997208833694458,-2.355135679244995,7.462615489959717
1763693282917768000,9.609767822265624,-0.997208833694458,-2.3647069931030273,7.692924976348877
1763693282927778300,9.6197783203125,-1.0689935684204102,-2.369492530822754,7.946564197540283
1763693282937783300,9.629783203125,-1.236491084098816,-2.4125633239746094,8.248059272766113
1763693282947803000,9.639802978515625,-1.3902299404144287,-2.4747767448425293,8.554341316223145
1763693282957809400,9.649809326171875,-1.4333007335662842,-2.527418851852417,8.85643482208252
1763693282967813600,9.659813720703125,-1.4476577043533325,-2.536990165710449,9.071788787841797
1763693282977820000,9.66981982421875,-1.428515076637268,-2.575275421142578,9.239286422729492
1763693282987830500,9.67983056640625,-1.332802176475525,-2.6189444065093994,9.382855415344238
1763693282997837300,9.68983740234375,-1.2460623979568481,-2.6763720512390137,9.56471061706543
1763693283007829200,9.699829345703124,-1.2556337118148804,-2.8151557445526123,9.862018585205078
1763693283017834500,9.70983447265625,-1.2747762203216553,-2.963510751724243,10.254441261291504
1763693283027844400,9.71984423828125,-1.2939188480377197,-3.126222848892212,10.690533638000488
1763693283037850000,9.72985009765625,-1.3280165195465088,-3.284149169921875,11.169097900390625
1763693283047828500,9.739828369140625,-1.3902299404144287,-3.456432342529297,11.666805267333984
1763693283057831400,9.74983154296875,-1.4763715267181396,-3.6675989627838135,12.131610870361328
1763693283067861500,9.759861572265624,-1.5385849475860596,-3.806382656097412,12.504891395568848
1763693283077867300,9.7698671875,-1.5481562614440918,-3.7633118629455566,12.734601974487305
1763693283087878700,9.779878662109375,-1.5672988891601562,-3.648456335067749,12.878769874572754
1763693283097884700,9.789884765625,-1.7491533756256104,-3.7250266075134277,13.04626750946045
1763693283107881700,9.7998818359375,-2.0985054969787598,-4.131806373596191,13.204193115234375
1763693283117887200,9.80988720703125,-2.4771697521209717,-4.648656368255615,13.242478370666504
1763693283127887600,9.8198876953125,-2.7212376594543457,-4.8502516746521,13.094123840332031
1763693283137892400,9.829892333984375,-2.7930221557617188,-4.816751956939697,12.802199363708496
1763693283147913500,9.83991357421875,-2.730808734893799,-4.768895626068115,12.610175132751465
1763693283157919700,9.849919677734375,-2.71645188331604,-4.960321426391602,12.619746208190918
1763693283167916000,9.859916015625,-2.71645188331604,-5.295316696166992,12.754343032836914
1763693283177921500,9.869921630859375,-2.5872395038604736,-5.515456199645996,12.902697563171387
1763693283187927000,9.879927001953124,-2.2947168350219727,-5.587240695953369,12.993624687194824
1763693283197932300,9.889932373046875,-1.887937068939209,-5.467599868774414,12.945768356323242
1763693283207931400,9.899931396484375,-1.3950155973434448,-5.194818019866943,12.768699645996094
1763693283217936100,9.90993603515625,-0.8823533654212952,-4.797609329223633,12.485748291015625
1763693283227939600,9.919939697265624,-0.48035913705825806,-4.428516387939453,12.136396408081055
1763693283237944300,9.9299443359375,-0.28893333673477173,-4.227519512176514,11.767901420593262
1763693283247957200,9.939957275390626,-0.21176479756832123,-4.270590305328369,11.389237403869629
1763693283257962800,9.949962646484375,-0.32243284583091736,-4.404588222503662,10.996814727783203
1763693283267963400,9.95996337890625,-0.5138586759567261,-4.663012981414795,10.551151275634766
1763693283277968400,9.969968505859375,-0.7052844762802124,-4.902893543243408,10.082158088684082
1763693283287980000,9.97997998046875,-0.8201399445533752,-5.065605640411377,9.598209381103516
1763693283297985500,9.989985595703125,-0.8488538265228271,-5.19960355758667,9.162715911865234
1763693283307985000,9.99998486328125,-0.8488538265228271,-5.276174068450928,8.803792953491211
1763693283317990000,10.009989990234375,-0.9110672473907471,-5.32403039932251,8.62193775177002
1763693283327990000,10.019989990234375,-1.059422254562378,-5.410171985626221,8.544769287109375
1763693283337994500,10.029994384765626,-1.1982059478759766,-5.434100151062012,8.439485549926758
1763693283348012300,10.04001220703125,-1.179063320159912,-5.285745143890381,8.257631301879883
1763693283358018000,10.05001806640625,-1.1312068700790405,-5.123033046722412,8.066205024719238
1763693283368010500,10.060010498046875,-1.1264212131500244,-4.955535888671875,7.893921852111816
1763693283378015000,10.070014892578126,-1.1455638408660889,-4.78803825378418,7.70249605178833
1763693283388025600,10.080025634765626,-1.1359925270080566,-4.600799560546875,7.515257835388184
1763693283398030600,10.090030517578125,-1.0689935684204102,-4.4189453125,7.323832035064697
1763693283408035600,10.10003564453125,-1.0307083129882812,-4.227519512176514,7.156334400177002
1763693283418040800,10.110040771484375,-1.0259226560592651,-4.0456647872924805,7.036693096160889
1763693283428039400,10.120039306640624,-1.0785647630691528,-3.9738802909851074,6.993622303009033
1763693283438044000,10.1300439453125,-1.1886346340179443,-3.9834516048431396,7.0462646484375
1763693283448054800,10.1400546875,-1.2460623979568481,-3.9595232009887695,7.079763889312744
1763693283458060000,10.15006005859375,-1.2843475341796875,-3.916452407836914,7.103692054748535
1763693283468063500,10.1600634765625,-1.217348575592041,-3.8111681938171387,7.06062126159668
1763693283478068500,10.170068359375,-1.1312068700790405,-3.7298123836517334,7.070192813873291
1763693283488078800,10.180078857421876,-1.0929217338562012,-3.744169235229492,7.074978351593018
1763693283498084400,10.19008447265625,-1.0785647630691528,-3.835096597671509,7.1228346824646
1763693283508082200,10.200082275390624,-1.0307083129882812,-3.8733816146850586,7.1611199378967285
1763693283518087000,10.2100869140625,-1.0067801475524902,-3.8590247631073,7.189833641052246
1763693283528093000,10.220093017578124,-0.997208833694458,-3.868596076965332,7.275975227355957
1763693283538097700,10.23009765625,-1.0929217338562012,-3.964308977127075,7.299903869628906
1763693283548124700,10.240124755859375,-1.2269197702407837,-4.016951084136963,7.304689407348633
1763693283558131700,10.250131591796874,-1.3280165195465088,-3.978665828704834,7.228118896484375
1763693283568119600,10.26011962890625,-1.4524433612823486,-3.9499518871307373,7.156334400177002
1763693283578124500,10.27012451171875,-1.6151553392410278,-4.007379531860352,7.051050186157227
1763693283588131000,10.280131103515625,-1.8065811395645142,-4.050450325012207,6.979265213012695
1763693283598136300,10.29013623046875,-1.9405791759490967,-4.088735580444336,6.917052268981934
1763693283608137500,10.300137451171874,-2.069791555404663,-4.184448719024658,6.897909641265869
1763693283618142200,10.31014208984375,-2.1750757694244385,-4.275375843048096,6.845267295837402
1763693283628141800,10.320141845703125,-2.2707886695861816,-4.361517429351807,6.816553592681885
1763693283638146000,10.33014599609375,-2.3186452388763428,-4.447659015655518,6.768697261810303
1763693283648160800,10.340160888671875,-2.328216314315796,-4.552943229675293,6.763911247253418
1763693283658166000,10.350166015625,-2.337787628173828,-4.634299278259277,6.787839412689209
1763693283668169200,10.360169189453124,-2.362314224243164,-4.663012981414795,6.869195461273193
1763693283678174200,10.37017431640625,-2.3186452388763428,-4.701896667480469,7.103692054748535
1763693283688180000,10.380179931640624,-2.386242389678955,-4.821537494659424,7.362117290496826
1763693283698185000,10.39018505859375,-2.472383975982666,-4.979464054107666,7.664210796356201
1763693283708184600,10.4001845703125,-2.558525562286377,-5.170889854431152,8.003992080688477
1763693283718189000,10.41018896484375,-2.692523717880249,-5.434100151062012,8.353343963623047
1763693283728190500,10.4201904296875,-2.9557342529296875,-5.860620975494385,8.70807933807373
1763693283738194700,10.430194580078124,-3.070589542388916,-6.281757831573486,9.043074607849121
1763693283748217300,10.44021728515625,-3.1519455909729004,-6.535397052764893,9.234500885009766
1763693283758223400,10.450223388671875,-3.070589542388916,-6.578467845916748,9.33021354675293
1763693283768215000,10.460215087890624,-2.984447956085205,-6.592824459075928,9.464211463928223
1763693283778219800,10.4702197265625,-3.0418758392333984,-6.693323135375977,9.66102123260498
1763693283788224000,10.48022412109375,-3.0514471530914307,-6.823133945465088,9.847661972045898
1763693283798228700,10.490228759765625,-2.974876642227173,-6.842276573181152,9.972088813781738
1763693283808237300,10.5002373046875,-2.788236618041992,-6.7076802253723145,10.053443908691406
1763693283818242300,10.5102421875,-2.5393829345703125,-6.473183631896973,10.05823040008545
1763693283828246000,10.52024609375,-2.242074728012085,-6.123831272125244,10.000802040100098
1763693283838250800,10.530250732421875,-1.825723648071289,-5.5968122482299805,9.847661972045898
1763693283848256300,10.54025634765625,-1.3423734903335571,-4.864608287811279,9.656235694885254
1763693283858261200,10.55026123046875,-0.8919246196746826,-4.155734539031982,9.54078197479248
1763693283868262000,10.560261962890625,-0.633499801158905,-3.7298123836517334,9.680164337158203
1763693283878266000,10.57026611328125,-0.5234299302101135,-3.542573928833008,9.952945709228516
1763693283888279800,10.58027978515625,-0.5330012440681458,-3.61435866355896,10.321440696716309
1763693283898285000,10.59028515625,-0.6765705943107605,-3.7633118629455566,10.627721786499023
1763693283908299000,10.600299072265624,-0.786640465259552,-3.844667673110962,10.819746017456055
1763693283918305000,10.610304931640625,-0.9158528447151184,-3.8494534492492676,10.843673706054688
1763693283928294700,10.620294677734375,-1.059422254562378,-3.8255252838134766,10.7766752243042
1763693283938299100,10.630299072265625,-1.2556337118148804,-3.844667673110962,10.695319175720215
1763693283948320000,10.640320068359374,-1.4859428405761719,-3.9690945148468018,10.603793144226074
1763693283958326300,10.650326171875,-1.7204394340515137,-4.002593994140625,10.465009689331055
1763693283968330000,10.660330078125,-1.950150489807129,-4.016951084136963,10.240084648132324
1763693283978336000,10.6703359375,-2.0793628692626953,-4.002593994140625,9.986445426940918
1763693283988309500,10.6803095703125,-2.1750757694244385,-3.906881093978882,9.69930648803711
1763693283998312000,10.69031201171875,-2.194218397140503,-3.768097400665283,9.354142189025879
1763693284008319500,10.700319580078125,-2.155933141708374,-3.638286828994751,8.937790870666504
1763693284018322700,10.71032275390625,-2.0554347038269043,-3.456432342529297,8.539983749389648
1763693284028328000,10.720327880859376,-1.9405791759490967,-3.2554352283477783,8.133204460144043
1763693284038331400,10.730331298828125,-1.8400806188583374,-3.1214370727539062,7.860422611236572
1763693284048369200,10.740369140625,-1.7060825824737549,-3.049652576446533,7.597211837768555
1763693284058376200,10.750376220703124,-1.6007983684539795,-2.99222469329834,7.472187042236328
1763693284068345900,10.760345947265625,-1.5194423198699951,-2.9252257347106934,7.352545738220215
1763693284078349000,10.77034912109375,-1.4524433612823486,-2.8342983722686768,7.199405193328857
1763693284088381400,10.78038134765625,-1.3615161180496216,-2.7768707275390625,7.084549427032471
1763693284098387500,10.790387451171876,-1.2556337118148804,-2.724228620529175,6.945765972137451
1763693284108388900,10.800388916015624,-1.217348575592041,-2.709871530532837,6.850052833557129
1763693284118394400,10.810394287109375,-1.1599208116531372,-2.7529425621032715,6.773482799530029
1763693284128400600,10.820400634765624,-1.1647064685821533,-2.7672994136810303,6.739983081817627
1763693284138406400,10.830406494140625,-1.1886346340179443,-2.8151557445526123,6.787839412689209
1763693284148414000,10.8404140625,-1.1599208116531372,-2.8869404792785645,6.926623344421387
1763693284158419700,10.850419677734376,-1.2317054271697998,-2.915654420852661,7.118049144744873
1763693284168423000,10.8604228515625,-1.3519448041915894,-2.9587252140045166,7.366902828216553
1763693284178428400,10.870428466796875,-1.4620146751403809,-3.025724172592163,7.70249605178833
1763693284188431400,10.880431396484376,-1.6247265338897705,-3.087937593460083,8.032705307006836
1763693284198436600,10.8904365234375,-1.7682958841323853,-3.1214370727539062,8.324629783630371
1763693284208439800,10.900439697265625,-1.8544375896453857,-3.1310083866119385,8.598010063171387
1763693284218444800,10.91044482421875,-1.9836499691009521,-3.111865758895874,8.83250617980957
1763693284228446500,10.920446533203124,-2.122433662414551,-3.1932218074798584,9.100502967834473
1763693284238451000,10.930450927734375,-2.289931297302246,-3.355933666229248,9.397212982177734
1763693284248454400,10.940454345703126,-2.4771697521209717,-3.5377883911132812,9.675378799438477
1763693284258459100,10.950459228515625,-2.659024238586426,-3.73459792137146,10.024730682373047
1763693284268466400,10.960466552734376,-2.7738797664642334,-3.988237142562866,10.460224151611328
1763693284278471200,10.97047119140625,-2.8935208320617676,-4.237090587615967,10.953743934631348
1763693284288481500,10.9804814453125,-3.046661376953125,-4.447659015655518,11.427522659301758
1763693284298487000,10.990487060546876,-3.1854450702667236,-4.596014022827148,11.858829498291016
1763693284308492000,11.000491943359375,-3.2859437465667725,-4.5816569328308105,12.136396408081055
1763693284318497500,11.01049755859375,-3.362514019012451,-4.48115873336792,12.241681098937988
1763693284328495900,11.020495849609375,-3.434896945953369,-4.4955153465271,12.351750373840332
1763693284338500600,11.03050048828125,-3.655036687850952,-4.773681163787842,12.5144624710083
1763693284348518400,11.040518310546876,-3.9038901329040527,-5.218746185302734,12.581461906433105
1763693284358524400,11.0505244140625,-4.080958843231201,-5.5106706619262695,12.495320320129395
1763693284368528100,11.060528076171876,-4.0426740646362305,-5.635097503662109,12.294322967529297
1763693284378534000,11.070533935546875,-3.865604877471924,-5.706881999969482,12.088540077209473
1763693284388531500,11.080531494140626,-3.678964853286743,-5.884549140930176,12.011969566345215
1763693284398536200,11.0905361328125,-3.4301111698150635,-6.0711894035339355,12.045469284057617
1763693284408541000,11.100541015625,-3.118446111679077,-6.142973899841309,12.145967483520508
1763693284418545700,11.110545654296875,-2.6877379417419434,-6.080760478973389,12.241681098937988
1763693284428545000,11.120544921875,-2.132004976272583,-5.836692810058594,12.299108505249023
1763693284438549200,11.13054931640625,-1.5194423198699951,-5.434100151062012,12.275179862976074
1763693284448559600,11.1405595703125,-1.0498509407043457,-4.960321426391602,12.150753021240234
1763693284458564600,11.150564697265626,-0.6957131624221802,-4.548157691955566,11.882757186889648
1763693284468571100,11.160571044921875,-0.4372883439064026,-4.275375843048096,11.575878143310547
1763693284478576400,11.170576416015624,-0.47557350993156433,-4.275375843048096,11.221739768981934
1763693284488584000,11.180583984375,-0.7148557901382446,-4.54337215423584,10.848459243774414
1763693284498589400,11.19058935546875,-1.0019944906234741,-4.88853645324707,10.474580764770508
1763693284508594400,11.200594482421875,-1.2652050256729126,-5.233103275299072,10.106086730957031
1763693284518599700,11.210599609375,-1.428515076637268,-5.501099109649658,9.747162818908691
1763693284528600800,11.220600830078125,-1.5002998113632202,-5.6590256690979,9.435498237609863
1763693284538605600,11.23060546875,-1.4811571836471558,-5.769693374633789,9.248857498168945
1763693284548618500,11.240618408203124,-1.4380863904953003,-5.894120216369629,9.196215629577637
1763693284558624300,11.250624267578125,-1.3567304611206055,-5.999404430389404,9.296713829040527
1763693284568622000,11.2606220703125,-1.179063320159912,-6.013761520385742,9.421140670776367
1763693284578626800,11.270626708984375,-1.0307083129882812,-5.961119174957275,9.46899700164795
1763693284588610800,11.28061083984375,-0.8297112584114075,-5.836692810058594,9.401998519897461
1763693284598613500,11.290613525390626,-0.6574280261993408,-5.6685967445373535,9.354142189025879
1763693284608643600,11.3006435546875,-0.542572557926178,-5.5345988273620605,9.253643035888672
1763693284618649000,11.310649169921875,-0.4995017349720001,-5.352744102478027,9.071788787841797
1763693284628660000,11.320659912109376,-0.4995017349720001,-5.108676433563232,8.784649848937988
1763693284638666000,11.330666015625,-0.542572557926178,-4.898108005523682,8.405985832214355
1763693284648661500,11.34066162109375,-0.6287141442298889,-4.735395908355713,8.061419486999512
1763693284658666500,11.35066650390625,-0.753140926361084,-4.66779899597168,7.798209190368652
1763693284668674300,11.36067431640625,-0.8823533654212952,-4.658227443695068,7.597211837768555
1763693284678679600,11.370679443359375,-0.96370929479599,-4.591228485107422,7.45782995223999
1763693284688662000,11.380662109375,-0.9876375198364258,-4.538586139678955,7.328617572784424
1763693284698664700,11.390664794921875,-1.0019944906234741,-4.514657974243164,7.2711896896362305
1763693284708694300,11.4006943359375,-0.9828519225120544,-4.5098724365234375,7.237690448760986
1763693284718700000,11.410699951171875,-1.0067801475524902,-4.4859442710876465,7.189833641052246
1763693284728703200,11.420703125,-1.0307083129882812,-4.452444553375244,7.1228346824646
1763693284738708500,11.43070849609375,-1.1072787046432495,-4.457230567932129,7.055835723876953
1763693284748710000,11.4407099609375,-1.179063320159912,-4.442873477935791,6.93619441986084
1763693284758715000,11.45071484375,-1.308275818824768,-4.500301361083984,6.845267295837402
1763693284768719600,11.4607197265625,-1.4380863904953003,-4.514657974243164,6.730412006378174
1763693284778724600,11.470724609375,-1.5481562614440918,-4.524229526519775,6.615556240081787
1763693284788740400,11.480740234375,-1.7012969255447388,-4.548157691955566,6.519843578338623
1763693284798746400,11.490746337890625,-1.8496519327163696,-4.629513740539551,6.399604320526123
1763693284808739300,11.5007392578125,-1.9597218036651611,-4.648656368255615,6.246463298797607
1763693284818744000,11.510744140625,-2.0267207622528076,-4.634299278259277,6.0741801261901855
1763693284828767000,11.52076708984375,-2.021935224533081,-4.572085857391357,5.887540340423584
1763693284838773200,11.530773193359375,-2.03629207611084,-4.500301361083984,5.796612739562988
1763693284848762600,11.5407626953125,-2.0506489276885986,-4.4859442710876465,5.729613780975342
1763693284858767400,11.550767333984375,-2.117648124694824,-4.572085857391357,5.74397087097168
1763693284868782000,11.560781982421876,-2.1894326210021973,-4.706682205200195,5.791827201843262
1763693284878787800,11.570787841796875,-2.194218397140503,-4.802394866943359,5.8683977127075195
1763693284888792600,11.58079248046875,-2.170290231704712,-4.926821708679199,5.992824077606201
1763693284898798300,11.59079833984375,-2.1990039348602295,-5.051248550415039,6.165107727050781
1763693284908789000,11.6007890625,-2.2707886695861816,-5.223531723022461,6.356533527374268
1763693284918793000,11.61079296875,-2.4293131828308105,-5.367101192474365,6.6107707023620605
1763693284928787000,11.620786865234376,-2.65423846244812,-5.505885124206543,6.8309102058410645
1763693284938790000,11.630789794921874,-2.788236618041992,-5.750551223754883,7.165905475616455
1763693284948788000,11.6407880859375,-2.9030921459198,-5.851049423217773,7.438687324523926
1763693284958790700,11.650790771484376,-2.984447956085205,-5.827121257781982,7.664210796356201
1763693284968822000,11.660822021484375,-3.1280174255371094,-5.731408596038818,7.936992645263672
1763693284978827500,11.67082763671875,-3.52103853225708,-5.682953834533691,8.295916557312012
1763693284988844500,11.680844482421875,-4.061816215515137,-5.831906795501709,8.636295318603516
1763693284998851000,11.69085107421875,-4.382454872131348,-6.119045734405518,8.98086166381836
1763693285008840200,11.700840087890626,-4.598406791687012,-6.406184196472168,9.220144271850586
1763693285018845200,11.71084521484375,-4.61276388168335,-6.535397052764893,9.306285858154297
1763693285028834600,11.72083447265625,-4.24367094039917,-6.401398658752441,9.220144271850586
1763693285038837800,11.730837646484375,-3.544966697692871,-5.913262844085693,9.1052885055542
1763693285048865800,11.74086572265625,-2.788236618041992,-5.300102233886719,8.995218276977539
1763693285058871800,11.750871826171876,-2.1367905139923096,-4.902893543243408,9.124430656433105
1763693285068879000,11.760879150390625,-1.6582261323928833,-4.730610370635986,9.411569595336914
1763693285078885000,11.770885009765625,-1.3615161180496216,-4.855037212371826,9.89551830291748
1763693285088873700,11.780873779296876,-1.179063320159912,-5.084748268127441,10.517651557922363
1763693285098878000,11.7908779296875,-1.0929217338562012,-5.314459323883057,11.12602710723877
1763693285108870700,11.80087060546875,-1.0067801475524902,-5.419743061065674,11.595020294189453
1763693285118873600,11.81087353515625,-0.9541380405426025,-5.395814895629883,11.863615036010742
1763693285128877000,11.820876953125,-0.997208833694458,-5.295316696166992,11.983255386352539
1763693285138880000,11.8308798828125,-1.155135154724121,-5.252245903015137,11.95454216003418
1763693285148900000,11.840900146484374,-1.3471591472625732,-5.2043890953063965,11.882757186889648
1763693285158904800,11.85090478515625,-1.581655740737915,-5.185246467590332,11.68594741821289
1763693285168902700,11.860902587890624,-1.7443677186965942,-5.0464630126953125,11.379666328430176
1763693285178906600,11.87090673828125,-1.9262222051620483,-4.922036170959473,10.968100547790527
1763693285188919000,11.8809189453125,-2.0793628692626953,-4.764110088348389,10.53200912475586
1763693285198923800,11.890923828125,-2.170290231704712,-4.54337215423584,10.053443908691406
1763693285208956200,11.9009560546875,-2.1894326210021973,-4.318446636199951,9.507282257080078
1763693285218963700,11.910963623046875,-2.1655044555664062,-4.060021877288818,9.033503532409668
1763693285228972500,11.92097265625,-2.069791555404663,-3.7776687145233154,8.559126853942871
1763693285238980000,11.93097998046875,-1.9310078620910645,-3.5234313011169434,8.181060791015625
1763693285248963300,11.94096337890625,-1.7682958841323853,-3.332005500793457,7.874779224395752
1763693285258968300,11.95096826171875,-1.6055840253829956,-3.174079179763794,7.645068168640137
1763693285268977700,11.960977783203125,-1.4333007335662842,-3.025724172592163,7.39561653137207
1763693285278983400,11.9709833984375,-1.2460623979568481,-2.8630123138427734,7.228118896484375
1763693285288992800,11.98099267578125,-1.0977073907852173,-2.6524438858032227,7.031907558441162
1763693285298998800,11.990998779296875,-0.9541380405426025,-2.407777786254883,6.85962438583374
1763693285308991200,12.0009912109375,-0.9349954724311829,-2.2498514652252197,6.7447686195373535
1763693285318995700,12.01099560546875,-0.9493523836135864,-2.163709878921509,6.692126750946045
1763693285329049600,12.021049560546874,-0.9445667266845703,-2.1397817134857178,6.692126750946045
1763693285339059200,12.03105908203125,-0.96370929479599,-2.1589243412017822,6.7208404541015625
1763693285349015600,12.041015625,-0.9828519225120544,-2.1397817134857178,6.869195461273193
1763693285359019500,12.05101953125,-1.1264212131500244,-2.1397817134857178,7.17069149017334
1763693285369030700,12.06103076171875,-1.337587833404541,-2.1924238204956055,7.433901786804199
1763693285379035600,12.07103564453125,-1.5625132322311401,-2.2737796306610107,7.740781307220459
1763693285389037300,12.081037353515624,-1.6965112686157227,-2.3599212169647217,7.970492362976074
1763693285399041800,12.091041748046875,-1.8400806188583374,-2.4508485794067383,8.219346046447754
1763693285409052700,12.101052734375,-1.97407865524292,-2.5465614795684814,8.434700012207031
1763693285419058000,12.111057861328124,-2.084148406982422,-2.700300455093384,8.62193775177002
1763693285429032700,12.12103271484375,-2.0985054969787598,-2.8773691654205322,8.846863746643066
1763693285439034600,12.13103466796875,-2.170290231704712,-3.1405797004699707,9.129216194152832
1763693285449063700,12.141063720703125,-2.1894326210021973,-3.466003656387329,9.54078197479248
1763693285459068400,12.151068359375,-2.2612173557281494,-3.782454490661621,10.000802040100098
1763693285469074200,12.16107421875,-2.313859462738037,-4.103092670440674,10.560722351074219
1763693285479079000,12.171078857421875,-2.3330020904541016,-4.380660057067871,11.116456031799316
1763693285489096700,12.1810966796875,-2.3330020904541016,-4.538586139678955,11.647662162780762
1763693285499102700,12.191102783203124,-2.280359983444214,-4.60558557510376,12.088540077209473
1763693285509095700,12.201095703125,-2.1990039348602295,-4.567300319671631,12.423535346984863
1763693285519100400,12.211100341796875,-2.1511476039886475,-4.48115873336792,12.701102256774902
1763693285529065200,12.221065185546875,-2.280359983444214,-4.524229526519775,13.0223388671875
1763693285539066000,12.231066162109375,-2.5489542484283447,-4.845465660095215,13.342977523803711
1763693285549118500,12.241118408203125,-2.850450038909912,-5.257031440734863,13.553545951843262
1763693285559124500,12.25112451171875,-3.118446111679077,-5.5345988273620605,13.52004623413086
1763693285569124000,12.2611240234375,-3.195016384124756,-5.5728840827941895,13.237692832946777
1763693285579129300,12.27112939453125,-3.1758737564086914,-5.44845724105835,12.8691987991333
1763693285589110500,12.281110595703124,-3.156731367111206,-5.429314613342285,12.643674850463867
1763693285599113200,12.29111328125,-3.108874797821045,-5.592026710510254,12.586247444152832
1763693285609151200,12.301151123046875,-3.0370900630950928,-5.793622016906738,12.634103775024414
1763693285619157500,12.311157470703124,-2.8552355766296387,-5.91804838180542,12.739986419677734
1763693285629119500,12.321119384765625,-2.5393829345703125,-5.898906230926514,12.792628288269043
1763693285639121400,12.331121337890625,-2.117648124694824,-5.7409796714782715,12.69153118133545
1763693285649172500,12.34117236328125,-1.6103696823120117,-5.414957523345947,12.42832088470459
1763693285659179500,12.351179443359374,-1.0929217338562012,-4.969892501831055,11.978469848632812
1763693285669182500,12.361182373046875,-0.6382854580879211,-4.591228485107422,11.470593452453613
1763693285679189000,12.37118896484375,-0.35114672780036926,-4.337589263916016,10.939387321472168
1763693285689173000,12.381173095703126,-0.1782652884721756,-4.265804767608643,10.436295509338379
1763693285699177200,12.39117724609375,-0.1495514214038849,-4.35673189163208,9.967302322387695
1763693285709205500,12.40120556640625,-0.2021935135126114,-4.5338006019592285,9.574281692504883
1763693285719212300,12.41121240234375,-0.3320041298866272,-4.744967460632324,9.134002685546875
1763693285729183200,12.421183349609375,-0.45164528489112854,-4.922036170959473,8.794221878051758
1763693285739186200,12.431186279296876,-0.5377869009971619,-5.103890895843506,8.520841598510742
1763693285749231000,12.441231201171876,-0.6526423692703247,-5.252245903015137,8.271987915039062
1763693285759238400,12.45123828125,-0.7627122402191162,-5.271388053894043,8.080561637878418
1763693285769237500,12.461237548828125,-0.906281590461731,-5.309673309326172,7.946564197540283
1763693285779244000,12.471244140625,-1.0689935684204102,-5.414957523345947,8.066205024719238
1763693285789223700,12.4812236328125,-1.1934202909469604,-5.553741455078125,8.233702659606934
1763693285799227100,12.49122705078125,-1.2460623979568481,-5.5968122482299805,8.372486114501953
1763693285809255000,12.5012548828125,-1.1168500185012817,-5.477170944213867,8.420342445373535
1763693285819261000,12.511260986328125,-0.9541380405426025,-5.333601474761963,8.410771369934082
1763693285829219000,12.521218994140625,-0.7914260625839233,-5.170889854431152,8.444271087646484
1763693285839220500,12.531220458984375,-0.666999340057373,-5.056034088134766,8.401200294494629
1763693285849278700,12.54127880859375,-0.5617151260375977,-4.941178798675537,8.382058143615723
1763693285859285800,12.55128564453125,-0.5042873620986938,-4.893322467803955,8.329415321350098
1763693285869294300,12.56129443359375,-0.5138586759567261,-4.826323509216309,8.200202941894531
1763693285879301600,12.571301513671875,-0.5282155871391296,-4.764110088348389,8.085348129272461
1763693285889309400,12.581309326171874,-0.5952146053314209,-4.706682205200195,7.917850017547607
1763693285899316700,12.591316650390626,-0.6574280261993408,-4.687539577484131,7.750352382659912
1763693285909311500,12.6013115234375,-0.719641387462616,-4.663012981414795,7.645068168640137
1763693285919317200,12.611317138671875,-0.7579265832901001,-4.653441905975342,7.505686283111572
1763693285929260500,12.621260498046874,-0.753140926361084,-4.6199421882629395,7.453044414520264
1763693285939260200,12.63126025390625,-0.7579265832901001,-4.5577287673950195,7.328617572784424
1763693285949304800,12.641304931640626,-0.7387840151786804,-4.500301361083984,7.223333358764648
1763693285959309000,12.65130908203125,-0.753140926361084,-4.4189453125,7.055835723876953
1763693285969339000,12.6613388671875,-0.8057830333709717,-4.442873477935791,6.93619441986084
1763693285979345700,12.671345703125,-0.8632107973098755,-4.490729808807373,6.85962438583374
1763693285989354000,12.68135400390625,-0.9924231767654419,-4.538586139678955,6.811768054962158
1763693285999360800,12.69136083984375,-1.1264212131500244,-4.500301361083984,6.8309102058410645
1763693286009360000,12.70135986328125,-1.2699905633926392,-4.514657974243164,6.754340171813965
1763693286019366000,12.711365966796874,-1.3950155973434448,-4.519443988800049,6.663413047790527
1763693286029333200,12.721333251953125,-1.5050854682922363,-4.505086898803711,6.519843578338623
1763693286039335400,12.73133544921875,-1.648654818534851,-4.538586139678955,6.485745906829834
1763693286049375700,12.741375732421876,-1.825723648071289,-4.5577287673950195,6.461817741394043
1763693286059381800,12.7513818359375,-2.0315065383911133,-4.610371112823486,6.4666032791137695
1763693286069362700,12.76136279296875,-2.203789710998535,-4.692325115203857,6.476174354553223
1763693286079366100,12.7713662109375,-2.3670997619628906,-4.72582483291626,6.461817741394043
1763693286089380900,12.781380859375,-2.520240545272827,-4.783252239227295,6.461817741394043
1763693286099385600,12.791385498046875,-2.6398816108703613,-4.831109046936035,6.529414653778076
1763693286109382700,12.801382568359376,-2.730808734893799,-4.898108005523682,6.577271461486816
1763693286119386600,12.81138671875,-2.812164783477783,-4.945964336395264,6.706483840942383
1763693286129385700,12.8213857421875,-2.922234535217285,-5.065605640411377,6.878767013549805
1763693286139389000,12.831388916015625,-3.032304525375366,-5.26181697845459,7.127620220184326
1763693286149399300,12.8413994140625,-3.171088218688965,-5.553741455078125,7.433901786804199
1763693286159403300,12.8514033203125,-3.362514019012451,-5.927619934082031,7.779066562652588
1763693286169419500,12.86141943359375,-3.5497524738311768,-6.300900459289551,8.157132148742676
1763693286179424800,12.8714248046875,-3.693321704864502,-6.549753665924072,8.420342445373535
1763693286189432000,12.88143212890625,-3.70767879486084,-6.559325218200684,8.496912956237793
1763693286199437600,12.8914375,-3.6263227462768555,-6.458826541900635,8.535198211669922
1763693286209430800,12.9014306640625,-3.583251953125,-6.420541286468506,8.62193775177002
1763693286219435000,12.91143505859375,-3.5306098461151123,-6.497111797332764,8.803792953491211
1763693286229449200,12.92144921875,-3.401397466659546,-6.516254425048828,9.004789352416992
1763693286239454500,12.931454345703125,-3.2380871772766113,-6.396613121032715,9.20578670501709
1763693286249427500,12.941427490234375,-2.9174489974975586,-6.10468864440918,9.2919282913208
1763693286259429600,12.9514296875,-2.5489542484283447,-5.678168296813965,9.306285858154297
1763693286269442800,12.96144287109375,-2.1846470832824707,-5.108676433563232,9.244071960449219
1763693286279446000,12.971446044921874,-1.8496519327163696,-4.5098724365234375,9.181859016418457
1763693286289462300,12.981462158203126,-1.6247265338897705,-4.1078782081604,9.311071395874023
1763693286299466800,12.991466796875,-1.5864413976669312,-3.9690945148468018,9.559925079345703
1763693286309467400,13.00146728515625,-1.5672988891601562,-4.079164505004883,9.914660453796387
1763693286319471400,13.011471435546875,-1.6917256116867065,-4.29451847076416,10.316655158996582
1763693286329584000,13.021584228515625,-1.6917256116867065,-4.500301361083984,10.671390533447266
