time,seconds_elapsed,z,y,x
1763693268347868700,0.05086865234375,0.42427006363868713,-0.017413077875971794,0.31066226959228516
1763693268357889500,0.0608896484375,0.48618748784065247,-0.04115782305598259,0.24536341428756714
1763693268367910700,0.07091064453125,0.5486910939216614,-0.07620102912187576,0.16154175996780396
1763693268377932800,0.080932861328125,0.5959517955780029,-0.1038166731595993,0.07383108139038086
1763693268387953700,0.09095361328125,0.6085208654403687,-0.0824301615357399,-0.02286803163588047
1763693268397975800,0.100975830078125,0.5836096405982971,-0.01587590202689171,-0.12100604921579361
1763693268407996700,0.11099658203125,0.545212984085083,0.06355687230825424,-0.21821808815002441
1763693268418017500,0.121017578125,0.5183637738227844,0.14272385835647583,-0.29472458362579346
1763693268428039700,0.131039794921875,0.5126574635505676,0.20186440646648407,-0.3448982536792755
1763693268438060800,0.141060791015625,0.5251375436782837,0.24903857707977295,-0.376688688993454
1763693268448081700,0.15108154296875,0.5499640703201294,0.2833467423915863,-0.407578706741333
1763693268458103600,0.161103515625,0.5666325092315674,0.3100268244743347,-0.43067070841789246
1763693268468124700,0.171124755859375,0.5668812394142151,0.3321068286895752,-0.4322555363178253
1763693268478145800,0.181145751953125,0.5573370456695557,0.328532338142395,-0.3957446813583374
1763693268488167200,0.191167236328125,0.5329187512397766,0.3266545534133911,-0.31151553988456726
1763693268498188300,0.201188232421875,0.5019749402999878,0.2757048010826111,-0.18063023686408997
1763693268508209200,0.211209228515625,0.4630821645259857,0.14987178146839142,-0.03957750275731087
1763693268518231000,0.22123095703125,0.4253939092159271,0.07604789733886719,0.04595524072647095
1763693268528252400,0.23125244140625,0.4048321843147278,0.05902017652988434,0.06759369373321533
1763693268538273300,0.241273193359375,0.3896119296550751,0.039253395050764084,0.07242945581674576
1763693268548295200,0.251295166015625,0.36243677139282227,0.01829218864440918,0.08830855786800385
1763693268558316300,0.26131640625,0.3311406373977661,-0.006490656174719334,0.10547395795583725
1763693268568337200,0.271337158203125,0.2876991629600525,-0.023022495210170746,0.11687389016151428
1763693268578359300,0.281359375,0.23385083675384521,-0.011213505640625954,0.13557806611061096
1763693268588380400,0.29138037109375,0.15563593804836273,-0.009332515299320221,0.17790554463863373
1763693268598401300,0.3014013671875,0.10981171578168869,0.006910636555403471,0.20444075763225555
1763693268608423200,0.311423095703125,0.06721019744873047,0.057191118597984314,0.25665736198425293
1763693268618444300,0.3214443359375,0.030892401933670044,0.08911123126745224,0.34071311354637146
1763693268628466400,0.331466552734375,0.011571701616048813,0.095396026968956,0.4594655930995941
1763693268638487300,0.3414873046875,0.0009973538108170033,0.10506249964237213,0.5601251125335693
1763693268648508400,0.35150830078125,0.011123225092887878,0.17441228032112122,0.6349300742149353
1763693268658530300,0.3615302734375,0.00977539923042059,0.38579270243644714,0.7063214778900146
1763693268668551200,0.37155126953125,-0.03392281383275986,0.6787028908729553,0.7951277494430542
1763693268678572300,0.381572265625,-0.1264335662126541,0.9488720297813416,0.9191945791244507
1763693268688594400,0.391594482421875,-0.19565604627132416,1.1549924612045288,1.0457855463027954
1763693268698615300,0.401615234375,-0.17540724575519562,1.212132215499878,1.1367125511169434
1763693268708636200,0.41163623046875,-0.11387304216623306,1.0592552423477173,1.1736273765563965
1763693268718658300,0.421658203125,-0.10556983202695847,0.8107232451438904,1.1672086715698242
1763693268728679200,0.43167919921875,-0.11488344520330429,0.5798788070678711,1.1167268753051758
1763693268738700300,0.4417001953125,-0.13356710970401764,0.36689144372940063,1.0439220666885376
1763693268748722400,0.451722412109375,-0.1735566109418869,0.20558618009090424,0.9471918344497681
1763693268758743300,0.461743408203125,-0.23376934230327606,0.15870362520217896,0.8577743768692017
1763693268768764200,0.47176416015625,-0.3032972812652588,0.16946519911289215,0.7833203673362732
1763693268778786300,0.481786376953125,-0.38991260528564453,0.21596798300743103,0.7417715787887573
1763693268788807200,0.49180712890625,-0.4467058479785919,0.3689447343349457,0.7046290040016174
1763693268798828300,0.501828369140625,-0.46472588181495667,0.5116627216339111,0.6660792231559753
1763693268808850200,0.51185009765625,-0.4371384382247925,0.5250121355056763,0.6091248393058777
1763693268818871300,0.521871337890625,-0.4253145456314087,0.4964699447154999,0.5600315928459167
1763693268828892200,0.53189208984375,-0.4317852258682251,0.4086460769176483,0.5067196488380432
1763693268838914000,0.5419140625,-0.4383099675178528,0.23121671378612518,0.45227664709091187
1763693268848935400,0.551935302734375,-0.455102801322937,0.016045812517404556,0.39116111397743225
1763693268858957300,0.561957275390625,-0.47870534658432007,-0.15650679171085358,0.3136948049068451
1763693268868978200,0.571978271484375,-0.5073132514953613,-0.25261279940605164,0.20809142291545868
1763693268878999300,0.581999267578125,-0.5459802150726318,-0.32243555784225464,0.08855409920215607
1763693268889021200,0.592021240234375,-0.5859162211418152,-0.3837660253047943,-0.04664473235607147
1763693268899042300,0.602042236328125,-0.6418705582618713,-0.43805670738220215,-0.18697254359722137
1763693268909063400,0.6120634765625,-0.6762767434120178,-0.5514400005340576,-0.3004160225391388
1763693268919085300,0.622085205078125,-0.6942602396011353,-0.6417205929756165,-0.36283785104751587
1763693268929106200,0.632106201171875,-0.6972398161888123,-0.639731764793396,-0.356065958738327
1763693268939127300,0.642127197265625,-0.6930679678916931,-0.624714195728302,-0.3187372386455536
1763693268949149400,0.6521494140625,-0.6795007586479187,-0.599829912185669,-0.2375078946352005
1763693268959170300,0.66217041015625,-0.6620383858680725,-0.5914598703384399,-0.10508221387863159
1763693268969191400,0.67219140625,-0.6512510180473328,-0.6700502634048462,0.04206782579421997
1763693268979213300,0.68221337890625,-0.619928240776062,-0.8187481164932251,0.16877171397209167
1763693268989234200,0.692234130859375,-0.5939624309539795,-0.921498715877533,0.2622630298137665
1763693268999255300,0.70225537109375,-0.574878454208374,-0.9436301589012146,0.30610373616218567
1763693269009277400,0.71227734375,-0.5644559264183044,-0.8551000356674194,0.2910536825656891
1763693269019298300,0.72229833984375,-0.5565202236175537,-0.6867796778678894,0.22659559547901154
1763693269029319200,0.732319091796875,-0.5349600911140442,-0.5285046100616455,0.14371535181999207
1763693269039341300,0.74234130859375,-0.509873628616333,-0.3917371332645416,0.06945923715829849
1763693269049362200,0.752362060546875,-0.5009504556655884,-0.3211612403392792,0.027541879564523697
1763693269059383000,0.762383056640625,-0.5077572464942932,-0.28973567485809326,0.0020301276817917824
1763693269069405400,0.772405517578125,-0.5070496201515198,-0.2460760772228241,-0.01486603170633316
1763693269079426300,0.78242626953125,-0.4777713716030121,-0.20079542696475983,-0.035173967480659485
1763693269089448200,0.7924482421875,-0.4302659034729004,-0.17651112377643585,-0.039270441979169846
1763693269099469300,0.80246923828125,-0.3863849937915802,-0.18749985098838806,-0.005649363622069359
1763693269109490200,0.812490234375,-0.3571280241012573,-0.25286900997161865,0.04832838475704193
1763693269119512300,0.82251220703125,-0.34766849875450134,-0.3513244688510895,0.10538341104984283
1763693269129533200,0.832533203125,-0.3529527187347412,-0.40823596715927124,0.15146967768669128
1763693269139554300,0.84255419921875,-0.3652573227882385,-0.40941521525382996,0.17055362462997437
1763693269149576200,0.852576171875,-0.3734894394874573,-0.3656810522079468,0.18281827867031097
1763693269159597000,0.86259716796875,-0.37452220916748047,-0.24312050640583038,0.20327135920524597
1763693269169618400,0.872618408203125,-0.36185887455940247,-0.11331404000520706,0.2436816394329071
1763693269179640300,0.882640380859375,-0.34903228282928467,0.004157727118581533,0.2832769751548767
1763693269189661200,0.8926611328125,-0.31260451674461365,0.08098326623439789,0.30418866872787476
1763693269199682300,0.902682373046875,-0.24124670028686523,0.07412136346101761,0.31912657618522644
1763693269209704200,0.9127041015625,-0.18613524734973907,0.03321307897567749,0.3494868874549866
1763693269219725300,0.922725341796875,-0.17663416266441345,0.007748466916382313,0.396004855632782
1763693269229746400,0.932746337890625,-0.1721978634595871,0.0040826257318258286,0.41063520312309265
1763693269239768300,0.942768310546875,-0.18458688259124756,-0.06353556364774704,0.3730399012565613
1763693269249789200,0.9527890625,-0.20106759667396545,-0.09901366382837296,0.27800312638282776
1763693269259810300,0.962810302734375,-0.2131170630455017,-0.06300879269838333,0.1579430252313614
1763693269269832400,0.97283251953125,-0.20936919748783112,-0.018122011795639992,0.03622325137257576
1763693269279853300,0.982853271484375,-0.19380861520767212,0.0076033249497413635,-0.06121302396059036
1763693269289874400,0.99287451171875,-0.15092480182647705,0.01113068126142025,-0.15022066235542297
1763693269299896300,1.002896240234375,-0.08167808502912521,-0.02647288702428341,-0.22249671816825867
1763693269309917200,1.012917236328125,-0.04463191702961922,-0.034941207617521286,-0.25016775727272034
1763693269319939300,1.022939208984375,-0.015693742781877518,-0.05300728976726532,-0.22615191340446472
1763693269329960400,1.03296044921875,0.004001665860414505,-0.08298037201166153,-0.15784288942813873
1763693269339981300,1.042981201171875,0.018027203157544136,-0.09453689306974411,-0.08777458965778351
1763693269350003200,1.053003173828125,0.017887387424707413,-0.07457783073186874,-0.036434706300497055
1763693269360024300,1.0630244140625,0.005094626918435097,-0.0606369823217392,-0.02930888719856739
1763693269370045200,1.073045166015625,-0.022583872079849243,-0.05481557920575142,-0.06228148192167282
1763693269380067300,1.0830673828125,-0.04475602135062218,-0.059542953968048096,-0.07164835184812546
1763693269390088200,1.093088134765625,-0.04910549521446228,-0.07872064411640167,-0.03347327187657356
1763693269400109300,1.103109375,-0.03522403538227081,-0.04934917390346527,0.03532470017671585
1763693269410131200,1.113131103515625,-0.01720188930630684,0.05398706719279289,0.10152182728052139
1763693269420152000,1.123152099609375,-0.005390504375100136,0.1710337996482849,0.13326483964920044
1763693269430173200,1.133173095703125,0.00875141378492117,0.23540718853473663,0.13600604236125946
1763693269440195300,1.1431953125,0.01267158705741167,0.23315921425819397,0.13904151320457458
1763693269450216200,1.15321630859375,0.012545352801680565,0.17529885470867157,0.14155739545822144
1763693269460237300,1.1632373046875,0.016112124547362328,0.11889442801475525,0.15171203017234802
1763693269470259200,1.17325927734375,0.025015603750944138,0.08810988813638687,0.1571001410484314
1763693269480280000,1.183280029296875,0.026857713237404823,0.08984413743019104,0.13588033616542816
1763693269490301400,1.193301513671875,0.027089407667517662,0.12010510265827179,0.07765058428049088
1763693269500323600,1.203323486328125,0.0316077284514904,0.14738625288009644,0.008273642510175705
1763693269510344400,1.213344482421875,0.012651346623897552,0.15315572917461395,-0.048104144632816315
1763693269520366300,1.223366455078125,-0.010146111249923706,0.11126819998025894,-0.043413519859313965
1763693269530387500,1.233387451171875,-0.05077636241912842,0.05800977349281311,0.006806773599237204
1763693269540408300,1.243408203125,-0.0828823670744896,0.04279673099517822,0.07130879908800125
1763693269550430500,1.253430419921875,-0.08164745569229126,0.05651041492819786,0.12506364285945892
1763693269560451600,1.26345166015625,-0.043649476021528244,0.08107966929674149,0.1542321741580963
1763693269570472400,1.273472412109375,0.0015949672088027,0.10721779614686966,0.16476711630821228
1763693269580494300,1.283494384765625,0.01683783531188965,0.07918749749660492,0.17436754703521729
1763693269590515500,1.293515380859375,0.015800267457962036,0.05280941724777222,0.18287873268127441
1763693269600536600,1.30353662109375,0.03666453808546066,0.007477889768779278,0.1803133189678192
1763693269610558500,1.313558349609375,0.06715959310531616,0.017786987125873566,0.14734125137329102
1763693269620579600,1.32357958984375,0.10942529141902924,0.07986127585172653,0.07680689543485641
1763693269630600400,1.333600341796875,0.14775404334068298,0.1433451771736145,-0.045101962983608246
1763693269640622300,1.343622314453125,0.13394607603549957,0.21873819828033447,-0.163929283618927
1763693269650643700,1.353643798828125,0.06966190040111542,0.284639447927475,-0.30705395340919495
1763693269660664600,1.36366455078125,0.03231532871723175,0.425174742937088,-0.4825277626514435
1763693269670686500,1.3736865234375,0.04328275844454765,0.6446980237960815,-0.6434548497200012
1763693269680707300,1.383707275390625,0.09813428670167923,0.7599985003471375,-0.762637197971344
1763693269690728400,1.393728515625,0.18652381002902985,0.724974513053894,-0.7837635278701782
1763693269700750600,1.40375048828125,0.2731527090072632,0.85918128490448,-0.8073239326477051
1763693269710771500,1.413771484375,0.44211456179618835,0.7683795094490051,-0.726699948310852
1763693269720793600,1.423793701171875,0.6537415981292725,0.32156339287757874,-0.842290997505188
1763693269730814500,1.433814453125,0.7892323136329651,0.2855475842952728,-1.0358988046646118
1763693269740835300,1.44383544921875,0.8723629117012024,0.5203425288200378,-1.1598620414733887
1763693269750857500,1.453857421875,0.9137169718742371,0.5303016901016235,-1.1585358381271362
1763693269760878600,1.463878662109375,0.9313122034072876,0.3257935345172882,-1.1014972925186157
1763693269770899500,1.4738994140625,0.9676880836486816,0.13907107710838318,-1.0395420789718628
1763693269780921300,1.48392138671875,0.9736623167991638,0.04147287458181381,-0.9771060943603516
1763693269790942500,1.4939423828125,0.992091953754425,0.016504408791661263,-0.9240915775299072
1763693269800963300,1.50396337890625,1.019592523574829,0.08437933027744293,-0.8939968347549438
1763693269810985500,1.5139853515625,1.0357435941696167,0.292481392621994,-0.8912558555603027
1763693269821006600,1.524006591796875,1.0331059694290161,0.4684273898601532,-0.888608455657959
1763693269831027500,1.53402734375,1.0376818180084229,0.5522828698158264,-0.8789337277412415
1763693269841049300,1.54404931640625,1.0762726068496704,0.6199972033500671,-0.908851146697998
1763693269851070500,1.554070556640625,1.1427056789398193,0.693604052066803,-0.9729017615318298
1763693269861091300,1.56409130859375,1.1860891580581665,0.8282058238983154,-1.0424339771270752
1763693269871113500,1.574113525390625,1.195778727531433,0.9417272806167603,-1.0911005735397339
1763693269881134600,1.584134521484375,1.1689764261245728,1.0043315887451172,-1.1260217428207397
1763693269891156500,1.594156494140625,1.1058169603347778,0.9672033786773682,-1.1243040561676025
1763693269901177300,1.60417724609375,1.0273479223251343,0.8147187829017639,-1.0721052885055542
1763693269911198500,1.614198486328125,0.9283283948898315,0.6122221350669861,-0.9729965329170227
1763693269921220600,1.624220703125,0.8108798265457153,0.45030084252357483,-0.8296495079994202
1763693269931241500,1.634241455078125,0.6788197755813599,0.341720312833786,-0.6475865244865417
1763693269941262600,1.6442626953125,0.5433884263038635,0.28145110607147217,-0.44337397813796997
1763693269951284500,1.654284423828125,0.43496692180633545,0.2559862434864044,-0.2359243780374527
1763693269961305300,1.664305419921875,0.39549964666366577,0.22019095718860626,-0.05341049283742905
1763693269971326500,1.674326416015625,0.41343870759010315,0.2610289454460144,0.13188719749450684
1763693269981348600,1.6843486328125,0.48605406284332275,0.42176002264022827,0.34232911467552185
1763693269991369500,1.694369384765625,0.5893921852111816,0.6012384295463562,0.5526216626167297
1763693270001390300,1.704390380859375,0.6894159913063049,0.7658369541168213,0.7454938888549805
1763693270011412500,1.71441259765625,0.7615495324134827,0.914090633392334,0.9003612399101257
1763693270021433600,1.72443359375,0.7927210330963135,1.016680359840393,1.0235044956207275
1763693270031454500,1.734454345703125,0.7923926711082458,1.0965602397918701,1.1403104066848755
1763693270041476600,1.7444765625,0.741119921207428,1.130703330039978,1.2756768465042114
1763693270051497500,1.75449755859375,0.6748782992362976,1.0996208190917969,1.4238606691360474
1763693270061518300,1.764518310546875,0.6325303316116333,1.0069323778152466,1.5382088422775269
1763693270071540500,1.77454052734375,0.5932963490486145,0.9177037477493286,1.5883371829986572
1763693270081561600,1.7845615234375,0.5210011005401611,0.8236797451972961,1.571006178855896
1763693270091583500,1.79458349609375,0.4207110106945038,0.7024478912353516,1.4928269386291504
1763693270101604400,1.804604248046875,0.28131264448165894,0.6001747846603394,1.3673577308654785
1763693270111625500,1.81462548828125,0.10831288993358612,0.4734511971473694,1.201967716217041
1763693270121647600,1.824647705078125,-0.05747740715742111,0.28224846720695496,1.001137137413025
1763693270131668500,1.83466845703125,-0.1978829801082611,0.053108226507902145,0.7728514671325684
1763693270141689600,1.844689697265625,-0.30144667625427246,-0.17443758249282837,0.5142950415611267
1763693270151711500,1.85471142578125,-0.35987216234207153,-0.37179192900657654,0.25568875670433044
1763693270161732400,1.864732421875,-0.37793344259262085,-0.5509425401687622,0.03255021944642067
1763693270171753500,1.87475341796875,-0.36851969361305237,-0.7116749286651611,-0.15179938077926636
1763693270181775600,1.884775634765625,-0.34248968958854675,-0.843554675579071,-0.2996453046798706
1763693270191796500,1.89479638671875,-0.2962875962257385,-0.9576340913772583,-0.4047517478466034
1763693270201817600,1.904817626953125,-0.24793124198913574,-1.0685778856277466,-0.45021510124206543
1763693270211839500,1.914839599609375,-0.19758550822734833,-1.2012253999710083,-0.4310017228126526
1763693270221860400,1.9248603515625,-0.1537160575389862,-1.3202264308929443,-0.3677647113800049
1763693270231881500,1.934881591796875,-0.14093714952468872,-1.3652056455612183,-0.27292928099632263
1763693270241903600,1.944903564453125,-0.1720426082611084,-1.3021934032440186,-0.16384965181350708
1763693270251924500,1.954924560546875,-0.22925475239753723,-1.1907110214233398,-0.03211719170212746
1763693270261946400,1.9649462890625,-0.2858804762363434,-1.0806447267532349,0.10255780071020126
1763693270271967500,1.974967529296875,-0.3362562954425812,-0.9589784741401672,0.20228785276412964
1763693270281988400,1.98498828125,-0.3779781758785248,-0.7827001214027405,0.2383398711681366
1763693270292010500,1.995010498046875,-0.42984485626220703,-0.5680522322654724,0.20833057165145874
1763693270302031600,2.005031494140625,-0.5020516514778137,-0.3276636302471161,0.13791365921497345
1763693270312052500,2.015052490234375,-0.6088140606880188,-0.1351999044418335,0.07825219631195068
1763693270322074400,2.025074462890625,-0.7179093956947327,0.041728273034095764,0.04412618279457092
1763693270332095500,2.035095458984375,-0.8087591528892517,0.18436798453330994,0.008279501460492611
1763693270342116600,2.04511669921875,-0.842728316783905,0.20585329830646515,-0.013734720647335052
1763693270352138500,2.055138427734375,-0.7798182964324951,0.10113700479269028,-0.03807707875967026
1763693270362159600,2.06515966796875,-0.6361186504364014,-0.053827546536922455,-0.07864181697368622
1763693270372180500,2.075180419921875,-0.4683547019958496,-0.20207107067108154,-0.13784149289131165
1763693270382202400,2.085202392578125,-0.3368943929672241,-0.27149274945259094,-0.18662767112255096
1763693270392223500,2.095223388671875,-0.26891589164733887,-0.2535286843776703,-0.19813892245292664
1763693270402244600,2.10524462890625,-0.28759342432022095,-0.19093240797519684,-0.17402932047843933
1763693270412266500,2.1152666015625,-0.3472229540348053,-0.11500941216945648,-0.14546824991703033
1763693270422287400,2.125287353515625,-0.4146869480609894,0.019349196925759315,-0.13880448043346405
1763693270432309500,2.1353095703125,-0.4778642952442169,0.18365797400474548,-0.17660246789455414
1763693270442330600,2.14533056640625,-0.518608570098877,0.2972058355808258,-0.2589833736419678
1763693270452351500,2.1553515625,-0.5223910212516785,0.3137699067592621,-0.3767384886741638
1763693270462373400,2.165373291015625,-0.4856545925140381,0.2562003433704376,-0.5248501896858215
1763693270472394500,2.17539453125,-0.4112994074821472,0.1716684252023697,-0.6924695372581482
1763693270482415400,2.185415283203125,-0.3183979392051697,0.1202973797917366,-0.867026686668396
1763693270492437200,2.195437255859375,-0.22550609707832336,0.06923899054527283,-1.0195385217666626
1763693270502458400,2.205458251953125,-0.1360582411289215,-0.04590384289622307,-1.1244899034500122
1763693270512479200,2.215479248046875,-0.07851291447877884,-0.24408669769763947,-1.184960961341858
1763693270522501000,2.225501220703125,-0.07085233181715012,-0.5395851731300354,-1.213868260383606
1763693270532522200,2.235522216796875,-0.1243126317858696,-0.845798671245575,-1.2010257244110107
1763693270542543000,2.245543212890625,-0.18221481144428253,-1.000531792640686,-1.1300122737884521
1763693270552565200,2.255565185546875,-0.2520812451839447,-1.076472282409668,-1.0256837606430054
1763693270562586400,2.26558642578125,-0.269016832113266,-1.1759246587753296,-0.8905850052833557
1763693270572608300,2.275608154296875,-0.19432847201824188,-1.1895546913146973,-0.7639080286026001
1763693270582629000,2.285629150390625,-0.04855235666036606,-1.136896014213562,-0.6685213446617126
1763693270592650200,2.295650146484375,0.09640243649482727,-1.0994335412979126,-0.6062206625938416
1763693270602672400,2.30567236328125,0.24535995721817017,-1.0499017238616943,-0.5529012680053711
1763693270612693200,2.315693359375,0.44186314940452576,-1.1615486145019531,-0.4885406494140625
1763693270622714400,2.32571435546875,0.6643572449684143,-1.2065623998641968,-0.4197309613227844
1763693270632736300,2.335736328125,0.86097252368927,-1.1263091564178467,-0.36209508776664734
1763693270642757000,2.345757080078125,0.9781870245933533,-0.9798885583877563,-0.310671329498291
1763693270652778500,2.355778564453125,0.9641215801239014,-0.9257643222808838,-0.21704310178756714
1763693270662800400,2.36580029296875,0.845569372177124,-1.0221092700958252,-0.07628092169761658
1763693270672821200,2.3758212890625,0.669082760810852,-1.1558297872543335,0.0680280551314354
1763693270682842400,2.38584228515625,0.5144066214561462,-1.255989670753479,0.19029271602630615
1763693270692864300,2.3958642578125,0.4467913508415222,-1.2287460565567017,0.28103113174438477
1763693270702885400,2.405885498046875,0.49520599842071533,-1.1029891967773438,0.3772740364074707
1763693270712906200,2.41590625,0.6134751439094543,-0.9573198556900024,0.5118995308876038
1763693270722928400,2.425928466796875,0.7509011626243591,-0.8036671876907349,0.6783020496368408
1763693270732949200,2.43594921875,0.8957470059394836,-0.6107233166694641,0.8508927226066589
1763693270742970000,2.44597021484375,1.0365550518035889,-0.35177695751190186,0.9966973662376404
1763693270752992500,2.455992431640625,1.125923991203308,-0.0600484237074852,1.1051723957061768
1763693270763013400,2.466013427734375,1.161035418510437,0.18393680453300476,1.1992275714874268
1763693270773035300,2.47603515625,1.133483648300171,0.376160591840744,1.2863293886184692
1763693270783056400,2.486056396484375,1.0640473365783691,0.4901007413864136,1.3534208536148071
1763693270793077200,2.4960771484375,0.9938706755638123,0.5928366780281067,1.3863884210586548
1763693270803099100,2.50609912109375,0.9446389675140381,0.732086718082428,1.370780110359192
1763693270813120300,2.516120361328125,0.9074947834014893,0.7984707951545715,1.313818335533142
1763693270823141400,2.526141357421875,0.8707263469696045,0.7242951393127441,1.2187309265136719
1763693270833163300,2.536163330078125,0.8589118123054504,0.5636484622955322,1.0798639059066772
1763693270843184000,2.54618408203125,0.8317126631736755,0.2888597548007965,0.8941584825515747
1763693270853205200,2.556205322265625,0.7761287689208984,0.04796193167567253,0.6602751016616821
1763693270863227400,2.566227294921875,0.6695863604545593,-0.08633355796337128,0.42021167278289795
1763693270873248300,2.576248291015625,0.5425559282302856,-0.1300903558731079,0.23484846949577332
1763693270883269400,2.586269287109375,0.4111281633377075,-0.20952047407627106,0.13281503319740295
1763693270893291300,2.596291259765625,0.2982969284057617,-0.3178655803203583,0.10157429426908493
1763693270903312100,2.60631201171875,0.18211334943771362,-0.5146830677986145,0.08094118535518646
1763693270913334300,2.616334228515625,0.0667840912938118,-0.7281420826911926,-0.00412363838404417
1763693270923355400,2.62635546875,-0.03957777097821236,-0.7914608716964722,-0.18039295077323914
1763693270933376300,2.636376220703125,-0.125130757689476,-0.6320229768753052,-0.3894476294517517
1763693270943398100,2.646398193359375,-0.19087567925453186,-0.3280196785926819,-0.5865069031715393
1763693270953419300,2.656419189453125,-0.22191907465457916,-0.10325928032398224,-0.7202151417732239
1763693270963440000,2.666440185546875,-0.15445615351200104,0.08541209995746613,-0.7889534831047058
1763693270973462300,2.676462158203125,-0.006838465109467506,0.4130115509033203,-0.8420566320419312
1763693270983483400,2.6864833984375,0.1854896992444992,0.690082848072052,-0.8607211112976074
1763693270993504300,2.696504150390625,0.30036062002182007,0.7222956418991089,-0.8399114608764648
1763693271003526100,2.706526123046875,0.260052889585495,0.7019274830818176,-0.7610933780670166
1763693271013547300,2.71654736328125,0.13048024475574493,0.5346599221229553,-0.6511391401290894
1763693271023568100,2.726568115234375,-0.06792685389518738,0.239506334066391,-0.5718275308609009
1763693271033590300,2.73659033203125,-0.2592281103134155,-0.16578364372253418,-0.549105167388916
1763693271043611400,2.746611328125,-0.5244773626327515,-0.5570230484008789,-0.5896720886230469
1763693271053632300,2.75663232421875,-0.8135616183280945,-0.8464452624320984,-0.691296398639679
1763693271063654100,2.766654052734375,-0.9204092621803284,-0.9275065660476685,-0.8216869235038757
1763693271073675300,2.77667529296875,-0.8639387488365173,-0.894133448600769,-0.9156802892684937
1763693271083697400,2.786697509765625,-0.6823452711105347,-0.7271164655685425,-0.9807724356651306
1763693271093718300,2.79671826171875,-0.40063342452049255,-0.3942626118659973,-1.026254415512085
1763693271103739100,2.8067392578125,-0.09586154669523239,-0.08633382618427277,-1.0570621490478516
1763693271113761300,2.81676123046875,0.15381139516830444,0.13764894008636475,-1.0504751205444336
1763693271123782100,2.8267822265625,0.32236233353614807,0.2469128519296646,-0.9894439578056335
1763693271133803300,2.83680322265625,0.3946956396102905,0.25659051537513733,-0.9013516306877136
1763693271143825400,2.846825439453125,0.3585376441478729,0.2226509153842926,-0.8056672215461731
1763693271153846300,2.85684619140625,0.265991747379303,0.2116089165210724,-0.6968193054199219
1763693271163867100,2.8668671875,0.15423165261745453,0.19453538954257965,-0.588329017162323
1763693271173889300,2.87688916015625,0.038127679377794266,0.10678716748952866,-0.5006892085075378
1763693271183910400,2.886910400390625,-0.06710260361433029,-0.05802548676729202,-0.45492038130760193
1763693271193931300,2.89693115234375,-0.1138828918337822,-0.16114868223667145,-0.4497216045856476
1763693271203953200,2.906953125,-0.08339022845029831,-0.20304977893829346,-0.43177562952041626
1763693271213974300,2.916974365234375,0.013790912926197052,-0.2066250741481781,-0.37834569811820984
1763693271223995100,2.9269951171875,0.13196788728237152,-0.1446666419506073,-0.2951882481575012
1763693271234017300,2.937017333984375,0.25114381313323975,-0.04980670288205147,-0.22026845812797546
1763693271244038400,2.947038330078125,0.3548433184623718,0.10539193451404572,-0.1752501130104065
1763693271254060300,2.957060302734375,0.43395838141441345,0.21398712694644928,-0.14423148334026337
1763693271264081200,2.9670810546875,0.4766690731048584,0.245859295129776,-0.10144433379173279
1763693271274102300,2.977102294921875,0.49957704544067383,0.23100659251213074,-0.06420641392469406
1763693271284124400,2.98712451171875,0.5078922510147095,0.2020484358072281,-0.025432921946048737
1763693271294145300,2.997145263671875,0.4792496860027313,0.14711488783359528,0.018442390486598015
1763693271304166400,3.00716650390625,0.40443190932273865,0.059777580201625824,0.048898302018642426
1763693271314188300,3.017188232421875,0.3334354758262634,0.03591778874397278,0.04803517088294029
1763693271324209200,3.027209228515625,0.31690603494644165,0.08660413324832916,0.04766179621219635
1763693271334230300,3.037230224609375,0.32140040397644043,0.061471883207559586,0.0721607431769371
1763693271344252400,3.04725244140625,0.2844831347465515,-0.01429504994302988,0.14622671902179718
1763693271354273300,3.057273193359375,0.18946553766727448,0.06585917621850967,0.2597615420818329
1763693271364294400,3.06729443359375,0.01449718326330185,0.14930479228496552,0.37288621068000793
1763693271374316300,3.07731640625,-0.14705069363117218,0.1843099147081375,0.43319323658943176
1763693271384337200,3.087337158203125,-0.24163340032100677,0.29165101051330566,0.42521947622299194
1763693271394359300,3.097359375,-0.25672951340675354,0.4355056583881378,0.37185344099998474
1763693271404380400,3.10738037109375,-0.22280538082122803,0.5784146189689636,0.3248137831687927
1763693271414401300,3.1174013671875,-0.16523556411266327,0.6727208495140076,0.3266047537326813
1763693271424423200,3.127423095703125,-0.10877468436956406,0.7318744659423828,0.3679599165916443
1763693271434444300,3.1374443359375,-0.07015831768512726,0.8002607226371765,0.4320369064807892
1763693271444465200,3.147465087890625,-0.05651414394378662,0.8734955191612244,0.48523274064064026
1763693271454487300,3.1574873046875,-0.06764508783817291,0.9900407791137695,0.5203164219856262
1763693271464508400,3.16750830078125,-0.114420585334301,1.1172431707382202,0.5816950798034668
1763693271474529300,3.177529296875,-0.18670490384101868,1.1061111688613892,0.6961577534675598
1763693271484551200,3.18755126953125,-0.28613588213920593,0.9617508053779602,0.8550840020179749
1763693271494572500,3.197572509765625,-0.41994962096214294,0.7815930247306824,0.9475955963134766
1763693271504593700,3.20759375,-0.48163801431655884,0.5745176076889038,0.92775958776474
1763693271514615600,3.217615478515625,-0.46719515323638916,0.4632145166397095,0.7931389212608337
1763693271524636400,3.227636474609375,-0.4240221083164215,0.6651103496551514,-0.04626496508717537
1763693271534658600,3.237658447265625,-0.40122464299201965,-0.15832306444644928,-0.3447816073894501
1763693271544679400,3.247679443359375,-0.4495711624622345,-1.0252456665039062,-0.6904615163803101
1763693271554700500,3.257700439453125,-0.6179748177528381,-1.432106852531433,-0.9010784029960632
1763693271564722400,3.267722412109375,-0.7585417628288269,-1.5729883909225464,-1.0007368326187134
1763693271574743600,3.27774365234375,-0.8229449987411499,-1.4520678520202637,-1.0940595865249634
1763693271584764400,3.287764404296875,-0.8056637644767761,-1.242773413658142,-1.0746595859527588
1763693271594786300,3.297786376953125,-0.73409503698349,-0.7518599033355713,-1.0544575452804565
1763693271604807700,3.3078076171875,-0.7271942496299744,-0.3356943726539612,-0.9331197142601013
1763693271614828500,3.31782861328125,-0.672466516494751,-0.13448937237262726,-0.8579386472702026
1763693271624850400,3.327850341796875,-0.5425682067871094,-0.22674553096294403,-0.6403389573097229
1763693271634871600,3.33787158203125,-0.41390395164489746,-0.2536482512950897,-0.35558179020881653
1763693271644892400,3.347892333984375,-0.32176393270492554,-0.2609272003173828,-0.08398864418268204
1763693271654914600,3.35791455078125,-0.25649145245552063,-0.30972564220428467,0.07593896985054016
1763693271664935700,3.367935791015625,-0.23682107031345367,-0.35663163661956787,0.16256681084632874
1763693271674956500,3.37795654296875,-0.2557542622089386,-0.2232450693845749,0.19704142212867737
1763693271684978400,3.387978515625,-0.3271442949771881,0.031021831557154655,0.15511874854564667
1763693271694999600,3.39799951171875,-0.37890949845314026,0.2284342348575592,0.1316017061471939
1763693271705021700,3.408021728515625,-0.3795934021472931,0.39676225185394287,0.11657082289457321
1763693271715042600,3.41804248046875,-0.3858635425567627,0.4556109309196472,0.09312088787555695
1763693271725063700,3.428063720703125,-0.37462952733039856,0.43419593572616577,0.07105473428964615
1763693271735085600,3.43808544921875,-0.3719823360443115,0.4225757420063019,0.03826829418540001
1763693271745106400,3.4481064453125,-0.38973578810691833,0.4453713297843933,-0.0262390598654747
1763693271755127600,3.45812744140625,-0.4207775890827179,0.47500646114349365,-0.111440509557724
1763693271765149700,3.468149658203125,-0.4660244286060333,0.45893508195877075,-0.1871805489063263
1763693271775170600,3.478170654296875,-0.535281777381897,0.4151703119277954,-0.2412717342376709
1763693271785191400,3.48819140625,-0.5885798931121826,0.4380761384963989,-0.2865292429924011
1763693271795213600,3.498213623046875,-0.5835838317871094,0.38704144954681396,-0.3473731279373169
1763693271805234400,3.508234375,-0.5823278427124023,0.22887073457241058,-0.3818608224391937
1763693271815255300,3.51825537109375,-0.6146040558815002,0.08960205316543579,-0.37039804458618164
1763693271825277400,3.52827734375,-0.6990789771080017,-0.010965033434331417,-0.3401903212070465
1763693271835298600,3.538298583984375,-0.8188181519508362,-0.028129372745752335,-0.3044930398464203
1763693271845319400,3.5483193359375,-0.9151625633239746,-0.01998729072511196,-0.2480952888727188
1763693271855341300,3.55834130859375,-0.9883792400360107,0.050032008439302444,-0.1303928941488266
1763693271865362400,3.568362548828125,-1.0487850904464722,0.19025330245494843,0.00535455159842968
1763693271875384600,3.578384521484375,-1.0660953521728516,0.3221711218357086,0.10771767795085907
1763693271885405400,3.588405517578125,-1.0300507545471191,0.4325823187828064,0.21961624920368195
1763693271895426600,3.598426513671875,-0.9506155848503113,0.17735321819782257,0.18132078647613525
1763693271905448400,3.608448486328125,-0.8756404519081116,0.3313145339488983,0.45928075909614563
1763693271915469300,3.61846923828125,-0.8104859590530396,0.4941399395465851,0.6537932753562927
1763693271925490700,3.62849072265625,-0.645711362361908,0.6579725742340088,0.8175550103187561
1763693271935512600,3.6385126953125,-0.48244068026542664,0.5014990568161011,0.9302195310592651
1763693271945533400,3.648533447265625,-0.41875970363616943,0.38814640045166016,0.9896418452262878
1763693271955554600,3.658554443359375,-0.44469118118286133,0.28083354234695435,0.9482440948486328
1763693271965576400,3.668576416015625,-0.5557564496994019,0.14944621920585632,0.8164024353027344
1763693271975597600,3.67859765625,-0.632185697555542,0.0639941617846489,0.686202883720398
1763693271985618700,3.68861865234375,-0.669170618057251,0.09268919378519058,0.5838717222213745
1763693271995640600,3.698640625,-0.6692129373550415,0.15903759002685547,0.469227135181427
1763693272005661400,3.708661376953125,-0.6486067771911621,0.18593284487724304,0.30474287271499634
1763693272015683300,3.718683349609375,-0.6478325724601746,0.21311014890670776,0.10978029668331146
1763693272025704700,3.72870458984375,-0.6527365446090698,0.2580406069755554,-0.08608108758926392
1763693272035725600,3.7387255859375,-0.6463958024978638,0.26189419627189636,-0.2470630556344986
1763693272045747500,3.74874755859375,-0.614624559879303,0.22792769968509674,-0.359353631734848
1763693272055768600,3.7587685546875,-0.5542147159576416,0.21686972677707672,-0.42133525013923645
1763693272065789400,3.76878955078125,-0.43066030740737915,0.24319693446159363,-0.4418487846851349
1763693272075811600,3.7788115234375,-0.15712995827198029,0.4845195412635803,-0.5958202481269836
1763693272085832700,3.788832763671875,0.32572564482688904,0.4680825173854828,-0.7095564007759094
1763693272095853600,3.798853515625,0.6100630760192871,0.2777237594127655,-0.6497721672058105
1763693272105875500,3.80887548828125,0.8309672474861145,-0.441649854183197,-0.6285347938537598
1763693272115896600,3.818896484375,0.9717957377433777,-0.4024430513381958,-0.36249083280563354
1763693272125917400,3.82891748046875,0.9216787815093994,-0.1466839760541916,-0.24799036979675293
1763693272135939600,3.838939697265625,0.745680034160614,-0.11137819290161133,-0.195159912109375
1763693272145960400,3.84896044921875,0.5940535068511963,0.002757969545200467,-0.18409793078899384
1763693272155981600,3.858981689453125,0.5329664349555969,0.31134456396102905,-0.11894209682941437
1763693272166003500,3.86900341796875,0.5591745972633362,0.27537137269973755,-0.028136029839515686
1763693272176024300,3.8790244140625,0.6999836564064026,-0.22814927995204926,-0.17676278948783875
1763693272186046700,3.889046630859375,0.887483537197113,-0.4002355635166168,-0.1422508805990219
1763693272196067600,3.899067626953125,1.1252793073654175,-0.49428483843803406,-0.14384186267852783
1763693272206088400,3.90908837890625,1.351715326309204,-0.5684695839881897,-0.04157301038503647
1763693272216110600,3.919110595703125,1.4801687002182007,-0.5346423387527466,0.017891915515065193
1763693272226131500,3.92913134765625,1.5238770246505737,-0.33958685398101807,0.1288762241601944
1763693272236152300,3.93915234375,1.489578366279602,-0.13958106935024261,0.2598179876804352
1763693272246174500,3.949174560546875,1.4084068536758423,0.03671220690011978,0.3903014361858368
1763693272256195600,3.959195556640625,1.325129508972168,0.14085911214351654,0.5039113759994507
1763693272266216400,3.969216552734375,1.2574552297592163,0.25664058327674866,0.6282529830932617
1763693272276238300,3.97923828125,1.186435341835022,0.22011318802833557,0.6376350522041321
1763693272286259500,3.989259521484375,1.0961989164352417,0.17986057698726654,0.680820882320404
1763693272296280600,3.999280517578125,0.9875409007072449,-0.025896579027175903,0.5789461731910706
1763693272306302500,4.009302490234375,0.9042326807975769,-0.3035425841808319,0.44404029846191406
1763693272316323600,4.019323486328125,0.849907398223877,-0.4383275508880615,0.27055051922798157
1763693272326345500,4.029345458984375,0.8816496133804321,-0.38157957792282104,0.13457565009593964
1763693272336366300,4.039366455078125,0.9895797967910767,-0.14816497266292572,0.030410103499889374
1763693272346387700,4.0493876953125,1.120293378829956,0.08778417855501175,-0.13494104146957397
1763693272356409600,4.05940966796875,1.163578748703003,0.1814907044172287,-0.5396019816398621
1763693272366430500,4.069430419921875,1.1473944187164307,0.5220064520835876,-0.42053550481796265
1763693272376451600,4.07945166015625,0.9889693856239319,0.8633219599723816,-0.6034325957298279
1763693272386473500,4.089473388671875,0.5400909185409546,0.5917024612426758,-0.48675447702407837
1763693272396494600,4.09949462890625,0.08557801693677902,0.4159306287765503,-0.5743176341056824
1763693272406515700,4.109515625,-0.02376125566661358,-0.0817238911986351,-0.6832329034805298
1763693272416537600,4.11953759765625,-0.03863687440752983,-0.3831220865249634,-0.7169884443283081
1763693272426558500,4.129558349609375,-0.033610690385103226,-0.5692104697227478,-0.726026177406311
1763693272436579600,4.13957958984375,-0.01119326613843441,-0.858054518699646,-0.5575674176216125
1763693272446601700,4.149601806640625,0.0004082625964656472,-0.8229807019233704,-0.41377002000808716
1763693272456622600,4.15962255859375,-0.15374481678009033,-0.43183156847953796,-0.03659076616168022
1763693272466643500,4.1696435546875,-0.14083701372146606,-0.5436798334121704,-0.22829708456993103
1763693272476665600,4.17966552734375,-0.3351795971393585,-0.454319030046463,0.11904223263263702
1763693272486686500,4.1896865234375,-0.5412067770957947,-0.6190882921218872,0.32793232798576355
1763693272496709000,4.199709228515625,-0.7048782706260681,-0.6095600128173828,0.4946502149105072
1763693272506730000,4.20972998046875,-0.6857368350028992,-0.5587159991264343,0.5913463830947876
1763693272516751000,4.219751220703125,-0.6104795932769775,-0.24090981483459473,0.7175812721252441
1763693272526773200,4.229773193359375,-0.5473142266273499,-0.3174605071544647,0.7473104000091553
1763693272536794000,4.239794189453125,-0.5426560640335083,-0.2857012450695038,0.7710458636283875
1763693272546815200,4.249815185546875,-0.5899892449378967,-0.3680478036403656,0.8460835814476013
1763693272556837000,4.259837158203125,-0.5699130296707153,-0.5962647199630737,0.9875062704086304
1763693272566858000,4.26985791015625,-0.5699502825737,-0.42331796884536743,1.3506807088851929
1763693272576879000,4.279879150390625,-0.6692020297050476,0.030193056911230087,1.7135190963745117
1763693272586901200,4.2899013671875,-0.5681654214859009,0.24786758422851562,1.9060025215148926
1763693272596922000,4.299922119140625,-0.3413757085800171,0.2300206869840622,1.8833880424499512
1763693272606943200,4.309943115234375,0.003364105010405183,-0.12321540713310242,1.7740511894226074
1763693272616965000,4.319965087890625,0.3538115918636322,-0.4165937602519989,1.5578058958053589
1763693272626986000,4.329986083984375,0.5728582143783569,-0.5129693150520325,1.2129931449890137
1763693272637008100,4.340008056640625,0.6345942616462708,-0.5738150477409363,0.8101000189781189
1763693272647029200,4.350029296875,0.5274702310562134,-0.5779229998588562,0.3382797837257385
1763693272657050000,4.360050048828125,0.3945148289203644,-0.7969879508018494,-0.16607046127319336
1763693272667072000,4.370072021484375,0.28894898295402527,-0.8278270959854126,-0.7595460414886475
1763693272677093000,4.380093017578125,0.2880304455757141,-0.7415984869003296,-1.2625963687896729
1763693272687114000,4.390114013671875,0.43845778703689575,-0.4251803159713745,-1.5807256698608398
1763693272697136000,4.40013623046875,0.6101978421211243,0.203695610165596,-1.6573498249053955
1763693272707157200,4.4101572265625,0.7353437542915344,0.6425755023956299,-1.6679407358169556
1763693272717178000,4.42017822265625,0.6022424697875977,0.5664269328117371,-1.562576413154602
1763693272727200000,4.430199951171875,0.28591349720954895,0.41183069348335266,-1.389437198638916
1763693272737221000,4.44022119140625,-0.06046067923307419,0.10799038410186768,-1.0931346416473389
1763693272747242200,4.4502421875,-0.37584632635116577,-0.21184514462947845,-0.6535059213638306
1763693272757264100,4.46026416015625,-0.48473048210144043,-0.31292489171028137,-0.21469604969024658
1763693272767285000,4.470284912109375,-0.3576428294181824,-0.3216531276702881,0.1865064948797226
1763693272777306000,4.48030615234375,-0.19753038883209229,-0.09488816559314728,0.5127567648887634
1763693272787328000,4.490327880859375,-0.16523928940296173,0.17536303400993347,0.9171625971794128
1763693272797349000,4.50034912109375,-0.2521512806415558,0.19369889795780182,1.3984586000442505
1763693272807371300,4.510371337890625,-0.3584692180156708,1.1138207912445068,0.828307032585144
1763693272817392000,4.52039208984375,-0.5571886897087097,0.9039152264595032,0.7117809057235718
1763693272827413000,4.5304130859375,-0.6478970050811768,0.7464286684989929,0.27456018328666687
1763693272837435000,4.540434814453125,-0.6472810506820679,0.08915277570486069,-0.2184082418680191
1763693272847456300,4.550456298828125,-0.7413739562034607,-0.14595960080623627,-0.7188593149185181
1763693272857477000,4.56047705078125,-0.7901159524917603,-0.3083471655845642,-0.9711136817932129
1763693272867499000,4.5704990234375,-0.7441050410270691,-0.2507499158382416,-1.0043574571609497
1763693272877520100,4.58052001953125,-0.7248581051826477,-0.18059001863002777,-0.8968842029571533
1763693272887541000,4.590541015625,-0.649000346660614,-0.2195906788110733,-0.8166319727897644
1763693272897563100,4.600563232421875,-0.5666279792785645,0.8951646089553833,-0.27661508321762085
1763693272907584300,4.610584228515625,-0.31930795311927795,0.0175800584256649,-0.2036580592393875
1763693272917605000,4.620605224609375,-0.45328226685523987,-0.12456296384334564,-0.5140777230262756
1763693272927627000,4.630626953125,-0.4517706632614136,-0.2747604548931122,-0.4922861158847809
1763693272937648000,4.640648193359375,-0.39699023962020874,-0.14816710352897644,-0.5548160672187805
1763693272947669000,4.6506689453125,-0.3868909776210785,-0.18657439947128296,-0.6526837944984436
1763693272957691100,4.660691162109375,-0.5227247476577759,-0.37628787755966187,-0.7821022272109985
1763693272967712300,4.670712158203125,-0.6315937042236328,-0.47721049189567566,-1.0126763582229614
1763693272977734100,4.680734130859375,-0.6335537433624268,-0.5185781717300415,-1.22281014919281
1763693272987755000,4.690755126953125,-0.5878397822380066,-0.4694977104663849,-1.3499747514724731
1763693272997776100,4.700776123046875,-0.42487138509750366,-0.4445822536945343,-1.4053248167037964
1763693273007798300,4.71079833984375,-0.1640121042728424,-0.4778808057308197,-1.397952914237976
1763693273017819100,4.720819091796875,-0.04626123979687691,-0.42896467447280884,-1.397359013557434
1763693273027840300,4.73084033203125,-0.009198558516800404,-0.218472421169281,-1.4428982734680176
1763693273037862100,4.740862060546875,-0.028123512864112854,0.05645501986145973,-1.5340760946273804
1763693273047883000,4.750883056640625,-0.05209782347083092,-0.1558351367712021,-1.3812751770019531
1763693273057904000,4.760904052734375,-0.03814525529742241,-0.14025963842868805,-1.3127604722976685
1763693273067926300,4.77092626953125,0.02504090406000614,-0.01738644763827324,-1.189345359802246
1763693273077947100,4.780947021484375,0.10228642076253891,0.22983026504516602,-1.0198607444763184
1763693273087968000,4.790968017578125,0.157226100564003,0.515556812286377,-0.8191918134689331
1763693273097990100,4.800990234375,0.17425942420959473,0.7702059149742126,-0.6120884418487549
1763693273108011000,4.811010986328125,0.18739385902881622,1.043497085571289,-0.42259520292282104
1763693273118032100,4.8210322265625,0.1994481235742569,1.1112984418869019,-0.26122787594795227
1763693273128054000,4.831053955078125,0.22949416935443878,0.9979423880577087,-0.15033091604709625
1763693273138075100,4.8410751953125,0.27691414952278137,0.7898136973381042,-0.08975012600421906
1763693273148097000,4.851096923828125,0.3602955937385559,0.5978514552116394,-0.060443103313446045
1763693273158118000,4.861117919921875,0.4746738374233246,0.4045637249946594,-0.07729186117649078
1763693273168139300,4.87113916015625,0.5917717218399048,0.24548272788524628,-0.1175849512219429
1763693273178161200,4.8811611328125,0.7161969542503357,0.19758711755275726,-0.1008152961730957
1763693273188182000,4.89118212890625,0.9012746810913086,0.2837070822715759,-0.0414438471198082
1763693273198203100,4.901203125,1.0189381837844849,0.37220606207847595,-0.037040043622255325
1763693273208225000,4.91122509765625,1.0579543113708496,0.3605342209339142,-0.05750909820199013
1763693273218246100,4.92124609375,1.0425300598144531,0.33040934801101685,-0.1338595300912857
1763693273228267300,4.931267333984375,0.9966741800308228,0.343700110912323,-0.23550945520401
1763693273238289200,4.9412890625,0.9293915629386902,0.36223146319389343,-0.36643925309181213
1763693273248310000,4.95131005859375,0.8652415871620178,0.43656426668167114,-0.5255186557769775
1763693273258331100,4.9613310546875,0.7702940106391907,0.5010157227516174,-0.6558385491371155
1763693273268353300,4.971353271484375,0.638161838054657,0.4903678596019745,-0.7277489900588989
1763693273278374100,4.9813740234375,0.5151176452636719,0.477963387966156,-0.7148648500442505
1763693273288396000,4.99139599609375,0.4675546884536743,0.45125481486320496,-0.5899930000305176
1763693273298417200,5.001417236328125,0.4634842872619629,0.3278369903564453,-0.41863906383514404
1763693273308438000,5.01143798828125,0.49458444118499756,0.04832012951374054,-0.2132374495267868
1763693273318460000,5.0214599609375,0.5444207191467285,-0.16447336971759796,-0.016988305374979973
1763693273328481300,5.031481201171875,0.5305309891700745,-0.031214378774166107,0.052803561091423035
1763693273338502100,5.041502197265625,0.5033372044563293,0.14195793867111206,0.013082246296107769
1763693273348524000,5.05152392578125,0.5202498435974121,0.319418728351593,-0.09617819637060165
1763693273358545200,5.061545166015625,0.5832850337028503,0.4950137436389923,-0.23571957647800446
1763693273368566000,5.07156591796875,0.6957076787948608,0.5634061098098755,-0.34563329815864563
1763693273378588200,5.081588134765625,0.4142264723777771,0.8369180560112,-0.3379913568496704
1763693273388609300,5.091609375,-0.2687039077281952,1.0356700420379639,-0.2999957799911499
1763693273398630100,5.101630126953125,-0.02853177674114704,1.0553451776504517,-0.35889771580696106
1763693273408652000,5.111652099609375,0.6885669231414795,0.8815465569496155,-0.4415387809276581
1763693273418673200,5.121673095703125,1.1996688842773438,0.6129686236381531,-0.42581629753112793
1763693273428694000,5.131694091796875,1.393178105354309,0.4069794714450836,-0.3752082288265228
1763693273438716200,5.141716064453125,1.4774988889694214,0.17547328770160675,-0.3149110674858093
1763693273448737000,5.151737060546875,1.4854155778884888,-0.09162978827953339,-0.24434901773929596
1763693273458759200,5.16175927734375,1.4244768619537354,-0.3127206265926361,-0.18632912635803223
1763693273468780000,5.171780029296875,1.2927074432373047,-0.4321138560771942,-0.12934599816799164
1763693273478801000,5.18180078125,1.139054536819458,-0.4218612313270569,-0.05461743846535683
1763693273488823300,5.1918232421875,0.9971508979797363,-0.29268327355384827,0.05056330934166908
1763693273498843400,5.201843505859375,0.8790716528892517,-0.09051578491926193,0.1684979349374771
1763693273508864500,5.211864501953125,0.8072821497917175,0.11944810301065445,0.34045612812042236
1763693273518886700,5.22188671875,0.7506713271141052,0.2477855682373047,0.5797432661056519
1763693273528907500,5.231907470703125,0.6873083710670471,0.25630396604537964,0.8539937138557434
1763693273538928400,5.241928466796875,0.6722968816757202,0.3543921709060669,1.0909887552261353
1763693273548950500,5.251950439453125,0.6921113729476929,0.3804522752761841,1.3245899677276611
1763693273558971400,5.261971435546875,0.7759522199630737,0.35644838213920593,1.4725333452224731
1763693273568992300,5.2719921875,0.8415077924728394,0.3890407085418701,1.5524777173995972
1763693273579014700,5.2820146484375,0.8539785742759705,0.40261802077293396,1.564415693283081
1763693273589035500,5.292035400390625,0.8248574137687683,0.4546799063682556,1.5540231466293335
1763693273599056400,5.302056396484375,0.7702005505561829,0.47910934686660767,1.5095311403274536
1763693273609078500,5.31207861328125,0.6799825429916382,0.502183735370636,1.4326051473617554
1763693273619099400,5.322099365234375,0.5516282916069031,0.5098547339439392,1.324225664138794
1763693273629120500,5.33212060546875,0.3728784918785095,0.49559271335601807,1.158053994178772
1763693273639142400,5.342142333984375,0.16310450434684753,0.4862529933452606,0.9382814168930054
1763693273649163500,5.35216357421875,-0.03708425164222717,0.5679899454116821,0.6831996440887451
1763693273659185400,5.362185302734375,-0.17792126536369324,0.743140697479248,0.37928447127342224
1763693273669206300,5.372206298828125,-0.27626514434814453,0.9950267672538757,0.107136569917202
1763693273679227600,5.3822275390625,-0.2879668176174164,1.2384426593780518,-0.11357156932353973
1763693273689249500,5.39224951171875,-0.22879455983638763,1.3269197940826416,-0.2554698586463928
1763693273699270400,5.4022705078125,-0.1410689800977707,1.3074445724487305,-0.331857830286026
1763693273709291500,5.41229150390625,-0.021464278921484947,1.2313599586486816,-0.41932642459869385
1763693273719313400,5.4223134765625,0.04741279035806656,1.131386399269104,-0.4820936620235443
1763693273729334500,5.43233447265625,0.09839288145303726,1.0885729789733887,-0.4858170449733734
1763693273739355600,5.442355712890625,0.1197224035859108,1.021758794784546,-0.4598666727542877
1763693273749377500,5.45237744140625,0.17050115764141083,1.0744192600250244,-0.4646470248699188
1763693273759398400,5.4623984375,0.26010534167289734,1.1096394062042236,-0.4488512873649597
1763693273769419500,5.47241943359375,0.30880099534988403,0.9422053694725037,-0.3484288156032562
1763693273779441700,5.482441650390625,0.3968176543712616,0.7499509453773499,-0.2079622596502304
1763693273789462500,5.492462646484375,0.5022982954978943,0.6964909434318542,-0.058939483016729355
1763693273799484400,5.502484375,0.5508639216423035,0.7904651165008545,0.08786726742982864
1763693273809505500,5.512505615234375,0.5780633687973022,0.8835591077804565,0.2449365109205246
1763693273819526400,5.5225263671875,0.6395648121833801,0.8618960976600647,0.3840731084346771
1763693273829548500,5.532548583984375,0.6671023964881897,0.8019446730613708,0.4859400689601898
1763693273839569700,5.542569580078125,0.5965566039085388,0.6971761584281921,0.6121025085449219
1763693273849590500,5.552590576171875,0.5229990482330322,0.5584142804145813,0.754271924495697
1763693273859612400,5.5626123046875,0.42783069610595703,0.7303556799888611,0.7774659395217896
1763693273869633500,5.572633544921875,0.29794806241989136,0.7251105904579163,0.687254011631012
1763693273879654400,5.582654296875,0.22008496522903442,0.7684212923049927,0.4926416575908661
1763693273889676500,5.592676513671875,0.1876002550125122,0.8639962673187256,0.27546513080596924
1763693273899697700,5.60269775390625,0.17047160863876343,0.9733288884162903,0.1254655122756958
1763693273909718500,5.612718505859375,0.14813940227031708,0.9383158087730408,0.07952625304460526
1763693273919740400,5.622740478515625,0.14467276632785797,0.875761866569519,0.10626784712076187
1763693273929761500,5.632761474609375,0.09219730645418167,0.8427914381027222,0.1277875155210495
1763693273939782400,5.642782470703125,0.011510714888572693,0.8710797429084778,0.10131197422742844
1763693273949804500,5.652804443359375,-0.07171998918056488,0.9884998798370361,0.015606123954057693
1763693273959825400,5.662825439453125,-0.11993865668773651,1.1427093744277954,-0.03825045004487038
1763693273969847600,5.67284765625,-0.14423787593841553,1.219772219657898,0.02456020377576351
1763693273979868400,5.682868408203125,-0.1863483041524887,1.1011041402816772,0.1615777164697647
1763693273989889300,5.69288916015625,-0.19974134862422943,1.0053400993347168,0.2941083312034607
1763693273999911400,5.702911376953125,-0.22857272624969482,0.9512744545936584,0.3715762197971344
1763693274009932500,5.7129326171875,-0.30112096667289734,0.8821902275085449,0.3968866467475891
1763693274019953400,5.722953369140625,-0.43332958221435547,0.8182000517845154,0.4041520059108734
1763693274029975300,5.732975341796875,-0.5941014289855957,0.7412006258964539,0.37694862484931946
1763693274039996400,5.742996337890625,-0.7220482230186462,0.6939507722854614,0.3652362823486328
1763693274050017500,5.753017578125,-0.8093567490577698,0.6316453218460083,0.40363988280296326
1763693274060039400,5.763039306640625,-0.8427829146385193,0.4576091170310974,0.4959375858306885
1763693274070060500,5.773060546875,-0.8156015872955322,0.25208336114883423,0.6047354340553284
1763693274080081400,5.783081298828125,-0.7778118848800659,0.1401408612728119,0.6509932279586792
1763693274090103300,5.793103271484375,-0.7205573916435242,0.18631820380687714,0.6677154898643494
1763693274100124700,5.803124755859375,-0.6971068978309631,0.362639456987381,0.6853320002555847
1763693274110145500,5.8131455078125,-0.7092591524124146,0.603863537311554,0.7401771545410156
1763693274120167400,5.82316748046875,-0.7228788733482361,0.9233379364013672,0.8543471097946167
1763693274130188500,5.8331884765625,-0.7385553121566772,1.2169634103775024,0.9968933463096619
1763693274140209400,5.84320947265625,-0.7354859709739685,1.4291605949401855,1.11704421043396
1763693274150231600,5.8532314453125,-0.7017155289649963,1.4148099422454834,1.2119865417480469
1763693274160252700,5.863252685546875,-0.6519772410392761,1.2769311666488647,1.2207176685333252
1763693274170274600,5.873274658203125,-0.6079080700874329,1.1167348623275757,1.165153980255127
1763693274180295400,5.88329541015625,-0.7320340275764465,0.7672181129455566,1.1594750881195068
1763693274190316500,5.893316650390625,-0.8355433344841003,0.4084886908531189,1.173811912536621
1763693274200338400,5.90333837890625,-0.8210432529449463,0.276225209236145,1.0844389200210571
1763693274210359600,5.913359619140625,-0.8868459463119507,0.13413622975349426,1.0062599182128906
1763693274220380700,5.923380615234375,-0.9860982298851013,0.01733797788619995,0.9951236844062805
1763693274230402600,5.933402587890625,-0.9895755052566528,-0.06618274748325348,0.9999104738235474
1763693274240423400,5.94342333984375,-0.9511301517486572,-0.10804124921560287,0.9832896590232849
1763693274250444300,5.9534443359375,-0.8951517939567566,-0.10153354704380035,0.9974390268325806
1763693274260466700,5.963466796875,-0.8516488075256348,-0.02966015785932541,1.049636960029602
1763693274270487600,5.973487548828125,-0.814350426197052,0.07609184086322784,1.104555368423462
1763693274280508400,5.98350830078125,-0.7708026766777039,0.1927308291196823,1.1171302795410156
1763693274290530600,5.993530517578125,-0.7239238619804382,0.30507680773735046,1.0852214097976685
1763693274300551400,6.003551513671875,-0.6723504066467285,0.44590452313423157,1.0329653024673462
1763693274310572300,6.013572265625,-0.5556890368461609,0.5398392677307129,1.0058047771453857
1763693274320594400,6.023594482421875,-0.4458150267601013,0.5973584651947021,0.9979665875434875
1763693274330615600,6.033615478515625,-0.33370527625083923,0.6373668909072876,1.0201747417449951
1763693274340637400,6.043637451171875,-0.19712825119495392,0.7202692031860352,1.0668572187423706
1763693274350658300,6.053658203125,-0.038533009588718414,0.8150026798248291,1.137891173362732
1763693274360679400,6.063679443359375,0.16147544980049133,0.9050052762031555,1.2283902168273926
1763693274370701600,6.07370166015625,0.39110010862350464,1.019363522529602,1.2874293327331543
1763693274380722400,6.083722412109375,0.586168646812439,1.1553751230239868,1.2771532535552979
1763693274390743600,6.09374365234375,0.6959023475646973,1.2798515558242798,1.2083765268325806
1763693274400765400,6.103765380859375,0.7533574104309082,1.3341400623321533,1.1332120895385742
1763693274410786300,6.113786376953125,0.7172012329101562,1.24383544921875,1.0792697668075562
1763693274420807400,6.123807373046875,0.6511910557746887,0.9754205346107483,1.108523964881897
1763693274430829600,6.13382958984375,0.598336935043335,0.7170891165733337,1.3733128309249878
1763693274440850400,6.143850341796875,0.5832719802856445,0.6878095269203186,1.5488771200180054
1763693274450871600,6.15387158203125,0.5037904381752014,0.6052107810974121,1.6400028467178345
1763693274460893400,6.1638935546875,0.31223273277282715,0.5387691855430603,1.6664304733276367
1763693274470914300,6.173914306640625,-0.14697372913360596,0.4930131733417511,1.6382395029067993
1763693274480935700,6.183935791015625,-0.6414497494697571,0.34813880920410156,1.6238726377487183
1763693274490957600,6.19395751953125,-0.8404427766799927,0.2483629435300827,1.6100553274154663
1763693274500978200,6.203978271484375,-0.7106565237045288,0.414569228887558,1.54582941532135
1763693274511000000,6.214,-0.523177444934845,0.8233117461204529,1.5285212993621826
1763693274521021200,6.224021240234375,-0.35623136162757874,1.020867943763733,1.5060945749282837
1763693274531042300,6.234042236328125,-0.23065026104450226,1.017778992652893,1.4556111097335815
1763693274541064200,6.244064208984375,-0.1693599969148636,0.905191957950592,1.388631820678711
1763693274551085300,6.254085205078125,-0.12282365560531616,0.818597674369812,1.323447823524475
1763693274561106200,6.264106201171875,-0.09023269265890121,0.8861953616142273,1.2670021057128906
1763693274571128000,6.274128173828125,0.0009435579413548112,1.063904047012329,1.204817295074463
1763693274581149400,6.2841494140625,0.058772504329681396,0.8841694593429565,1.0257985591888428
1763693274591170300,6.29417041015625,0.02605610154569149,0.8897719383239746,0.7817456126213074
1763693274601192200,6.304192138671875,0.018143849447369576,1.0074543952941895,0.47070786356925964
1763693274611213300,6.31421337890625,0.04609718918800354,1.1148990392684937,0.1264471560716629
1763693274621234200,6.324234130859375,0.08274095505475998,1.1822307109832764,-0.2347041219472885
1763693274631256300,6.33425634765625,0.09429587423801422,1.2331591844558716,-0.576667845249176
1763693274641277400,6.34427734375,0.15418264269828796,1.2342218160629272,-0.8731181621551514
1763693274651298300,6.35429833984375,0.2671278417110443,1.2670782804489136,-1.041111946105957
1763693274661320200,6.3643203125,0.2850956618785858,1.2385571002960205,-1.137330412864685
1763693274671341000,6.374341064453125,0.3272894322872162,1.1458183526992798,-1.1949912309646606
1763693274681363500,6.384363525390625,0.4572650194168091,0.8813039064407349,-1.24248206615448
1763693274691384300,6.39438427734375,0.5413162708282471,0.4675038158893585,-1.3265676498413086
1763693274701405200,6.4044052734375,0.6490054130554199,0.012897422537207603,-1.4359021186828613
1763693274711427300,6.41442724609375,0.7701275944709778,-0.3937928378582001,-1.555385708808899
1763693274721448200,6.4244482421875,0.7417414784431458,-0.6809127330780029,-1.6772979497909546
1763693274731469000,6.434468994140625,0.6570817232131958,-0.7441598773002625,-1.7179408073425293
1763693274741491200,6.4444912109375,0.47146233916282654,-0.535715639591217,-1.6815459728240967
1763693274751512300,6.45451220703125,0.18286195397377014,-0.30495938658714294,-1.6046937704086304
1763693274761533200,6.464533203125,-0.12304496765136719,0.0028304075822234154,-1.4993189573287964
1763693274771555000,6.47455517578125,-0.36753806471824646,0.28921130299568176,-1.3808953762054443
1763693274781576200,6.484576171875,-0.5138494968414307,0.5081518888473511,-1.2449108362197876
1763693274791597000,6.49459716796875,-0.5168226361274719,0.6448413133621216,-1.0837204456329346
1763693274801619200,6.504619140625,-0.3991210162639618,0.7030487060546875,-0.9004083871841431
1763693274811640300,6.514640380859375,-0.21661406755447388,0.7333387136459351,-0.7113431096076965
1763693274821661200,6.5246611328125,-0.026271285489201546,0.7566333413124084,-0.5186806917190552
1763693274831683000,6.53468310546875,0.09819847345352173,0.7339804768562317,-0.3353779911994934
1763693274841704200,6.5447041015625,0.13338175415992737,0.6414745450019836,-0.19265253841876984
1763693274851726300,6.554726318359375,0.04422365501523018,0.5422494411468506,-0.07321588695049286
1763693274861747200,6.564747314453125,-0.0514080636203289,0.4684167504310608,0.02268320880830288
1763693274871768300,6.574768310546875,-0.1829538345336914,0.40177834033966064,0.06137840449810028
1763693274881790200,6.584790283203125,-0.312129944562912,0.29654404520988464,0.04988766461610794
1763693274891811000,6.59481103515625,-0.40365052223205566,0.15771213173866272,0.010579939931631088
1763693274901832400,6.60483251953125,-0.4333290755748749,0.05096171796321869,-0.0587778277695179
1763693274911854300,6.614854248046875,-0.38275110721588135,-0.07473602145910263,-0.17354196310043335
1763693274921875200,6.624875244140625,-0.23599761724472046,-0.23738805949687958,-0.32326433062553406
1763693274931896300,6.634896240234375,-0.04006432741880417,-0.37166038155555725,-0.5065617561340332
1763693274941918200,6.644918212890625,0.15954731404781342,-0.44406744837760925,-0.7043352723121643
1763693274951939300,6.654939208984375,0.32253384590148926,-0.5659403800964355,-0.8848243355751038
1763693274961960200,6.664960205078125,0.43521296977996826,-0.6972064971923828,-1.0490734577178955
1763693274971982300,6.674982421875,0.4638108015060425,-0.8304979801177979,-1.181580662727356
1763693274982003200,6.685003173828125,0.41490983963012695,-0.91826993227005,-1.279228687286377
1763693274992024000,6.695024169921875,0.31980064511299133,-0.9031873941421509,-1.3429440259933472
1763693275002046500,6.70504638671875,0.1671690195798874,-0.836385190486908,-1.4181209802627563
1763693275012067300,6.7150673828125,0.028569592162966728,-0.8110496997833252,-1.4767942428588867
1763693275022088200,6.725088134765625,-0.08022000640630722,-0.7129170298576355,-1.5152413845062256
1763693275032110300,6.7351103515625,-0.18655043840408325,-0.6035537719726562,-1.5199244022369385
1763693275042131200,6.745131103515625,-0.2784169912338257,-0.5719223618507385,-1.4903560876846313
1763693275052153300,6.7551533203125,-0.3150929808616638,-0.5902518630027771,-1.4151761531829834
1763693275062174200,6.76517431640625,-0.3035942316055298,-0.6093461513519287,-1.3099184036254883
1763693275072195300,6.7751953125,-0.267454594373703,-0.6008168458938599,-1.2050753831863403
1763693275082217200,6.78521728515625,-0.2783711850643158,-0.5680727362632751,-1.1256723403930664
1763693275092238000,6.795238037109375,-0.38145655393600464,-0.5288257598876953,-1.0660582780838013
1763693275102259200,6.80525927734375,-0.5101796388626099,-0.5623549818992615,-1.0244501829147339
1763693275112281300,6.81528125,-0.6338147521018982,-0.6253272891044617,-0.9857426881790161
1763693275122302200,6.82530224609375,-0.7650585174560547,-0.7009966969490051,-0.9404090642929077
1763693275132323300,6.8353232421875,-0.9264490008354187,-0.7186460494995117,-0.882557213306427
1763693275142345200,6.84534521484375,-1.1154202222824097,-0.7441268563270569,-0.8102800846099854
1763693275152366000,6.855365966796875,-1.3022100925445557,-0.8359137773513794,-0.7380931973457336
1763693275162387200,6.86538720703125,-1.4648061990737915,-0.9312576055526733,-0.6940016746520996
1763693275172409300,6.875409423828125,-1.6173076629638672,-0.9946776032447815,-0.6907667517662048
1763693275182430200,6.88543017578125,-1.7688089609146118,-1.0072224140167236,-0.7337413430213928
1763693275192451300,6.895451416015625,-1.9106090068817139,-0.9247661828994751,-0.7981134057044983
1763693275202473200,6.90547314453125,-2.0587759017944336,-0.8042368292808533,-0.8460878729820251
1763693275212494000,6.915494140625,-2.2579214572906494,-0.6382308006286621,-0.8350613117218018
1763693275222516200,6.92551611328125,-2.506293535232544,-0.5296254754066467,-0.764281153678894
1763693275232537300,6.935537353515625,-2.76056170463562,-0.5135014057159424,-0.6650909185409546
1763693275242558200,6.94555810546875,-2.9692137241363525,-0.5876728296279907,-0.5693337917327881
1763693275252580000,6.955580078125,-3.09316086769104,-0.7145703434944153,-0.4833826422691345
1763693275262601200,6.965601318359375,-3.105470895767212,-0.8434880971908569,-0.4008520841598511
1763693275272622300,6.975622314453125,-3.0349037647247314,-0.9159466028213501,-0.32100385427474976
1763693275282644200,6.985644287109375,-2.939950942993164,-0.9334853887557983,-0.22954770922660828
1763693275292665300,6.995665283203125,-2.873020887374878,-0.9026241302490234,-0.12246386706829071
1763693275302686200,7.005686279296875,-2.845716953277588,-0.8213303089141846,0.010576478205621243
1763693275312708000,7.0157080078125,-2.8527214527130127,-0.6895206570625305,0.16238518059253693
1763693275322729500,7.0257294921875,-2.8906054496765137,-0.5188575387001038,0.31262528896331787
1763693275332750300,7.035750244140625,-2.9419844150543213,-0.329463928937912,0.4470427334308624
1763693275342772200,7.045772216796875,-2.979966163635254,-0.148331418633461,0.5333949327468872
1763693275352793300,7.05579345703125,-2.9976747035980225,0.004397677723318338,0.5383614897727966
1763693275362814200,7.065814208984375,-2.9784576892852783,0.12055331468582153,0.45241406559944153
1763693275372836000,7.075836181640625,-2.8940343856811523,0.23290622234344482,0.3072614073753357
1763693275382857200,7.085857177734375,-2.7454617023468018,0.31500962376594543,0.15413923561573029
1763693275392879400,7.09587939453125,-2.5532445907592773,0.3418830335140228,0.029984263703227043
1763693275402900200,7.105900146484375,-2.3305649757385254,0.2986482083797455,-0.03256407007575035
1763693275412921000,7.115921142578125,-2.085117816925049,0.18989297747612,-0.013517140410840511
1763693275422943200,7.125943115234375,-1.82473623752594,0.03801875561475754,0.07503136992454529
1763693275432964400,7.13596435546875,-1.5559515953063965,-0.12001695483922958,0.21101103723049164
1763693275442985200,7.145985107421875,-1.294464111328125,-0.2381449192762375,0.3507441580295563
1763693275453007000,7.156007080078125,-1.0662673711776733,-0.309627890586853,0.46192076802253723
1763693275463028200,7.1660283203125,-0.8975641131401062,-0.3379751145839691,0.5198420882225037
1763693275473049000,7.176049072265625,-0.7884395122528076,-0.31858596205711365,0.5115538239479065
1763693275483071200,7.1860712890625,-0.7370202541351318,-0.2703918218612671,0.43064993619918823
1763693275493092400,7.19609228515625,-0.726845920085907,-0.1999455988407135,0.28405675292015076
1763693275503113700,7.20611376953125,-0.7604550123214722,-0.10428991913795471,0.09887704253196716
1763693275513135600,7.216135498046875,-0.8271647691726685,-0.014104100875556469,-0.10258523374795914
1763693275523156700,7.22615673828125,-0.8846653699874878,0.038899194449186325,-0.2843771278858185
1763693275533177600,7.236177490234375,-0.8800674080848694,0.07497730851173401,-0.40722474455833435
1763693275543199700,7.24619970703125,-0.7945892810821533,0.1532987356185913,-0.4374878406524658
1763693275553220900,7.256220947265625,-0.6677575707435608,0.26046034693717957,-0.36619049310684204
1763693275563241700,7.26624169921875,-0.5433615446090698,0.35894644260406494,-0.19781002402305603
1763693275573263600,7.276263671875,-0.4610091745853424,0.4252415895462036,0.03940200060606003
1763693275583284700,7.28628466796875,-0.442883163690567,0.4710146486759186,0.31157732009887695
1763693275593307000,7.296306884765625,-0.487944096326828,0.5146356225013733,0.5838176608085632
1763693275603327700,7.30632763671875,-0.5982437133789062,0.5368831753730774,0.8240494132041931
1763693275613348600,7.3163486328125,-0.7579777240753174,0.5531933903694153,1.0145198106765747
1763693275623370800,7.326370849609375,-0.941814661026001,0.597069263458252,1.1514219045639038
1763693275633391600,7.3363916015625,-1.1379677057266235,0.6485990285873413,1.2320486307144165
1763693275643412700,7.346412841796875,-1.362159252166748,0.6997660994529724,1.2680071592330933
1763693275653435000,7.356434814453125,-1.5906970500946045,0.7348620295524597,1.2583606243133545
1763693275663455700,7.366455810546875,-1.7893544435501099,0.7295694947242737,1.207944631576538
1763693275673476600,7.3764765625,-1.9205883741378784,0.6791188716888428,1.115378737449646
1763693275683498500,7.38649853515625,-1.9607113599777222,0.6254010200500488,0.9725584387779236
1763693275693520000,7.396519775390625,-1.9377623796463013,0.5691319108009338,0.7973639965057373
1763693275703540700,7.406540771484375,-1.9016016721725464,0.5056011080741882,0.5971342325210571
1763693275713562600,7.416562744140625,-1.8876919746398926,0.41078993678092957,0.3826749324798584
1763693275723583700,7.426583740234375,-1.885865330696106,0.31493157148361206,0.1490669846534729
1763693275733604600,7.4366044921875,-1.9026259183883667,0.22084049880504608,-0.11162453144788742
1763693275743626800,7.446626708984375,-1.9269328117370605,0.11022929847240448,-0.3830544352531433
1763693275753647900,7.45664794921875,-1.9218286275863647,-0.007656588219106197,-0.6249067783355713
1763693275763668700,7.466668701171875,-1.8520671129226685,-0.13076679408550262,-0.8123570680618286
1763693275773690600,7.476690673828125,-1.706560492515564,-0.2439061403274536,-0.9478267431259155
1763693275783711700,7.486711669921875,-1.4909603595733643,-0.3206850588321686,-1.037233591079712
1763693275793732600,7.496732666015625,-1.2364529371261597,-0.4043450951576233,-1.0914638042449951
1763693275803754800,7.506754638671875,-0.9627561569213867,-0.5186604857444763,-1.1326544284820557
1763693275813776000,7.51677587890625,-0.686130166053772,-0.6118993163108826,-1.180829644203186
1763693275823797800,7.5267978515625,-0.4114658534526825,-0.6426849365234375,-1.2469040155410767
1763693275833818600,7.536818603515625,-0.16848275065422058,-0.6797193884849548,-1.314340353012085
1763693275843839700,7.54683984375,0.03271932899951935,-0.7516239285469055,-1.363600730895996
1763693275853862000,7.55686181640625,0.2066253423690796,-0.8383098244667053,-1.373824119567871
1763693275863882800,7.5668828125,0.3611651062965393,-0.9300658702850342,-1.337576150894165
1763693275873903900,7.57690380859375,0.508008599281311,-1.0077580213546753,-1.2683485746383667
1763693275883925800,7.58692578125,0.6494659185409546,-1.0258256196975708,-1.1670736074447632
1763693275893946600,7.596946533203125,0.7576956748962402,-1.0119117498397827,-1.0337631702423096
1763693275903967700,7.6069677734375,0.8216927647590637,-0.9717230200767517,-0.8808538317680359
1763693275913990000,7.616989990234375,0.8503992557525635,-0.8882870078086853,-0.7166736721992493
1763693275924010800,7.6270107421875,0.8595687747001648,-0.7943469285964966,-0.5459797382354736
1763693275934031600,7.637031494140625,0.8522400259971619,-0.7070809602737427,-0.3778567612171173
1763693275944053800,7.6470537109375,0.8237247467041016,-0.5787405967712402,-0.20623812079429626
1763693275954074600,7.65707470703125,0.764655590057373,-0.4556543529033661,-0.02587580494582653
1763693275964095700,7.667095703125,0.6710039377212524,-0.3815329670906067,0.1636594980955124
1763693275974117600,7.67711767578125,0.5582696795463562,-0.33549436926841736,0.331520676612854
1763693275984138800,7.687138671875,0.468740850687027,-0.25886592268943787,0.44582754373550415
1763693275994159600,7.69715966796875,0.42743656039237976,-0.09014294296503067,0.4836729168891907
1763693276004181500,7.707181396484375,0.4369371235370636,0.17294035851955414,0.45010536909103394
1763693276014203000,7.717202880859375,0.5006923675537109,0.4504680931568146,0.37444522976875305
1763693276024224800,7.727224853515625,0.6141776442527771,0.7096490859985352,0.2901791036128998
1763693276034245600,7.73724560546875,0.7848958969116211,0.9302541613578796,0.23866930603981018
1763693276044266800,7.747266845703125,1.0033472776412964,1.0653607845306396,0.23744291067123413
1763693276054288600,7.75728857421875,1.2438591718673706,1.107445478439331,0.28685519099235535
1763693276064309800,7.767309814453125,1.4781574010849,1.0531818866729736,0.3719109892845154
1763693276074331000,7.777330810546875,1.6843782663345337,0.9146775603294373,0.45290303230285645
1763693276084352800,7.787352783203125,1.8530516624450684,0.7072991132736206,0.5072216391563416
1763693276094373600,7.79737353515625,1.9813950061798096,0.47396278381347656,0.5231638550758362
1763693276104394800,7.807394775390625,2.066143274307251,0.22197288274765015,0.49793335795402527
1763693276114417000,7.8174169921875,2.115549087524414,-0.01594993844628334,0.4497077763080597
1763693276124437800,7.827437744140625,2.127572774887085,-0.2294939160346985,0.39297497272491455
1763693276134459000,7.837458984375,2.1049365997314453,-0.40812039375305176,0.3357526957988739
1763693276144480800,7.847480712890625,2.0663859844207764,-0.5339912176132202,0.2799810469150543
1763693276154501600,7.857501708984375,2.0235161781311035,-0.5813643336296082,0.21686705946922302
1763693276164522800,7.867522705078125,1.9862449169158936,-0.5319198369979858,0.14468927681446075
1763693276174545000,7.877544921875,1.9423078298568726,-0.3968440294265747,0.05800151824951172
1763693276184565800,7.887565673828125,1.8814940452575684,-0.216496080160141,-0.026644393801689148
1763693276194587000,7.8975869140625,1.8031527996063232,-0.037886928766965866,-0.10055696964263916
1763693276204608800,7.90760888671875,1.71559476852417,0.11335292458534241,-0.14708586037158966
1763693276214629600,7.917629638671875,1.6272095441818237,0.2318606674671173,-0.1593334674835205
1763693276224651800,7.92765185546875,1.5431886911392212,0.29508358240127563,-0.1319071650505066
1763693276234673000,7.9376728515625,1.4846038818359375,0.3230861723423004,-0.07141399383544922
1763693276244693800,7.94769384765625,1.4638248682022095,0.30852213501930237,-0.00002370213405811228
1763693276254715600,7.957715576171875,1.4537384510040283,0.21168722212314606,0.060083575546741486
1763693276264736800,7.96773681640625,1.4396289587020874,0.04401006922125816,0.1023482084274292
1763693276274757600,7.977757568359375,1.4414374828338623,-0.13470694422721863,0.13148851692676544
1763693276284779800,7.98777978515625,1.4658808708190918,-0.20433609187602997,0.16612239181995392
1763693276294800600,7.997800537109375,1.4721299409866333,-0.21525612473487854,0.22557640075683594
1763693276304821800,8.00782177734375,1.4325894117355347,-0.20492997765541077,0.31176242232322693
1763693276314843600,8.01784375,1.343492865562439,-0.16938184201717377,0.4063669443130493
1763693276324864500,8.027864501953125,1.2141764163970947,-0.07275782525539398,0.48990127444267273
1763693276334886000,8.037885986328124,1.0390461683273315,0.08018964529037476,0.5475221872329712
1763693276344907800,8.04790771484375,0.8009976148605347,0.2311924695968628,0.5704480409622192
1763693276354928600,8.0579287109375,0.5101359486579895,0.37490224838256836,0.560982346534729
1763693276364949800,8.06794970703125,0.23308305442333221,0.5124771595001221,0.5293232202529907
1763693276374971600,8.0779716796875,-0.047927044332027435,0.6043367385864258,0.48609694838523865
1763693276384992800,8.08799267578125,-0.373248428106308,0.7490057945251465,0.4273800849914551
1763693276395014000,8.098013916015624,-0.6190888285636902,0.9135971665382385,0.3705647587776184
1763693276405035800,8.108035888671875,-0.8157869577407837,1.0051379203796387,0.3258204460144043
1763693276415056600,8.118056640625,-0.9738690257072449,0.9963005185127258,0.30823132395744324
1763693276425078500,8.12807861328125,-1.0647342205047607,0.9033330678939819,0.32160893082618713
1763693276435100000,8.138099853515625,-1.1003750562667847,0.7444288730621338,0.3517809510231018
1763693276445120800,8.148120849609375,-1.1147760152816772,0.499034583568573,0.38156333565711975
1763693276455142700,8.158142578125,-1.1297789812088013,0.18813689053058624,0.38899463415145874
1763693276465163800,8.168163818359375,-1.1461312770843506,-0.10618768632411957,0.3524344861507416
1763693276475184600,8.1781845703125,-1.1751842498779297,-0.3188469707965851,0.27739885449409485
1763693276485206800,8.188206787109374,-1.2186188697814941,-0.5097838640213013,0.16844066977500916
1763693276495228200,8.198228271484375,-1.2668465375900269,-0.7561286687850952,0.010187390260398388
1763693276505249000,8.2082490234375,-1.2949059009552002,-0.9786688089370728,-0.19419877231121063
1763693276515271000,8.21827099609375,-1.2990819215774536,-1.1821178197860718,-0.4459252953529358
1763693276525292000,8.2282919921875,-1.2772326469421387,-1.321357250213623,-0.7105287313461304
1763693276535313000,8.23831298828125,-1.271785855293274,-1.4091274738311768,-0.9261632561683655
1763693276545335000,8.2483349609375,-1.3146237134933472,-1.490179181098938,-1.0682690143585205
1763693276555356000,8.25835595703125,-1.3839119672775269,-1.5623847246170044,-1.1196386814117432
1763693276565377000,8.268376953125,-1.4768072366714478,-1.6065326929092407,-1.0854887962341309
1763693276575399000,8.27839892578125,-1.6000556945800781,-1.605813980102539,-0.9788658618927002
1763693276585419800,8.288419677734375,-1.7848156690597534,-1.5294501781463623,-0.8248052000999451
1763693276595441000,8.29844091796875,-2.0303986072540283,-1.400424838066101,-0.6529706120491028
1763693276605463000,8.308463134765624,-2.296903371810913,-1.230211615562439,-0.5040527582168579
1763693276615484000,8.31848388671875,-2.558704137802124,-1.0209230184555054,-0.4321649968624115
1763693276625506000,8.328506103515625,-2.807192802429199,-0.8023486733436584,-0.4525730609893799
1763693276635527000,8.33852685546875,-3.002131938934326,-0.5860011577606201,-0.5617685317993164
1763693276645547800,8.3485478515625,-3.0960631370544434,-0.37818244099617004,-0.7326385378837585
1763693276655570000,8.35856982421875,-3.091130495071411,-0.23799897730350494,-0.9441433548927307
1763693276665591000,8.368591064453126,-2.9925777912139893,-0.16544382274150848,-1.1630195379257202
1763693276675612000,8.37861181640625,-2.7973551750183105,-0.14369085431098938,-1.3374993801116943
1763693276685633800,8.3886337890625,-2.5318431854248047,-0.17007745802402496,-1.4361554384231567
1763693276695655000,8.398655029296876,-2.2330398559570312,-0.2525358498096466,-1.4629039764404297
1763693276705676000,8.408676025390625,-1.937948226928711,-0.38655808568000793,-1.4346448183059692
1763693276715698000,8.418697998046875,-1.6568793058395386,-0.5633962750434875,-1.3767924308776855
1763693276725719000,8.428718994140626,-1.3857313394546509,-0.7525445818901062,-1.3060472011566162
1763693276735740000,8.438739990234374,-1.1507489681243896,-0.9175287485122681,-1.2451848983764648
1763693276745761800,8.44876171875,-0.9604544043540955,-1.0318214893341064,-1.202787160873413
1763693276755783200,8.458783203125,-0.8365132808685303,-1.0545302629470825,-1.177304983139038
1763693276765804000,8.468803955078124,-0.7767173051834106,-1.0141607522964478,-1.1710957288742065
1763693276775826000,8.478825927734375,-0.7747905254364014,-0.928139865398407,-1.1704456806182861
1763693276785847000,8.488846923828126,-0.8194650411605835,-0.7709025740623474,-1.1568957567214966
1763693276795868000,8.498867919921874,-0.9195900559425354,-0.5442126989364624,-1.0980175733566284
1763693276805890000,8.50889013671875,-1.0791083574295044,-0.2617841958999634,-0.9804618954658508
1763693276815911200,8.5189111328125,-1.2788702249526978,0.046539273113012314,-0.8056938648223877
1763693276825933000,8.52893310546875,-1.477622389793396,0.34190887212753296,-0.5606798529624939
1763693276835954000,8.538953857421875,-1.642664909362793,0.7062311768531799,-0.3129243552684784
1763693276845975000,8.54897509765625,-1.7572330236434937,1.026635766029358,-0.015572035685181618
1763693276855997200,8.5589970703125,-1.8205736875534058,1.333025574684143,0.27514129877090454
1763693276866018000,8.56901806640625,-1.8261798620224,1.5948255062103271,0.5404704213142395
1763693276876039000,8.579038818359376,-1.7681125402450562,1.8071337938308716,0.7508960962295532
1763693276886061000,8.58906103515625,-1.6816463470458984,1.9473103284835815,0.8891099095344543
1763693276896082000,8.59908203125,-1.5966979265213013,1.984260082244873,0.9571382403373718
1763693276906102800,8.609102783203125,-1.5216373205184937,1.9210363626480103,0.9579179883003235
1763693276916125200,8.619125244140625,-1.447342872619629,1.7953884601593018,0.9064199328422546
1763693276926146000,8.62914599609375,-1.3687009811401367,1.6191174983978271,0.8225780129432678
1763693276936167000,8.6391669921875,-1.2772738933563232,1.4045947790145874,0.7191211581230164
1763693276946188800,8.649188720703124,-1.1699827909469604,1.171486496925354,0.6025010347366333
1763693276956210000,8.6592099609375,-1.0512559413909912,0.9383067488670349,0.46944180130958557
1763693276966230800,8.669230712890625,-0.913727879524231,0.723629891872406,0.32012155652046204
1763693276976253000,8.6792529296875,-0.7531406283378601,0.5598241686820984,0.16013933718204498
1763693276986274000,8.689274169921875,-0.5628992915153503,0.4286253750324249,0.027908597141504288
1763693276996295000,8.699294921875,-0.3626255989074707,0.36288952827453613,-0.10165712237358093
1763693277006316800,8.70931689453125,-0.1573219746351242,0.34027156233787537,-0.19927449524402618
1763693277016338000,8.719337890625,0.04402657970786095,0.3725229799747467,-0.27183017134666443
1763693277026359000,8.729359130859375,0.2226618379354477,0.42841872572898865,-0.30942922830581665
1763693277036381000,8.739380859375,0.3552030920982361,0.47797003388404846,-0.3217359483242035
1763693277046402000,8.749402099609375,0.45264604687690735,0.5153347253799438,-0.33650878071784973
1763693277056424000,8.759423828125,0.5332484841346741,0.5224602818489075,-0.37105077505111694
1763693277066444800,8.76944482421875,0.608119785785675,0.5138968825340271,-0.4346739649772644
1763693277076466200,8.779466064453125,0.6719866394996643,0.4964939057826996,-0.5312036871910095
1763693277086488000,8.789488037109376,0.7200913429260254,0.45853695273399353,-0.6388204097747803
1763693277096509000,8.799509033203124,0.7591039538383484,0.39037415385246277,-0.7312387824058533
1763693277106530000,8.809530029296875,0.8006197214126587,0.3078491687774658,-0.7851012349128723
1763693277116552000,8.819552001953125,0.8519412279129028,0.2447093427181244,-0.7949386835098267
1763693277126573000,8.829572998046874,0.9317987561225891,0.18429234623908997,-0.7586397528648376
1763693277136594200,8.83959423828125,1.0392333269119263,0.11736977100372314,-0.6756269335746765
1763693277146616000,8.849615966796875,1.170876383781433,0.03093900717794895,-0.5412829518318176
1763693277156637000,8.859636962890624,1.3124406337738037,-0.07927857339382172,-0.36272865533828735
1763693277166658000,8.869657958984375,1.4522225856781006,-0.1988862007856369,-0.1531493365764618
1763693277176680200,8.87968017578125,1.5641642808914185,-0.3325206935405731,0.06502640247344971
1763693277186701000,8.889701171875,1.6384403705596924,-0.4487335979938507,0.2612840533256531
1763693277196722000,8.899721923828125,1.6719777584075928,-0.5446587800979614,0.41261711716651917
1763693277206744000,8.909744140625,1.6766204833984375,-0.5586709976196289,0.5049771666526794
1763693277216765000,8.919764892578126,1.6566749811172485,-0.5065473318099976,0.5402690768241882
1763693277226785800,8.929785888671875,1.6127195358276367,-0.41803106665611267,0.5323389768600464
1763693277236808000,8.939807861328125,1.5581923723220825,-0.324535995721817,0.5103013515472412
1763693277246829000,8.9498291015625,1.511074185371399,-0.22954398393630981,0.4970315992832184
1763693277256850000,8.959849853515625,1.479041337966919,-0.14009159803390503,0.5021110773086548
1763693277266871800,8.969871826171875,1.4747416973114014,-0.05609362944960594,0.5212402939796448
1763693277276893000,8.979892822265626,1.4957313537597656,0.009533317759633064,0.5514341592788696
1763693277286915000,8.9899150390625,1.5446810722351074,0.020489828661084175,0.5897412896156311
1763693277296936000,8.99993603515625,1.6280920505523682,-0.029692647978663445,0.6328877210617065
1763693277306957000,9.00995703125,1.7391725778579712,-0.09657234698534012,0.6688571572303772
1763693277316979000,9.01997900390625,1.873103141784668,-0.18293732404708862,0.7037326097488403
1763693277326999800,9.029999755859375,2.0176970958709717,-0.26870521903038025,0.7375070452690125
1763693277337021000,9.04002099609375,2.156991720199585,-0.3607110381126404,0.7472294569015503
1763693277347043000,9.05004296875,2.2558391094207764,-0.4288533627986908,0.7232279777526855
1763693277357064000,9.06006396484375,2.324294090270996,-0.44562435150146484,0.6605995297431946
1763693277367085000,9.0700849609375,2.3691327571868896,-0.44776979088783264,0.5626183152198792
1763693277377107000,9.08010693359375,2.410637855529785,-0.43400096893310547,0.43264836072921753
1763693277387127800,9.0901279296875,2.4276952743530273,-0.4745926260948181,0.27425819635391235
1763693277397149200,9.100149169921876,2.3243799209594727,-0.520179808139801,0.17968428134918213
1763693277407171000,9.110171142578125,2.2344741821289062,-0.5162878632545471,0.12475364655256271
1763693277417192000,9.12019189453125,2.134066581726074,-0.5568650960922241,0.12431342899799347
1763693277427213000,9.130213134765626,2.03059720993042,-0.6062119007110596,0.15806952118873596
1763693277437235000,9.14023486328125,1.930868148803711,-0.6386438608169556,0.20755824446678162
1763693277447256000,9.150256103515625,1.844931721687317,-0.6185671091079712,0.23325935006141663
1763693277457277200,9.160277099609376,1.7570703029632568,-0.5372352004051208,0.220433309674263
1763693277467299000,9.170299072265625,1.6666648387908936,-0.4215483069419861,0.15814223885536194
1763693277477320000,9.18031982421875,1.5758472681045532,-0.2812497913837433,0.06132487580180168
1763693277487341800,9.190341796875,1.4944261312484741,-0.12294775992631912,-0.06448551267385483
1763693277497362700,9.20036279296875,1.4312183856964111,0.033660490065813065,-0.20281276106834412
1763693277507383800,9.2103837890625,1.389665961265564,0.1805463433265686,-0.33730000257492065
1763693277517405700,9.22040576171875,1.360142707824707,0.2676732540130615,-0.4522010087966919
1763693277527426800,9.2304267578125,1.3413242101669312,0.2933618426322937,-0.534308671951294
1763693277537447700,9.24044775390625,1.3313543796539307,0.2798955738544464,-0.5780473947525024
1763693277547469600,9.250469482421876,1.329810380935669,0.24648860096931458,-0.581896185874939
1763693277557491000,9.260490966796874,1.3379182815551758,0.2004510760307312,-0.5551899671554565
1763693277567511800,9.27051171875,1.3435202836990356,0.16077236831188202,-0.5016292929649353
1763693277577533700,9.28053369140625,1.3421764373779297,0.13011619448661804,-0.4290839731693268
1763693277587554800,9.290554931640624,1.3302446603775024,0.10754909366369247,-0.34040552377700806
1763693277597575700,9.30057568359375,1.297545313835144,0.0940716341137886,-0.2446209341287613
1763693277607597800,9.310597900390626,1.2427561283111572,0.08868353068828583,-0.1567259579896927
1763693277617618700,9.32061865234375,1.178128719329834,0.10580312460660934,-0.08366693556308746
1763693277627639800,9.330639892578125,1.093692660331726,0.14172597229480743,-0.027272101491689682
1763693277637661700,9.34066162109375,0.9935654997825623,0.18126192688941956,0.0215377826243639
1763693277647682600,9.3506826171875,0.8756217956542969,0.21904313564300537,0.06984725594520569
1763693277657703700,9.36070361328125,0.7405238747596741,0.2500822842121124,0.12445803731679916
1763693277667725800,9.370725830078126,0.5903477072715759,0.25900065898895264,0.18864740431308746
1763693277677746700,9.38074658203125,0.4292871952056885,0.22862306237220764,0.2766299843788147
1763693277687767800,9.390767822265625,0.25098323822021484,0.19159579277038574,0.3844805657863617
1763693277697789700,9.400789794921875,0.054609183222055435,0.10419245064258575,0.5326146483421326
1763693277707810600,9.410810546875,-0.16779299080371857,0.0315810963511467,0.6698412299156189
1763693277717832700,9.420832763671875,-0.40595123171806335,-0.07616987079381943,0.8022690415382385
1763693277727853800,9.430853759765625,-0.6439206600189209,-0.1705339252948761,0.9028139710426331
1763693277737874700,9.440874755859374,-0.8904907703399658,-0.23378346860408783,0.9526582360267639
1763693277747896600,9.450896484375,-1.1392041444778442,-0.2090863734483719,0.9452030062675476
1763693277757917700,9.460917724609375,-1.3793301582336426,-0.166005477309227,0.877324104309082
1763693277767938600,9.4709384765625,-1.588100790977478,-0.10780662298202515,0.7621146440505981
1763693277777960700,9.480960693359375,-1.7517833709716797,-0.07473362237215042,0.5971198678016663
1763693277787981800,9.49098193359375,-1.8795520067214966,-0.025428127497434616,0.3905448615550995
1763693277798002700,9.501002685546876,-1.9745949506759644,0.05606620013713837,0.16992005705833435
1763693277808024600,9.511024658203125,-2.0445940494537354,0.14666268229484558,-0.021734856069087982
1763693277818045700,9.521045654296875,-2.105775833129883,0.20884482562541962,-0.15983174741268158
1763693277828066800,9.53106689453125,-2.1586177349090576,0.21118441224098206,-0.24660098552703857
1763693277838088700,9.541088623046875,-2.2217156887054443,0.19069485366344452,-0.2804790735244751
1763693277848109800,9.55110986328125,-2.306713581085205,0.16918130218982697,-0.27403634786605835
1763693277858130700,9.561130615234376,-2.412828207015991,0.14543655514717102,-0.22531647980213165
1763693277868152600,9.571152587890625,-2.5474090576171875,0.09707754850387573,-0.1593044400215149
1763693277878174000,9.581174072265625,-2.7015817165374756,0.0607946403324604,-0.12973642349243164
1763693277888194800,9.59119482421875,-2.846137762069702,0.056842777878046036,-0.18759040534496307
1763693277898216700,9.601216796875,-2.96157169342041,0.08474418520927429,-0.35927215218544006
1763693277908237600,9.611237548828125,-3.0359461307525635,0.1270466297864914,-0.6151297688484192
1763693277918259700,9.621259765625,-3.05110502243042,0.1918455958366394,-0.9223120808601379
1763693277928280800,9.63128076171875,-2.992676019668579,0.22644992172718048,-1.213625192642212
1763693277938301700,9.6413017578125,-2.871211051940918,0.23878434300422668,-1.454960584640503
1763693277948323800,9.65132373046875,-2.6936089992523193,0.21672165393829346,-1.592825174331665
1763693277958344700,9.6613447265625,-2.4934380054473877,0.1500731259584427,-1.6241830587387085
1763693277968365600,9.671365478515625,-2.28250789642334,0.04767484590411186,-1.5552115440368652
1763693277978387700,9.6813876953125,-2.08284330368042,-0.08455988764762878,-1.4146692752838135
1763693277988408800,9.691408935546875,-1.9015973806381226,-0.23329104483127594,-1.2352383136749268
1763693277998429700,9.7014296875,-1.7379528284072876,-0.36078402400016785,-1.0590767860412598
1763693278008451600,9.71145166015625,-1.604486107826233,-0.46903806924819946,-0.8918859958648682
1763693278018472700,9.72147265625,-1.4998867511749268,-0.5800801515579224,-0.7426515221595764
1763693278028493600,9.73149365234375,-1.4087560176849365,-0.634432315826416,-0.638464629650116
1763693278038515700,9.741515625,-1.3136862516403198,-0.691596269607544,-0.5642215609550476
1763693278048536800,9.751536865234375,-1.2138293981552124,-0.7154155969619751,-0.5121974945068359
1763693278058557700,9.7615576171875,-1.123605728149414,-0.7178446650505066,-0.4712897539138794
1763693278068579600,9.77157958984375,-1.0552924871444702,-0.7097976803779602,-0.4349280297756195
1763693278078600700,9.7816005859375,-1.003677248954773,-0.6578521728515625,-0.3961787521839142
1763693278088621600,9.79162158203125,-0.9675101637840271,-0.5624955892562866,-0.3544856607913971
1763693278098643700,9.801643798828126,-0.9519144296646118,-0.4351240396499634,-0.31229743361473083
1763693278108664800,9.811664794921874,-0.9658467769622803,-0.2751644551753998,-0.26429662108421326
1763693278118686700,9.821686767578125,-1.0064245462417603,-0.09262793511152267,-0.20855188369750977
1763693278128707600,9.83170751953125,-1.0552335977554321,0.10428699105978012,-0.14370043575763702
1763693278138728700,9.841728759765624,-1.1013503074645996,0.29699572920799255,-0.07359033077955246
1763693278148750800,9.851750732421875,-1.132953405380249,0.4458552300930023,0.008382565341889858
1763693278158771700,9.861771728515626,-1.1329113245010376,0.5737074613571167,0.09370359033346176
1763693278168792800,9.871792724609374,-1.1005302667617798,0.678665041923523,0.17888052761554718
1763693278178814700,9.881814697265625,-1.046268343925476,0.7703752517700195,0.2507651150226593
1763693278188835600,9.891835693359376,-0.9778847694396973,0.8337864875793457,0.29555097222328186
1763693278198856700,9.901856689453124,-0.9074023365974426,0.8719964027404785,0.3087799549102783
1763693278208878800,9.91187890625,-0.8486495614051819,0.8615555167198181,0.2986711263656616
1763693278218899700,9.921899658203126,-0.7893700003623962,0.8203220367431641,0.2691766023635864
1763693278228920600,9.931920654296874,-0.7348138093948364,0.7773208022117615,0.21912781894207
1763693278238942700,9.941942626953125,-0.6804203391075134,0.7201358079910278,0.15443165600299835
1763693278248963800,9.9519638671875,-0.6271890997886658,0.6635944843292236,0.08309488743543625
1763693278258984700,9.961984619140624,-0.5777269601821899,0.6040542125701904,0.011447864584624767
1763693278269006800,9.9720068359375,-0.5281692743301392,0.5355808734893799,-0.0525423027575016
1763693278279027700,9.98202783203125,-0.4680393636226654,0.4688231348991394,-0.1087520495057106
1763693278289048600,9.992048583984374,-0.391181081533432,0.4043264389038086,-0.1524939388036728
1763693278299070700,10.00207080078125,-0.2915618121623993,0.34375470876693726,-0.18455973267555237
1763693278309091800,10.012091796875,-0.1773875653743744,0.27182912826538086,-0.20456326007843018
1763693278319112700,10.02211279296875,-0.06395341455936432,0.19703130424022675,-0.21542470157146454
1763693278329134600,10.032134521484375,0.043535493314266205,0.09950634837150574,-0.2217704802751541
1763693278339155700,10.04215576171875,0.1456165909767151,0.0031430625822395086,-0.23974335193634033
1763693278349177900,10.052177734375,0.24005387723445892,-0.07713633030653,-0.2744898796081543
1763693278359198700,10.06219873046875,0.32822901010513306,-0.14294463396072388,-0.32382333278656006
1763693278369219800,10.0722197265625,0.4205280542373657,-0.19919033348560333,-0.380466103553772
1763693278379241700,10.08224169921875,0.5297943353652954,-0.23029711842536926,-0.41821375489234924
1763693278389262600,10.0922626953125,0.6488014459609985,-0.240982785820961,-0.4053903818130493
1763693278399283700,10.10228369140625,0.7734597325325012,-0.24859516322612762,-0.32584521174430847
1763693278409305900,10.112305908203124,0.8980780839920044,-0.2384413331747055,-0.1734921634197235
1763693278419326700,10.12232666015625,1.0239686965942383,-0.1907409280538559,0.04171096161007881
1763693278429347800,10.132347900390625,1.1447196006774902,-0.09938278049230576,0.2870733141899109
1763693278439369700,10.14236962890625,1.2498420476913452,0.05110526084899902,0.5219976902008057
1763693278449390600,10.152390625,1.3353092670440674,0.2378474473953247,0.7130957245826721
1763693278459411700,10.16241162109375,1.4043141603469849,0.43963488936424255,0.855735182762146
1763693278469433900,10.172433837890624,1.454131007194519,0.6333739757537842,0.9626240730285645
1763693278479454700,10.182454833984375,1.493528962135315,0.791786253452301,1.044410228729248
1763693278489475800,10.192475830078125,1.534488320350647,0.892645001411438,1.117095708847046
1763693278499498000,10.202498046875,1.585592269897461,0.9176542162895203,1.1710147857666016
1763693278509518800,10.212518798828125,1.6411559581756592,0.8968048691749573,1.1901708841323853
1763693278519539700,10.222539794921875,1.7069016695022583,0.8486285209655762,1.170395851135254
1763693278529561900,10.232561767578124,1.786655068397522,0.7952545285224915,1.1033731698989868
1763693278539583000,10.2425830078125,1.8806713819503784,0.7350904941558838,1.0073603391647339
1763693278549604900,10.25260498046875,1.9919859170913696,0.6472461223602295,0.9029889702796936
1763693278559626000,10.2626259765625,2.1300365924835205,0.5731348991394043,0.8039872646331787
1763693278569646800,10.272646728515625,2.280560255050659,0.5162069201469421,0.7354282140731812
1763693278579668700,10.282668701171875,2.4334495067596436,0.46835389733314514,0.695327639579773
1763693278589689900,10.29268994140625,2.5871570110321045,0.4334108233451843,0.6791992783546448
1763693278599711000,10.3027109375,2.742716073989868,0.40707480907440186,0.6659857630729675
1763693278609732900,10.31273291015625,2.8637964725494385,0.31267961859703064,0.6272809505462646
1763693278619753700,10.322753662109376,3.0837602615356445,0.2711545526981354,0.4751308262348175
1763693278629774800,10.33277490234375,3.2414209842681885,0.029033249244093895,0.18570329248905182
1763693278639797000,10.342796875,3.1291959285736084,-0.2307666391134262,-0.005898901727050543
1763693278649817900,10.35281787109375,3.038870096206665,-0.294012188911438,-0.20539149641990662
1763693278659839000,10.3628388671875,2.9169483184814453,-0.3822981119155884,-0.3946107029914856
1763693278669860900,10.37286083984375,2.7377612590789795,-0.48651665449142456,-0.5318583250045776
1763693278679881700,10.3828818359375,2.5247321128845215,-0.577345609664917,-0.5984514355659485
1763693278689902800,10.39290283203125,2.308072805404663,-0.6532135009765625,-0.6085458993911743
1763693278699925000,10.402925048828125,2.102219820022583,-0.7193605303764343,-0.5945578813552856
1763693278709945900,10.41294580078125,1.920694351196289,-0.7655040621757507,-0.58840411901474
1763693278719967000,10.422967041015625,1.7642160654067993,-0.7934584617614746,-0.591765284538269
1763693278729988900,10.43298876953125,1.631670355796814,-0.8165091872215271,-0.599450409412384
1763693278740009700,10.443009765625,1.527309536933899,-0.8279072642326355,-0.6015852093696594
1763693278750032000,10.453031982421875,1.4480386972427368,-0.8324775099754333,-0.5956026315689087
1763693278760053000,10.463052978515625,1.4032307863235474,-0.808066725730896,-0.5672042965888977
1763693278770073900,10.473073974609376,1.3835058212280273,-0.7663800120353699,-0.5170753598213196
1763693278780095700,10.483095703125,1.3666906356811523,-0.7300565838813782,-0.4486424922943115
1763693278790116900,10.493116943359375,1.3535106182098389,-0.6926519870758057,-0.36881399154663086
1763693278800137700,10.5031376953125,1.341422200202942,-0.6375303864479065,-0.28612735867500305
1763693278810159900,10.513159912109375,1.3244211673736572,-0.5678970217704773,-0.19830377399921417
1763693278820181000,10.523180908203125,1.2847256660461426,-0.4860178530216217,-0.1117773950099945
1763693278830201900,10.533201904296876,1.2118607759475708,-0.41062721610069275,-0.034978222101926804
1763693278840223700,10.5432236328125,1.0968260765075684,-0.34404659271240234,0.02791259065270424
1763693278850244900,10.553244873046875,0.953316867351532,-0.28736385703086853,0.06308096647262573
1763693278860266000,10.563265869140626,0.7963618636131287,-0.23690974712371826,0.0780298188328743
1763693278870288000,10.573287841796875,0.6279584765434265,-0.1996590495109558,0.07245076447725296
1763693278880309000,10.58330908203125,0.46152180433273315,-0.17418058216571808,0.05591785907745361
1763693278890329900,10.593329833984376,0.30161070823669434,-0.13875867426395416,0.03874792903661728
1763693278900351700,10.603351806640624,0.15441833436489105,-0.10010023415088654,0.02582573890686035
1763693278910372900,10.613372802734375,0.01938381791114807,-0.07082223892211914,0.025465944781899452
1763693278920394000,10.62339404296875,-0.10539619624614716,-0.06551775336265564,0.03783765807747841
1763693278930415900,10.633415771484374,-0.22398516535758972,-0.06401573121547699,0.06679687649011612
1763693278940436700,10.643436767578125,-0.34473103284835815,-0.07706256210803986,0.11069322377443314
1763693278950459000,10.653458984375,-0.47303465008735657,-0.1125718206167221,0.1649591326713562
1763693278960480000,10.66347998046875,-0.608353316783905,-0.1419355720281601,0.21935231983661652
1763693278970500900,10.6735009765625,-0.752696692943573,-0.13267548382282257,0.2652846574783325
1763693278980522800,10.683522705078126,-0.9197444915771484,-0.10793711990118027,0.2867332398891449
1763693278990544000,10.6935439453125,-1.1058485507965088,-0.06489723920822144,0.27393195033073425
1763693279000564700,10.703564697265625,-1.2876999378204346,-0.010804977267980576,0.2216876596212387
1763693279010586600,10.713586669921876,-1.4473987817764282,0.0142316659912467,0.13905668258666992
1763693279020608000,10.72360791015625,-1.5646891593933105,0.007420632056891918,0.03224075958132744
1763693279030628900,10.73362890625,-1.6295400857925415,-0.011426292359828949,-0.10100065171718597
1763693279040650800,10.743650634765626,-1.6634557247161865,-0.02069436013698578,-0.2541004419326782
1763693279050671900,10.753671875,-1.6708898544311523,-0.06142953783273697,-0.4098130762577057
1763693279060692700,10.763692626953125,-1.6500109434127808,-0.10109040141105652,-0.5475003719329834
1763693279070715000,10.77371484375,-1.626898169517517,-0.13534849882125854,-0.6510744094848633
1763693279080736000,10.783736083984374,-1.6264162063598633,-0.19320355355739594,-0.7042585611343384
1763693279090756900,10.7937568359375,-1.6419538259506226,-0.2688319981098175,-0.6994131803512573
1763693279100778800,10.80377880859375,-1.679938554763794,-0.3265078067779541,-0.6385176181793213
1763693279110800000,10.8137998046875,-1.7468112707138062,-0.37295839190483093,-0.5326244831085205
1763693279120820700,10.82382080078125,-1.8542191982269287,-0.39782434701919556,-0.4248514175415039
1763693279130843000,10.8338427734375,-1.9901092052459717,-0.3690161108970642,-0.3797784745693207
1763693279140864000,10.843864013671874,-2.1332643032073975,-0.2642252445220947,-0.43756747245788574
1763693279150886000,10.853885986328125,-2.2614829540252686,-0.09347482025623322,-0.604546070098877
1763693279160906800,10.86390673828125,-2.3561809062957764,0.11447092145681381,-0.8417365550994873
1763693279170927900,10.873927978515624,-2.400034189224243,0.29187074303627014,-1.112023949623108
1763693279180950000,10.883949951171875,-2.380019187927246,0.44592633843421936,-1.3634617328643799
1763693279190971000,10.893970947265625,-2.292358875274658,0.563153088092804,-1.5666217803955078
1763693279200991700,10.90399169921875,-2.1590185165405273,0.597589373588562,-1.6842080354690552
1763693279211014000,10.914013916015625,-2.0020759105682373,0.5623688101768494,-1.7041226625442505
1763693279221034800,10.92403466796875,-1.8266574144363403,0.4679299294948578,-1.615155816078186
1763693279231056000,10.934055908203124,-1.63092041015625,0.3021649122238159,-1.4236584901809692
1763693279241078000,10.944078125,-1.430094838142395,0.1097230315208435,-1.1753520965576172
1763693279251099000,10.954098876953125,-1.237911343574524,-0.08698390424251556,-0.8945632576942444
1763693279261119700,10.96411962890625,-1.0690433979034424,-0.25524935126304626,-0.6219157576560974
1763693279271142000,10.974141845703125,-0.9551429748535156,-0.3897000849246979,-0.3771209120750427
1763693279281162800,10.984162841796875,-0.9012256860733032,-0.4583452045917511,-0.19825395941734314
1763693279291183900,10.994183837890626,-0.9026523232460022,-0.4588112533092499,-0.08398331701755524
1763693279301205800,11.004205810546875,-0.9308933019638062,-0.37840402126312256,-0.0183491799980402
1763693279311227000,11.014226806640625,-0.9585661888122559,-0.2264629602432251,0.005600893869996071
1763693279321247700,11.024247802734376,-0.979546844959259,-0.016018914058804512,0.018820026889443398
1763693279331269600,11.03426953125,-1.0020442008972168,0.2203289121389389,0.059312593191862106
1763693279341291000,11.044291015625,-1.0412731170654297,0.46357059478759766,0.13337430357933044
1763693279351313000,11.05431298828125,-1.1047133207321167,0.6950690746307373,0.22722862660884857
1763693279361333800,11.064333740234375,-1.196140170097351,0.9042385220527649,0.3341127336025238
1763693279371355000,11.07435498046875,-1.3179092407226562,1.0887924432754517,0.42912474274635315
1763693279381376800,11.084376708984376,-1.4528286457061768,1.2907987833023071,0.5038871169090271
1763693279391398000,11.09439794921875,-1.5601162910461426,1.462746024131775,0.5683571696281433
1763693279401419000,11.1044189453125,-1.6356509923934937,1.5333847999572754,0.6185239553451538
1763693279411441000,11.11444091796875,-1.6664650440216064,1.5415321588516235,0.6564558744430542
1763693279421461800,11.124461669921875,-1.6447174549102783,1.4809976816177368,0.6705671548843384
1763693279431483000,11.13448291015625,-1.5844775438308716,1.379267930984497,0.6590554118156433
1763693279441505000,11.144505126953124,-1.4792810678482056,1.232547402381897,0.6263129115104675
1763693279451526000,11.15452587890625,-1.3250267505645752,1.0489579439163208,0.5677651762962341
1763693279461547000,11.164547119140625,-1.1215170621871948,0.8319265246391296,0.4917289912700653
1763693279471569000,11.17456884765625,-0.8676757216453552,0.5980975031852722,0.40266889333724976
1763693279481589800,11.18458984375,-0.6021646857261658,0.3720681071281433,0.3172602355480194
1763693279491611000,11.19461083984375,-0.34991511702537537,0.16786623001098633,0.22923745214939117
1763693279501633000,11.204633056640626,-0.12676407396793365,0.01143721118569374,0.13518604636192322
1763693279511654000,11.21465380859375,0.07199456542730331,-0.08942708373069763,0.03449006751179695
1763693279521674800,11.2246748046875,0.25496384501457214,-0.11662701517343521,-0.06490869075059891
1763693279531697000,11.23469677734375,0.42334645986557007,-0.09064281731843948,-0.1620890349149704
1763693279541718000,11.244718017578125,0.5631269812583923,-0.04556402191519737,-0.23937344551086426
1763693279551740000,11.254739990234375,0.6583850979804993,-0.0067881313152611256,-0.3045569658279419
1763693279561761000,11.264760986328126,0.713919460773468,0.008462993428111076,-0.3503577411174774
1763693279571782000,11.274781982421874,0.7389646172523499,0.011473696678876877,-0.39620885252952576
1763693279581803800,11.2848037109375,0.7657954096794128,-0.014591459184885025,-0.4205498993396759
1763693279591825000,11.294824951171876,0.8113181591033936,-0.054312240332365036,-0.43845564126968384
1763693279601846000,11.304845947265624,0.8760998249053955,-0.10495917499065399,-0.45704397559165955
1763693279611868000,11.314867919921875,0.9428216218948364,-0.16056570410728455,-0.48495256900787354
1763693279621888800,11.324888671875,1.0012478828430176,-0.23648017644882202,-0.5179352760314941
1763693279631910000,11.334909912109374,1.0590747594833374,-0.3174796998500824,-0.5474923849105835
1763693279641932000,11.34493212890625,1.1194064617156982,-0.3816421627998352,-0.5651736259460449
1763693279651953000,11.354952880859376,1.1766362190246582,-0.4349149763584137,-0.556049644947052
1763693279661974000,11.36497412109375,1.2466845512390137,-0.4795365035533905,-0.49823614954948425
1763693279671996000,11.374995849609375,1.3197449445724487,-0.5004058480262756,-0.38905879855155945
1763693279682016800,11.385016845703126,1.3871508836746216,-0.49628034234046936,-0.22778788208961487
1763693279692038000,11.395037841796874,1.4372124671936035,-0.4595971405506134,-0.035845883190631866
1763693279702060000,11.40506005859375,1.4607963562011719,-0.3907885253429413,0.16192738711833954
1763693279712081000,11.415080810546876,1.4503071308135986,-0.3118676245212555,0.34318211674690247
1763693279722102000,11.42510205078125,1.396402359008789,-0.24144138395786285,0.4976537227630615
1763693279732124000,11.4351240234375,1.2902791500091553,-0.18095380067825317,0.6219722032546997
1763693279742144800,11.445144775390625,1.1436585187911987,-0.15073810517787933,0.7126730680465698
1763693279752167000,11.4551669921875,0.9854028820991516,-0.11755166202783585,0.7457407712936401
1763693279762188000,11.46518798828125,0.835422158241272,-0.0702347457408905,0.7185813188552856
1763693279772209000,11.475208984375,0.695090115070343,-0.028129639104008675,0.639126181602478
1763693279782230800,11.485230712890624,0.582412838935852,0.025713618844747543,0.5209140181541443
1763693279792252000,11.495251953125,0.5215108394622803,0.0806085616350174,0.38207492232322693
1763693279802272800,11.505272705078125,0.5238912105560303,0.12572836875915527,0.24360999464988708
1763693279812295000,11.515294921875,0.6071216464042664,0.14659956097602844,0.1380351036787033
1763693279822316000,11.52531591796875,0.7705539464950562,0.20108942687511444,0.05495139956474304
1763693279832337000,11.5353369140625,1.037461280822754,0.17099225521087646,0.05290688946843147
1763693279842358800,11.54535888671875,1.3091130256652832,0.13565263152122498,0.11329380422830582
1763693279852380000,11.5553798828125,1.5818047523498535,0.11656948924064636,0.22221256792545319
1763693279862401000,11.565401123046875,1.8256744146347046,0.09947385638952255,0.35583826899528503
1763693279872423000,11.5754228515625,2.023725986480713,0.10810116678476334,0.4764946401119232
1763693279882444000,11.585444091796875,2.26186203956604,0.11036752164363861,0.5151549577713013
1763693279892465000,11.59546484375,2.2557895183563232,0.010358897969126701,0.5598968863487244
1763693279902486800,11.60548681640625,2.20444393157959,0.09794840216636658,0.5883090496063232
1763693279912508000,11.6155078125,2.1185460090637207,0.20127691328525543,0.5736331939697266
1763693279922530000,11.625530029296876,1.9597166776657104,0.25127217173576355,0.5392464399337769
1763693279932551000,11.635551025390624,1.7736010551452637,0.29968151450157166,0.5124744772911072
1763693279942571800,11.64557177734375,1.5851446390151978,0.33667707443237305,0.5013917088508606
1763693279952594000,11.655593994140625,1.400647759437561,0.33068737387657166,0.5126635432243347
1763693279962615000,11.665614990234374,1.2360066175460815,0.3004399836063385,0.5326843857765198
1763693279972636000,11.675635986328125,1.0977294445037842,0.2754614055156708,0.5554139614105225
1763693279982657800,11.68565771484375,0.9868790507316589,0.26087820529937744,0.5824045538902283
1763693279992679000,11.695678955078124,0.9058704972267151,0.25297367572784424,0.6177905201911926
1763693280002699800,11.70569970703125,0.8598713278770447,0.28557848930358887,0.6618671417236328
1763693280012722000,11.715721923828125,0.8456713557243347,0.36392468214035034,0.7224298715591431
1763693280022743000,11.725742919921874,0.8484628796577454,0.47710397839546204,0.7944984436035156
1763693280032764000,11.735763916015625,0.8444545269012451,0.5769479870796204,0.8648903369903564
1763693280042785800,11.745785888671875,0.8254808783531189,0.6485161781311035,0.9202510714530945
1763693280052807000,11.755806884765626,0.7870200276374817,0.6890186071395874,0.9448307156562805
1763693280062827800,11.765827880859375,0.7357669472694397,0.6790078282356262,0.9293007254600525
1763693280072850000,11.775849853515625,0.6719474792480469,0.6204835176467896,0.8693974614143372
1763693280082871000,11.78587109375,0.6055604815483093,0.5114662051200867,0.7732035517692566
1763693280092892000,11.795891845703125,0.5471275448799133,0.36608532071113586,0.6462514400482178
1763693280102913800,11.805913818359375,0.493177205324173,0.19773970544338226,0.510099470615387
1763693280112935000,11.815934814453126,0.43930119276046753,0.023601733148097992,0.38367149233818054
1763693280122955800,11.825955810546875,0.39462268352508545,-0.12898728251457214,0.2835172116756439
1763693280132978000,11.83597802734375,0.3512187600135803,-0.252991259098053,0.20510388910770416
1763693280142999000,11.8459990234375,0.2988993525505066,-0.34149181842803955,0.1436370611190796
1763693280153021000,11.85602099609375,0.229103222489357,-0.41624516248703003,0.09333553910255432
1763693280163041800,11.866041748046875,0.14057788252830505,-0.4504193663597107,0.03243330866098404
1763693280173063000,11.87606298828125,0.02876986190676689,-0.4608680009841919,-0.038111697882413864
1763693280183085000,11.8860849609375,-0.08928780257701874,-0.44912558794021606,-0.11858044564723969
1763693280193106000,11.89610595703125,-0.20669512450695038,-0.4251880347728729,-0.2003493458032608
1763693280203126800,11.906126708984376,-0.32822662591934204,-0.4058194160461426,-0.2726334035396576
1763693280213149000,11.91614892578125,-0.4571813941001892,-0.38351118564605713,-0.3276875913143158
1763693280223169800,11.926169677734375,-0.5877609848976135,-0.3558153510093689,-0.3610133230686188
1763693280233191000,11.93619091796875,-0.7255004644393921,-0.3313888609409332,-0.3811129927635193
1763693280243213000,11.946213134765625,-0.8790005445480347,-0.31782111525535583,-0.3987135589122772
1763693280253234000,11.95623388671875,-1.0377858877182007,-0.30024877190589905,-0.4284197986125946
1763693280263254800,11.9662548828125,-1.1915749311447144,-0.2844644784927368,-0.464293897151947
1763693280273277000,11.97627685546875,-1.3376352787017822,-0.3016336262226105,-0.5015712380409241
1763693280283298000,11.986298095703125,-1.4617528915405273,-0.33901241421699524,-0.5435982942581177
1763693280293319000,11.99631884765625,-1.5561909675598145,-0.376756876707077,-0.5953866839408875
1763693280303340800,12.0063408203125,-1.6152907609939575,-0.40849483013153076,-0.6672576665878296
1763693280313362000,12.01636181640625,-1.6412649154663086,-0.42546260356903076,-0.7728133797645569
1763693280323383800,12.0263837890625,-1.6616380214691162,-0.46641403436660767,-0.9182981252670288
1763693280333404700,12.03640478515625,-1.6766314506530762,-0.5361174941062927,-1.0830525159835815
1763693280343426000,12.046426025390625,-1.666924238204956,-0.6331353783607483,-1.2340548038482666
1763693280353448000,12.056447998046876,-1.6208951473236084,-0.7489879727363586,-1.344767451286316
1763693280363468800,12.06646875,-1.5420786142349243,-0.884274423122406,-1.395874261856079
1763693280373490000,12.076489990234375,-1.4453257322311401,-1.0206977128982544,-1.3845294713974
1763693280383511800,12.08651171875,-1.359250783920288,-1.136749029159546,-1.3159600496292114
1763693280393533000,12.096532958984374,-1.3160649538040161,-1.234022855758667,-1.2053488492965698
1763693280403554000,12.106553955078125,-1.3257412910461426,-1.3309261798858643,-1.076432704925537
1763693280413576000,12.116575927734376,-1.3896853923797607,-1.3747626543045044,-0.9603148698806763
1763693280423596800,12.1265966796875,-1.496438980102539,-1.3527449369430542,-0.8946173191070557
1763693280433618000,12.136617919921875,-1.6236329078674316,-1.2881842851638794,-0.9089195728302002
1763693280443640000,12.14664013671875,-1.7503434419631958,-1.1727112531661987,-1.0218216180801392
1763693280453661000,12.156660888671874,-1.8585878610610962,-1.0159751176834106,-1.216254711151123
1763693280463682000,12.16668212890625,-1.925112009048462,-0.8350756764411926,-1.4473841190338135
1763693280473704000,12.176703857421876,-1.9439592361450195,-0.6607459783554077,-1.6583256721496582
1763693280483724800,12.186724853515624,-1.9113842248916626,-0.4956180155277252,-1.7957139015197754
1763693280493746000,12.196745849609375,-1.8312870264053345,-0.35135617852211,-1.832224726676941
1763693280503767600,12.206767578125,-1.7096474170684814,-0.24202515184879303,-1.750643014907837
1763693280513788400,12.216788330078124,-1.5502798557281494,-0.1714377999305725,-1.5546013116836548
1763693280523810300,12.226810302734375,-1.3558634519577026,-0.1206345409154892,-1.2656375169754028
1763693280533831700,12.236831787109375,-1.141170859336853,-0.0692211464047432,-0.9199522137641907
1763693280543852500,12.2468525390625,-0.9288578629493713,-0.00878150761127472,-0.5718701481819153
1763693280553874400,12.25687451171875,-0.7540018558502197,0.05085785314440727,-0.26993322372436523
1763693280563895600,12.2668955078125,-0.6383389234542847,0.14354491233825684,-0.06891568750143051
1763693280573916400,12.27691650390625,-0.5955219864845276,0.29441753029823303,0.03133209049701691
1763693280583938600,12.2869384765625,-0.6228875517845154,0.47546452283859253,0.06126682087779045
1763693280593959700,12.296959716796875,-0.6985349059104919,0.6742029190063477,0.045164015144109726
1763693280603980500,12.30698046875,-0.7962782382965088,0.8772354125976562,0.013705425895750523
1763693280614002400,12.31700244140625,-0.8915871977806091,1.049614667892456,-0.002377403900027275
1763693280624023600,12.3270234375,-0.9524803757667542,1.1743645668029785,0.018218684941530228
1763693280634044400,12.33704443359375,-0.9622235298156738,1.252864122390747,0.08723503351211548
1763693280644066600,12.347066650390625,-0.9273813962936401,1.280280590057373,0.19535911083221436
1763693280654087400,12.35708740234375,-0.8619557619094849,1.253007411956787,0.3213388919830322
1763693280664108500,12.367108642578126,-0.7809213995933533,1.1961095333099365,0.44959884881973267
1763693280674130400,12.37713037109375,-0.6957886219024658,1.1016637086868286,0.5624995827674866
1763693280684151300,12.3871513671875,-0.6021907925605774,0.9892215728759766,0.6551131010055542
1763693280694172400,12.39717236328125,-0.5258733630180359,0.8509955406188965,0.729158878326416
1763693280704194600,12.407194580078125,-0.47982093691825867,0.7015490531921387,0.78004390001297
1763693280714215400,12.41721533203125,-0.46041926741600037,0.5744084119796753,0.8101195096969604
1763693280724237600,12.427237548828124,-0.4677445590496063,0.477107435464859,0.8167129158973694
1763693280734258400,12.437258544921875,-0.4965384006500244,0.407432496547699,0.8065375089645386
1763693280744279300,12.447279296875,-0.5322527289390564,0.35587742924690247,0.7809855937957764
1763693280754301400,12.457301513671876,-0.5687494874000549,0.322367399930954,0.7420357465744019
1763693280764322600,12.467322509765625,-0.5834157466888428,0.296403169631958,0.6939340233802795
1763693280774343400,12.477343505859375,-0.5602105855941772,0.2734017074108124,0.6400167346000671
1763693280784365300,12.487365234375,-0.4925537705421448,0.2625693082809448,0.5864432454109192
1763693280794386400,12.497386474609375,-0.38793760538101196,0.289793461561203,0.5288388133049011
