time,seconds_elapsed,z,y,x
1763701325751450600,0.23945068359375,7.979764461517334,5.292923450469971,-1.2041879892349243
1763701325761036000,0.2490361328125,7.8194451332092285,5.438885688781738,-1.079761266708374
1763701325770622200,0.258622314453125,7.534400463104248,5.5968122482299805,-0.9385846853256226
1763701325780209200,0.268209228515625,7.189534664154053,5.716752529144287,-0.890728235244751
1763701325789795300,0.27779541015625,6.99332332611084,5.834000587463379,-0.8955138921737671
1763701325799380700,0.287380615234375,6.976573467254639,5.9129638671875,-0.9385846853256226
1763701325808967000,0.296966796875,7.045965194702148,5.900999546051025,-0.9672985672950745
1763701325818553900,0.306553955078125,7.206284523010254,5.778965950012207,-0.9098708033561707
1763701325828139800,0.316139892578125,7.517650604248047,5.654240131378174,-0.8883354067802429
1763701325837725200,0.32572509765625,8.015656471252441,5.5345988273620605,-0.9385846853256226
1763701325847311400,0.335311279296875,8.468199729919434,5.402993679046631,-0.8955138921737671
1763701325856895000,0.34489501953125,8.752944946289062,5.295316696166992,-0.7372884750366211
1763701325866480600,0.354480712890625,9.023633003234863,5.276174068450928,-0.5913262963294983
1763701325876066000,0.364066162109375,9.258130073547363,5.338387489318848,-0.5171487927436829
1763701325885652200,0.37365234375,9.24855899810791,5.426921844482422,-0.5051847100257874
1763701325895239200,0.3832392578125,9.052347183227539,5.498706340789795,-0.5578267574310303
1763701325904825300,0.392825439453125,8.72901725769043,5.601597785949707,-0.6152545213699341
1763701325914410800,0.40241064453125,8.46580696105957,5.714359760284424,-0.643968403339386
1763701325923997000,0.411996826171875,8.35573673248291,5.774179935455322,-0.675075113773346
1763701325933584000,0.421583984375,8.2788667678833,5.764608860015869,-0.6415755748748779
1763701325943170000,0.431170166015625,8.269295692443848,5.723930835723877,-0.6343970894813538
1763701325952755200,0.440755126953125,8.403593063354492,5.6590256690979,-0.6415755748748779
1763701325962341400,0.45034130859375,8.575876235961914,5.553741455078125,-0.6726822853088379
1763701325971928600,0.459928466796875,8.772088050842285,5.453242778778076,-0.6248258352279663
1763701325981514500,0.469514404296875,9.023633003234863,5.364708423614502,-0.5267201066017151
1763701325991100000,0.479099853515625,9.339486122131348,5.319244861602783,-0.4286143481731415
1763701326000686000,0.48868603515625,9.55513858795166,5.259424209594727,-0.33768710494041443
1763701326010273000,0.49827294921875,9.5862455368042,5.190032482147217,-0.3161516785621643
1763701326019859200,0.507859130859375,9.430413246154785,5.168497085571289,-0.3448655605316162
1763701326029444600,0.517444580078125,9.121739387512207,5.163711071014404,-0.40707895159721375
1763701326039030800,0.52703076171875,8.776873588562012,5.1565327644348145,-0.4501497745513916
1763701326048617700,0.53661767578125,8.504091262817383,5.141876697540283,-0.5027918815612793
1763701326058204000,0.546203857421875,8.329116821289062,5.0964131355285645,-0.5554339289665222
1763701326067789300,0.555789306640625,8.207082748413086,5.072484970092773,-0.6056832075119019
1763701326077375500,0.56537548828125,8.19272518157959,4.995914459228516,-0.6391827464103699
1763701326086962400,0.57496240234375,8.159226417541504,4.902594566345215,-0.643968403339386
1763701326096548400,0.58454833984375,8.238189697265625,4.806881427764893,-0.5913262963294983
1763701326106134000,0.594134033203125,8.458627700805664,4.692026138305664,-0.5338985323905945
1763701326115720000,0.603719970703125,8.554341316223145,4.601099014282227,-0.47168517112731934
1763701326125307100,0.61330712890625,8.623732566833496,4.469194412231445,-0.40707895159721375
1763701326134893000,0.62289306640625,8.645268440246582,4.335196495056152,-0.33529427647590637
1763701326144478500,0.632478515625,8.788837432861328,4.277768611907959,-0.31854450702667236
1763701326154064600,0.642064697265625,8.932705879211426,4.268197536468506,-0.3640081584453583
1763701326163651600,0.651651611328125,8.997312545776367,4.34955358505249,-0.3735794425010681
1763701326173237800,0.66123779296875,8.994919776916504,4.366302967071533,-0.41904306411743164
1763701326182823200,0.6708232421875,8.911170959472656,4.3998026847839355,-0.40229329466819763
1763701326192409300,0.680409423828125,8.470592498779297,4.378267288208008,-0.25633111596107483
1763701326201996300,0.689996337890625,7.58943510055542,4.505086898803711,-0.15074782073497772
1763701326211582500,0.69958251953125,7.675576686859131,4.160520553588867,-0.3640081584453583
1763701326221167900,0.70916796875,7.9845499992370605,3.856332778930664,-0.5937191247940063
1763701326230754000,0.718754150390625,8.049156188964844,3.626621723175049,-0.6678966283798218
1763701326240341000,0.728341064453125,8.140083312988281,3.6338002681732178,-0.701396107673645
1763701326249927000,0.737927001953125,8.231010437011719,3.777369737625122,-0.6894320249557495
1763701326259512300,0.74751220703125,8.2788667678833,3.894618034362793,-0.5650052428245544
1763701326269098500,0.757098388671875,8.398807525634766,4.0456647872924805,-0.33768710494041443
1763701326278685400,0.766685546875,8.499305725097656,4.268197536468506,-0.07178468257188797
1763701326288271600,0.776271728515625,8.6907320022583,4.442873477935791,0.13878370821475983
1763701326297857000,0.78585693359375,9.002098083496094,4.447659015655518,0.31345975399017334
1763701326307443200,0.795443115234375,9.176774024963379,4.222733974456787,0.37118661403656006
1763701326317030100,0.805030029296875,9.1624174118042,4.023830413818359,0.4094717800617218
1763701326326616300,0.8146162109375,9.026025772094727,3.9448671340942383,0.44297128915786743
1763701326336201700,0.82420166015625,9.004490852355957,3.8132619857788086,0.5267201066017151
1763701326345788000,0.833787841796875,8.841479301452637,3.715156316757202,0.6774678826332092
1763701326355374800,0.843374755859375,8.623732566833496,3.7510485649108887,0.8425726890563965
1763701326364961000,0.8529609375,8.72901725769043,3.928117513656616,0.9361918568611145
1763701326374546400,0.86254638671875,8.83669376373291,4.119842529296875,0.9720842242240906
1763701326384132600,0.872132568359375,8.798408508300781,4.261018753051758,1.0151549577713013
1763701326393719600,0.881719482421875,8.851051330566406,4.3758745193481445,1.2544373273849487
1763701326403305700,0.8913056640625,9.593423843383789,4.201198577880859,1.1180464029312134
1763701326412891000,0.900890869140625,9.705886840820312,3.403790235519409,1.3142578601837158
1763701326422477000,0.91047705078125,9.1624174118042,2.80767822265625,1.537089467048645
1763701326432064300,0.920064208984375,9.317950248718262,3.0616166591644287,1.6710875034332275
1763701326441650200,0.929650146484375,9.588638305664062,3.58115816116333,1.7596219778060913
1763701326451235600,0.939235595703125,9.768099784851074,4.0094733238220215,1.6064813137054443
1763701326460821800,0.94882177734375,9.739386558532715,4.182055950164795,1.3453645706176758
1763701326470408700,0.95840869140625,9.337093353271484,4.086342811584473,1.3262219429016113
1763701326479995000,0.967994873046875,9.061918258666992,3.990330934524536,1.4820544719696045
1763701326489580300,0.977580322265625,9.253344535827637,3.949652910232544,1.651944875717163
1763701326499166500,0.98716650390625,9.698708534240723,3.9472601413726807,1.7596219778060913
1763701326508753400,0.99675341796875,9.885348320007324,3.8826539516448975,1.8098711967468262
1763701326518339600,1.006339599609375,9.760921478271484,3.650550127029419,1.8170497417449951
1763701326527925000,1.015925048828125,9.581459999084473,3.315255880355835,1.9390836954116821
1763701326537511200,1.02551123046875,9.490532875061035,3.166900873184204,2.1547367572784424
1763701326547098000,1.03509814453125,9.629316329956055,2.9898319244384766,2.3988046646118164
1763701326556684000,1.04468408203125,9.887741088867188,2.711965322494507,2.389233350753784
1763701326566269400,1.05426953125,10.395318984985352,2.8052854537963867,2.0470597743988037
1763701326575855600,1.063855712890625,9.416056632995605,2.7813572883605957,1.8170497417449951
1763701326585442800,1.07344287109375,8.925527572631836,2.92283296585083,1.5538392066955566
1763701326595028700,1.08302880859375,9.097810745239258,3.135794162750244,1.4916257858276367
1763701326604614100,1.0926142578125,9.653244972229004,3.2315070629119873,1.781157374382019
1763701326614200300,1.102200439453125,10.414461135864258,3.3918261528015137,2.221735715866089
1763701326623787300,1.111787353515625,10.835897445678711,3.595515012741089,2.6623141765594482
1763701326633373400,1.12137353515625,10.800004959106445,3.7271203994750977,3.0332016944885254
1763701326642958800,1.130958740234375,10.989038467407227,3.667299747467041,3.387638568878174
1763701326652545000,1.140544921875,11.00578784942627,3.4133615493774414,3.490530014038086
1763701326662132000,1.150132080078125,10.752148628234863,2.9730820655822754,3.239283561706543
1763701326671718100,1.15971826171875,10.85743236541748,2.443969249725342,2.2983062267303467
1763701326681303600,1.169303466796875,9.267701148986816,2.2618155479431152,2.496910333633423
1763701326690889700,1.1788896484375,8.911170959472656,2.331207513809204,2.5351955890655518
1763701326700476700,1.1884765625,9.097810745239258,2.467897415161133,2.3916261196136475
1763701326710062600,1.1980625,9.744172096252441,2.573181629180908,2.2743778228759766
1763701326719648000,1.20764794921875,9.882955551147461,2.9491539001464844,1.8601205348968506
1763701326729234200,1.217234130859375,9.758528709411621,3.372683525085449,2.142772674560547
1763701326738821000,1.226821044921875,9.878170013427734,3.4734811782836914,2.2887349128723145
1763701326748407300,1.2364072265625,10.275677680969238,2.845963478088379,1.9989042282104492
1763701326757992700,1.24599267578125,9.442377090454102,2.3336002826690674,1.9390836954116821
1763701326767579000,1.255578857421875,7.579864025115967,2.4894328117370605,2.073380708694458
1763701326777165800,1.265165771484375,6.7779693603515625,2.5348963737487793,2.3916261196136475
1763701326786752000,1.274751953125,8.006085395812988,2.5061826705932617,3.028416156768799
1763701326796337400,1.28433740234375,9.861420631408691,2.4655046463012695,2.762812852859497
1763701326805923600,1.293923583984375,10.776076316833496,2.235494613647461,2.1379871368408203
1763701326815510500,1.303510498046875,9.902098655700684,2.1158533096313477,1.9414764642715454
1763701326825096700,1.3130966796875,9.612566947937012,2.046461582183838,1.83619225025177
1763701326834682000,1.32268212890625,9.926026344299316,2.1134605407714844,1.9725831747055054
1763701326844268300,1.332268310546875,10.031609535217285,1.9411773681640625,2.0470597743988037
1763701326853855200,1.341855224609375,10.062716484069824,1.8191434144973755,1.9630118608474731
1763701326863441200,1.351441162109375,9.902098655700684,1.7685949802398682,1.8625133037567139
1763701326873026600,1.361026611328125,9.35623550415039,1.8574285507202148,1.927119493484497
1763701326882612700,1.37061279296875,8.719446182250977,2.053640127182007,1.8577276468276978
1763701326892199700,1.38019970703125,8.37009334564209,2.3359930515289307,1.6998014450073242
1763701326901785900,1.389785888671875,8.475378036499023,2.5923242568969727,1.695015788078308
1763701326911371300,1.399371337890625,9.169595718383789,2.7574288845062256,1.9127626419067383
1763701326920957400,1.40895751953125,10.438389778137207,2.5109682083129883,2.386840581893921
1763701326930544400,1.41854443359375,10.594222068786621,2.436790704727173,2.7029922008514404
1763701326940130600,1.428130615234375,9.528818130493164,3.2004003524780273,3.0188448429107666
1763701326949716000,1.437716064453125,9.126524925231934,3.5309088230133057,3.356531858444214
1763701326959302100,1.44730224609375,8.726624488830566,3.8347973823547363,3.4067811965942383
1763701326968889000,1.45688916015625,8.523234367370605,4.0767717361450195,3.308675527572632
1763701326978475300,1.466475341796875,8.415556907653809,3.9544384479522705,3.1339993476867676
1763701326988060700,1.476060791015625,8.319544792175293,3.76779842376709,2.832204818725586
1763701326997646600,1.485646484375,8.264510154724121,3.6338002681732178,2.489732027053833
1763701327007233800,1.49523388671875,8.159226417541504,3.5213375091552734,2.3533411026000977
1763701327016819700,1.50481982421875,8.140083312988281,3.339184045791626,2.334198474884033
1763701327026405000,1.514405029296875,8.118548393249512,3.142972469329834,2.5160529613494873
1763701327035991300,1.5239912109375,8.097012519836426,2.9252257347106934,2.755634307861328
1763701327045578200,1.533578125,8.394021987915039,2.7574288845062256,2.973381280899048
1763701327055164400,1.543164306640625,8.532805442810059,2.9204399585723877,3.116950511932373
1763701327064749800,1.552749755859375,8.621339797973633,3.2338998317718506,3.279961585998535
1763701327074336000,1.5623359375,8.71226692199707,3.5141592025756836,3.366103172302246
1763701327083923000,1.5719228515625,8.956634521484375,3.557229995727539,3.287140130996704
1763701327093509000,1.581509033203125,9.286844253540039,3.253042459487915,3.215355396270752
1763701327103094500,1.591094482421875,9.4088773727417,2.932404041290283,3.0643084049224854
1763701327112680700,1.6006806640625,9.528818130493164,2.759821891784668,2.9303104877471924
1763701327122267600,1.610267578125,9.624530792236328,2.7957141399383545,2.8704898357391357
1763701327131853800,1.619853759765625,9.81356430053711,2.9057838916778564,2.880061149597168
1763701327141439000,1.62943896484375,9.46181869506836,2.8890342712402344,2.887239694595337
1763701327151025200,1.639025146484375,9.021240234375,2.886641502380371,2.903989315032959
1763701327160612400,1.6486123046875,8.863015174865723,2.944368362426758,2.99013090133667
1763701327170198300,1.6581982421875,9.047561645507812,2.9276185035705566,3.069094181060791
1763701327179783700,1.66778369140625,9.198308944702148,2.953939437866211,3.145963668823242
1763701327189369900,1.677369873046875,9.160024642944336,3.032902717590332,3.1627132892608643
1763701327198956800,1.686956787109375,9.095417976379395,3.1716864109039307,3.279961585998535
1763701327208543000,1.69654296875,9.126524925231934,3.1764719486236572,3.514458179473877
1763701327218128400,1.70612841796875,9.229415893554688,3.1166515350341797,3.64127779006958
1763701327227714600,1.715714599609375,9.413662910461426,3.212364435195923,3.662813186645508
1763701327237301500,1.725301513671875,9.519247055053711,3.2482566833496094,3.842574119567871
1763701327246887700,1.7348876953125,9.636494636535645,3.2027931213378906,4.1057844161987305
1763701327256473000,1.74447314453125,9.940383911132812,3.159722328186035,4.4482574462890625
1763701327266059300,1.754059326171875,10.108180046081543,3.032902717590332,4.548755645751953
1763701327275646200,1.763646240234375,10.11296558380127,2.977867841720581,4.5822553634643555
1763701327285232400,1.773232421875,10.158429145812988,3.025724172592163,4.5391845703125
1763701327294817500,1.782817626953125,10.232606887817383,3.056830883026123,4.369294166564941
1763701327304403700,1.79240380859375,10.239785194396973,2.862713098526001,4.215854167938232
1763701327313990700,1.80199072265625,9.875777244567871,2.4966113567352295,3.895216226577759
1763701327323576800,1.811576904296875,9.37059211730957,2.324028968811035,3.13639235496521
1763701327333162200,1.821162353515625,8.50169849395752,2.405683994293213,3.0571300983428955
1763701327342748400,1.83074853515625,7.658827304840088,1.8693926334381104,2.999702215194702
1763701327352335400,1.84033544921875,7.285546779632568,1.0289137363433838,2.6790640354156494
1763701327361921500,1.849921630859375,7.158428192138672,0.9690931439399719,2.628814697265625
1763701327371507000,1.8595068359375,7.610970497131348,1.4216357469558716,2.4681966304779053
1763701327381093000,1.869093017578125,7.994121551513672,2.0751755237579346,2.2600209712982178
1763701327390680000,1.87868017578125,8.69791030883789,2.577967405319214,2.5471596717834473
1763701327400266200,1.888266357421875,9.203095436096191,2.108675003051758,2.7915267944335938
1763701327409851600,1.8978515625,8.824729919433594,1.7856439352035522,2.7484560012817383
1763701327419437800,1.907437744140625,8.394021987915039,2.1373889446258545,2.6383860111236572
1763701327429024800,1.917024658203125,8.391629219055176,2.8435707092285156,2.338984251022339
1763701327438611000,1.92661083984375,8.81515884399414,2.7957141399383545,1.9055840969085693
1763701327448196000,1.936196044921875,9.5264253616333,2.1062822341918945,1.5418751239776611
1763701327457782300,1.9457822265625,9.885348320007324,1.4312070608139038,1.445863127708435
1763701327467369200,1.955369140625,10.469496726989746,1.1485549211502075,1.623231053352356
1763701327476955400,1.964955322265625,10.931610107421875,1.0408778190612793,1.7835501432418823
1763701327486540800,1.974540771484375,11.16640567779541,1.349851131439209,2.2671995162963867
1763701327496127000,1.984126953125,11.336296081542969,1.1820544004440308,2.3270199298858643
1763701327505714000,1.9937138671875,11.487044334411621,0.8662018179893494,2.1379871368408203
1763701327515300000,2.003300048828125,11.858230590820312,0.8279166221618652,2.2600209712982178
1763701327524885500,2.012885498046875,11.489437103271484,1.0193424224853516,2.3294129371643066
1763701327534471700,2.0224716796875,10.359426498413086,1.0336993932724,2.410768747329712
1763701327544058600,2.03205859375,9.361021041870117,1.0887342691421509,2.2504496574401855
1763701327553644800,2.041644775390625,8.738588333129883,1.2756736278533936,1.9486548900604248
1763701327563230200,2.051230224609375,8.482556343078613,1.4694921970367432,1.7285152673721313
1763701327572816100,2.060816162109375,8.211868286132812,1.5197415351867676,1.654337763786316
1763701327582403300,2.0704033203125,7.610970497131348,1.6202399730682373,1.6112669706344604
1763701327591989200,2.0799892578125,7.084250450134277,1.770987868309021,1.7715860605239868
1763701327601574700,2.08957470703125,6.969395160675049,1.893320918083191,2.0518453121185303
1763701327611160800,2.099160888671875,7.139285564422607,1.9076778888702393,2.2815563678741455
1763701327620747800,2.108747802734375,7.414759159088135,1.8574285507202148,2.3820550441741943
1763701327630334000,2.118333984375,8.044370651245117,1.9387845993041992,2.528017044067383
1763701327639919400,2.12791943359375,8.642875671386719,2.0919251441955566,2.793919563293457
1763701327649505500,2.137505615234375,8.985347747802734,2.1469600200653076,3.0954151153564453
1763701327659092500,2.147092529296875,9.00688362121582,2.09431791305542,3.2656047344207764
1763701327668678700,2.1566787109375,8.831908226013184,2.039283037185669,3.2057840824127197
1763701327678264000,2.16626416015625,8.662017822265625,1.948355793952942,3.0260233879089355
1763701327687850200,2.175850341796875,6.4354963302612305,2.039283037185669,2.865704298019409
1763701327697437200,2.185437255859375,6.766005039215088,1.5484553575515747,2.755634307861328
1763701327707023000,2.195023193359375,9.289237022399902,1.6417754888534546,3.02123761177063
1763701327716608500,2.2046083984375,10.414461135864258,1.6680965423583984,3.3469607830047607
1763701327726194700,2.214194580078125,10.47188949584961,1.3546366691589355,3.4953157901763916
1763701327735781600,2.22378173828125,10.182357788085938,1.1365907192230225,3.6436707973480225
1763701327745367800,2.233367919921875,9.942776679992676,1.2900304794311523,3.811467409133911
1763701327754953200,2.242953125,9.8207426071167,1.586740493774414,3.8832521438598633
1763701327764539400,2.252539306640625,9.65803050994873,1.6633108854293823,3.6580276489257812
1763701327774126300,2.262126220703125,9.806385040283203,1.5436697006225586,3.5814573764801025
1763701327783712500,2.27171240234375,9.200701713562012,1.3307085037231445,3.452244758605957
1763701327793298000,2.2812978515625,9.55753231048584,1.3235300779342651,3.0882368087768555
1763701327802884000,2.290884033203125,9.681958198547363,1.464706540107727,2.7987051010131836
1763701327812471000,2.300470947265625,9.406484603881836,1.2397812604904175,2.6503500938415527
1763701327822057200,2.31005712890625,9.435198783874512,0.9116654396057129,2.5328028202056885
1763701327831642600,2.319642578125,9.780064582824707,0.6747759580612183,2.643171787261963
1763701327841228800,2.329228759765625,9.978668212890625,0.5644070506095886,2.856132984161377
1763701327850815700,2.338815673828125,9.873384475708008,0.6218347549438477,2.8920252323150635
1763701327860401700,2.348401611328125,10.20628547668457,0.9212366938591003,3.342175006866455
1763701327869987000,2.357987060546875,10.2445707321167,1.1341979503631592,3.5192439556121826
1763701327879573200,2.3675732421875,9.947562217712402,1.222732424736023,3.3948171138763428
1763701327889160200,2.37716015625,9.89970588684082,1.2756736278533936,3.1289145946502686
1763701327898746400,2.386746337890625,10.031609535217285,1.5699907541275024,3.1794631481170654
1763701327908331800,2.396331787109375,10.242177963256836,1.6274185180664062,3.380460262298584
1763701327917918000,2.40591796875,10.333105087280273,1.3307085037231445,3.2368907928466797
1763701327927505000,2.4155048828125,10.311570167541504,0.97148597240448,2.698206663131714
1763701327937091000,2.425091064453125,10.299606323242188,0.760917603969574,2.444268226623535
1763701327946676500,2.434676513671875,9.90688419342041,0.43519461154937744,2.228914260864258
1763701327956262700,2.4442626953125,9.418449401855469,0.08315058797597885,2.003689765930176
1763701327965849600,2.453849609375,8.760123252868652,-0.053240302950143814,2.0398812294006348
1763701327975435800,2.463435791015625,8.254939079284668,-0.5368895530700684,2.0446670055389404
1763701327985021200,2.473021240234375,9.229415893554688,0.9308080077171326,1.77397882938385
1763701327994607000,2.482607177734375,10.160821914672852,1.933998942375183,1.292722463607788
1763701328004194300,2.4921943359375,10.187143325805664,1.7685949802398682,1.3334003686904907
1763701328013780200,2.5017802734375,9.799206733703613,1.1126625537872314,1.1539387702941895
1763701328023365600,2.51136572265625,9.057132720947266,0.851844847202301,2.5112674236297607
1763701328032951800,2.520951904296875,9.193523406982422,1.210768222808838,3.0882368087768555
1763701328042538800,2.530538818359375,9.870991706848145,0.9834501147270203,2.0997018814086914
1763701328052125000,2.540125,13.076775550842285,0.4567300081253052,1.0869396924972534
1763701328061710300,2.54971044921875,12.796516418457031,0.5524429082870483,0.47168517112731934
1763701328071296500,2.559296630859375,12.236296653747559,0.9810572862625122,-0.4501497745513916
1763701328080883500,2.568883544921875,10.345069885253906,1.0480563640594482,-0.5099703073501587
1763701328090469600,2.5784697265625,8.745766639709473,-0.10827522724866867,-0.5841478109359741
1763701328100055000,2.588054931640625,7.52004337310791,-1.3914263248443604,-0.9050851464271545
1763701328109641200,2.59764111328125,8.4562349319458,-1.7650058269500732,-0.3496512174606323
1763701328119228200,2.607228271484375,7.58225679397583,-1.9468603134155273,0.08853443711996078
1763701328128814000,2.61681396484375,-5.032105922698975,1.210768222808838,0.2512463629245758
1763701328138399500,2.6263994140625,12.107084274291992,1.4431711435317993,-1.4796617031097412
1763701328147985700,2.635985595703125,12.087942123413086,2.664108991622925,-1.2041879892349243
1763701328157572900,2.64557275390625,10.278070449829102,2.4032912254333496,-0.49322056770324707
1763701328167158800,2.65515869140625,9.866206169128418,1.3785649538040161,-0.9409775137901306
1763701328176744200,2.664744140625,9.92841911315918,1.0121639966964722,0.040677983313798904
1763701328186330400,2.674330322265625,9.978668212890625,1.3929219245910645,0.6535396575927734
1763701328195917300,2.683917236328125,9.847063064575195,1.7063816785812378,1.3142578601837158
1763701328205503500,2.69350341796875,8.947062492370605,1.7446668148040771,0.5123631358146667
1763701328215089000,2.7030888671875,9.250951766967773,0.31794631481170654,-1.407876968383789
1763701328224675000,2.712675048828125,10.876575469970703,-0.4265206456184387,-0.6176473498344421
1763701328234262000,2.722261962890625,10.977073669433594,1.306780219078064,3.7755749225616455
1763701328243848200,2.73184814453125,1.568196177482605,2.453540563583374,7.163213729858398
1763701328253433600,2.74143359375,8.523234367370605,0.2150549292564392,0.5769693851470947
1763701328263019500,2.75101953125,12.18365478515625,0.7465606927871704,0
1763701328272606700,2.760606689453125,8.918349266052246,1.2179467678070068,0.5386841893196106
1763701328282192600,2.770192626953125,10.103394508361816,1.800000786781311,1.6088740825653076
1763701328291778000,2.779778076171875,10.211071968078613,1.2035897970199585,1.2711870670318604
1763701328301364200,2.7893642578125,10.512567520141602,0.547657310962677,0.8234301209449768
1763701328310951200,2.798951171875,10.613365173339844,-0.024526432156562805,0.9888339638710022
1763701328320537300,2.808537353515625,10.364212036132812,-0.47228336334228516,1.1754741668701172
1763701328330122800,2.818122802734375,10.124930381774902,-1.1114661693572998,1.1467602252960205
1763701328339709000,2.827708984375,10.278070449829102,-1.470389485359192,0.13160525262355804
1763701328349295900,2.8372958984375,10.630114555358887,-1.195214867591858,-1.0630114078521729
1763701328358882000,2.846882080078125,10.443175315856934,-0.9963115453720093,-4.850550651550293
1763701328368467500,2.856467529296875,10.823933601379395,-0.024526432156562805,-2.2959132194519043
1763701328378053600,2.8660537109375,11.13021469116211,-0.6661019921302795,-1.4533406496047974
1763701328387640600,2.875640625,11.19751262664795,-0.8910273313522339,-1.1754741668701172
1763701328397226800,2.885226806640625,12.181262016296387,-1.4488540887832642,-1.7572290897369385
1763701328406812000,2.89481201171875,12.782159805297852,-1.2646067142486572,-2.2337000370025635
1763701328416398000,2.904398193359375,12.763016700744629,-0.7546364665031433,-2.008774518966675
1763701328425985000,2.913985107421875,12.296416282653809,-0.6373881101608276,-1.8194425106048584
1763701328435571200,2.9235712890625,10.97468090057373,-0.9101698994636536,-1.5442678928375244
1763701328445156600,2.933156494140625,9.490532875061035,-1.3196417093276978,-1.5873386859893799
1763701328454742800,2.94274267578125,9.229415893554688,-1.6453646421432495,-1.7979071140289307
1763701328464329700,2.952329833984375,9.488140106201172,-1.0348957777023315,-2.20737886428833
1763701328473916000,2.961916015625,10.491031646728516,-0.6134598851203918,-2.769991397857666
1763701328483501300,2.971501220703125,11.341081619262695,-0.9771689176559448,-3.1507492065429688
1763701328493087500,2.98108740234375,12.028120994567871,-1.1593226194381714,-3.318246841430664
1763701328502674400,2.99067431640625,11.898908615112305,0.22223339974880219,-3.057429075241089
1763701328512260600,3.000260498046875,12.502199172973633,1.3881362676620483,-1.2759727239608765
1763701328521846000,3.009845947265625,11.439188003540039,0.11216355860233307,-2.4011974334716797
1763701328531432200,3.01943212890625,10.778470039367676,-1.3722838163375854,-2.903989315032959
1763701328541019100,3.02901904296875,9.78245735168457,-1.195214867591858,-2.2504496574401855
1763701328550605300,3.038605224609375,8.530412673950195,0.5907281041145325,-3.387638568878174
1763701328560190500,3.0481904296875,7.213762283325195,0.8207381963729858,-4.2209391593933105
1763701328569776600,3.057776611328125,6.4354963302612305,0.11216355860233307,-5.535196781158447
1763701328579363600,3.067363525390625,6.323033809661865,-0.7618148922920227,-6.631708145141602
1763701328588949800,3.07694970703125,6.461817741394043,-1.1856436729431152,-6.394519329071045
1763701328598535200,3.08653515625,6.602993965148926,-0.8718847632408142,-6.033203125
1763701328608121300,3.096121337890625,6.746862411499023,-0.6062814593315125,-7.237390995025635
1763701328617708300,3.105708251953125,5.705386638641357,-0.5632106065750122,-7.766504287719727
1763701328627294500,3.11529443359375,5.207380294799805,-0.49621158838272095,-7.701898097991943
1763701328636880000,3.1248798828125,4.927121162414551,-0.44327038526535034,-7.313961505889893
1763701328646466000,3.134466064453125,5.741278648376465,0.14087744057178497,-7.103393077850342
1763701328656053000,3.144052978515625,4.098905086517334,-0.3762713670730591,-5.228616714477539
1763701328665639200,3.15363916015625,5.121238708496094,-3.3092737197875977,2.5184457302093506
1763701328675224600,3.163224609375,8.48016357421875,-4.491926193237305,1.0007981061935425
1763701328684810500,3.172810546875,6.823432922363281,-2.468794822692871,-3.904787540435791
1763701328694397700,3.182397705078125,4.671088695526123,-3.2925238609313965,-6.392126560211182
1763701328703983600,3.191983642578125,4.405186653137207,-2.4711875915527344,-6.085845470428467
1763701328713569000,3.201569091796875,4.752444744110107,-1.6118651628494263,-5.427519798278809
1763701328723155200,3.2111552734375,4.946263313293457,-1.4464613199234009,-5.7720866203308105
1763701328732742100,3.2207421875,4.608875751495361,-0.8455637097358704,-5.949454307556152
1763701328742328300,3.230328369140625,4.453341960906982,-0.589531660079956,-6.002096652984619
1763701328751913700,3.239913818359375,4.369294166564941,-0.8264211416244507,-6.009274959564209
1763701328761500000,3.2495,3.871587038040161,-0.7211369276046753,-6.045167446136475
1763701328771086800,3.2590869140625,3.588934898376465,-0.6469594240188599,-5.295914649963379
1763701328780673000,3.268673095703125,4.108476638793945,-0.773779034614563,-5.30548620223999
1763701328790258400,3.278258544921875,5.130809783935547,-0.8551349639892578,-5.31266450881958
1763701328799844600,3.2878447265625,5.8250274658203125,-0.5536393523216248,-5.262115955352783
1763701328809431600,3.297431640625,6.3254265785217285,-0.07238288223743439,-5.6548380851745605
1763701328819017500,3.307017578125,6.864110946655273,0.3370888829231262,-6.081059455871582
1763701328828603000,3.316602783203125,7.362117290496826,0.6843472719192505,-6.7106709480285645
1763701328838189000,3.32618896484375,7.5080790519714355,0.7728816866874695,-7.151249408721924
1763701328847776300,3.3357763671875,7.70668363571167,0.5787639617919922,-6.974180698394775
1763701328857362200,3.345362060546875,7.608577728271484,0.6337988972663879,-7.041179656982422
1763701328866947600,3.354947509765625,7.476972579956055,0.8063812255859375,-7.199106216430664
1763701328876533800,3.36453369140625,7.290332317352295,1.0456634759902954,-7.658827304840088
1763701328886120700,3.37412060546875,7.122535705566406,1.1868400573730469,-8.137690544128418
1763701328895707000,3.383706787109375,7.120142936706543,1.179661512374878,-8.400900840759277
1763701328905292300,3.393292236328125,7.007680416107178,1.057627558708191,-8.475078582763672
1763701328914878500,3.40287841796875,6.699006080627441,1.0289137363433838,-8.400900840759277
1763701328924465400,3.41246533203125,6.626922130584717,0.7513462901115417,-8.582756042480469
1763701328934051600,3.422051513671875,6.897610187530518,0.27008986473083496,-8.908478736877441
1763701328943636700,3.43163671875,7.081857681274414,0.1863410621881485,-9.305986404418945
1763701328953223000,3.441222900390625,6.998108863830566,0.3275175988674164,-9.774979591369629
1763701328962810000,3.45081005859375,7.1871418952941895,0.3394817113876343,-9.969097137451172
1763701328972396000,3.46039599609375,7.52004337310791,0.27008986473083496,-10.246665000915527
1763701328981981400,3.4699814453125,7.627720355987549,0.0975075215101242,-10.69681453704834
1763701328991567600,3.479567626953125,7.642077445983887,-0.09152546525001526,-10.830812454223633
1763701329001154600,3.489154541015625,7.689933776855469,-0.17527425289154053,-10.905289649963379
1763701329010740700,3.49874072265625,7.618149280548096,-0.1537388563156128,-10.893026351928711
1763701329020326100,3.508326171875,7.455437183380127,-0.2350948303937912,-10.79731273651123
1763701329029912300,3.517912353515625,7.156035423278809,-0.2709871530532837,-10.514960289001465
1763701329039499300,3.527499267578125,6.87607479095459,-0.34995031356811523,-10.091131210327148
1763701329049085400,3.53708544921875,6.74446964263916,-0.34277185797691345,-9.530911445617676
1763701329058670800,3.5466708984375,6.318248271942139,-0.2709871530532837,-9.068798065185547
1763701329068257000,3.556257080078125,5.9183478355407715,-0.12263216078281403,-8.851051330566406
1763701329077844000,3.565843994140625,5.638387680053711,0.06640082597732544,-8.657232284545898
1763701329087430100,3.57543017578125,5.439484119415283,0.025722842663526535,-8.568398475646973
1763701329097015300,3.585015380859375,5.135595798492432,-0.18723836541175842,-8.393722534179688
1763701329106601500,3.5946015625,4.992026329040527,0.04007977992296219,-8.386544227600098
1763701329116188400,3.6041884765625,4.721338272094727,0.06400800496339798,-8.159226417541504
1763701329125774600,3.613774658203125,4.867300510406494,-0.2925225794315338,-8.113762855529785
1763701329135360000,3.623360107421875,5.1906304359436035,-0.8120641708374023,-8.561220169067383
1763701329144946200,3.6329462890625,5.545067310333252,-0.9939187169075012,-8.810373306274414
1763701329154533000,3.642533203125,6.1435723304748535,-0.7354938387870789,-8.709874153137207
1763701329164119300,3.652119384765625,6.507281303405762,-0.3523431420326233,-8.52772045135498
1763701329173704700,3.66170458984375,6.6678996086120605,0.27008986473083496,-8.300402641296387
1763701329183291000,3.671290771484375,6.732505798339844,0.30598220229148865,-8.034500122070312
1763701329192877800,3.6808779296875,7.026822566986084,0.4567300081253052,-7.8765740394592285
1763701329202464000,3.690464111328125,7.5080790519714355,0.8757730722427368,-7.654041290283203
1763701329212049400,3.70004931640625,7.572685241699219,0.9667003750801086,-7.491030216217041
1763701329221635600,3.709635498046875,7.491329669952393,0.7872386574745178,-7.419245719909668
1763701329231222500,3.719222412109375,7.376473903656006,0.5835496187210083,-7.230212688446045
1763701329240808400,3.728808349609375,7.244868755340576,0.361017107963562,-7.196712970733643
1763701329250393900,3.738393798828125,7.139285564422607,0.16959130764007568,-7.337889671325684
1763701329259980000,3.74797998046875,7.345367431640625,0.004187439568340778,-7.833503246307373
1763701329269567000,3.75756689453125,7.5702924728393555,-0.26620152592658997,-8.17836856842041
1763701329279153200,3.767153076171875,7.52004337310791,-0.27816563844680786,-8.360222816467285
1763701329288738600,3.776738525390625,7.3022966384887695,-0.012562318705022335,-8.19511890411377
1763701329298324700,3.78632470703125,7.376473903656006,-0.03409772366285324,-7.823931694030762
1763701329307911700,3.79591162109375,7.486543655395508,-0.2877369225025177,-7.682755470275879
1763701329317497900,3.805497802734375,7.220940589904785,-0.4384847581386566,-7.826324462890625
1763701329327083300,3.815083251953125,6.933502674102783,-0.3595215976238251,-7.945965766906738
1763701329336669400,3.82466943359375,6.653542518615723,-0.13459627330303192,-8.118548393249512
1763701329346256400,3.83425634765625,6.6607208251953125,-0.07238288223743439,-8.219046592712402
1763701329355842600,3.843842529296875,7.045965194702148,-0.4504488706588745,-8.333902359008789
1763701329365427700,3.853427734375,7.136892795562744,-0.9508479237556458,-8.64496898651123
1763701329375014000,3.863013916015625,6.354140758514404,-0.6421737670898438,-8.424829483032227
1763701329384601000,3.87260107421875,5.853741645812988,-0.5967101454734802,-8.254939079284668
1763701329394187000,3.88218701171875,5.248058319091797,-0.5847460627555847,-8.094619750976562
1763701329403772400,3.8917724609375,4.931906700134277,-0.6230311989784241,-8.108976364135742
1763701329413358600,3.901358642578125,4.840979099273682,-0.953240692615509,-8.554041862487793
1763701329422945500,3.910945556640625,4.601696968078613,-1.2574282884597778,-8.796015739440918
1763701329432531700,3.92053173828125,4.431806564331055,-1.3555340766906738,-8.82951545715332
1763701329442117000,3.9301171875,4.275974273681641,-1.171286702156067,-8.779266357421875
1763701329451703300,3.939703369140625,4.261617183685303,-1.0010972023010254,-8.683553695678711
1763701329461290200,3.949290283203125,4.3549370765686035,-1.0301101207733154,-8.515756607055664
1763701329470876400,3.95887646484375,4.280759811401367,-1.0154540538787842,-8.458329200744629
1763701329480461800,3.9684619140625,4.314259052276611,-0.6852445602416992,-8.863015174865723
1763701329490047700,3.9780478515625,3.7420754432678223,-1.1880364418029785,-8.329116821289062
1763701329499635000,3.987635009765625,3.7277185916900635,-2.1382861137390137,-8.082356452941895
1763701329509220900,3.997220947265625,3.955335855484009,-2.5836503505706787,-8.168797492980957
1763701329518806300,4.00680615234375,3.5865421295166016,-2.349153518676758,-8.264510154724121
1763701329528392400,4.016392333984375,3.399901866912842,-1.7793627977371216,-8.070392608642578
1763701329537979400,4.0259794921875,3.402294635772705,-1.9229321479797363,-8.207082748413086
1763701329547565600,4.035565673828125,3.169891834259033,-1.4799607992172241,-8.319544792175293
1763701329557151000,4.04515087890625,3.1507492065429688,-0.35473597049713135,-8.44157886505127
1763701329566737200,4.054737060546875,3.11246395111084,1.313958764076233,-8.266902923583984
1763701329576324000,4.064323974609375,3.1962127685546875,2.484647274017334,-7.445566654205322
1763701329585910300,4.07391015625,3.567399501800537,2.1756739616394043,-6.971787929534912
1763701329595495700,4.08349560546875,3.84765887260437,1.83828604221344,-6.756134510040283
1763701329605081900,4.093081787109375,3.9936211109161377,1.5460625886917114,-7.1249284744262695
1763701329614668800,4.102668701171875,4.192225456237793,1.1198409795761108,-7.64447021484375
1763701329624255000,4.1122548828125,4.369294166564941,0.6577271223068237,-8.231010437011719
1763701329633840000,4.121840087890625,4.041477680206299,0.4495515525341034,-8.958727836608887
1763701329643426300,4.13142626953125,3.8210387229919434,0.2030908167362213,-9.416056632995605
1763701329653013200,4.14101318359375,3.6320056915283203,-0.3044866919517517,-9.313164710998535
1763701329662599400,4.150599365234375,3.6487553119659424,-0.25423741340637207,-9.253344535827637
1763701329672184800,4.160184814453125,3.75643253326416,-0.20398813486099243,-9.104690551757812
1763701329681771000,4.16977099609375,4.12761926651001,-0.5153541564941406,-9.20279598236084
1763701329691358000,4.17935791015625,4.405186653137207,-0.40259242057800293,-9.456734657287598
1763701329700944100,4.188944091796875,4.72373104095459,-0.27816563844680786,-9.681659698486328
1763701329710529500,4.198529541015625,4.448556423187256,0.13130614161491394,-9.691230773925781
1763701329720115700,4.20811572265625,4.106083869934082,0.43998026847839355,-9.825528144836426
1763701329729702700,4.21770263671875,3.691826343536377,0.6771687865257263,-10.002596855163574
1763701329739288800,4.227288818359375,3.416651725769043,0.38733816146850586,-9.815957069396973
1763701329748874200,4.236874267578125,3.440579891204834,-0.0005982056609354913,-9.36341381072998
1763701329758460400,4.24646044921875,3.653541088104248,-0.07956135272979736,-9.109476089477539
1763701329768047400,4.25604736328125,3.895515203475952,-0.2805584669113159,-8.970691680908203
1763701329777633300,4.26563330078125,3.8306100368499756,0.001794616924598813,-9.131011009216309
1763701329787218700,4.27521875,3.646362543106079,0.10498509556055069,-8.726624488830566
1763701329796804900,4.284804931640625,3.6391842365264893,-0.24227328598499298,-7.603792190551758
1763701329806391800,4.294391845703125,3.4357941150665283,0.04007977992296219,-8.616254806518555
1763701329815978000,4.30397802734375,3.512364625930786,-0.03888336941599846,-9.049654960632324
1763701329825564700,4.313564697265625,3.6176488399505615,-0.2949153780937195,-9.451948165893555
1763701329835150800,4.32315087890625,3.6343984603881836,-0.4504488706588745,-9.767801284790039
1763701329844737800,4.33273779296875,3.565006732940674,-0.48903313279151917,-9.763015747070312
1763701329863909400,4.351909423828125,3.7851462364196777,-1.1545369625091553,-9.442377090454102
1763701329873495600,4.36149560546875,3.588934898376465,-1.3028919696807861,-9.301200866699219
1763701329883082500,4.37108251953125,3.285046339035034,-1.2047861814498901,-9.111868858337402
1763701329892668700,4.380668701171875,3.1579277515411377,-1.1066805124282837,-8.949156761169434
1763701329902253800,4.39025390625,2.9042885303497314,-0.7905287742614746,-8.903693199157715
1763701329911840300,4.39984033203125,2.714956283569336,-0.5081757307052612,-9.042476654052734
1763701329921427200,4.40942724609375,2.765504837036133,-0.4504488706588745,-9.377771377563477
1763701329931013000,4.41901318359375,3.0550363063812256,-0.5177469849586487,-9.564411163330078
1763701329940598500,4.4285986328125,3.0933215618133545,-0.4914259612560272,-9.90688419342041
1763701329950184700,4.438184814453125,3.009572744369507,-0.5919244885444641,-10.148558616638184
1763701329959771600,4.447771728515625,2.9617161750793457,-0.8192426562309265,-10.227521896362305
1763701329969357800,4.45735791015625,2.8899314403533936,-0.8551349639892578,-10.42642593383789
1763701329978943200,4.466943115234375,2.9832515716552734,-0.5368895530700684,-10.5723876953125
1763701329988529400,4.476529296875,3.263211965560913,-1.1976077556610107,-10.412068367004395
1763701329998116400,4.486116455078125,3.646362543106079,-1.9564316272735596,-10.615458488464355
1763701330007702500,4.49570263671875,3.81864595413208,-2.0186450481414795,-10.598709106445312
1763701330017288000,4.505287841796875,3.6822550296783447,-1.9971096515655518,-10.342677116394043
1763701330026874000,4.5148740234375,3.519542932510376,-1.4727823734283447,-10.220343589782715
1763701330036461000,4.5244609375,3.5171501636505127,-1.2191431522369385,-10.27777099609375
1763701330046047200,4.534047119140625,3.5243287086486816,-1.262213945388794,-10.617851257324219
1763701330055632400,4.54363232421875,3.7133617401123047,-1.0971091985702515,-10.67288589477539
1763701330065218600,4.553218505859375,3.8306100368499756,-1.0010972023010254,-10.732707023620605
1763701330074805500,4.562805419921875,4.046263217926025,-1.2574282884597778,-10.522138595581055
1763701330084391700,4.5723916015625,4.304687976837158,-1.5254244804382324,-10.25623607635498
1763701330093977000,4.58197705078125,4.513162612915039,-1.5999010801315308,-9.976275444030762
1763701330103563300,4.591563232421875,4.649553298950195,-1.6597216129302979,-9.818349838256836
1763701330113150200,4.601150146484375,4.323830604553223,-1.4584254026412964,-9.734301567077637
1763701330122736400,4.610736328125,3.871587038040161,-1.3794622421264648,-9.758230209350586
1763701330132321800,4.62032177734375,3.7181472778320312,-1.724327802658081,-10.081560134887695
1763701330141908000,4.629907958984375,3.9768712520599365,-2.2917258739471436,-10.44796085357666
1763701330151495000,4.639494873046875,4.470091819763184,-2.4568307399749756,-10.514960289001465
1763701330161081000,4.6490810546875,5.6431732177734375,-2.193620204925537,-10.048060417175293
1763701330170666500,4.65866650390625,6.361319065093994,-1.846361756324768,-9.672088623046875
1763701330180252400,4.66825244140625,6.186643123626709,-1.822433590888977,-9.559625625610352
1763701330189839600,4.677839599609375,5.322235584259033,-2.160120725631714,-9.72951602935791
1763701330199425500,4.687425537109375,4.1036906242370605,-2.715554714202881,-10.272985458374023
1763701330209011000,4.697010986328125,3.323331594467163,-2.9883363246917725,-10.373783111572266
1763701330218597000,4.70659716796875,3.01196551322937,-2.7993032932281494,-9.801599502563477
1763701330228184000,4.71618408203125,2.956930637359619,-2.1960129737854004,-9.06401252746582
1763701330237770200,4.725770263671875,2.9042885303497314,-1.5397813320159912,-7.809575080871582
1763701330247355600,4.735355712890625,2.9904301166534424,-1.0755738019943237,-6.62213659286499
1763701330256941800,4.74494189453125,3.224926710128784,-0.9221340417861938,-5.865705490112305
1763701330266528800,4.75452880859375,3.591327667236328,-1.0348957777023315,-5.590231895446777
1763701330276115000,4.764114990234375,3.6583266258239746,-1.420140266418457,-5.274080276489258
1763701330285700400,4.773700439453125,3.7301113605499268,-2.1888344287872314,-4.706682205200195
1763701330295286500,4.78328662109375,3.591327667236328,-3.0266215801239014,-3.770789384841919
1763701330304873500,4.79287353515625,3.5004005432128906,-3.8886358737945557,-2.5618157386779785
1763701330314459400,4.80245947265625,3.2440693378448486,-5.133502006530762,-2.5450658798217773
1763701330324044800,4.812044921875,2.3416759967803955,-6.210870265960693,-2.5594229698181152
1763701330333631000,4.821630859375,1.1901301145553589,-7.074978351593018,-2.9542386531829834
1763701330343218200,4.83121826171875,0.5222335457801819,-7.752446174621582,-3.9311084747314453
1763701330352804000,4.84080419921875,-0.05712864175438881,-7.8628153800964355,-4.321437835693359
1763701330362389500,4.850389404296875,-0.2153540402650833,-8.023134231567383,-4.632504463195801
1763701330371975700,4.8599755859375,-0.05952146276831627,-7.810173034667969,-4.833800792694092
1763701330381562600,4.869562744140625,1.077667474746704,-7.582555770874023,-4.72582483291626
1763701330391148800,4.879148681640625,2.5857439041137695,-7.214061260223389,-4.680361270904541
1763701330400734200,4.888734130859375,3.5482568740844727,-6.488437652587891,-3.75643253326416
1763701330410320400,4.8983203125,3.588934898376465,-7.055835723876953,-5.085047245025635
1763701330419907300,4.9079072265625,2.9856443405151367,-8.176275253295898,-7.469494819641113
1763701330429493500,4.917493408203125,1.5945172309875488,-9.086145401000977,-11.211570739746094
1763701330439079000,4.927078857421875,0.8237292170524597,-8.411070823669434,-12.138191223144531
1763701330448664800,4.936664794921875,0.5461617708206177,-7.6375908851623535,-11.503793716430664
1763701330458252000,4.946251953125,0.5174478888511658,-6.567400932312012,-10.112667083740234
1763701330467838000,4.955837890625,0.5413761138916016,-6.320940017700195,-9.174081802368164
1763701330477423400,4.96542333984375,0.35443684458732605,-5.473282814025879,-7.9316086769104
1763701330487009500,4.975009521484375,0.22043879330158234,-4.027419567108154,-7.208677291870117
1763701330496596500,4.984596435546875,0.9529415965080261,-3.220440149307251,-5.839085578918457
1763701330506182700,4.9941826171875,0.6993024349212646,-3.0840492248535156,-5.310271739959717
1763701330515768000,5.00376806640625,1.568196177482605,-4.369593143463135,-7.749754428863525
1763701330525354200,5.013354248046875,2.6096723079681396,-4.506283283233643,-8.805587768554688
1763701330534941200,5.022941162109375,3.4549367427825928,-3.704089403152466,-9.286844253540039
1763701330544527400,5.03252734375,4.125226020812988,-2.6673989295959473,-8.831908226013184
1763701330554112800,5.04211279296875,5.274379253387451,-3.4959139823913574,-7.957930088043213
1763701330563699000,5.051698974609375,4.790729999542236,-5.2507500648498535,-8.091927528381348
1763701330573286000,5.061285888671875,2.9066812992095947,-3.017050266265869,-6.526423931121826
1763701330582871800,5.070871826171875,2.9114668369293213,-2.734697103500366,-5.657230854034424
1763701330592457200,5.080457275390625,3.8572301864624023,-2.279761791229248,-5.551946640014648
1763701330602043400,5.09004345703125,4.805087089538574,-2.085644006729126,-5.700301647186279
1763701330611630300,5.09963037109375,5.664708614349365,-2.756232500076294,-5.391627788543701
1763701330621216500,5.109216552734375,4.773980140686035,-3.720839262008667,-4.328616142272949
1763701330630802000,5.118802001953125,4.206582069396973,-5.222036361694336,-4.153641223907471
1763701330640388000,5.12838818359375,3.4621152877807617,-6.608078956604004,-4.73090934753418
1763701330649975000,5.13797509765625,4.211368083953857,-8.082955360412598,-3.6822550296783447
1763701330659561200,5.147561279296875,2.9976086616516113,-8.068597793579102,-1.8146568536758423
1763701330669146600,5.157146728515625,-0.18424734473228455,-9.792327880859375,2.7652056217193604
1763701330678732800,5.16673291015625,-1.1249257326126099,-12.705887794494629,6.408876419067383
1763701330688319700,5.17631982421875,-2.0563318729400635,-15.270096778869629,7.337889671325684
1763701330697906000,5.185906005859375,-1.3334003686904907,-16.081562042236328,3.811467409133911
1763701330707491000,5.195490966796875,1.9369899034500122,-15.506986618041992,-0.5578267574310303
1763701330717077200,5.2050771484375,5.341378211975098,-14.331512451171875,-2.2337000370025635
1763701330726664400,5.21466455078125,6.138786315917969,-12.41396427154541,-3.318246841430664
1763701330736250400,5.22425048828125,3.488436222076416,-14.269298553466797,-3.4570305347442627
1763701330745835800,5.233835693359375,2.226820468902588,-17.826828002929688,-3.976572036743164
1763701330755422000,5.243421875,3.0933215618133545,-18.78694725036621,-5.678766250610352
1763701330765009000,5.2530087890625,3.3664023876190186,-16.68246078491211,-7.110571384429932
1763701330774595000,5.262594970703125,2.604886531829834,-13.002897262573242,-6.337091445922852
1763701330784180500,5.272180419921875,2.7966115474700928,-9.926325798034668,-4.977370262145996
1763701330793766700,5.2817666015625,2.775076150894165,-9.069396018981934,-4.271188259124756
1763701330803353600,5.291353515625,1.5035899877548218,-8.952147483825684,-3.6391842365264893
1763701330812939800,5.300939697265625,0.9433703422546387,-7.651947498321533,-2.5929224491119385
1763701330822525200,5.310525146484375,1.695314884185791,-9.361320495605469,-2.094916343688965
1763701330832111400,5.320111328125,1.3719847202301025,-9.584152221679688,-2.1164517402648926
1763701330841698300,5.3296982421875,1.8197416067123413,-9.363713264465332,-1.7596219778060913
1763701330851284200,5.3392841796875,2.0135602951049805,-8.820243835449219,-1.776371717453003
1763701330860869600,5.34886962890625,2.4445674419403076,-7.987242221832275,-1.8026927709579468
1763701330870455800,5.358455810546875,2.8348965644836426,-6.967301368713379,-2.5522444248199463
1763701330880042800,5.368042724609375,3.5386855602264404,-5.708078384399414,-3.643969774246216
1763701330889629000,5.37762890625,4.594518661499023,-5.121537685394287,-3.4259238243103027
1763701330899214300,5.38721435546875,2.6024937629699707,-6.493223190307617,-0.9122636318206787
1763701330908800500,5.396800537109375,-0.9071788787841797,-7.326523780822754,-1.3405789136886597
1763701330918387500,5.406387451171875,0.97926265001297,-7.5442705154418945,-3.246462106704712
1763701330927973600,5.4159736328125,3.2129626274108887,-7.702197074890137,-3.256033420562744
1763701330937559000,5.42555908203125,2.868396043777466,-9.076574325561523,-3.0933215618133545
1763701330947145200,5.435145263671875,1.6809579133987427,-10.527223587036133,-3.1244282722473145
1763701330956732200,5.444732177734375,1.012762188911438,-11.260025024414062,-3.090928554534912
1763701330966318300,5.454318359375,1.1685947179794312,-10.888838768005371,-2.542673110961914
1763701330975903500,5.463903564453125,1.6307085752487183,-10.067801475524902,-2.0614166259765625
1763701330985489700,5.47348974609375,1.9058831930160522,-9.754042625427246,-1.9103697538375854
1763701330995076600,5.48307666015625,1.714457392692566,-9.533903121948242,-2.0039889812469482
1763701331004662800,5.492662841796875,1.450947880744934,-9.289535522460938,-1.9657038450241089
1763701331014248200,5.502248291015625,1.4437693357467651,-9.229715347290039,-1.903191328048706
1763701331023834400,5.51183447265625,1.599302887916565,-9.21296501159668,-1.8577276468276978
1763701331033421300,5.52142138671875,1.9154545068740845,-8.940183639526367,-2.0997018814086914
1763701331043007500,5.531007568359375,1.934597134590149,-8.513961791992188,-2.441875457763672
1763701331052593000,5.540593017578125,1.6139588356018066,-6.828517436981201,-2.4562325477600098
1763701331062179000,5.550178955078125,1.7024933099746704,-2.3228325843811035,-2.92073917388916
1763701331071766000,5.55976611328125,2.557030200958252,-1.8367904424667358,-2.856132984161377
1763701331081352200,5.569352294921875,2.5929224491119385,-8.53310489654541,-0.9720842242240906
1763701331090937300,5.578937255859375,2.549851655960083,-8.856135368347168,-0.2802593410015106
1763701331100523500,5.5885234375,1.9824535846710205,-8.02791976928711,-0.17946170270442963
1763701331110110500,5.5981103515625,1.0465607643127441,-7.527521133422852,-0.33768710494041443
1763701331119696600,5.607696533203125,0.617946445941925,-7.283452987670898,-0.5075774788856506
1763701331129282000,5.617281982421875,0.4692923426628113,-7.616055488586426,-0.5745765566825867
1763701331138868200,5.6268681640625,0.6969096064567566,-7.776673793792725,-0.5985047817230225
1763701331148455200,5.636455078125,1.2499507665634155,-7.436593532562256,-0.859621524810791
1763701331158041300,5.646041259765625,1.7048860788345337,-7.663911819458008,-1.5227324962615967
1763701331167626800,5.655626708984375,1.9106688499450684,-7.58016300201416,-3.7851462364196777
1763701331177213000,5.665212890625,1.316949725151062,-7.45573616027832,-4.493721008300781
1763701331186799900,5.6747998046875,1.5131611824035645,-6.749554634094238,-3.6942191123962402
1763701331196386000,5.684385986328125,1.934597134590149,-7.333702087402344,-2.6551358699798584
1763701331205971200,5.69397119140625,1.4557334184646606,-9.078967094421387,-3.6894333362579346
1763701331215557400,5.703557373046875,0.9840483069419861,-8.75802993774414,-3.067000389099121
1763701331225144600,5.71314453125,0.3616153299808502,-9.045467376708984,-2.793919563293457
1763701331234730500,5.72273046875,0.37597227096557617,-9.263215065002441,-2.0781664848327637
1763701331244316000,5.73231591796875,1.1159526109695435,-9.08135986328125,-0.14835500717163086
1763701331253902000,5.741902099609375,1.6761722564697266,-8.990432739257812,0.8665009140968323
1763701331263489000,5.751489013671875,1.410269856452942,-9.811470031738281,-0.4740779995918274
1763701331273075200,5.7610751953125,1.5801602602005005,-8.87527847290039,-0.9912267923355103
1763701331282660600,5.77066064453125,0.30658039450645447,-9.256035804748535,0.368793785572052
1763701331292246800,5.780246826171875,-0.6535396575927734,-8.379963874816895,1.374078392982483
1763701331301833700,5.789833740234375,-1.2400803565979004,-10.122836112976074,1.1180464029312134
1763701331311420000,5.799419921875,0.7423732280731201,-11.695817947387695,-1.067797064781189
1763701331321005000,5.809005126953125,2.7846474647521973,-12.686745643615723,-2.3748764991760254
1763701331330591200,5.81859130859375,3.1507492065429688,-13.32832145690918,-2.135594129562378
1763701331340178400,5.828178466796875,2.219642162322998,-12.605389595031738,-1.2496516704559326
1763701331349764400,5.837764404296875,1.6426727771759033,-13.163216590881348,-0.675075113773346
1763701331359349800,5.847349853515625,1.9752750396728516,-13.153645515441895,-1.0558329820632935
1763701331368936000,5.85693603515625,-0.5647061467170715,-12.380464553833008,2.0997018814086914
1763701331378523000,5.86652294921875,0.8500502705574036,-11.97338581085205,2.2576282024383545
1763701331388109000,5.876109130859375,-2.3099710941314697,-8.990432739257812,1.0103694200515747
1763701331397694500,5.885694580078125,-1.8146568536758423,-9.512367248535156,-0.5075774788856506
1763701331407280600,5.89528076171875,1.0079765319824219,-7.941778182983398,4.323830604553223
1763701331416867600,5.90486767578125,1.4533406496047974,-8.279166221618652,2.427518606185913
1763701331426453800,5.914453857421875,1.9537396430969238,-8.161917686462402,0.26560330390930176
1763701331436039000,5.924038818359375,2.059023857116699,-7.762316703796387,0.2153540402650833
1763701331445625000,5.933625,2.1475582122802734,-8.518747329711914,0.28953152894973755
1763701331455212000,5.9432119140625,0.04815555736422539,-7.233203887939453,0.6655037999153137
1763701331464798200,5.952798095703125,-3.140878915786743,-4.111168384552002,2.063809633255005
1763701331474383600,5.962383544921875,-10.768599510192871,-2.349153518676758,1.0055837631225586
1763701331483969800,5.9719697265625,4.651946544647217,-7.561020374298096,3.246462106704712
1763701331493556700,5.981556640625,6.679863452911377,-9.119645118713379,4.673182487487793
1763701331503143000,5.991142822265625,2.8181469440460205,-14.180764198303223,0.97926265001297
1763701331512728300,6.000728271484375,1.92741858959198,-15.24616813659668,-0.22013968229293823
1763701331522314500,6.010314453125,3.833002805709839,-16.17009735107422,-0.7923234105110168
1763701331531901400,6.0199013671875,4.448556423187256,-16.02174186706543,-0.9002995491027832
1763701331541487400,6.0294873046875,4.54426908493042,-15.430416107177734,0.37118661403656006
1763701331551072800,6.03907275390625,4.335794448852539,-14.432010650634766,1.6567305326461792
1763701331560659000,6.048658935546875,4.091726779937744,-12.938291549682617,2.4945175647735596
1763701331570246000,6.058245849609375,3.7205400466918945,-12.198310852050781,2.968595504760742
1763701331579832000,6.06783203125,3.2033913135528564,-11.89442253112793,3.145963668823242
1763701331589417500,6.07741748046875,2.659921407699585,-11.537592887878418,3.0786654949188232
1763701331599003600,6.087003662109375,2.1164517402648926,-11.039586067199707,2.935096025466919
1763701331608590600,6.096590576171875,1.7527425289154053,-10.651948928833008,2.784348249435425
1763701331618176800,6.1061767578125,1.6019947528839111,-10.299904823303223,2.551945447921753
1763701331627762200,6.11576220703125,1.7312071323394775,-9.86411190032959,2.2121646404266357
1763701331637348000,6.12534814453125,2.011167526245117,-9.50758171081543,1.7380865812301636
1763701331646935300,6.134935302734375,2.6479573249816895,-8.427820205688477,0.8114659786224365
1763701331656521200,6.144521240234375,2.8660032749176025,-8.21695327758789,0.39990049600601196
1763701331666106600,6.154106689453125,2.9210381507873535,-8.037490844726562,0.13639089465141296
1763701331675692800,6.16369287109375,3.7995033264160156,-8.382356643676758,0.30149564146995544
1763701331685279700,6.17327978515625,4.264009952545166,-9.083752632141113,0.4549354016780853
1763701331694866000,6.182865966796875,5.511268615722656,-9.404391288757324,0.3281157910823822
1763701331704451300,6.192451416015625,5.731707572937012,-9.215357780456543,0.2991028428077698
1763701331714037500,6.20203759765625,5.31984281539917,-9.428318977355957,0.4453641176223755
1763701331723624400,6.21162451171875,5.4179487228393555,-9.837791442871094,0.7037889361381531
1763701331733210600,6.221210693359375,5.585745334625244,-10.125228881835938,1.189831018447876
1763701331742796000,6.230796142578125,5.140381336212158,-10.223334312438965,1.445863127708435
1763701331752382000,6.2403818359375,4.137190341949463,-10.0343017578125,1.6256239414215088
1763701331761969200,6.24996923828125,3.416651725769043,-9.05264663696289,1.3932210206985474
1763701331771555000,6.25955517578125,0.6993024349212646,-8.94975471496582,1.6878372430801392
1763701331781140500,6.269140380859375,0.34725838899612427,-8.126026153564453,1.342971682548523
1763701331790726700,6.2787265625,0.368793785572052,-7.2212395668029785,1.0941181182861328
1763701331800313600,6.288313720703125,1.048953652381897,-6.354439735412598,0.8018946647644043
1763701331809899800,6.297899658203125,1.6019947528839111,-5.528616905212402,0.48364928364753723
1763701331819485200,6.307485107421875,2.4972095489501953,-5.138287544250488,0.24885354936122894
1763701331829071400,6.3170712890625,3.73250412940979,-5.36560583114624,-0.26590242981910706
1763701331838658300,6.326658203125,4.745266437530518,-5.997610092163086,-0.8476574420928955
1763701331848244500,6.336244384765625,5.228915691375732,-6.869195461273193,-1.0079765319824219
1763701331857829600,6.34582958984375,4.874478816986084,-7.570591926574707,-0.9026923179626465
1763701331867415800,6.355415771484375,4.070191383361816,-7.846065521240234,-0.7516453862190247
1763701331877002800,6.365002685546875,3.246462106704712,-7.730910778045654,-0.6176473498344421
1763701331886589000,6.3745888671875,2.775076150894165,-7.3313093185424805,-0.48843491077423096
1763701331896174300,6.38417431640625,2.7029922008514404,-6.773482799530029,-0.32572299242019653
1763701331905760500,6.393760498046875,2.978466033935547,-6.096014976501465,-0.20817556977272034
1763701331915347500,6.403347412109375,3.16749906539917,-5.42781925201416,-0.2153540402650833
1763701331924933600,6.41293359375,3.3041889667510986,-4.881956577301025,-0.28983065485954285
1763701331934519000,6.42251904296875,3.392723321914673,-4.422534465789795,-0.490827739238739
1763701331944105200,6.432105224609375,3.3281171321868896,-3.7806596755981445,-0.8811569213867188
1763701331953692200,6.441692138671875,3.1316065788269043,-3.2324042320251465,-1.2903295755386353
1763701331963278000,6.451278076171875,3.10528564453125,-2.772982358932495,-1.4581263065338135
1763701331972863500,6.460863525390625,2.9042885303497314,-2.485544443130493,-1.5035899877548218
1763701331982449700,6.47044970703125,2.8803603649139404,-2.231905221939087,-1.4676976203918457
1763701331992036600,6.48003662109375,2.7631118297576904,-2.38265323638916,-1.2640085220336914
1763701332001622800,6.489622802734375,2.820539712905884,-2.3084757328033447,-1.0295119285583496
1763701332011208200,6.499208251953125,2.7774689197540283,-2.3371894359588623,-0.6894320249557495
1763701332020794400,6.50879443359375,2.573779821395874,-2.2845473289489746,-0.39990049600601196
1763701332030381300,6.51838134765625,2.3871397972106934,-2.485544443130493,-0.05742774158716202
1763701332039967500,6.527967529296875,2.274677038192749,-3.297309637069702,0.2392822653055191
1763701332049552600,6.537552734375,2.399103879928589,-4.389034748077393,0.1579262912273407
1763701332059138800,6.547138916015625,2.6790640354156494,-5.834897994995117,-0.6152545213699341
1763701332068725800,6.556725830078125,2.7726831436157227,-6.969694137573242,-1.342971682548523
1763701332078312000,6.56631201171875,2.8013970851898193,-8.425427436828613,-1.7620147466659546
1763701332087897300,6.5758974609375,2.8827531337738037,-9.794720649719238,-2.059023857116699
1763701332097483500,6.5854833984375,3.1268210411071777,-10.905588150024414,-2.0997018814086914
1763701332107070500,6.595070556640625,3.553042411804199,-11.549556732177734,-2.0135602951049805
1763701332116656600,6.60465673828125,3.950550079345703,-11.925528526306152,-1.695015788078308
1763701332126242000,6.614241943359375,4.395615100860596,-11.882457733154297,-1.165902853012085
1763701332135828200,6.623828125,4.66151762008667,-11.465807914733887,-0.25393831729888916
1763701332145415200,6.633415283203125,4.616054058074951,-10.695019721984863,1.1060823202133179
1763701332155001000,6.6430009765625,4.517948150634766,-9.962218284606934,2.2360928058624268
1763701332164586500,6.65258642578125,4.647160530090332,-9.47647476196289,2.9614171981811523
1763701332174172700,6.662172607421875,4.850550651550293,-9.011968612670898,3.301496982574463
1763701332183759600,6.671759521484375,4.9414777755737305,-8.743673324584961,3.1866414546966553
1763701332193345800,6.681345703125,4.867300510406494,-8.578568458557129,3.0571300983428955
1763701332202931200,6.69093115234375,4.632803916931152,-8.344071388244629,3.239283561706543
1763701332212517400,6.700517333984375,4.6423749923706055,-8.193024635314941,3.76361083984375
1763701332222104300,6.710104248046875,4.821836948394775,-8.518747329711914,4.661218643188477
1763701332231690500,6.7196904296875,5.322235584259033,-9.454939842224121,5.288437366485596
1763701332241275600,6.729275634765625,5.518447399139404,-11.193026542663574,5.092225551605225
1763701332250861800,6.73886181640625,4.680660247802734,-13.548760414123535,3.9622151851654053
1763701332260448800,6.74844873046875,2.557030200958252,-15.686746597290039,2.5833511352539062
1763701332270035000,6.758034912109375,-0.8976075649261475,-16.819150924682617,1.5753746032714844
1763701332279620400,6.767620361328125,-3.5958142280578613,-16.498212814331055,1.197009563446045
1763701332289206500,6.77720654296875,-4.1297125816345215,-16.05524253845215,1.7237296104431152
1763701332298793500,6.78679345703125,-1.2759727239608765,-17.072790145874023,2.410768747329712
1763701332308379600,6.796379638671875,3.4429726600646973,-19.759031295776367,2.1930220127105713
1763701332317965000,6.805965087890625,7.855337619781494,-22.251157760620117,1.2113664150238037
1763701332327551000,6.815551025390625,8.935098648071289,-22.002304077148438,-0.15553347766399384
1763701332337138200,6.82513818359375,3.3424742221832275,-18.384654998779297,-1.9848463535308838
1763701332346724000,6.83472412109375,-2.9327032566070557,-14.551950454711914,-3.1794631481170654
1763701332356309500,6.8443095703125,-5.326722145080566,-11.384451866149902,-3.4331023693084717
1763701332365895700,6.853895751953125,-4.29242467880249,-8.815457344055176,-3.1651060581207275
1763701332375482600,6.863482666015625,-1.7691932916641235,-6.773482799530029,-3.1268210411071777
1763701332385068800,6.87306884765625,0.11515458673238754,-4.692923545837402,-3.387638568878174
1763701332394654200,6.882654296875,0.9122636318206787,-3.1606194972991943,-3.5336008071899414
1763701332404240400,6.892240478515625,0.6801598072052002,-2.749054193496704,-3.466601848602295
1763701332413827300,6.901827392578125,-0.0810568705201149,-3.1773693561553955,-3.2727832794189453
1763701332423413200,6.911413330078125,-0.701396107673645,-4.0202412605285645,-2.698206663131714
1763701332432998700,6.92099853515625,-0.06191428750753403,-4.982754230499268,-2.0231316089630127
1763701332442584800,6.930584716796875,1.1446665525436401,-6.342475414276123,-1.537089467048645
1763701332452171800,6.940171875,2.018345832824707,-7.755138397216797,-1.3863415718078613
1763701332461758000,6.949758056640625,1.664208173751831,-9.122037887573242,-1.2041879892349243
1763701332471343400,6.95934326171875,0.8333004713058472,-10.4219388961792,-0.734895646572113
1763701332480929500,6.968929443359375,0.6945167779922485,-11.238490104675293,0.1339980661869049
1763701332490516500,6.9785166015625,1.6977076530456543,-11.137990951538086,0.9888339638710022
1763701332500102700,6.9881025390625,3.232105255126953,-10.649556159973145,1.750050663948059
1763701332509688000,6.99768798828125,4.718945503234863,-10.13479995727539,2.3820550441741943
1763701332519274000,7.00727392578125,5.4179487228393555,-9.385248184204102,2.738884687423706
1763701332528861200,7.016861083984375,5.396413326263428,-8.286344528198242,2.722134828567505
1763701332538447000,7.026447021484375,5.0255255699157715,-7.101299285888672,2.324627161026001
1763701332548032500,7.036032470703125,4.249652862548828,-6.160621166229248,1.7548363208770752
1763701332557618700,7.04561865234375,3.560220956802368,-5.653043270111084,1.0582258701324463
1763701332567205600,7.05520556640625,2.073380708694458,-5.31057071685791,0.40707895159721375
1763701332576791800,7.064791748046875,0.5006981492042542,-4.781457901000977,-0.08614161610603333
1763701332586377200,7.074377197265625,-0.4139583110809326,-4.178167343139648,-0.5386841893196106
1763701332595963400,7.08396337890625,-0.15314064919948578,-3.8045880794525146,-1.2424731254577637
1763701332605550300,7.09355029296875,0.9170492887496948,-3.9436707496643066,-2.0470597743988037
1763701332615136300,7.10313623046875,1.226022481918335,-4.8197431564331055,-2.95902419090271
1763701332624721700,7.1127216796875,1.0390832424163818,-6.02393102645874,-3.777967929840088
1763701332634307800,7.122307861328125,1.683350682258606,-7.333702087402344,-4.333401679992676
1763701332643894800,7.131894775390625,3.7372899055480957,-8.65753173828125,-4.733302116394043
1763701332653481000,7.14148095703125,4.630411148071289,-9.655936241149902,-4.762016296386719
1763701332663066400,7.15106640625,4.4605207443237305,-9.682257652282715,-4.0435709953308105
1763701332672652500,7.160652587890625,3.6080775260925293,-8.940183639526367,-2.557030200958252
1763701332682239500,7.170239501953125,2.971287488937378,-7.884350776672363,-0.859621524810791
1763701332691825400,7.179825439453125,3.16749906539917,-7.048657417297363,0.6583253145217896
1763701332701410800,7.189410888671875,3.1962127685546875,-6.775875568389893,2.1260228157043457
1763701332710997000,7.1989970703125,2.8037898540496826,-7.285845756530762,2.645564556121826
1763701332720584000,7.208583984375,3.3807592391967773,-7.730910778045654,3.0571300983428955
1763701332730170000,7.218170166015625,3.4357941150665283,-8.226524353027344,3.246462106704712
1763701332739755500,7.227755615234375,2.5450658798217773,-8.954540252685547,3.0643084049224854
1763701332749341700,7.237341796875,1.9824535846710205,-9.699007034301758,2.880061149597168
1763701332758928600,7.2469287109375,3.1387851238250732,-10.845767974853516,2.231307029724121
1763701332768514600,7.2565146484375,5.793920993804932,-12.00927734375,1.5466607809066772
1763701332778100000,7.266099853515625,6.6245293617248535,-12.715459823608398,0.8688937425613403
1763701332787686100,7.27568603515625,5.360520839691162,-12.892827033996582,0.11246266216039658
1763701332797273000,7.285273193359375,4.728516578674316,-12.907184600830078,-0.47168517112731934
1763701332806859300,7.294859375,4.992026329040527,-12.713067054748535,-0.4740779995918274
1763701332816444700,7.304444580078125,4.843372344970703,-11.705389022827148,1.1682956218719482
1763701332826030800,7.31403076171875,3.7516467571258545,-10.350153923034668,2.691028118133545
1763701332835617800,7.32361767578125,2.0542383193969727,-9.086145401000977,2.700599431991577
1763701332845204000,7.333203857421875,1.053739309310913,-7.915457248687744,1.953440546989441
1763701332854789400,7.342789306640625,1.537089467048645,-6.818946361541748,1.2544373273849487
1763701332864375300,7.352375244140625,3.0239295959472656,-5.7511491775512695,0.7588238716125488
1763701332873962500,7.36196240234375,4.280759811401367,-4.826921463012695,0.6224330067634583
1763701332883548400,7.37154833984375,4.898406982421875,-3.768695592880249,0.43579283356666565
1763701332893133800,7.3811337890625,5.3940205574035645,-2.708376169204712,0.01196411345154047
1763701332902720000,7.390719970703125,6.0523457527160645,-1.415354609489441,-0.5913262963294983
1763701332912307000,7.400306884765625,6.351747512817383,0.0568295381963253,-1.1922239065170288
1763701332921893000,7.40989306640625,6.1914286613464355,1.0719845294952393,-1.9920248985290527
1763701332931478500,7.419478515625,6.361319065093994,1.210768222808838,-2.4059832096099854
1763701332941064400,7.429064453125,6.392425537109375,0.030508488416671753,-2.7412774562835693
1763701332950651600,7.438651611328125,6.315855503082275,-2.2534406185150146,-3.349353551864624
1763701332960237600,7.448237548828125,6.722934246063232,-4.83888578414917,-3.859323740005493
1763701332969823000,7.457822998046875,6.773183822631836,-7.556234836578369,-3.780360698699951
1763701332979409200,7.4674091796875,6.054738521575928,-10.69980525970459,-3.169891834259033
1763701332988996000,7.47699609375,4.994419097900391,-13.764114379882812,-1.800299882888794
1763701332998582300,7.486582275390625,3.4740793704986572,-16.584354400634766,0.12921242415905
1763701333008167700,7.496167724609375,1.8939191102981567,-18.24826431274414,2.3748764991760254
1763701333027340800,7.5153408203125,-0.5359922647476196,-15.48066520690918,7.536494255065918
1763701333036926700,7.5249267578125,0.737587571144104,-12.188739776611328,8.781659126281738
1763701333046512000,7.53451220703125,2.676671266555786,-9.038289070129395,9.023334503173828
1763701333056098300,7.544098388671875,3.7731821537017822,-6.637091636657715,9.037691116333008
1763701333065685200,7.553685302734375,3.8066816329956055,-5.159822940826416,9.40169906616211
1763701333075271400,7.563271484375,3.9218363761901855,-5.073681354522705,9.945169448852539
1763701333084856800,7.57285693359375,6.054738521575928,-6.637091636657715,9.866206169128418
1763701333094443000,7.582443115234375,7.089035987854004,-10.675877571105957,6.768098831176758
1763701333104030000,7.592030029296875,1.7934205532073975,-14.487045288085938,2.896811008453369
1763701333113616000,7.601615966796875,-3.4256246089935303,-15.976278305053711,-0.007178467698395252
1763701333123201300,7.611201171875,-0.2105683982372284,-17.812471389770508,-2.090130567550659
1763701333132787500,7.620787353515625,8.034799575805664,-22.212871551513672,-4.1970109939575195
1763701333142374400,7.63037451171875,12.92602825164795,-27.441787719726562,-6.452246189117432
1763701333151960600,7.639960693359375,12.839886665344238,-28.54547691345215,-8.130512237548828
1763701333161546000,7.6495458984375,4.225724697113037,-22.52423858642578,-7.127321243286133
1763701333171132200,7.659132080078125,-5.393721103668213,-16.069599151611328,-5.673980712890625
1763701333180719000,7.668718994140625,-7.024130821228027,-11.666805267333984,-5.315057277679443
1763701333190305000,7.678304931640625,-5.238187789916992,-7.369594573974609,-4.809872627258301
1763701333199890400,7.687890380859375,-3.2557342052459717,-3.7543387413024902,-4.386044025421143
1763701333209476600,7.6974765625,-2.1735801696777344,-1.7721842527389526,-4.500899314880371
1763701333219063600,7.7070634765625,-1.5655041933059692,-0.5033900737762451,-4.982155799865723
1763701333228649700,7.716649658203125,-1.1703894138336182,-0.23988047242164612,-5.508875846862793
1763701333238235100,7.726235107421875,-1.1440683603286743,-0.4097708761692047,-5.44426965713501
1763701333247821300,7.7358212890625,-1.594218134880066,-0.6637091636657715,-4.8792643547058105
1763701333257408300,7.745408203125,-0.40677985548973083,-0.7929216027259827,-4.240081787109375
1763701333266994200,7.754994140625,2.7173492908477783,-0.8503493666648865,-3.3469607830047607
1763701333276579600,7.76457958984375,7.010073184967041,-2.152942180633545,-2.255235433578491
1763701333286165800,7.774165771484375,10.773683547973633,-6.143871307373047,-1.4964114427566528
1763701333295752700,7.783752685546875,9.693922996520996,-12.674781799316406,0.1579262912273407
1763701333305339000,7.7933388671875,6.184250354766846,-17.66172218322754,3.1145577430725098
1763701333314924300,7.80292431640625,3.6942191123962402,-18.343976974487305,5.401198863983154
1763701333324510500,7.812510498046875,3.4286158084869385,-16.115062713623047,5.731408596038818
1763701333334097400,7.822097412109375,3.6655051708221436,-11.61416244506836,5.18315315246582
1763701333343683300,7.831683349609375,3.550649642944336,-7.728518009185791,4.239782810211182
1763701333353268700,7.841268798828125,3.9074792861938477,-5.001896858215332,2.9542386531829834
1763701333362855000,7.85085498046875,5.231308460235596,-3.203690528869629,1.7261223793029785
1763701333372441900,7.86044189453125,5.896812438964844,-2.5645077228546143,0.8832506537437439
1763701333382028000,7.870028076171875,5.3007001876831055,-3.0505497455596924,0.1746760457754135
1763701333391613400,7.879613525390625,4.067798614501953,-3.7471601963043213,-0.3927220106124878
1763701333401199600,7.88919970703125,2.667099952697754,-4.767100811004639,-1.036690354347229
1763701333410786600,7.89878662109375,1.0103694200515747,-5.720042705535889,-1.7380865812301636
1763701333420372500,7.90837255859375,0.5078766345977783,-6.459723949432373,-2.1954147815704346
1763701333429958000,7.9179580078125,1.1446665525436401,-7.082156658172607,-1.8457635641098022
1763701333439544000,7.9275439453125,1.7718851566314697,-7.57298469543457,-1.3695918321609497
1763701333449131000,7.937131103515625,2.4038894176483154,-8.02074146270752,-0.8428717851638794
1763701333468302600,7.956302490234375,2.705385208129883,-10.628021240234375,-0.5267201066017151
1763701333477888800,7.965888671875,1.084846019744873,-12.445070266723633,-0.5003990530967712
1763701333487475700,7.975475830078125,0.7016952633857727,-12.787243843078613,-0.33529427647590637
1763701333497061600,7.9850615234375,3.0143582820892334,-12.445070266723633,-0.8141579031944275
1763701333506647000,7.99464697265625,5.262415409088135,-12.634103775024414,-2.1858434677124023
1763701333516233200,8.004233154296875,5.836991786956787,-12.619746208190918,-3.0478577613830566
1763701333525820200,8.013820068359376,5.080560684204102,-11.846566200256348,-3.145963668823242
1763701333535406300,8.02340625,5.525625705718994,-9.679864883422852,-2.26959228515625
1763701333544991700,8.03299169921875,6.085845470428467,-7.620841026306152,-0.12442677468061447
1763701333554578000,8.042577880859374,5.786742687225342,-6.486044883728027,2.286342144012451
1763701333564164900,8.052164794921875,4.8074798583984375,-5.732006549835205,4.067499160766602
1763701333573750800,8.061750732421874,3.9672999382019043,-4.949254512786865,5.1783671379089355
1763701333583336200,8.071336181640625,3.6583266258239746,-4.103990077972412,5.461019515991211
1763701333592922400,8.08092236328125,3.871587038040161,-3.4576287269592285,4.986941337585449
1763701333602509300,8.09050927734375,4.740480899810791,-3.1941192150115967,4.031607151031494
1763701333612095500,8.100095458984375,5.695815086364746,-3.1079776287078857,2.98295259475708
1763701333621681000,8.109680908203124,6.004489421844482,-3.0744779109954834,2.0925233364105225
1763701333631267000,8.11926708984375,5.5331034660339355,-3.203690528869629,1.1563315391540527
1763701333640854000,8.12885400390625,4.797908306121826,-3.421736478805542,0.13639089465141296
1763701333650440000,8.13843994140625,4.058227062225342,-3.2853455543518066,-0.8524430394172668
1763701333660025300,8.148025390625,3.646362543106079,-3.017050266265869,-1.781157374382019
1763701333669611500,8.157611572265624,3.2033913135528564,-3.2108688354492188,-2.8274190425872803
1763701333679198500,8.167198486328125,2.5833511352539062,-4.106382846832275,-4.017250061035156
1763701333688784600,8.17678466796875,2.4421746730804443,-5.772684574127197,-4.979763031005859
1763701333698370000,8.1863701171875,3.1076784133911133,-8.207381248474121,-5.516054630279541
1763701333707956200,8.195956298828126,4.043870449066162,-11.465807914733887,-5.633302688598633
1763701333717543200,8.205543212890625,5.037489891052246,-15.250954627990723,-5.5998029708862305
1763701333727129000,8.215129150390625,5.796313762664795,-18.267406463623047,-4.998905658721924
1763701333736714500,8.224714599609374,6.440282344818115,-18.84916114807129,-2.2815563678741455
1763701333746300700,8.23430078125,8.073084831237793,-17.00339698791504,1.505982756614685
1763701333755887600,8.2438876953125,9.892526626586914,-14.604593276977539,4.400400638580322
1763701333765473800,8.253473876953125,9.832706451416016,-12.988540649414062,6.148058891296387
1763701333775059200,8.26305908203125,6.607779502868652,-12.183954238891602,7.438388347625732
1763701333784645000,8.27264501953125,2.4373888969421387,-12.169596672058105,7.907680511474609
1763701333794232300,8.282232421875,-0.8712865710258484,-12.569497108459473,8.207082748413086
1763701333803818200,8.291818359375,-3.265305519104004,-12.856935501098633,7.9244303703308105
1763701333813403600,8.301403564453125,-4.646861553192139,-12.200703620910645,6.262914180755615
1763701333822989800,8.31098974609375,-2.5423741340637207,-9.871291160583496,4.728217601776123
1763701333832576800,8.32057666015625,3.699004650115967,-8.81067180633545,4.3549370765686035
1763701333842163000,8.330162841796875,10.438389778137207,-12.224631309509277,3.9717864990234375
1763701333851748400,8.339748291015624,14.192429542541504,-19.97438621520996,-0.09092725813388824
1763701333861334500,8.34933447265625,10.438389778137207,-23.70928382873535,-2.832204818725586
1763701333870921500,8.35892138671875,0.7758727669715881,-20.651853561401367,-3.3996028900146484
1763701333880507400,8.36850732421875,-6.719943523406982,-15.741782188415527,-4.400400638580322
1763701333890092800,8.3780927734375,-7.0097737312316895,-11.990135192871094,-5.892026424407959
1763701333899679000,8.387678955078124,-4.438386917114258,-9.119645118713379,-6.98614501953125
1763701333909266000,8.397265869140625,-1.3668999671936035,-6.244369983673096,-7.349853992462158
1763701333918852000,8.40685205078125,-0.07866404205560684,-3.737588882446289,-7.2421770095825195
1763701333928437500,8.4164375,-0.3684946894645691,-2.0114665031433105,-6.849454879760742
1763701333938023400,8.4260234375,-0.380458801984787,-1.0755738019943237,-6.258128643035889
1763701333947610600,8.435610595703125,0.6203392744064331,-0.529711127281189,-5.235795021057129
1763701333957196500,8.445196533203125,1.604387640953064,-0.39062830805778503,-3.990929126739502
1763701333966782000,8.454781982421874,2.188535451889038,-0.9340981245040894,-2.4900310039520264
1763701333976368000,8.4643681640625,4.1036906242370605,-2.4161527156829834,-1.470090389251709
1763701333985955000,8.473955078125,7.532007694244385,-5.61236572265625,-1.537089467048645
1763701333995541200,8.483541259765625,8.504091262817383,-10.546365737915039,-1.7309080362319946
1763701334005126700,8.493126708984375,6.758826732635498,-14.247763633728027,-0.5482555031776428
1763701334014712600,8.502712646484374,4.754837512969971,-15.272489547729492,1.5945172309875488
1763701334024299500,8.512299560546875,4.041477680206299,-13.83829116821289,2.8537402153015137
1763701334033885700,8.5218857421875,4.275974273681641,-10.958230018615723,3.2584261894226074
1763701334043471000,8.53147119140625,4.2831525802612305,-8.037490844726562,2.949453115463257
1763701334053057300,8.541057373046876,3.964907169342041,-5.382355213165283,2.5399811267852783
1763701334062644200,8.550644287109375,4.46769905090332,-3.397808074951172,2.0709879398345947
1763701334072230400,8.56023046875,4.819443702697754,-2.45204496383667,1.5777673721313477
1763701334081815600,8.569815673828124,4.1419758796691895,-2.696112871170044,1.0031908750534058
1763701334091401700,8.579401611328125,3.3640096187591553,-3.3403804302215576,0.2799602448940277
1763701334100988700,8.58898876953125,3.6343984603881836,-4.168596267700195,-0.5602195858955383
1763701334110574800,8.598574951171875,4.594518661499023,-5.3919267654418945,-1.1778669357299805
1763701334120160300,8.60816015625,4.2209391593933105,-6.8309102058410645,-1.572981834411621
1763701334129746400,8.617746337890624,2.7702903747558594,-8.023134231567383,-1.628016710281372
1763701334139333400,8.62733349609375,2.149951219558716,-8.985647201538086,-1.072582721710205
1763701334148919300,8.636919189453126,1.9250258207321167,-10.40040397644043,-0.7731808423995972
1763701334158504700,8.646504638671875,1.4581263065338135,-12.10499095916748,-1.2352946996688843
1763701334168091000,8.6560908203125,-0.275174617767334,-13.400404930114746,-1.2424731254577637
1763701334177677800,8.665677734375,-0.9478568434715271,-13.541581153869629,-0.9457631707191467
1763701334187264000,8.675263916015625,1.438983678817749,-12.722638130187988,-0.6391827464103699
1763701334196849400,8.684849365234374,4.139583110809326,-12.131311416625977,-1.4940186738967896
1763701334206435600,8.694435546875,4.934299468994141,-11.587841987609863,-2.6503500938415527
1763701334216022500,8.7040224609375,4.06540584564209,-10.15155029296875,-2.7340989112854004
1763701334225608700,8.713608642578125,3.9433717727661133,-8.10688304901123,-2.2408783435821533
1763701334235193900,8.72319384765625,4.2209391593933105,-6.167799472808838,-1.189831018447876
1763701334244780000,8.732780029296874,4.527519702911377,-5.028217792510986,0.2679961323738098
1763701334254367000,8.742366943359375,5.31984281539917,-4.601995944976807,1.7955143451690674
1763701334263953200,8.751953125,5.578567028045654,-4.90109920501709,2.949453115463257
1763701334273538600,8.76153857421875,4.999204635620117,-5.468497276306152,3.4307093620300293
1763701334283124700,8.771124755859375,4.455734729766846,-6.115157604217529,3.0499515533447266
1763701334292711700,8.780711669921875,4.702195644378662,-6.656234264373779,2.5351955890655518
1763701334302297600,8.790297607421875,5.207380294799805,-7.039085865020752,2.2408783435821533
1763701334311883000,8.799883056640626,5.315057277679443,-7.297810077667236,2.0374884605407715
1763701334321469200,8.80946923828125,5.020740032196045,-7.271489143371582,1.7380865812301636
1763701334331056000,8.81905615234375,4.824229717254639,-6.993622303009033,0.9266205430030823
1763701334340642300,8.828642333984375,5.135595798492432,-6.507580280303955,-0.15314064919948578
1763701334350227700,8.838227783203125,5.7221360206604,-6.01675271987915,-1.1252248287200928
1763701334359813600,8.847813720703124,6.2297139167785645,-5.8683977127075195,-2.0039889812469482
1763701334369400800,8.85740087890625,6.222535133361816,-6.627221584320068,-2.7891337871551514
1763701334378986800,8.86698681640625,5.540281772613525,-8.22413158416748,-3.294318675994873
1763701334388572200,8.876572265625,5.1188459396362305,-10.007980346679688,-3.3278181552886963
1763701334398158300,8.886158447265625,5.3246283531188965,-11.98056411743164,-3.088535785675049
1763701334407745300,8.895745361328125,5.863312721252441,-13.87657642364502,-2.417947292327881
1763701334417331500,8.90533154296875,6.1363935470581055,-15.432808876037598,-1.0390832424163818
1763701334426916600,8.91491650390625,6.4666032791137695,-15.851851463317871,1.0462616682052612
1763701334436502800,8.924502685546875,6.9358954429626465,-14.803196907043457,3.2344980239868164
1763701334446089700,8.93408984375,8.242975234985352,-12.181560516357422,4.589433670043945
1763701334455676000,8.943676025390625,9.358628273010254,-9.636794090270996,5.697908878326416
1763701334465261300,8.95326123046875,7.675576686859131,-8.738887786865234,6.672386169433594
1763701334474847500,8.962847412109374,4.927121162414551,-8.557032585144043,7.110571384429932
1763701334484434400,8.972434326171875,2.705385208129883,-8.863314628601074,6.353841304779053
1763701334494020600,8.9820205078125,-0.2584248483181,-9.378069877624512,5.037190914154053
1763701334503605800,8.991605712890625,-4.977071285247803,-9.777970314025879,4.426722049713135
1763701334513192000,9.00119189453125,-9.126225471496582,-9.533903121948242,3.7660038471221924
1763701334522779000,9.01077880859375,-10.802098274230957,-9.062217712402344,3.1265218257904053
1763701334532365000,9.020364990234375,-10.330413818359375,-8.65035343170166,2.003689765930176
1763701334541950500,9.029950439453126,-6.585945129394531,-9.394820213317871,1.2448660135269165
1763701334551536600,9.03953662109375,1.3025928735733032,-14.819947242736816,0.854536771774292
1763701334561123600,9.04912353515625,8.30997371673584,-24.872793197631836,-2.23848557472229
1763701334570709500,9.05870947265625,12.933206558227539,-30.860532760620117,-4.905585289001465
1763701334580295000,9.068294921875,13.502997398376465,-30.66162872314453,-7.010073184967041
1763701334589881000,9.077881103515624,3.7037904262542725,-22.572093963623047,-8.065607070922852
1763701334599468000,9.087468017578125,-5.733801364898682,-14.83669662475586,-7.677969455718994
1763701334609054200,9.09705419921875,-7.787740230560303,-10.848160743713379,-6.976573467254639
1763701334618639600,9.1066396484375,-6.463911056518555,-7.1371917724609375,-5.688337802886963
1763701334628225500,9.1162255859375,-4.376173496246338,-3.672982692718506,-4.000500202178955
1763701334637812700,9.125812744140624,-1.965404748916626,-0.8383852243423462,-2.3294129371643066
1763701334647398700,9.135398681640625,-0.5359922647476196,0.6194419860839844,-0.7564310431480408
1763701334656984000,9.144984130859376,-0.49292147159576416,0.7680960893630981,0.8018946647644043
1763701334666570200,9.1545703125,-0.5335994362831116,0.004187439568340778,2.0925233364105225
1763701334676157200,9.1641572265625,0.08644071966409683,-1.4009976387023926,3.2895328998565674
1763701334685743400,9.173743408203125,0.768694281578064,-4.159024715423584,4.29033088684082
1763701334695328500,9.18332861328125,1.261914849281311,-8.233702659606934,4.891228675842285
1763701334704914700,9.192914794921874,1.7096717357635498,-12.39721393585205,4.481756687164307
1763701334714501600,9.202501708984375,1.5514464378356934,-15.56680679321289,3.2584261894226074
1763701334724087800,9.212087890625,1.4222339391708374,-17.213966369628906,1.7356936931610107
1763701334743259400,9.23125927734375,2.7535407543182373,-16.311573028564453,-2.1332013607025146
1763701334752846300,9.240846435546874,3.533900022506714,-13.610973358154297,-2.691028118133545
1763701334772017700,9.260017578125,4.204189300537109,-10.070194244384766,-1.8864415884017944
1763701334781603800,9.269603759765625,4.376472473144531,-8.992825508117676,-1.4724832773208618
1763701334791190800,9.279190673828126,4.094119548797607,-8.674281120300293,-1.5131611824035645
1763701334800777000,9.28877685546875,3.184248685836792,-9.09093189239502,-1.8409779071807861
1763701334810362400,9.2983623046875,2.36081862449646,-9.598508834838867,-2.449054002761841
1763701334819948500,9.307948486328126,1.9441684484481812,-9.385248184204102,-3.1962127685546875
1763701334829535500,9.317535400390625,1.6857435703277588,-8.602496147155762,-3.7971103191375732
1763701334839121400,9.327121337890626,1.3408780097961426,-8.008777618408203,-4.287938117980957
1763701334848706800,9.336706787109375,1.1063814163208008,-8.248059272766113,-4.797908306121826
1763701334858293000,9.34629296875,0.9505487680435181,-9.440582275390625,-5.578267574310303
1763701334867880000,9.3558798828125,1.0896315574645996,-11.231310844421387,-6.744170665740967
1763701334877466000,9.365466064453125,1.6761722564697266,-12.904791831970215,-8.190332412719727
1763701334887051500,9.375051513671876,2.059023857116699,-13.34985637664795,-9.523733139038086
1763701334896637400,9.384637451171875,2.202892303466797,-13.060324668884277,-9.92841911315918
1763701334906224600,9.394224609375,1.8987047672271729,-12.531211853027344,-8.700303077697754
1763701334915810600,9.403810546875,2.7774689197540283,-12.392428398132324,-6.363412857055664
1763701334925396000,9.41339599609375,3.519542932510376,-13.246965408325195,-3.6798620223999023
1763701334934982100,9.422982177734376,3.193819999694824,-15.03290843963623,-0.12681959569454193
1763701334944569000,9.432569091796875,3.0622148513793945,-17.082361221313477,2.99013090133667
1763701334954155300,9.4421552734375,2.691028118133545,-18.626628875732422,5.104189872741699
1763701334963740400,9.451740478515624,1.4820544719696045,-18.90419578552246,6.823133945465088
1763701334973326600,9.46132666015625,-0.5168496966362,-17.81964874267578,7.572386264801025
1763701334982913500,9.47091357421875,-3.9499518871307373,-15.741782188415527,5.743372440338135
1763701334992499700,9.480499755859375,-6.62423038482666,-13.524831771850586,2.652743101119995
1763701335002085000,9.490085205078126,-6.337091445922852,-11.566306114196777,-0.20338992774486542
1763701335011671300,9.49967138671875,-2.3605196475982666,-10.536794662475586,-3.5407793521881104
1763701335021258200,9.50925830078125,0.3281157910823822,-9.986145973205566,-5.49930477142334
1763701335030844200,9.51884423828125,1.9752750396728516,-10.321440696716309,-7.172784805297852
1763701335040429600,9.5284296875,1.599302887916565,-11.039586067199707,-8.410472869873047
1763701335050015700,9.538015625,0.859621524810791,-11.35813045501709,-8.482256889343262
1763701335059602700,9.547602783203125,-0.10767702013254166,-11.077871322631836,-7.563114166259766
1763701335069188900,9.55718896484375,-0.17706887423992157,-10.943873405456543,-6.751348972320557
1763701335078774300,9.566774169921874,-0.5551348328590393,-10.771590232849121,-5.195116996765137
1763701335088360200,9.576360107421875,-1.4889339208602905,-10.41476058959961,-3.667897939682007
1763701335097947400,9.585947509765624,-2.365305185317993,-9.871291160583496,-2.518744945526123
1763701335107533300,9.595533203125,-2.927917718887329,-8.98086166381836,-1.6998014450073242
1763701335126705000,9.614704833984375,-3.569493293762207,-6.285048007965088,-0.29700911045074463
1763701335136291800,9.624291748046875,-3.6747772693634033,-4.973182678222656,0.3086741268634796
1763701335145878000,9.6338779296875,-3.361018419265747,-3.962813377380371,0.9553344249725342
1763701335155463200,9.643463134765625,-2.9374887943267822,-3.5772697925567627,1.6304094791412354
1763701335165049300,9.65304931640625,-2.4323041439056396,-3.7399818897247314,2.4227328300476074
1763701335174636300,9.66263623046875,-1.7258232831954956,-4.357629299163818,3.3589248657226562
1763701335184222500,9.672222412109376,-0.9813563823699951,-5.269892692565918,4.218247413635254
1763701335193808000,9.681807861328124,-0.03559323772788048,-6.462116718292236,4.829015254974365
1763701335203394000,9.69139404296875,0.9625129103660583,-7.8819580078125,5.1544389724731445
1763701335212981000,9.70098095703125,1.7407784461975098,-9.466903686523438,5.06590461730957
1763701335222567000,9.71056689453125,2.4517459869384766,-10.979765892028809,4.563112735748291
1763701335232152300,9.72015234375,3.0837502479553223,-12.088240623474121,4.0435709953308105
1763701335241738500,9.729738525390625,3.2608189582824707,-12.11216926574707,3.66520619392395
1763701335251325400,9.739325439453125,3.1172497272491455,-10.778768539428711,3.2679975032806396
1763701335260911600,9.74891162109375,3.13639235496521,-8.635995864868164,3.037987470626831
1763701335270497000,9.7584970703125,3.2751760482788086,-6.711269378662109,3.169891834259033
1763701335280083000,9.7680830078125,3.2033913135528564,-5.119144916534424,3.5407793521881104
1763701335289670100,9.777670166015625,3.191427230834961,-4.041776657104492,3.998107433319092
1763701335299256000,9.787256103515626,3.502793312072754,-3.5676984786987305,4.179962158203125
1763701335308841500,9.796841552734374,4.711766719818115,-3.7256247997283936,4.220640182495117
1763701335318427600,9.806427734375,6.842575550079346,-4.829314231872559,3.749253988265991
1763701335328014600,9.8160146484375,9.212666511535645,-7.05344295501709,2.7819554805755615
1763701335337600800,9.825600830078125,11.683255195617676,-10.462616920471191,0.20817556977272034
1763701335347186000,9.83518603515625,13.916955947875977,-14.195120811462402,-3.677469253540039
1763701335356772000,9.844772216796875,14.458032608032227,-16.749757766723633,-7.354639530181885
1763701335366359000,9.854359130859375,12.449557304382324,-17.096717834472656,-8.669196128845215
1763701335375945200,9.8639453125,8.592626571655273,-16.002599716186523,-6.8279194831848145
1763701335385530600,9.873530517578125,4.146761417388916,-15.957136154174805,-3.311068296432495
1763701335395116800,9.88311669921875,-0.06669992953538895,-17.343477249145508,0.007178467698395252
1763701335404703700,9.892703857421875,-3.298804998397827,-18.023338317871094,3.263211965560913
1763701335414289700,9.90228955078125,-4.979464054107666,-16.302001953125,6.839883327484131
1763701335423875000,9.911875,-3.0332016944885254,-11.755638122558594,7.151249408721924
1763701335433461200,9.921461181640625,-1.5296118259429932,-7.175477027893066,5.978168487548828
1763701335443048200,9.931048095703124,-1.7715860605239868,-4.340879440307617,5.020441055297852
1763701335452634400,9.94063427734375,-3.3490543365478516,-2.880659341812134,3.969393730163574
1763701335462219800,9.9502197265625,-4.955535888671875,-2.32761812210083,2.458625316619873
1763701335471805700,9.9598056640625,-5.288437366485596,-2.461616277694702,0.7492526173591614
1763701335481393000,9.969392822265625,-4.4359941482543945,-3.5270206928253174,-0.8979067206382751
1763701335490978800,9.978978759765624,-2.3988046646118164,-5.389533996582031,-2.557030200958252
1763701335500564200,9.988564208984375,-0.1579262912273407,-8.109275817871094,-4.359723091125488
1763701335510150400,9.998150390625,1.2355937957763672,-10.83141040802002,-5.877669811248779
1763701335519737300,10.0077373046875,1.7240287065505981,-13.146466255187988,-7.292426109313965
1763701335529323500,10.017323486328126,1.9728822708129883,-14.575879096984863,-8.039285659790039
1763701335538908700,10.02690869140625,2.1475582122802734,-15.13131332397461,-7.922037601470947
1763701335548494800,10.036494873046875,2.370389938354492,-14.38893985748291,-5.951847076416016
1763701335558081800,10.046081787109374,2.2698912620544434,-12.64606761932373,-2.420340061187744
1763701335567668000,10.05566796875,2.461317300796509,-10.757233619689941,1.1228320598602295
1763701335577253400,10.06525341796875,2.8971099853515625,-9.157930374145508,4.053142547607422
1763701335586839300,10.07483935546875,2.3632113933563232,-8.11406135559082,5.84865665435791
1763701335596426500,10.084426513671875,1.6929219961166382,-7.52512788772583,6.08823823928833
1763701335606012400,10.094012451171874,0.6610172390937805,-7.180262565612793,5.166403293609619
1763701335615597800,10.103597900390625,0.00029910283046774566,-7.247560501098633,3.945465326309204
1763701335625184000,10.11318408203125,0.0026919255033135414,-7.596912860870361,2.714956283569336
1763701335634771000,10.12277099609375,0.5318048596382141,-8.0350980758667,1.4844473600387573
1763701335644357000,10.132357177734375,1.4437693357467651,-8.434998512268066,0.3281157910823822
1763701335653942300,10.1419423828125,2.2459630966186523,-8.573782920837402,-0.4980062246322632
1763701335663528400,10.151528564453125,2.758326292037964,-8.513961791992188,-1.0606186389923096
1763701335673115400,10.161115478515624,2.4373888969421387,-8.324929237365723,-1.438983678817749
1763701335682701600,10.17070166015625,1.4222339391708374,-8.097311973571777,-1.6878372430801392
1763701335692287000,10.180286865234375,0.6801598072052002,-7.932207107543945,-1.7021942138671875
1763701335701873200,10.189873046875,0.3113660514354706,-7.917850017547607,-1.628016710281372
1763701335711460000,10.199460205078125,0.04336991161108017,-8.097311973571777,-1.568196177482605
1763701335721046000,10.2090458984375,-0.0933200865983963,-8.468498229980469,-1.5801602602005005
1763701335730631400,10.21863134765625,-0.021236300468444824,-8.80349349975586,-1.470090389251709
1763701335740217600,10.228217529296876,0.1582254022359848,-9.062217712402344,-1.1539387702941895
1763701335749804500,10.237804443359375,0.2994019389152527,-9.303893089294434,-0.7875377535820007
1763701335759390700,10.247390625,0.5365904569625854,-9.50040340423584,-0.5410770177841187
1763701335768976100,10.25697607421875,0.97926265001297,-9.74925708770752,-0.5267201066017151
1763701335778562000,10.26656201171875,1.3911272287368774,-9.83539867401123,-0.2706880569458008
1763701335788149000,10.27614892578125,1.7575281858444214,-9.859326362609863,0.12203395366668701
1763701335797735200,10.285735107421875,1.9369899034500122,-9.885647773742676,0.5147559642791748
1763701335807320600,10.295320556640625,2.001596212387085,-10.039087295532227,0.8593224287033081
1763701335816906800,10.30490673828125,1.8077775239944458,-10.079765319824219,1.201795220375061
1763701335826493700,10.31449365234375,1.5418751239776611,-10.137192726135254,1.3070793151855469
1763701335836079600,10.32407958984375,1.5179468393325806,-10.101301193237305,1.3286148309707642
1763701335845665000,10.3336650390625,1.5658032894134521,-9.993324279785156,1.1611171960830688
1763701335855251200,10.343251220703126,1.6498512029647827,-9.787542343139648,0.7827520966529846
1763701335864838100,10.352838134765625,1.5777673721313477,-9.452547073364258,0.062213387340307236
1763701335874424300,10.36242431640625,1.2643076181411743,-9.203393936157227,-1.0271191596984863
1763701335884009700,10.372009765625,0.8500502705574036,-9.043074607849121,-2.2648067474365234
1763701335893595600,10.381595703125,0.5629115104675293,-9.224929809570312,-3.442673683166504
1763701335903182800,10.391182861328126,0.20368902385234833,-10.185050010681152,-4.738088130950928
1763701335912768800,10.400768798828125,0.11036894470453262,-11.846566200256348,-5.911169052124023
1763701335922354200,10.410354248046875,0.01944168470799923,-13.563117027282715,-6.859025955200195
1763701335931940400,10.4199404296875,0.4334000051021576,-14.903696060180664,-7.299604415893555
1763701335941527300,10.42952734375,0.8452646136283875,-15.607484817504883,-6.995716094970703
1763701335951113500,10.439113525390624,0.9098708033561707,-15.614962577819824,-6.047560214996338
1763701335960698600,10.44869873046875,1.0295119285583496,-14.879767417907715,-4.812265396118164
1763701335970284800,10.458284912109375,1.3217353820800781,-13.656436920166016,-3.277568817138672
1763701335979871700,10.467871826171875,1.4174482822418213,-12.500105857849121,-1.6710875034332275
1763701335989458000,10.4774580078125,1.5107684135437012,-11.602198600769043,-0.24915266036987305
1763701335999043300,10.487043212890624,1.7718851566314697,-10.970194816589355,0.7636095285415649
1763701336008629500,10.49662939453125,2.097309112548828,-10.481760025024414,1.2783654928207397
1763701336018216400,10.506216552734376,2.39192533493042,-10.211370468139648,1.4434702396392822
1763701336027802400,10.51580224609375,2.6336004734039307,-10.261619567871094,1.4844473600387573
1763701336037387800,10.5253876953125,2.9114668369293213,-10.577771186828613,1.537089467048645
1763701336046974000,10.534973876953124,3.1722846031188965,-11.02762222290039,1.89840567111969
1763701336056561000,10.544560791015625,2.7415764331817627,-11.654840469360352,2.513660192489624
1763701336066147000,10.55414697265625,2.142772674560547,-12.457035064697266,3.2656047344207764
1763701336075732200,10.563732177734375,1.848455548286438,-13.275679588317871,3.8688950538635254
1763701336085318400,10.573318359375,1.5418751239776611,-13.931910514831543,4.096213340759277
1763701336094905300,10.5829052734375,0.7423732280731201,-14.04676628112793,3.722932815551758
1763701336104491500,10.592491455078125,-0.7707880139350891,-13.462618827819824,2.7173492908477783
1763701336114077000,10.602076904296876,-2.2692930698394775,-12.215060234069824,1.5203397274017334
1763701336123663000,10.6116630859375,-2.903989315032959,-10.915159225463867,0.5003990530967712
1763701336133250000,10.62125,-1.7234305143356323,-10.01994514465332,-0.38315072655677795
1763701336142836000,10.6308359375,0.18454644083976746,-9.847362518310547,-1.0390832424163818
1763701336152421400,10.64042138671875,1.0968101024627686,-9.868897438049316,-1.4318052530288696
1763701336162007600,10.650007568359374,1.5897315740585327,-9.98853874206543,-1.800299882888794
1763701336171594500,10.659594482421875,1.4365909099578857,-10.285548210144043,-2.379662036895752
1763701336181180700,10.6691806640625,1.202094316482544,-10.359725952148438,-2.42512583732605
1763701336190765800,10.678765869140625,1.415055513381958,-10.429117202758789,-2.604886531829834
1763701336200352000,10.68835205078125,1.6019947528839111,-10.25204849243164,-2.643171787261963
1763701336209939000,10.69793896484375,1.3863415718078613,-9.825826644897461,-2.3605196475982666
1763701336219525000,10.707525146484375,0.9888339638710022,-9.179466247558594,-1.7835501432418823
1763701336229110500,10.717110595703126,0.6849454641342163,-8.21695327758789,-0.8715856671333313
1763701336238696700,10.72669677734375,0.7495517134666443,-7.055835723876953,0.04307080805301666
1763701336248283600,10.73628369140625,0.9122636318206787,-5.942574977874756,0.7037889361381531
1763701336257869600,10.74586962890625,0.9002995491027832,-4.85324239730835,1.1826525926589966
1763701336267455000,10.755455078125,0.7615157961845398,-3.7663028240203857,1.5634105205535889
1763701336277041200,10.765041259765624,0.6634100675582886,-2.811267614364624,1.8290138244628906
1763701336286628000,10.774628173828125,0.5700899958610535,-1.8870397806167603,2.0518453121185303
1763701336296214300,10.78421435546875,0.6753742098808289,-1.1904292106628418,2.111665964126587
1763701336305799700,10.793799560546875,0.8691928386688232,-0.6972087025642395,2.032702922821045
1763701336315385600,10.803385498046875,1.084846019744873,-0.20877377688884735,1.8864415884017944
1763701336324972500,10.81297265625,1.2882359027862549,0.5189434289932251,1.9247267246246338
1763701336334558700,10.822558837890625,1.5107684135437012,1.459920883178711,2.0446670055389404
1763701336344144100,10.83214404296875,1.8699909448623657,2.4750759601593018,2.149951219558716
1763701336353730300,10.841730224609375,2.367997169494629,3.468695640563965,2.0925233364105225
1763701336363317200,10.851317138671876,3.0382864475250244,4.332803726196289,1.8529419898986816
1763701336372903200,10.860903076171875,3.5769708156585693,5.000699996948242,1.5203397274017334
1763701336382488600,10.870488525390625,4.094119548797607,5.376672267913818,1.1730812788009644
1763701336392074800,10.88007470703125,4.54426908493042,5.465207099914551,0.7492526173591614
1763701336401661700,10.88966162109375,4.59930419921875,4.943272590637207,0.11006984114646912
1763701336411247900,10.899247802734376,4.314259052276611,3.753441333770752,-0.8309076428413391
1763701336420833300,10.908833251953125,4.120440483093262,1.9316060543060303,-1.8266209363937378
1763701336430419200,10.918419189453125,3.739682674407959,-1.5756736993789673,-2.9087750911712646
1763701336440006100,10.928006103515624,3.313760280609131,-6.5578293800354,-3.990929126739502
1763701336449592300,10.93759228515625,3.5769708156585693,-12.073884010314941,-5.398806095123291
1763701336459177700,10.947177734375,2.7029922008514404,-18.971195220947266,-7.587042331695557
1763701336468764000,10.956763916015625,0.6011967062950134,-24.188146591186523,-7.979465484619141
1763701336478350800,10.966350830078126,-0.7923234105110168,-25.665117263793945,-6.526423931121826
1763701336487936800,10.975936767578125,-0.14835500717163086,-24.717260360717773,-3.7899320125579834
1763701336497522200,10.985522216796875,2.727219581604004,-19.488344192504883,1.0079765319824219
1763701336507108400,10.9951083984375,5.080560684204102,-14.173585891723633,4.565505504608154
1763701336516695300,11.0046953125,6.351747512817383,-10.206584930419922,6.526423931121826
1763701336526281500,11.014281494140626,6.902396202087402,-7.103692054748535,7.833503246307373
1763701336535867000,11.023866943359375,7.5463643074035645,-4.925027370452881,10.057631492614746
1763701336545452800,11.033452880859375,7.381259441375732,-5.839683532714844,11.132607460021973
1763701336555040000,11.0430400390625,5.0255255699157715,-9.136395454406738,9.911669731140137
1763701336564626000,11.0526259765625,0.5557330846786499,-12.703495025634766,7.83111047744751
1763701336574211300,11.06221142578125,-3.3562328815460205,-16.354642868041992,6.372983932495117
1763701336583797500,11.071797607421875,-4.440779685974121,-19.191633224487305,4.845765113830566
1763701336593384400,11.081384521484376,-1.8218353986740112,-23.496322631835938,4.73300313949585
1763701336602970400,11.090970458984375,9.65085220336914,-30.091838836669922,3.2512478828430176
1763701336612555800,11.1005556640625,22.033111572265625,-31.238597869873047,-3.6870405673980713
1763701336622142000,11.110141845703126,11.9132661819458,-22.600807189941406,-6.069095611572266
1763701336631729000,11.11972900390625,-4.661218643188477,-12.780065536499023,-4.096213340759277
1763701336641315000,11.129315185546876,-6.6505513191223145,-8.631210327148438,-3.215355396270752
1763701336650900500,11.138900390625,-5.690431118011475,-7.096513748168945,-2.3605196475982666
1763701336660486400,11.148486328125,-5.027320384979248,-5.298606872558594,-2.1858434677124023
1763701336670073300,11.1580732421875,-3.7130625247955322,-3.627519130706787,-3.2895328998565674
1763701336679659500,11.167659423828125,-2.6021945476531982,-2.4472594261169434,-4.1057844161987305
1763701336689245000,11.177244873046876,-0.8449655175209045,-1.561316728591919,-4.204189300537109
1763701336698831000,11.1868310546875,0.2228316068649292,-1.2382856607437134,-3.349353551864624
1763701336708418000,11.19641796875,1.1853444576263428,-1.5230315923690796,-1.8170497417449951
1763701336718004000,11.20600390625,1.714457392692566,-2.270190477371216,-0.5434698462486267
1763701336727589400,11.21558935546875,3.040679454803467,-3.720839262008667,0.01196411345154047
1763701336737175600,11.225175537109376,6.289534091949463,-7.257132053375244,-0.6391827464103699
1763701336746762500,11.234762451171875,7.0770721435546875,-12.035598754882812,-1.9776679277420044
1763701336756348700,11.2443486328125,4.371686935424805,-15.392130851745605,-2.7580273151397705
1763701336765933800,11.253933837890624,3.0933215618133545,-16.632211685180664,-4.244867324829102
1763701336775520000,11.26352001953125,2.667099952697754,-15.490236282348633,-5.420341491699219
1763701336785107000,11.27310693359375,1.7359927892684937,-13.127324104309082,-5.56151819229126
1763701336794693000,11.282693115234375,0.8045865893363953,-10.417153358459473,-5.147260665893555
1763701336804278500,11.292278564453126,0.9529415965080261,-7.755138397216797,-4.295116424560547
1763701336813864700,11.30186474609375,2.557030200958252,-5.653043270111084,-3.5647075176239014
1763701336823451600,11.31145166015625,4.194618225097656,-4.242773532867432,-2.420340061187744
1763701336833037600,11.32103759765625,5.080560684204102,-3.744767427444458,-1.4413765668869019
1763701336842623000,11.330623046875,5.779563903808594,-4.010669708251953,-0.7037889361381531
1763701336852209200,11.340209228515626,6.222535133361816,-4.338486671447754,0.02632104977965355
1763701336861796000,11.349796142578125,6.258427619934082,-4.587639331817627,0.6296114325523376
1763701336871382300,11.35938232421875,5.875277042388916,-4.72881555557251,1.1994023323059082
1763701336880967400,11.368967529296874,6.222535133361816,-5.021039009094238,1.6447664499282837
1763701336890553600,11.3785537109375,6.320641040802002,-5.676971912384033,2.087737798690796
1763701336900140500,11.388140625,5.851348876953125,-6.6729841232299805,2.2600209712982178
1763701336909726700,11.397726806640625,5.391627788543701,-7.582555770874023,2.0997018814086914
1763701336919312100,11.40731201171875,5.1906304359436035,-7.989634990692139,1.7428722381591797
1763701336928898000,11.41689794921875,5.362913608551025,-8.12123966217041,1.6088740825653076
1763701336938485200,11.4264853515625,5.705386638641357,-8.614460945129395,1.347757339477539
1763701336948071200,11.4360712890625,5.525625705718994,-9.50040340423584,0.893121063709259
1763701336957656600,11.445656494140625,4.450949192047119,-10.395618438720703,0.5195416212081909
1763701336967242800,11.45524267578125,2.6383860111236572,-11.281560897827148,0.31345975399017334
1763701336976829700,11.46482958984375,0.26111677289009094,-12.066705703735352,-0.16749759018421173
1763701336986415900,11.474415771484376,-1.551147222518921,-12.524033546447754,-1.0319048166275024
1763701336996001000,11.4840009765625,-1.77397882938385,-12.256037712097168,-2.4227328300476074
1763701337005587200,11.493587158203125,-1.0459625720977783,-11.21216869354248,-4.273581027984619
1763701337015174100,11.503174072265624,0.7830511927604675,-10.101301193237305,-5.8944196701049805
1763701337024760300,11.51276025390625,3.9194436073303223,-9.370891571044922,-6.028417587280273
1763701337034345700,11.522345703125,6.251249313354492,-9.153144836425781,-4.833800792694092
1763701337043931600,11.531931640625,7.249654293060303,-9.124430656433105,-2.8034908771514893
1763701337053518800,11.541518798828125,7.505686283111572,-8.559425354003906,-0.3735794425010681
1763701337063104800,11.551104736328124,6.773183822631836,-7.893921852111816,1.3692927360534668
1763701337072690200,11.560690185546875,5.4658050537109375,-7.254739284515381,2.0303099155426025
1763701337082276400,11.5702763671875,4.458127498626709,-6.414260387420654,1.8553348779678345
1763701337091863300,11.57986328125,4.264009952545166,-5.873183250427246,1.5179468393325806
1763701337101449200,11.58944921875,4.482056140899658,-5.598008632659912,1.6040884256362915
1763701337111034600,11.59903466796875,4.587339878082275,-5.574080467224121,2.104487419128418
1763701337120620800,11.608620849609375,4.113262176513672,-5.789434432983398,2.348555326461792
1763701337130207700,11.618207763671874,3.543471336364746,-5.96171760559082,2.190629243850708
1763701337139794000,11.6277939453125,3.222533941268921,-5.858826160430908,1.6663018465042114
1763701337149379300,11.63737939453125,3.1411778926849365,-5.466104030609131,0.8401798605918884
1763701337158965200,11.64696533203125,3.392723321914673,-4.944169998168945,-0.12921242415905
1763701337168552200,11.65655224609375,4.041477680206299,-4.381557464599609,-0.8715856671333313
1763701337178138400,11.666138427734374,4.802694320678711,-4.005884170532227,-1.3262219429016113
1763701337187723800,11.675723876953125,5.5737810134887695,-4.099204063415527,-1.7644076347351074
1763701337197310000,11.68531005859375,5.985346794128418,-4.8436713218688965,-2.4083759784698486
1763701337206897000,11.69489697265625,6.27996301651001,-5.815755367279053,-3.0622148513793945
1763701337216482800,11.70448291015625,6.531209468841553,-6.8620171546936035,-3.468994617462158
1763701337226068200,11.714068115234374,6.6149582862854,-7.917850017547607,-3.593421459197998
1763701337235654400,11.723654296875,6.387639999389648,-8.885149002075195,-3.404388427734375
1763701337245241300,11.733241455078126,5.741278648376465,-9.766006469726562,-2.8154549598693848
1763701337254827500,11.74282763671875,4.876871585845947,-10.29751205444336,-1.9226330518722534
1763701337264412700,11.75241259765625,3.9840497970581055,-10.558329582214355,-1.0414760112762451
1763701337273998800,11.761998779296874,3.0693931579589844,-10.412367820739746,-0.04307080805301666
1763701337283585800,11.771585693359375,2.121237277984619,-9.52193832397461,1.3932210206985474
1763701337293172000,11.781171875,1.994417667388916,-8.023134231567383,2.973381280899048
1763701337302757400,11.79075732421875,2.456531524658203,-6.598507404327393,3.8377883434295654
1763701337312343600,11.800343505859376,2.877967357635498,-5.526223659515381,3.873680830001831
1763701337321930500,11.809930419921875,2.877967357635498,-4.800600528717041,3.3278181552886963
1763701337331516400,11.819516357421875,2.9377880096435547,-4.453640937805176,2.6862425804138184
1763701337341101800,11.829101806640624,2.6862425804138184,-4.551746845245361,2.5423741340637207
1763701337350688000,11.83868798828125,3.0550363063812256,-5.284249782562256,2.99013090133667
1763701337360275000,11.84827490234375,4.2281174659729,-7.412665367126465,3.442673683166504
1763701337369860900,11.85786083984375,3.620041608810425,-11.46820068359375,2.7269206047058105
1763701337379446300,11.8674462890625,1.1805589199066162,-14.56630802154541,1.0031908750534058
1763701337389032400,11.877032470703124,-1.6253247261047363,-15.681961059570312,0.4046861231327057
1763701337398619400,11.886619384765625,-0.5455635786056519,-16.364215850830078,1.0630114078521729
1763701337408205600,11.89620556640625,7.228118896484375,-21.037397384643555,1.170688509941101
1763701337417791000,11.905791015625,14.944074630737305,-32.237003326416016,-1.2161520719528198
1763701337427377000,11.915376953125,20.76431655883789,-36.68286895751953,-3.3996028900146484
1763701337436963800,11.9249638671875,12.904492378234863,-29.14398193359375,-4.919942378997803
1763701337446550000,11.934550048828125,-3.1695926189422607,-17.71915054321289,-4.359723091125488
1763701337456135400,11.944135498046874,-8.869894027709961,-10.776375770568848,-3.3278181552886963
1763701337465721600,11.9537216796875,-5.6808600425720215,-8.011170387268066,-4.211368083953857
1763701337475308500,11.96330859375,-4.756931304931641,-5.8612189292907715,-4.393222332000732
1763701337484894500,11.97289453125,-5.793622016906738,-3.538984775543213,-4.625326156616211
1763701337494480000,11.98247998046875,-5.341079235076904,-1.4584254026412964,-5.554339408874512
1763701337504066000,11.992066162109374,-4.156033992767334,0.3562314808368683,-6.298806667327881
1763701337513653000,12.001653076171875,-2.7912275791168213,2.3482563495635986,-6.799205780029297
1763701337523239200,12.0112392578125,-1.1488540172576904,4.316053867340088,-5.678766250610352
1763701337532824300,12.02082421875,0.802193820476532,4.576871395111084,-3.4546377658843994
1763701337542410500,12.030410400390625,2.4972095489501953,1.9770697355270386,-0.32572299242019653
1763701337551997400,12.03999755859375,7.002894401550293,-1.144965648651123,2.1068804264068604
1763701337561583600,12.04958349609375,11.458330154418945,-7.596912860870361,3.037987470626831
1763701337571169000,12.0591689453125,10.99143123626709,-13.21107292175293,2.3605196475982666
1763701337580755200,12.068755126953125,7.658827304840088,-17.391334533691406,2.1068804264068604
1763701337590342100,12.078342041015626,3.770789384841919,-18.265012741088867,1.6806588172912598
1763701337599928000,12.087927978515625,1.970489501953125,-16.90289878845215,0.5099703073501587
1763701337609513500,12.097513427734375,2.765504837036133,-13.285250663757324,0.3158525824546814
1763701337619099600,12.107099609375,2.1308085918426514,-8.92821979522705,0.768395185470581
1763701337628686600,12.1166865234375,1.7120646238327026,-5.387141227722168,0.5434698462486267
1763701337638272800,12.126272705078126,2.5618157386779785,-2.9021947383880615,-0.03349951654672623
1763701337647858000,12.13585791015625,3.90987229347229,-1.506281852722168,-0.9050851464271545
1763701337657444000,12.145444091796875,4.098905086517334,-1.140179991722107,-1.800299882888794
1763701337667031000,12.155031005859374,4.168296813964844,-1.333998680114746,-2.7101707458496094
1763701337676617200,12.1646171875,4.7931227684021,-2.0186450481414795,-3.287140130996704
1763701337686202400,12.174202392578126,4.7141594886779785,-3.656233072280884,-3.507279872894287
1763701337695788500,12.18378857421875,5.557031631469727,-5.9784674644470215,-3.246462106704712
1763701337705375500,12.19337548828125,6.270391941070557,-8.485248565673828,-2.7891337871551514
1763701337714961700,12.202961669921875,6.921538829803467,-10.857731819152832,-2.1643080711364746
1763701337724547000,12.212547119140625,7.203891754150391,-13.52004623413086,-1.4413765668869019
1763701337734133200,12.22213330078125,4.644767761230469,-16.87418556213379,-1.067797064781189
1763701337743720200,12.23172021484375,0.5389832854270935,-19.1605281829834,-0.9768698215484619
1763701337753306000,12.24130615234375,-1.2113664150238037,-18.88983917236328,-1.2544373273849487
1763701337762891500,12.2508916015625,-1.3668999671936035,-15.815959930419922,-2.4227328300476074
1763701337772477700,12.260477783203125,0.44775694608688354,-12.883255958557129,-4.091427803039551
1763701337782064600,12.270064697265624,6.34217643737793,-11.714960098266602,-4.687539577484131
1763701337791650800,12.27965087890625,12.133405685424805,-12.698709487915039,-3.804288864135742
1763701337801236000,12.289236083984376,14.003396034240723,-13.685151100158691,-0.20338992774486542
1763701337810822100,12.298822265625,12.88056468963623,-13.105789184570312,4.651647090911865
1763701337820409000,12.3084091796875,10.421640396118164,-11.935100555419922,8.276473999023438
1763701337829995300,12.317995361328125,7.369295597076416,-10.307083129882812,8.391329765319824
1763701337839580700,12.32758056640625,5.896812438964844,-8.011170387268066,5.4179487228393555
1763701337849166600,12.33716650390625,5.602495193481445,-6.301797389984131,2.7819554805755615
1763701337858753500,12.34675341796875,5.607280731201172,-5.430212020874023,1.2592228651046753
1763701337868339700,12.356339599609376,4.862514495849609,-4.997110843658447,0.5075774788856506
1763701337877925000,12.365925048828124,3.6320056915283203,-4.661816596984863,0.15553347766399384
1763701337887511300,12.37551123046875,2.7173492908477783,-4.080061912536621,0.22971096634864807
1763701337897098200,12.38509814453125,2.432603359222412,-3.383451223373413,0.5458626747131348
1763701337906684200,12.39468408203125,2.305783748626709,-2.7777678966522217,0.7372884750366211
1763701337916269600,12.40426953125,2.2794625759124756,-2.263011932373047,0.5434698462486267
1763701337925855700,12.413855712890625,2.518744945526123,-1.7219350337982178,-0.040677983313798904
1763701337935442700,12.423442626953126,3.04307222366333,-1.077966570854187,-0.7205387353897095
1763701337945028900,12.43302880859375,3.557828187942505,-0.5703890919685364,-1.3959128856658936
1763701337954614000,12.442614013671875,3.845266103744507,-0.36670008301734924,-2.087737798690796
1763701337964200200,12.4522001953125,4.036691665649414,-0.5153541564941406,-2.597707986831665
1763701337973787100,12.461787109375,4.369294166564941,-0.9723833203315735,-2.6814568042755127
1763701337983373300,12.471373291015626,4.4150567054748535,-2.2510478496551514,-2.4777679443359375
1763701337992958700,12.480958740234374,4.2831525802612305,-4.460819721221924,-2.2648067474365234
1763701338002544600,12.490544677734375,4.491627216339111,-6.466902256011963,-2.1068804264068604
1763701338012131600,12.500131591796874,4.728516578674316,-7.779066562652588,-2.0685951709747314
1763701338021717800,12.5097177734375,4.611268520355225,-8.887541770935059,-2.159522533416748
1763701338031303200,12.51930322265625,3.972085475921631,-10.031908988952637,-2.310270309448242
