time,seconds_elapsed,z,y,x
1763693267928607500,0.156607421875,9.294022560119629,2.3793630599975586,-0.7085745930671692
1763693267966954000,0.1949541015625,8.709874153137207,2.71435809135437,-0.6320042610168457
1763693267976541200,0.204541259765625,8.889336585998535,2.8028926849365234,-0.8045865893363953
1763693267986128000,0.2141279296875,9.093025207519531,2.86989164352417,-0.9146564602851868
1763693267995713800,0.2237138671875,9.200701713562012,2.8914270401000977,-1.0582258701324463
1763693268005300500,0.233300537109375,9.303593635559082,2.8674988746643066,-1.1180464029312134
1763693268014887700,0.2428876953125,9.37298583984375,2.80767822265625,-0.9361918568611145
1763693268024474400,0.252474365234375,9.315557479858398,2.711965322494507,-0.8644071817398071
1763693268034060300,0.262060302734375,9.176774024963379,2.6760730743408203,-0.797109067440033
1763693268043647000,0.27164697265625,9.195916175842285,2.704786777496338,-0.8524430394172668
1763693268053234400,0.281234375,9.286844253540039,2.71435809135437,-0.9314061999320984
1763693268062820900,0.29082080078125,9.375378608703613,2.711965322494507,-0.9984052777290344
1763693268072406800,0.30040673828125,9.444769859313965,2.6952157020568848,-1.0295119285583496
1763693268081993500,0.309993408203125,9.490532875061035,2.6521449089050293,-0.9912267923355103
1763693268091580700,0.31958056640625,9.528818130493164,2.618645191192627,-0.9649057388305664
1763693268101167400,0.32916748046875,9.574281692504883,2.635395050048828,-0.890728235244751
1763693268110753300,0.338753173828125,9.485747337341309,2.7071797847747803,-0.8955138921737671
1763693268120340000,0.348340087890625,9.38016414642334,2.7622146606445312,-0.9290133714675903
1763693268129927200,0.35792724609375,9.282057762145996,2.77657151222229,-0.8715856671333313
1763693268139513900,0.367513916015625,9.315557479858398,2.759821891784668,-0.8715856671333313
1763693268149099800,0.377099853515625,9.502496719360352,2.6856443881988525,-0.8955138921737671
1763693268158686500,0.3866865234375,9.66520881652832,2.6521449089050293,-0.8428717851638794
1763693268168274000,0.39627392578125,9.622138023376465,2.664108991622925,-0.8691928386688232
1763693268177860400,0.4058603515625,9.758528709411621,2.8172495365142822,-0.9936196208000183
1763693268187446300,0.4154462890625,9.806385040283203,3.001796007156372,-0.9553344249725342
1763693268197033000,0.425032958984375,9.681958198547363,3.0855448246002197,-0.9026923179626465
1763693268206620400,0.434620361328125,9.67238712310791,3.0759735107421875,-0.9433703422546387
1763693268216206800,0.444206787109375,9.70349407196045,3.1549365520477295,-0.9768698215484619
1763693268225792800,0.453792724609375,9.70349407196045,3.221935749053955,-1.0654042959213257
1763693268235379500,0.46337939453125,9.66520881652832,3.1764719486236572,-1.1635099649429321
1763693268244967000,0.472966796875,9.756135940551758,3.142972469329834,-1.2783654928207397
1763693268254553300,0.48255322265625,9.937990188598633,3.1453654766082764,-1.438983678817749
1763693268264139300,0.49213916015625,10.165607452392578,3.1166515350341797,-1.529910922050476
1763693268273726000,0.501725830078125,10.234999656677246,2.9419753551483154,-1.4437693357467651
1763693268283313200,0.511313232421875,10.249356269836426,2.77657151222229,-1.3094722032546997
1763693268292899800,0.52089990234375,10.325926780700684,2.642573595046997,-1.225723385810852
1763693268302485800,0.53048583984375,10.397711753845215,2.5827529430389404,-1.2400803565979004
1763693268312072400,0.540072509765625,10.407282829284668,2.5660030841827393,-1.3357932567596436
1763693268321660000,0.549659912109375,10.383355140686035,2.5899314880371094,-1.4988043308258057
1763693268331246300,0.559246337890625,10.45513916015625,2.604288339614868,-1.7189439535140991
1763693268340832300,0.568832275390625,10.622936248779297,2.6066811084747314,-1.7691932916641235
1763693268350419000,0.5784189453125,10.6564359664917,2.563610315322876,-1.750050663948059
1763693268360006400,0.58800634765625,10.622936248779297,2.4726831912994385,-1.7596219778060913
1763693268369592800,0.5975927734375,10.553245544433594,2.477468729019165,-1.7668004035949707
1763693268379178800,0.6071787109375,10.428818702697754,2.5133609771728516,-1.776371717453003
1763693268388765400,0.616765380859375,10.256535530090332,2.5516462326049805,-1.7787644863128662
1763693268398353000,0.626352783203125,10.160821914672852,2.594717025756836,-1.8026927709579468
1763693268407939300,0.635939208984375,10.136894226074219,2.7263224124908447,-1.8457635641098022
1763693268417525200,0.645525146484375,9.990633010864258,2.824428081512451,-1.9561325311660767
1763693268427112000,0.65511181640625,9.734601020812988,2.872284412384033,-2.042274236679077
1763693268436699400,0.664699462890625,9.598209381103516,2.879462957382202,-2.073380708694458
1763693268446285800,0.674285888671875,9.622138023376465,2.6138596534729004,-2.228914260864258
1763693268455871700,0.683871826171875,9.77527904510498,2.2474586963653564,-2.614457845687866
1763693268465458400,0.69345849609375,9.978668212890625,2.0991036891937256,-2.918346405029297
1763693268475046000,0.7030458984375,9.79681396484375,2.1780667304992676,-3.0693931579589844
1763693268484632300,0.71263232421875,9.483354568481445,1.9004993438720703,-3.3924243450164795
1763693268494218200,0.72221826171875,9.253344535827637,1.711167335510254,-3.4570305347442627
1763693268503805000,0.731804931640625,10.21585750579834,1.6609179973602295,-3.4785659313201904
1763693268513392400,0.741392333984375,10.337891578674316,1.9770697355270386,-3.646362543106079
1763693268522978800,0.750978759765625,9.64367389678955,2.3697917461395264,-3.6559338569641113
1763693268532564700,0.760564697265625,9.351449966430664,2.577967405319214,-3.6822550296783447
1763693268542151400,0.7701513671875,9.308379173278809,2.618645191192627,-3.643969774246216
1763693268551739000,0.77973876953125,9.313164710998535,2.420041084289551,-3.646362543106079
1763693268561325300,0.7893251953125,9.102596282958984,2.142174482345581,-3.5718860626220703
1763693268570911200,0.7989111328125,8.987740516662598,2.0416758060455322,-3.4737801551818848
1763693268580498000,0.808497802734375,8.824729919433594,1.862214207649231,-3.3278181552886963
1763693268590085400,0.81808544921875,8.468199729919434,1.5747764110565186,-3.088535785675049
1763693268599671800,0.827671875,8.101798057556152,1.373779296875,-3.0933215618133545
1763693268609257700,0.8372578125,7.781160354614258,1.5197415351867676,-3.1316065788269043
1763693268618844400,0.846844482421875,7.6636128425598145,1.8813568353652954,-3.3924243450164795
1763693268628432000,0.856431884765625,7.730611801147461,2.2163519859313965,-3.562314748764038
1763693268638018300,0.866018310546875,7.826623916625977,2.5444676876068115,-3.6032917499542236
1763693268647604200,0.875604248046875,8.041977882385254,2.690429925918579,-3.4881372451782227
1763693268657191000,0.88519091796875,8.221439361572266,2.5995028018951416,-3.2344980239868164
1763693268666778400,0.8947783203125,8.187939643859863,2.446362018585205,-2.896811008453369
1763693268676364800,0.90436474609375,8.0922269821167,2.412862539291382,-2.6072793006896973
1763693268685950700,0.91395068359375,8.0922269821167,2.4080770015716553,-2.5211377143859863
1763693268695537400,0.923537353515625,8.338987350463867,2.237887382507324,-2.7340989112854004
1763693268705124900,0.933124755859375,8.57348346710205,2.2785654067993164,-2.942274570465088
1763693268714711600,0.942711669921875,8.805587768554688,2.384148597717285,-3.1339993476867676
1763693268724297200,0.952297119140625,9.057132720947266,2.4870400428771973,-3.239283561706543
1763693268733884000,0.9618837890625,9.351449966430664,2.381755828857422,-3.1172497272491455
1763693268743471400,0.971471435546875,9.602995872497559,2.12542462348938,-2.913560628890991
1763693268753057800,0.981057861328125,9.830313682556152,2.0105693340301514,-2.7675983905792236
1763693268762643700,0.990643798828125,9.937990188598633,1.8215361833572388,-2.676671266555786
1763693268772230400,1.00023046875,10.016953468322754,1.6585252285003662,-2.5618157386779785
1763693268781817900,1.00981787109375,10.072287559509277,1.6872390508651733,-2.4996023178100586
1763693268791404300,1.019404296875,10.062716484069824,1.8885352611541748,-2.580958366394043
1763693268800990200,1.028990234375,9.873384475708008,2.1517457962036133,-2.5594229698181152
1763693268810577000,1.038576904296875,9.576674461364746,2.3961126804351807,-2.317448616027832
1763693268820164400,1.048164306640625,9.368199348449707,2.3769702911376953,-1.963310956954956
1763693268829750800,1.057750732421875,9.246166229248047,2.3359930515289307,-1.5873386859893799
1763693268839336700,1.067336669921875,9.14566707611084,2.4248266220092773,-1.3142578601837158
1763693268848923400,1.07692333984375,9.021240234375,2.5660030841827393,-1.0941181182861328
1763693268858510800,1.0865107421875,9.035597801208496,2.6952157020568848,-0.9553344249725342
1763693268868097300,1.09609716796875,8.982954978942871,2.752643346786499,-0.9266205430030823
1763693268877683200,1.10568310546875,8.901598930358887,2.633002281188965,-1.0079765319824219
1763693268887270000,1.115269775390625,8.987740516662598,2.6401805877685547,-1.1754741668701172
1763693268896857300,1.124857421875,9.176774024963379,2.7957141399383545,-1.2496516704559326
1763693268906443800,1.13444384765625,9.176774024963379,2.946761131286621,-1.2089736461639404
1763693268916029700,1.14402978515625,9.049954414367676,3.1238300800323486,-1.2400803565979004
1763693268925616400,1.153616455078125,8.518448829650879,3.1405797004699707,-1.0510473251342773
1763693268935203800,1.163203857421875,8.089834213256836,3.0281169414520264,-0.6870391964912415
1763693268944790500,1.17279052734375,8.051548957824707,2.8842484951019287,-0.4980062246322632
1763693268954376200,1.182376220703125,8.504091262817383,2.9587252140045166,-0.4980062246322632
1763693268963963000,1.191962890625,8.724231719970703,3.150151014328003,-0.6176473498344421
1763693268973550300,1.20155029296875,8.944669723510742,3.0903303623199463,-1.4126626253128052
1763693268983136800,1.21113671875,9.538389205932617,3.3200414180755615,-1.9175482988357544
1763693268992722700,1.22072265625,9.952347755432129,3.7486557960510254,-2.073380708694458
1763693269002309400,1.230309326171875,9.993025779724121,3.9855451583862305,-2.334198474884033
1763693269011896800,1.239896728515625,9.945169448852539,4.146163463592529,-2.494816780090332
1763693269021483300,1.249483154296875,9.686744689941406,4.165306091308594,-2.410768747329712
1763693269031069200,1.259069091796875,9.325128555297852,3.9089748859405518,-2.2576282024383545
1763693269040656000,1.26865576171875,9.090632438659668,3.6409788131713867,-2.2743778228759766
1763693269050243300,1.278243408203125,9.052347183227539,3.3678979873657227,-2.2815563678741455
1763693269059830000,1.287830078125,8.61894702911377,3.315255880355835,-2.2671995162963867
1763693269069415700,1.297415771484375,8.496912956237793,3.291327476501465,-2.7675983905792236
1763693269079002400,1.30700244140625,8.482556343078613,3.3655049800872803,-3.3613176345825195
1763693269088589800,1.31658984375,8.781659126281738,3.5452659130096436,-3.7612180709838867
1763693269098176500,1.326176513671875,9.241379737854004,3.76779842376709,-3.9143588542938232
1763693269107762200,1.33576220703125,9.65803050994873,3.8276188373565674,-4.031607151031494
1763693269117348900,1.345348876953125,9.911669731140137,3.8300118446350098,-4.084249019622803
1763693269126936300,1.354936279296875,9.945169448852539,3.791726589202881,-3.9717864990234375
1763693269136523000,1.36452294921875,9.784850120544434,3.6888351440429688,-3.952643871307373
1763693269146108700,1.374108642578125,9.490532875061035,3.588336706161499,-3.8473596572875977
1763693269155695400,1.3836953125,9.289237022399902,3.5380873680114746,-3.8856449127197266
1763693269165282800,1.39328271484375,9.181559562683105,3.5380873680114746,-4.084249019622803
1763693269174869500,1.402869384765625,9.308379173278809,3.547658681869507,-4.256831645965576
1763693269184455200,1.412455078125,9.399306297302246,3.2027931213378906,-4.350151538848877
1763693269194041900,1.422041748046875,9.476176261901855,2.877070188522339,-4.479363918304443
1763693269203629300,1.43162939453125,9.631709098815918,2.7335007190704346,-4.610969066619873
1763693269213216000,1.441216064453125,9.780064582824707,2.6712872982025146,-4.620540618896484
1763693269222801700,1.4508017578125,9.875777244567871,2.577967405319214,-4.4721856117248535
1763693269232388400,1.460388427734375,9.89013385772705,2.4894328117370605,-4.218546390533447
1763693269241975800,1.469975830078125,9.844670295715332,2.539682149887085,-3.9646079540252686
1763693269251562500,1.4795625,9.686744689941406,2.5181467533111572,-3.7899320125579834
1763693269261148200,1.489148193359375,9.550353050231934,2.405683994293213,-3.643969774246216
1763693269270734800,1.49873486328125,9.274879455566406,2.3769702911376953,-3.4809587001800537
1763693269280320300,1.5083203125,8.89681339263916,2.525325298309326,-3.232105255126953
1763693269289905200,1.5179052734375,8.528019905090332,2.6952157020568848,-3.0454649925231934
1763693269299491000,1.527490966796875,8.358129501342773,2.7789642810821533,-3.0454649925231934
1763693269309077800,1.537077880859375,8.401200294494629,2.7813572883605957,-3.0957143306732178
1763693269318665000,1.5466650390625,8.700303077697754,2.7406792640686035,-3.208176851272583
1763693269328251600,1.556251708984375,8.970991134643555,2.556432008743286,-3.2967114448547363
1763693269337837600,1.565837646484375,9.030811309814453,2.3721845149993896,-3.4737801551818848
1763693269347424300,1.57542431640625,9.03799057006836,2.2713868618011475,-3.7133617401123047
1763693269357011700,1.58501171875,9.095417976379395,2.237887382507324,-3.88803768157959
1763693269366598100,1.59459814453125,9.203095436096191,2.2857437133789062,-4.026821613311768
1763693269376184000,1.60418408203125,9.339486122131348,2.3626132011413574,-4.072285175323486
1763693269385770800,1.613770751953125,9.37059211730957,2.4176480770111084,-4.002892971038818
1763693269395358200,1.623358154296875,9.227023124694824,2.3793630599975586,-3.777967929840088
1763693269404944600,1.632944580078125,8.877371788024902,2.3482563495635986,-3.490530014038086
1763693269414530600,1.642530517578125,8.413164138793945,2.338385820388794,-3.1866414546966553
1763693269424117200,1.6521171875,8.065905570983887,2.491825580596924,-2.997309446334839
1763693269433704700,1.66170458984375,7.99172830581665,2.577967405319214,-2.8441689014434814
1763693269443291100,1.671291015625,7.845766544342041,2.893819808959961,-2.8034908771514893
1763693269452877000,1.680876953125,7.6013994216918945,3.174079179763794,-2.738884687423706
1763693269462463700,1.690463623046875,7.608577728271484,3.1621150970458984,-2.896811008453369
1763693269472051000,1.700051025390625,7.9127655029296875,3.1716864109039307,-3.248854875564575
1763693269481637600,1.7096376953125,8.314759254455566,3.2554352283477783,-3.325425386428833
1763693269491223600,1.7192236328125,8.4562349319458,3.3750762939453125,-3.1172497272491455
1763693269500810200,1.728810302734375,8.353343963623047,3.339184045791626,-3.0789644718170166
1763693269510397700,1.738397705078125,8.28843879699707,3.3272199630737305,-3.1268210411071777
1763693269519984000,1.747984130859375,8.17836856842041,3.533301830291748,-3.0332016944885254
1763693269529570000,1.757570068359375,8.073084831237793,3.880260944366455,-3.1004998683929443
1763693269539156700,1.76715673828125,7.919943809509277,4.019044876098633,-3.08135724067688
1763693269548744200,1.776744140625,7.673183917999268,3.973581075668335,-3.067000389099121
1763693269558330600,1.78633056640625,7.405188083648682,3.925724744796753,-3.10528564453125
1763693269567916500,1.79591650390625,7.232904434204102,3.8659040927886963,-3.2273194789886475
1763693269577503200,1.805503173828125,7.352545738220215,3.8898322582244873,-3.2679975032806396
1763693269587090700,1.815090576171875,7.749754428863525,3.8922250270843506,-3.222533941268921
1763693269596677000,1.824677001953125,8.001299858093262,3.7031922340393066,-3.169891834259033
1763693269606263000,1.834262939453125,8.197511672973633,3.5285160541534424,-3.1316065788269043
1763693269615849700,1.843849609375,8.307580947875977,3.466003656387329,-3.07417893409729
1763693269625437200,1.853437255859375,8.321938514709473,3.502195119857788,-2.966202735900879
1763693269635023600,1.863023681640625,8.271688461303711,3.5859439373016357,-2.9063823223114014
1763693269644609500,1.872609619140625,8.405985832214355,3.667299747467041,-2.8226335048675537
1763693269654196200,1.8821962890625,8.659625053405762,3.7031922340393066,-2.746062994003296
1763693269663783700,1.89178369140625,8.796015739440918,3.739084482192993,-2.810669183731079
1763693269673370000,1.9013701171875,8.757730484008789,3.8204405307769775,-2.896811008453369
1763693269682956000,1.9109560546875,8.647661209106445,3.9305102825164795,-2.9398818016052246
1763693269692542700,1.920542724609375,8.676374435424805,4.023830413818359,-2.966202735900879
1763693269702130200,1.930130126953125,8.796015739440918,4.112663745880127,-3.0957143306732178
1763693269711716600,1.939716552734375,8.975776672363281,4.153341770172119,-3.263211965560913
1763693269721302500,1.949302490234375,9.1145601272583,4.062414646148682,-3.442673683166504
1763693269730889200,1.95888916015625,9.1624174118042,4.083950042724609,-3.691826343536377
1763693269740476700,1.9684765625,8.994919776916504,4.067200183868408,-3.739682674407959
1763693269750063000,1.97806298828125,8.82233715057373,4.057629108428955,-3.801896095275879
1763693269759649000,1.98764892578125,8.642875671386719,4.040879249572754,-3.952643871307373
1763693269769235700,1.997235595703125,8.372486114501953,4.036093711853027,-4.002892971038818
1763693269778823200,2.0068232421875,8.3629150390625,3.8850467205047607,-4.036392688751221
1763693269788409900,2.016409912109375,8.980562210083008,3.4998021125793457,-4.146462440490723
1763693269797995500,2.02599560546875,9.480961799621582,3.463610887527466,-4.304687976837158
1763693269807582200,2.035582275390625,9.55753231048584,3.763012647628784,-4.302295207977295
1763693269817169700,2.045169677734375,9.543174743652344,3.925724744796753,-4.395615100860596
1763693269826756400,2.05475634765625,9.423234939575195,3.715156316757202,-4.548755645751953
1763693269836342000,2.064342041015625,9.619745254516602,2.99222469329834,-4.680361270904541
1763693269845928700,2.0739287109375,9.717850685119629,2.71435809135437,-5.063511848449707
1763693269855516200,2.08351611328125,9.186345100402832,3.372683525085449,-5.288736343383789
1763693269865102600,2.0931025390625,9.02841854095459,4.103092670440674,-5.180759906768799
1763693269874688500,2.1026884765625,8.923134803771973,4.339982032775879,-5.149653434753418
1763693269884275200,2.112275146484375,8.685946464538574,4.387838363647461,-4.934299468994141
1763693269893862700,2.121862548828125,8.61176872253418,3.9209389686584473,-4.738088130950928
1763693269903449000,2.131448974609375,8.959027290344238,2.9874391555786133,-4.682754039764404
1763693269913035000,2.141034912109375,9.109774589538574,3.2650065422058105,-4.721039295196533
1763693269922621700,2.15062158203125,8.834300994873047,3.3128628730773926,-4.642076015472412
1763693269932209200,2.160209228515625,8.051548957824707,3.2937204837799072,-4.431507587432861
1763693269941795600,2.169795654296875,7.1799635887146,3.3439695835113525,-5.269294738769531
1763693269951381500,2.179381591796875,7.64447021484375,3.3966116905212402,-5.793622016906738
1763693269960968200,2.18896826171875,8.666803359985352,2.8579275608062744,-5.980561256408691
1763693269970555600,2.1985556640625,9.241379737854004,2.0297117233276367,-7.084250450134277
1763693269980142300,2.208142333984375,9.777671813964844,2.848356246948242,-6.325127601623535
1763693269989728000,2.21772802734375,9.89013385772705,3.667299747467041,-5.707480430603027
1763693269999314700,2.227314697265625,9.878170013427734,3.983152389526367,-5.62373161315918
1763693270008902100,2.236902099609375,9.77527904510498,3.451646566390991,-5.458626747131348
1763693270018488800,2.24648876953125,9.713065147399902,3.463610887527466,-4.54636287689209
1763693270028074500,2.256074462890625,10.108180046081543,3.229114055633545,-4.0435709953308105
1763693270037661200,2.2656611328125,9.92124080657959,3.073580741882324,-3.5168511867523193
1763693270047248600,2.27524853515625,9.222237586975098,3.1692936420440674,-3.3756744861602783
1763693270056835300,2.28483544921875,8.37966537475586,3.3655049800872803,-3.5168511867523193
1763693270066421000,2.2944208984375,7.431509017944336,3.739084482192993,-4.072285175323486
1763693270076007700,2.304007568359375,6.878467559814453,3.9855451583862305,-4.805087089538574
1763693270085595100,2.31359521484375,6.636493682861328,3.9089748859405518,-5.192724227905273
1763693270095181800,2.323181884765625,6.73729133605957,3.377469062805176,-5.094618320465088
1763693270104767500,2.332767578125,6.710970401763916,2.8435707092285156,-4.946263313293457
1763693270114354200,2.342354248046875,6.658328056335449,2.8172495365142822,-4.797908306121826
1763693270123941600,2.351941650390625,6.758826732635498,3.0927233695983887,-4.706682205200195
1763693270133528300,2.3615283203125,7.110571384429932,3.370290756225586,-4.7234320640563965
1763693270143114000,2.371114013671875,7.51286506652832,3.5452659130096436,-4.658825874328613
1763693270152700700,2.38070068359375,7.809874057769775,3.5596227645874023,-4.522434711456299
1763693270162288000,2.3902880859375,8.075477600097656,3.5452659130096436,-4.35254430770874
1763693270171874800,2.399874755859375,8.37009334564209,3.6170506477355957,-4.002892971038818
1763693270181460500,2.40946044921875,8.403593063354492,3.770191192626953,-3.5359935760498047
1763693270191047400,2.41904736328125,8.0922269821167,3.925724744796753,-3.232105255126953
1763693270200634600,2.428634521484375,7.744968891143799,3.870689630508423,-2.9805595874786377
1763693270210221300,2.43822119140625,7.515257835388184,3.636193037033081,-2.8896324634552
1763693270219807200,2.44780712890625,7.266404151916504,3.432504177093506,-2.9638099670410156
1763693270229393700,2.4573935546875,7.057929515838623,3.219542980194092,-3.224926710128784
1763693270238981000,2.466981201171875,6.607779502868652,3.355933666229248,-3.4546377658843994
1763693270248567800,2.47656787109375,6.203392505645752,3.6696925163269043,-3.4091739654541016
1763693270258153700,2.48615380859375,5.860919952392578,3.928117513656616,-3.3373894691467285
1763693270267740200,2.495740234375,5.860919952392578,4.1006999015808105,-3.3373894691467285
1763693270277327600,2.50532763671875,6.150750637054443,4.325624942779541,-3.2440693378448486
1763693270286914300,2.514914306640625,6.416353702545166,4.564907550811768,-3.208176851272583
1763693270296500200,2.524500244140625,6.818647384643555,4.684847831726074,-3.1387851238250732
1763693270306087000,2.5340869140625,7.232904434204102,4.588835716247559,-2.817847728729248
1763693270315674400,2.54367431640625,7.58225679397583,4.313661098480225,-2.533101797103882
1763693270325260800,2.5532607421875,7.723433494567871,4.23230504989624,-2.4681966304779053
1763693270334846700,2.5628466796875,7.656434059143066,4.3519463539123535,-2.604886531829834
1763693270344433400,2.572433349609375,7.5942206382751465,4.514657974243164,-2.887239694595337
1763693270354020600,2.5820205078125,7.673183917999268,4.538586139678955,-3.1172497272491455
1763693270363607300,2.591607177734375,7.800302505493164,4.416552543640137,-3.215355396270752
1763693270373193200,2.601193115234375,7.967800140380859,4.275375843048096,-3.2608189582824707
1763693270382780000,2.61077978515625,8.276473999023438,4.17009162902832,-3.256033420562744
1763693270392367000,2.6203671875,8.774480819702148,4.074378967285156,-3.3062827587127686
1763693270401953800,2.629953857421875,9.260522842407227,4.050450325012207,-3.1722846031188965
1763693270411539700,2.639539794921875,9.77527904510498,4.033700942993164,-2.7891337871551514
1763693270421126400,2.64912646484375,10.19192886352539,4.083950042724609,-2.4900310039520264
1763693270430713600,2.658713623046875,10.541280746459961,4.0695929527282715,-2.214557409286499
1763693270440300300,2.66830029296875,10.654043197631836,4.0695929527282715,-2.1643080711364746
1763693270449886200,2.67788623046875,10.63968563079834,3.942474365234375,-2.204986095428467
1763693270459473000,2.687472900390625,10.838290214538574,3.626621723175049,-2.386840581893921
1763693270469060400,2.697060302734375,11.118250846862793,3.2817561626434326,-2.7364916801452637
1763693270478646800,2.706646728515625,11.115857124328613,3.190829038619995,-3.0526435375213623
1763693270488232700,2.716232666015625,10.919646263122559,3.3822548389434814,-3.0765717029571533
1763693270497819400,2.7258193359375,10.615757942199707,3.667299747467041,-2.95184588432312
1763693270507406800,2.73540673828125,10.318748474121094,3.7893338203430176,-2.801098108291626
1763693270516993500,2.74499365234375,10.136894226074219,3.7031922340393066,-2.5689942836761475
1763693270526579200,2.7545791015625,10.01456069946289,3.684049606323242,-2.214557409286499
1763693270536166000,2.764165771484375,9.722636222839355,3.9544384479522705,-1.9151554107666016
1763693270545753300,2.77375341796875,9.502496719360352,4.155734539031982,-1.776371717453003
1763693270555340000,2.783340087890625,9.183952331542969,4.222733974456787,-1.831406593322754
1763693270564925700,2.79292578125,8.85344409942627,4.208376884460449,-2.0542383193969727
1763693270574512400,2.802512451171875,8.415556907653809,4.060021877288818,-2.4131617546081543
1763693270584099800,2.812099853515625,8.240582466125488,3.657728433609009,-3.0837502479553223
1763693270593686500,2.8216865234375,8.458627700805664,3.0664021968841553,-3.9263229370117188
1763693270603272200,2.831272216796875,8.884550094604492,2.5540390014648438,-4.66361141204834
1763693270612859000,2.84085888671875,9.27727222442627,2.381755828857422,-5.266901969909668
1763693270622446300,2.8504462890625,9.68913745880127,2.388934373855591,-5.616552829742432
1763693270632032800,2.86003271484375,10.045967102050781,2.625823736190796,-5.647659778594971
1763693270641618700,2.86961865234375,10.263713836669922,3.119044303894043,-5.472983360290527
1763693270651205400,2.879205322265625,10.182357788085938,3.4902310371398926,-5.118546962738037
1763693270660792800,2.888792724609375,9.93559741973877,3.573979616165161,-4.826622486114502
1763693270670379500,2.898379638671875,9.65085220336914,3.4758739471435547,-4.615755081176758
1763693270679965200,2.907965087890625,9.317950248718262,3.181257724761963,-4.500899314880371
1763693270689552000,2.9175517578125,9.219844818115234,2.80767822265625,-4.54636287689209
1763693270699139300,2.927139404296875,9.143274307250977,2.7167510986328125,-4.587040901184082
1763693270708726000,2.93672607421875,8.973383903503418,2.7861428260803223,-4.553541660308838
1763693270718311700,2.946311767578125,8.947062492370605,2.752643346786499,-4.455435752868652
1763693270727898400,2.9558984375,9.069096565246582,2.7406792640686035,-4.261617183685303
1763693270737485800,2.96548583984375,9.286844253540039,2.845963478088379,-3.9335012435913086
1763693270747072500,2.975072509765625,9.389735221862793,3.0305099487304688,-3.5958142280578613
1763693270756658200,2.984658203125,9.37298583984375,3.0544381141662598,-3.3445677757263184
1763693270766244900,2.994244873046875,9.01406192779541,2.977867841720581,-3.01405930519104
1763693270775832300,3.003832275390625,8.384450912475586,2.9108686447143555,-2.6407787799835205
1763693270785418800,3.013418701171875,7.539186000823975,2.92283296585083,-2.286342144012451
1763693270795004700,3.023004638671875,6.868896484375,3.0376882553100586,-1.939382791519165
1763693270804591400,3.03259130859375,6.488138675689697,3.150151014328003,-1.5873386859893799
1763693270814178800,3.0421787109375,6.102894306182861,3.4806597232818604,-1.683051586151123
1763693270823765500,3.051765625,6.392425537109375,3.157329559326172,-1.415055513381958
1763693270833351200,3.06135107421875,6.6484575271606445,2.594717025756836,-0.9385846853256226
1763693270842937900,3.070937744140625,6.399604320526123,2.420041084289551,-0.5937191247940063
1763693270852525300,3.080525390625,5.992525100708008,2.470290184020996,-0.7612167000770569
1763693270862112000,3.090112060546875,6.04038143157959,2.594717025756836,-1.074975609779358
1763693270871697700,3.09969775390625,6.08823823928833,2.570788860321045,-1.3070793151855469
1763693270881284400,3.109284423828125,5.896812438964844,2.398505687713623,-1.561017632484436
1763693270890871800,3.118871826171875,5.612066268920898,2.2881367206573486,-1.8481563329696655
1763693270900458500,3.12845849609375,5.216951370239258,2.235494613647461,-2.056631088256836
1763693270910044400,3.13804443359375,5.1188459396362305,2.1278176307678223,-2.3988046646118164
1763693270919630800,3.147630859375,5.137988567352295,2.11824631690979,-2.8130621910095215
1763693270929218300,3.15721826171875,5.281557559967041,2.072782516479492,-3.224926710128784
1763693270938805000,3.166804931640625,5.535496234893799,1.80717933177948,-3.708575963973999
1763693270948391000,3.176390869140625,5.518447399139404,1.7976080179214478,-4.278367042541504
1763693270957977300,3.185977294921875,5.638387680053711,1.8693926334381104,-4.884049892425537
1763693270967564800,3.195564697265625,5.997310638427734,1.8741782903671265,-5.626124382019043
1763693270977151500,3.2051513671875,6.859325408935547,1.7327027320861816,-6.255735874176025
1763693270986737400,3.2147373046875,7.864908695220947,1.6752749681472778,-6.760920524597168
1763693270996324000,3.224323974609375,8.82951545715332,1.586740493774414,-7.270890712738037
1763693271005911300,3.233911376953125,9.698708534240723,1.6250256299972534,-7.5942206382751465
1763693271015498000,3.243498046875,10.345069885253906,1.8789639472961426,-7.380960464477539
1763693271025084000,3.253083984375,10.73300552368164,2.08713960647583,-6.722635269165039
1763693271034670600,3.262670654296875,11.01296615600586,2.213959217071533,-6.08823823928833
1763693271044257800,3.2722578125,11.369795799255371,2.05603289604187,-5.702694416046143
1763693271053844500,3.281844482421875,11.896515846252441,1.893320918083191,-5.563910961151123
1763693271063430400,3.291430419921875,12.509377479553223,1.953141450881958,-5.2477593421936035
1763693271073017000,3.30101708984375,13.25862979888916,2.0751755237579346,-4.8314080238342285
1763693271082604500,3.3106044921875,13.94088363647461,2.0679969787597656,-4.450650215148926
1763693271092191000,3.32019091796875,14.405390739440918,2.0656042098999023,-3.935894250869751
1763693271101777000,3.32977685546875,14.597115516662598,2.2546372413635254,-3.1244282722473145
1763693271111363600,3.339363525390625,14.642579078674316,2.3359930515289307,-2.173879384994507
1763693271120951000,3.348950927734375,14.326427459716797,2.501396894454956,-1.434198021888733
1763693271130537500,3.358537353515625,13.883456230163574,2.8100709915161133,-0.8333004713058472
1763693271140123400,3.368123291015625,13.380663871765137,3.1645078659057617,-0.48364928364753723
1763693271149710000,3.3777099609375,12.672089576721191,3.523730516433716,-0.40707895159721375
1763693271159297500,3.387297607421875,11.853445053100586,3.777369737625122,-0.6080760359764099
1763693271168884000,3.396884033203125,11.039287567138672,3.5309088230133057,-1.017547845840454
1763693271178470000,3.406469970703125,10.424033164978027,3.0233314037323,-1.4557334184646606
1763693271188056600,3.416056640625,10.034002304077148,2.7957141399383545,-1.7668004035949707
1763693271197644000,3.42564404296875,9.92124080657959,2.546860694885254,-2.1379871368408203
1763693271207230500,3.43523046875,9.954740524291992,2.374577283859253,-2.494816780090332
1763693271216816400,3.44481640625,10.168001174926758,2.360220432281494,-2.518744945526123
1763693271226403000,3.454403076171875,10.213464736938477,2.1517457962036133,-2.4996023178100586
1763693271235990500,3.463990478515625,10.54845905303955,1.7255241870880127,-2.635993242263794
1763693271245577000,3.473576904296875,11.199905395507812,1.5652050971984863,-2.913560628890991
1763693271255163000,3.483162841796875,11.736196517944336,1.8023936748504639,-3.0332016944885254
1763693271264749600,3.49274951171875,11.807981491088867,1.9411773681640625,-2.8944180011749268
1763693271274337000,3.5023369140625,11.748161315917969,1.9363917112350464,-2.6551358699798584
1763693271283923500,3.51192333984375,11.398509979248047,2.022533416748047,-2.39401912689209
1763693271293509400,3.52150927734375,10.534102439880371,2.1373889446258545,-2.17627215385437
1763693271303096000,3.531095947265625,9.377771377563477,2.11824631690979,-2.183450698852539
1763693271312683500,3.54068359375,8.262117385864258,2.0057835578918457,-2.3916261196136475
1763693271322270000,3.55027001953125,7.469794273376465,1.7976080179214478,-2.604886531829834
1763693271331856000,3.55985595703125,7.127321243286133,1.531705617904663,-2.95902419090271
1763693271341442600,3.569442626953125,6.981359004974365,1.4120644330978394,-3.459423303604126
1763693271351030000,3.579030029296875,6.8258256912231445,1.5412769317626953,-3.6631124019622803
1763693271360616700,3.58861669921875,6.7707905769348145,1.8813568353652954,-3.6798620223999023
1763693271370202400,3.598202392578125,6.971787929534912,2.0751755237579346,-3.6080775260925293
1763693271379789000,3.6077890625,7.608577728271484,1.4503495693206787,-3.605684518814087
1763693271389376500,3.61737646484375,7.814659595489502,1.1772687435150146,-3.8210387229919434
1763693271398963200,3.626963134765625,7.812266826629639,1.5484553575515747,-3.79471755027771
1763693271408548900,3.636548828125,7.955836296081543,2.032104730606079,-3.5647075176239014
1763693271418135600,3.646135498046875,8.099405288696289,2.2498514652252197,-3.380460262298584
1763693271427723000,3.655722900390625,8.106583595275879,2.2737796306610107,-3.1555347442626953
1763693271437309700,3.665309814453125,8.0324068069458,2.3048863410949707,-2.760420083999634
1763693271446895600,3.6748955078125,8.034799575805664,2.522932291030884,-2.403590440750122
1763693271456482000,3.68448193359375,8.125726699829102,2.7167510986328125,-2.2169501781463623
1763693271466069500,3.694069580078125,8.130512237548828,2.783750057220459,-2.080559253692627
1763693271475656200,3.70365625,8.003692626953125,2.90099835395813,-1.9800606966018677
1763693271485242000,3.7132421875,7.539186000823975,2.855534791946411,-1.158724308013916
1763693271494828500,3.72282861328125,7.093822002410889,2.9587252140045166,-1.0295119285583496
1763693271504416000,3.732416015625,6.775576591491699,2.7789642810821533,-1.3743774890899658
1763693271514002700,3.742002685546875,6.981359004974365,2.2498514652252197,-1.5083755254745483
1763693271523588600,3.751588623046875,8.008478164672852,1.6465610265731812,-1.220937728881836
1763693271533175300,3.76117529296875,8.37009334564209,2.204387903213501,-1.0223335027694702
1763693271542762800,3.7707626953125,8.3267240524292,3.229114055633545,-1.0606186389923096
1763693271552349200,3.78034912109375,8.382058143615723,3.801297903060913,-1.3214362859725952
1763693271561935000,3.78993505859375,8.595019340515137,3.7965121269226074,-1.8696918487548828
1763693271571521800,3.799521728515625,8.985347747802734,3.6170506477355957,-2.255235433578491
1763693271581109200,3.809109130859375,9.459425926208496,3.650550127029419,-2.4466612339019775
1763693271590695700,3.81869580078125,9.624530792236328,3.8371901512145996,-2.4466612339019775
1763693271600281600,3.828281494140625,9.588638305664062,3.9400815963745117,-2.5283162593841553
1763693271609868300,3.837868408203125,9.296415328979492,4.079164505004883,-2.525923490524292
1763693271619455700,3.847455810546875,5.844170093536377,5.965605735778809,-2.784348249435425
1763693271629042200,3.857042236328125,6.952645301818848,4.976771831512451,-3.325425386428833
1763693271638628000,3.866628173828125,8.075477600097656,3.2961132526397705,-3.5982069969177246
1763693271648214800,3.87621484375,8.923134803771973,2.597109794616699,-3.0020952224731445
1763693271657802200,3.88580224609375,9.191130638122559,2.92283296585083,-1.934597134590149
1763693271667388700,3.895388671875,9.12413215637207,3.332005500793457,-0.9768698215484619
1763693271676974600,3.904974609375,9.179166793823242,3.2961132526397705,-0.4980062246322632
1763693271686561300,3.914561279296875,9.837491989135742,3.3846476078033447,-0.701396107673645
1763693271696148700,3.924148681640625,9.839884757995605,3.135794162750244,-1.311864972114563
1763693271715321000,3.943321044921875,10.359426498413086,3.1645078659057617,-2.683849811553955
1763693271724907800,3.95290771484375,10.266106605529785,3.2721848487854004,-2.6336004734039307
1763693271734495200,3.9624951171875,10.280463218688965,3.0687949657440186,-2.4610180854797363
1763693271744081700,3.97208154296875,10.957931518554688,2.367398977279663,-2.4011974334716797
1763693271753667600,3.98166748046875,10.76411247253418,1.9411773681640625,-2.1236300468444824
1763693271763254300,3.991254150390625,11.233405113220215,1.989033818244934,-2.5522444248199463
1763693271772841700,4.000841796875,10.476675033569336,2.276172637939453,-2.1236300468444824
1763693271782428400,4.010428466796875,9.885348320007324,2.228316068649292,-1.4820544719696045
1763693271792014000,4.02001416015625,9.926026344299316,1.8191434144973755,-1.2089736461639404
1763693271801600800,4.029600830078125,8.81515884399414,2.039283037185669,-0.9936196208000183
1763693271811188200,4.039188232421875,10.761719703674316,1.2059825658798218,-0.4788636267185211
1763693271820775000,4.04877490234375,10.87418270111084,1.5843477249145508,-0.3089732229709625
1763693271830360600,4.058360595703125,10.934002876281738,1.960319995880127,-0.7564310431480408
1763693271839947300,4.067947265625,10.644471168518066,1.8143577575683594,-0.766002357006073
1763693271849534700,4.07753466796875,11.168798446655273,2.0057835578918457,-1.2711870670318604
1763693271859121400,4.087121337890625,13.593924522399902,1.6082758903503418,-2.3294129371643066
1763693271868707000,4.09670703125,12.243474960327148,1.5604194402694702,-3.4378879070281982
1763693271878293800,4.106293701171875,11.374581336975098,0.729810893535614,-3.3541390895843506
1763693271887881200,4.115881103515625,10.706685066223145,-0.3044866919517517,-1.9441684484481812
1763693271897468000,4.125468017578125,10.912467956542969,-0.9915258884429932,-2.42512583732605
1763693271907053600,4.135053466796875,10.177572250366211,-0.5201398134231567,-3.2895328998565674
1763693271916640500,4.144640625,10.242177963256836,0.049651071429252625,-3.5048868656158447
1763693271926227700,4.154227783203125,10.258928298950195,0.2748754918575287,-2.7891337871551514
1763693271935814400,4.163814453125,10.160821914672852,0.4423730969429016,-2.152343988418579
1763693271945400300,4.173400390625,10.101001739501953,0.5045864582061768,-1.9609181880950928
1763693271954987000,4.182987060546875,10.321141242980957,0.4782654345035553,-0.9433703422546387
1763693271964574200,4.19257421875,10.416853904724121,0.42323049902915955,-0.42382872104644775
1763693271974161000,4.202160888671875,10.36181926727295,0.46390849351882935,-0.524327278137207
1763693271983746800,4.211746826171875,10.19910717010498,0.4495515525341034,-0.4501497745513916
1763693272002920700,4.230920654296875,9.595816612243652,0.32991042733192444,-0.4381856322288513
1763693272012507400,4.24050732421875,9.500103950500488,0.3658027648925781,-0.5003990530967712
1763693272022093300,4.25009326171875,9.528818130493164,0.45194438099861145,-0.3735794425010681
1763693272031680000,4.259679931640625,9.488140106201172,0.4615156650543213,-0.3281157910823822
1763693272041267200,4.26926708984375,9.23180866241455,0.35383865237236023,-0.5865406394004822
1763693272050854000,4.27885400390625,8.951848983764648,0.3203391432762146,-0.7468597888946533
1763693272060439800,4.288439697265625,9.136096000671387,0.07597211748361588,-0.8380861282348633
1763693272070026500,4.298026611328125,9.095417976379395,0.08075776696205139,-0.9840483069419861
1763693272079614000,4.307614013671875,8.755337715148926,0.3658027648925781,-0.8715856671333313
1763693272089200400,4.317200439453125,8.62612533569336,0.4136592149734497,-0.8979067206382751
1763693272098786300,4.326786376953125,8.554341316223145,0.483051061630249,-0.9457631707191467
1763693272108373000,4.336373046875,8.293224334716797,0.9260223507881165,-0.9768698215484619
1763693272117960400,4.34596044921875,8.06112003326416,0.9571290612220764,-0.8261220455169678
1763693272127547000,4.355546875,7.941479206085205,0.6652047038078308,-1.0342975854873657
1763693272137132800,4.3651328125,7.967800140380859,0.7058826684951782,-1.1395817995071411
1763693272146719500,4.374719482421875,8.101798057556152,1.160519003868103,-1.0342975854873657
1763693272156307000,4.384306884765625,8.240582466125488,1.4814562797546387,-1.189831018447876
1763693272165893400,4.393893310546875,7.9366936683654785,1.7566308975219727,-0.5410770177841187
1763693272175479300,4.403479248046875,8.216653823852539,1.7805591821670532,-0.31854450702667236
1763693272185066000,4.41306591796875,7.366902828216553,1.989033818244934,-0.2515454888343811
1763693272194653400,4.4226533203125,8.223832130432129,1.7303098440170288,-0.03349951654672623
1763693272204240000,4.432239990234375,8.197511672973633,1.7976080179214478,0.39032918214797974
1763693272213825800,4.44182568359375,8.207082748413086,1.5604194402694702,0.2153540402650833
1763693272223412500,4.45141259765625,8.714659690856934,1.337886929512024,-1.477268934249878
1763693272233000000,4.461,9.097810745239258,1.2637094259262085,-2.228914260864258
1763693272242586600,4.470586669921875,9.36341381072998,1.9387845993041992,-1.6423736810684204
1763693272252172300,4.48017236328125,9.109774589538574,2.5660030841827393,-1.4988043308258057
1763693272261759000,4.489759033203125,9.186345100402832,2.944368362426758,-1.3022937774658203
1763693272271346400,4.499346435546875,9.457033157348633,2.6760730743408203,-1.2185449600219727
1763693272280933000,4.50893310546875,9.736993789672852,2.7693932056427,-1.0055837631225586
1763693272290518800,4.518518798828125,10.23739242553711,2.790928602218628,-1.0271191596984863
1763693272300105500,4.52810546875,10.637292861938477,2.6856443881988525,-1.2687941789627075
1763693272309693000,4.53769287109375,10.63968563079834,2.6521449089050293,-1.438983678817749
1763693272319279600,4.547279541015625,10.536495208740234,2.6617159843444824,-1.6208382844924927
1763693272328865500,4.556865478515625,10.385747909545898,2.6473591327667236,-1.9298114776611328
1763693272338452200,4.5664521484375,10.368997573852539,2.752643346786499,-2.2504496574401855
1763693272348039400,4.576039306640625,11.231012344360352,2.790928602218628,-2.2241287231445312
1763693272357626000,4.585626220703125,11.365010261535645,2.642573595046997,-2.5857439041137695
1763693272367212000,4.5952119140625,10.419246673583984,2.3431715965270996,-2.8513472080230713
1763693272376798700,4.604798828125,9.143274307250977,2.3024935722351074,-3.373281717300415
1763693272386386000,4.614385986328125,11.427223205566406,2.5037899017333984,-3.1268210411071777
1763693272395972600,4.62397265625,11.278868675231934,2.6090738773345947,-3.0861430168151855
1763693272405558500,4.63355859375,11.652149200439453,2.573181629180908,-2.98295259475708
1763693272415145200,4.643145263671875,12.037692070007324,2.1206390857696533,-2.942274570465088
1763693272424732400,4.652732421875,12.35145092010498,1.7279170751571655,-3.2273194789886475
1763693272434319000,4.662319091796875,12.078370094299316,1.835893154144287,-3.3684961795806885
1763693272443905000,4.671905029296875,11.628220558166504,2.072782516479492,-3.193819999694824
1763693272453491700,4.68149169921875,11.350653648376465,2.283350944519043,-3.0693931579589844
1763693272463079200,4.6910791015625,11.142477989196777,2.2498514652252197,-3.2512478828430176
1763693272472665600,4.70066552734375,10.780862808227539,4.086342811584473,-2.3844478130340576
1763693272482251500,4.71025146484375,10.934002876281738,0.8614161610603333,-2.475374937057495
1763693272491838200,4.719838134765625,11.309975624084473,-0.8910273313522339,-1.994417667388916
1763693272501425700,4.72942578125,10.72582721710205,-0.5919244885444641,-1.3453645706176758
1763693272511012000,4.73901220703125,10.414461135864258,-0.5177469849586487,-1.342971682548523
1763693272520598000,4.748597900390625,10.187143325805664,-0.48903313279151917,-1.651944875717163
1763693272530184700,4.758184814453125,9.937990188598633,-0.7067800164222717,-1.750050663948059
1763693272539772200,4.767772216796875,9.543174743652344,-0.9173483848571777,-1.8026927709579468
1763693272549358800,4.77735888671875,9.430413246154785,-0.9388837814331055,-1.9489539861679077
1763693272558944500,4.786944580078125,9.241379737854004,-0.7067800164222717,-2.166700839996338
1763693272568531200,4.79653125,9.12413215637207,-0.3978067636489868,-2.324627161026001
1763693272578118700,4.80611865234375,8.740981101989746,-0.24466611444950104,-2.42512583732605
1763693272597291000,4.825291015625,9.253344535827637,0.11216355860233307,-2.841775894165039
1763693272606877700,4.834877685546875,9.38734245300293,0.4208376705646515,-3.122035264968872
1763693272616465200,4.844465087890625,9.559925079345703,0.7034898400306702,-3.373281717300415
1763693272626051800,4.8540517578125,9.701101303100586,0.8901300430297852,-3.2584261894226074
1763693272635637500,4.863637451171875,10.029216766357422,0.5596213936805725,-2.5139594078063965
1763693272645224200,4.87322412109375,9.736993789672852,0.7226324677467346,-3.1507492065429688
1763693272654811600,4.882811767578125,9.411270141601562,0.9403793215751648,-2.396411895751953
1763693272664398300,4.8923984375,8.858229637145996,0.8614161610603333,-3.030808925628662
1763693272673984300,4.901984375,8.343772888183594,1.1509476900100708,-4.216153621673584
1763693272683570700,4.91157080078125,8.319544792175293,1.3953146934509277,-3.576671600341797
1763693272693158100,4.921158203125,8.990134239196777,1.2254242897033691,-2.472982168197632
1763693272702744800,4.930744873046875,8.609375953674316,0.6915257573127747,-1.5849459171295166
1763693272712330800,4.940330810546875,8.839086532592773,1.129412293434143,-2.307877540588379
1763693272721917400,4.94991748046875,9.792028427124023,1.4264214038848877,-2.4610180854797363
1763693272731504600,4.959504638671875,5.542674541473389,-2.9261229038238525,0.6248258352279663
1763693272741091300,4.96909130859375,14.039288520812988,3.284149169921875,-1.7548363208770752
1763693272750677200,4.97867724609375,7.764111042022705,1.9746768474578857,-0.7372884750366211
1763693272760264000,4.988263916015625,8.882157325744629,1.5747764110565186,-1.072582721710205
1763693272769851400,4.997851318359375,8.752944946289062,1.8550357818603516,-1.2281162738800049
1763693272779437800,5.007437744140625,8.645268440246582,2.8651061058044434,-1.7356936931610107
1763693272789023700,5.017023681640625,9.404091835021973,3.8347973823547363,-2.063809633255005
1763693272798610400,5.0266103515625,8.245368003845215,3.51894474029541,-1.1754741668701172
1763693272808198000,5.036197998046875,8.135297775268555,1.8574285507202148,-2.0781664848327637
1763693272817784300,5.045784423828125,7.7114691734313965,1.5604194402694702,-2.0039889812469482
1763693272827370200,5.055370361328125,7.06271505355835,2.0823538303375244,-0.9744769930839539
1763693272836957000,5.06495703125,4.371686935424805,3.4758739471435547,2.42512583732605
1763693272846544400,5.07454443359375,6.066702842712402,2.932404041290283,1.7715860605239868
1763693272856131000,5.084131103515625,8.666803359985352,2.7861428260803223,-0.18424734473228455
1763693272865716700,5.093716796875,7.919943809509277,3.401397466659546,0.03349951654672623
1763693272875303400,5.103303466796875,7.007680416107178,3.8611185550689697,0.39990049600601196
1763693272884891000,5.112890869140625,6.564708709716797,4.117449760437012,0.5721837282180786
1763693272894477300,5.122477294921875,7.096214771270752,3.8659040927886963,0.4405784606933594
1763693272904063200,5.132063232421875,7.8194451332092285,3.5141592025756836,0.15553347766399384
1763693272913650000,5.14164990234375,7.793124198913574,3.267399311065674,-0.11724831163883209
1763693272923237400,5.1512373046875,7.632505893707275,3.0520453453063965,-0.3448655605316162
1763693272932823800,5.16082373046875,7.89123010635376,2.7717859745025635,-0.5027918815612793
1763693272942409700,5.17040966796875,8.439485549926758,2.173281192779541,-1.3911272287368774
1763693272951996400,5.179996337890625,10.701899528503418,2.1589243412017822,-2.142772674560547
1763693272961583900,5.189583984375,9.868598937988281,2.628216505050659,-0.37597227096557617
1763693272971170600,5.199170654296875,9.9140625,2.0608184337615967,-0.06939185410737991
1763693272980756200,5.208756103515625,11.115857124328613,1.6704893112182617,0.12921242415905
1763693272990343000,5.218343017578125,13.42164134979248,1.191625714302063,1.0247262716293335
1763693272999930400,5.227930419921875,13.747065544128418,1.3307085037231445,0.02871387079358101
1763693273009517000,5.23751708984375,11.908479690551758,1.4886348247528076,-0.2153540402650833
1763693273019102700,5.247102783203125,11.082358360290527,1.3019945621490479,-0.038285162299871445
1763693273028689700,5.256689697265625,11.017751693725586,1.1413763761520386,-0.41904306411743164
1763693273038276900,5.26627685546875,10.450353622436523,1.2035897970199585,-0.9409775137901306
1763693273047863600,5.275863525390625,10.630114555358887,1.6633108854293823,-1.350150227546692
1763693273057449500,5.285449462890625,11.319546699523926,3.219542980194092,-0.9433703422546387
1763693273067036200,5.2950361328125,12.822837829589844,1.68484628200531,-2.1619153022766113
1763693273076623400,5.304623291015625,9.92124080657959,1.4575281143188477,-2.0685951709747314
1763693273086210000,5.3142099609375,12.674482345581055,1.7805591821670532,-1.5945172309875488
1763693273095796000,5.3237958984375,11.331510543823242,2.6856443881988525,-1.256830096244812
1763693273105382700,5.333382568359375,10.474282264709473,2.515753984451294,-1.4988043308258057
1763693273114970000,5.34297021484375,11.079965591430664,0.8542376756668091,-2.1858434677124023
1763693273124556500,5.352556640625,11.736196517944336,-0.620638370513916,-3.1507492065429688
1763693273134142500,5.362142578125,12.473484992980957,-1.444068431854248,-4.007678985595703
1763693273143729200,5.371729248046875,13.81645679473877,-1.8631114959716797,-4.656432628631592
1763693273153316600,5.381316650390625,14.939289093017578,-0.9963115453720093,-3.7205400466918945
1763693273162903000,5.390903076171875,14.52054500579834,-0.373878538608551,-2.8226335048675537
1763693273172489000,5.400489013671875,5.939883232116699,0.09032905846834183,-2.4610180854797363
1763693273182075600,5.41007568359375,4.59930419921875,1.800000786781311,3.4809587001800537
1763693273191663000,5.4196630859375,7.424330234527588,1.349851131439209,-1.3600205183029175
1763693273201249800,5.429249755859375,10.421640396118164,1.0528420209884644,-1.55623197555542
1763693273210835500,5.43883544921875,10.907682418823242,0.9236295223236084,-0.6200401782989502
1763693273220422100,5.448422119140625,10.290034294128418,0.2796611487865448,-0.6678966283798218
1763693273230009600,5.458009521484375,9.691530227661133,0.01136590726673603,-1.599302887916565
1763693273239596300,5.46759619140625,9.423234939575195,0.26051855087280273,-1.6040884256362915
1763693273249182000,5.477181884765625,9.727422714233398,0.10498509556055069,-0.8476574420928955
1763693273258768600,5.4867685546875,9.854242324829102,-0.4866403043270111,-0.7516453862190247
1763693273268356000,5.496356201171875,9.92841911315918,-0.986740231513977,-0.7827520966529846
1763693273277942800,5.50594287109375,9.744172096252441,-0.9747761487960815,-0.9026923179626465
1763693273287528400,5.515528564453125,9.626923561096191,-0.6278168559074402,-0.7133602499961853
1763693273297115100,5.525115234375,9.279664993286133,-0.45284169912338257,-0.5961119532585144
1763693273306702600,5.53470263671875,8.709874153137207,-0.09631111472845078,-0.7372884750366211
1763693273316289300,5.544289306640625,8.130512237548828,0.36340993642807007,-0.701396107673645
1763693273325875200,5.553875244140625,7.689933776855469,0.8279166221618652,-0.5075774788856506
1763693273335461600,5.563461669921875,7.872087478637695,1.0863415002822876,-0.828514814376831
1763693273345049000,5.573049072265625,7.989335536956787,1.4503495693206787,-0.890728235244751
1763693273354635800,5.5826357421875,8.211868286132812,1.703988790512085,-0.6990033388137817
1763693273364221700,5.5922216796875,8.312366485595703,1.7829519510269165,-0.3568296730518341
1763693273373808400,5.601808349609375,8.29561710357666,1.7422740459442139,-0.20578274130821228
1763693273383395600,5.6113955078125,8.097012519836426,1.6513466835021973,-0.1698904037475586
1763693273392982300,5.620982177734375,7.72104024887085,1.555633783340454,-0.1579262912273407
1763693273402568200,5.630568115234375,7.417151927947998,1.4312070608139038,-0.3113660514354706
1763693273412155000,5.64015478515625,7.393223762512207,1.1222338676452637,-0.45254257321357727
1763693273421742300,5.649742431640625,7.749754428863525,1.038485050201416,-0.7612167000770569
1763693273431328800,5.659328857421875,8.001299858093262,1.0719845294952393,-1.079761266708374
1763693273440914700,5.668914794921875,8.384450912475586,0.9308080077171326,-1.2089736461639404
1763693273450501400,5.67850146484375,9.181559562683105,0.5883352756500244,-1.067797064781189
1763693273460088800,5.6880888671875,9.902098655700684,0.16002000868320465,0.07178468257188797
1763693273469675300,5.69767529296875,9.751350402832031,-0.22073788940906525,-0.04546362906694412
1763693273479261200,5.70726123046875,9.576674461364746,-0.10827522724866867,-0.05024927482008934
1763693273488848000,5.716847900390625,9.310771942138672,-0.026919255033135414,0.02632104977965355
1763693273498435300,5.726435302734375,9.37298583984375,-0.012562318705022335,0.31824541091918945
1763693273508022000,5.73602197265625,9.38734245300293,0.19112670421600342,0.2273181527853012
1763693273517607700,5.745607666015625,9.504889488220215,0.21984058618545532,0.3038884699344635
1763693273527194400,5.7551943359375,9.940383911132812,0.03768695518374443,0.33768710494041443
1763693273536781800,5.76478173828125,10.493424415588379,-0.15613168478012085,0.4788636267185211
1763693273546368500,5.774368408203125,10.871789932250977,-0.268594354391098,0.48843491077423096
1763693273555954200,5.7839541015625,11.446366310119629,-0.19202402234077454,0.23210379481315613
1763693273565540900,5.793540771484375,11.819945335388184,-0.2757728099822998,-0.05024927482008934
1763693273575128300,5.80312841796875,11.96590805053711,-0.4938187599182129,-0.1052841991186142
1763693273584715000,5.812715087890625,11.185548782348633,-0.8982058167457581,0.09571290761232376
1763693273594301000,5.822301025390625,11.549257278442383,-0.9795617461204529,-0.1866401731967926
1763693273603887400,5.831887451171875,12.164511680603027,-0.6230311989784241,-0.43579283356666565
1763693273613474800,5.841474853515625,11.898908615112305,-0.24945175647735596,-0.4573282301425934
1763693273623061500,5.8510615234375,11.80319595336914,-0.05802594870328903,-0.6391827464103699
1763693273632647400,5.8606474609375,11.858230590820312,0.10498509556055069,-0.8237292170524597
1763693273642234000,5.870234130859375,11.544471740722656,0.16480566561222076,-1.1012966632843018
1763693273651821300,5.8798212890625,11.793624877929688,0.6170491576194763,-1.745265007019043
1763693273661408000,5.889407958984375,11.3147611618042,0.6891329288482666,-2.4323041439056396
1763693273670994000,5.898993896484375,10.88136100769043,-0.3044866919517517,-2.0709879398345947
1763693273680580600,5.90858056640625,11.635398864746094,-0.3044866919517517,-2.1954147815704346
1763693273690168000,5.91816796875,11.987442970275879,-0.3810569941997528,-1.9489539861679077
1763693273699754500,5.92775439453125,12.327523231506348,0.09511470049619675,-2.1332013607025146
1763693273709340400,5.93734033203125,12.111869812011719,0.38733816146850586,-2.4852454662323
1763693273718927000,5.946927001953125,11.568400382995605,-0.06759724020957947,-2.872882604598999
1763693273728514600,5.9565146484375,11.226226806640625,-0.481854647397995,-2.746062994003296
1763693273738101000,5.96610107421875,11.12303638458252,-0.8264211416244507,-2.4972095489501953
1763693273747687000,5.97568701171875,11.161620140075684,-1.2741780281066895,-2.2504496574401855
1763693273757273600,5.985273681640625,11.259726524353027,-1.7434704303741455,-2.245664119720459
1763693273766861000,5.994861083984375,11.319546699523926,-2.1672990322113037,-2.3365912437438965
1763693273776447700,6.00444775390625,11.472687721252441,-2.578864574432373,-2.5953152179718018
1763693273786033400,6.014033447265625,11.410473823547363,-2.772982358932495,-2.7915267944335938
1763693273795620000,6.0236201171875,11.233405113220215,-2.938086986541748,-2.968595504760742
1763693273805207600,6.03320751953125,11.0775728225708,-3.2180473804473877,-3.208176851272583
1763693273814794200,6.042794189453125,10.467103958129883,-2.9955148696899414,-3.3996028900146484
1763693273824380000,6.0523798828125,9.758528709411621,-2.3084757328033447,-3.521636724472046
1763693273833966600,6.061966552734375,9.12413215637207,-1.4009976387023926,-3.911965847015381
1763693273843554000,6.071553955078125,8.796015739440918,-1.0636097192764282,-4.1129631996154785
1763693273853140700,6.081140625,8.106583595275879,-0.6637091636657715,-4.206582069396973
1763693273862726700,6.0907265625,7.618149280548096,-0.17527425289154053,-4.1129631996154785
1763693273872313000,6.10031298828125,7.163213729858398,0.16959130764007568,-3.8162529468536377
1763693273881900500,6.109900634765625,7.022037029266357,0.32991042733192444,-3.4857444763183594
1763693273891487200,6.1194873046875,6.854539394378662,0.5524429082870483,-3.224926710128784
1763693273901073200,6.1290732421875,6.4905314445495605,0.8159525394439697,-3.02123761177063
1763693273910659800,6.138659912109375,6.2297139167785645,1.2302099466323853,-3.0116662979125977
1763693273920247000,6.1482470703125,6.378068923950195,1.4575281143188477,-2.9374887943267822
1763693273929833700,6.157833740234375,6.485745906829834,1.4072787761688232,-3.0260233879089355
1763693273939419600,6.167419677734375,6.952645301818848,1.440778374671936,-3.1172497272491455
1763693273949006300,6.17700634765625,7.350152969360352,1.5149558782577515,-3.1316065788269043
1763693273958593800,6.18659375,7.352545738220215,1.4216357469558716,-3.3780672550201416
1763693273968180200,6.19618017578125,7.287939548492432,1.2421740293502808,-3.421138286590576
1763693273977766100,6.20576611328125,7.7114691734313965,0.9810572862625122,-3.3589248657226562
1763693273987352800,6.215352783203125,7.730611801147461,1.0432707071304321,-3.088535785675049
1763693273996940300,6.224940185546875,8.106583595275879,0.9379864931106567,-3.050250768661499
1763693274006526700,6.234526611328125,8.228617668151855,0.6457630395889282,-2.9063823223114014
1763693274016112600,6.244112548828125,8.082655906677246,0.3514458239078522,-2.341377019882202
1763693274025699300,6.25369921875,7.982157230377197,0.4543372094631195,-2.2265214920043945
1763693274035286800,6.263286865234375,7.658827304840088,0.698704183101654,-2.4777679443359375
1763693274044873500,6.27287353515625,7.345367431640625,1.43599271774292,-1.89840567111969
1763693274054459100,6.282459228515625,7.441080093383789,1.0504491329193115,-2.307877540588379
1763693274064045800,6.2920458984375,7.833802223205566,0.7561319470405579,-2.231307029724121
1763693274073633300,6.30163330078125,8.269295692443848,0.6170491576194763,-2.0159530639648438
1763693274083220000,6.311219970703125,8.46580696105957,0.6266204118728638,-2.0398812294006348
1763693274092805600,6.3208056640625,8.240582466125488,0.9092726111412048,-2.3294129371643066
1763693274102392300,6.330392333984375,7.900801181793213,1.6680965423583984,-2.6718854904174805
1763693274111979800,6.339979736328125,7.587042331695557,2.1373889446258545,-2.7269206047058105
1763693274121566500,6.34956640625,7.362117290496826,2.580360174179077,-2.8680970668792725
1763693274131152400,6.35915234375,7.632505893707275,2.8124639987945557,-3.1507492065429688
1763693274140739000,6.368739013671875,7.551149845123291,2.9204399585723877,-3.2919256687164307
1763693274150326300,6.378326171875,7.505686283111572,3.7031922340393066,-3.0355947017669678
1763693274159913000,6.387912841796875,7.749754428863525,3.8132619857788086,-3.4163525104522705
1763693274169499000,6.397498779296875,8.113762855529785,3.684049606323242,-3.528815269470215
1763693274179085600,6.40708544921875,8.3629150390625,3.61226487159729,-3.6391842365264893
1763693274188672800,6.4166728515625,8.482556343078613,3.3415768146514893,-3.6487553119659424
1763693274198259500,6.426259521484375,8.638090133666992,3.126222848892212,-3.387638568878174
1763693274207845400,6.435845458984375,8.901598930358887,2.8100709915161133,-3.08135724067688
1763693274217432000,6.44543212890625,9.02841854095459,2.522932291030884,-3.2967114448547363
1763693274227019500,6.45501953125,9.329915046691895,2.2785654067993164,-3.8856449127197266
1763693274236606000,6.46460595703125,9.926026344299316,2.2163519859313965,-4.42193603515625
1763693274246191900,6.47419189453125,10.213464736938477,2.4032912254333496,-4.891228675842285
1763693274255778600,6.483778564453125,10.050752639770508,2.666501760482788,-5.410770416259766
1763693274265366000,6.493365966796875,9.837491989135742,2.6952157020568848,-5.702694416046143
1763693274274952700,6.50295263671875,9.593423843383789,2.4750759601593018,-5.609374523162842
1763693274284538400,6.512538330078125,9.677172660827637,2.1828525066375732,-5.528018474578857
1763693274294125000,6.522125,9.81117057800293,2.000998020172119,-5.621338367462158
1763693274303712500,6.53171240234375,9.636494636535645,1.9866410493850708,-5.784050464630127
1763693274313299200,6.54129931640625,9.605388641357422,2.1230318546295166,-6.116951942443848
1763693274322884900,6.550884765625,9.449555397033691,2.1613171100616455,-6.433103561401367
1763693274332471600,6.560471435546875,9.104989051818848,2.0201404094696045,-6.674778938293457
1763693274342059000,6.57005908203125,8.959027290344238,1.349851131439209,-6.928418159484863
1763693274351645700,6.579645751953125,9.272486686706543,0.07357929646968842,-6.811169624328613
1763693274361231400,6.5892314453125,9.329915046691895,-0.26620152592658997,-6.679564476013184
1763693274370818300,6.598818359375,9.57188892364502,-0.5823532342910767,-6.7106709480285645
1763693274380405500,6.608405517578125,10.043574333190918,-0.6302096843719482,-6.686742782592773
1763693274389992200,6.6179921875,10.934002876281738,0.049651071429252625,-6.981359004974365
1763693274399578000,6.627578125,11.549257278442383,0.4854438900947571,-7.316354274749756
1763693274409164800,6.637164794921875,11.365010261535645,0.7250252366065979,-7.989036560058594
1763693274418752300,6.646752197265625,10.543673515319824,0.9308080077171326,-8.42722225189209
1763693274428338700,6.656338623046875,9.193523406982422,1.3307085037231445,-8.882157325744629
1763693274437924600,6.665924560546875,7.656434059143066,2.048854351043701,-9.09990406036377
1763693274447511300,6.67551123046875,6.6846489906311035,2.673680305480957,-8.992227554321289
1763693274457098800,6.6850986328125,6.275177478790283,2.580360174179077,-8.640183448791504
1763693274466685400,6.694685546875,6.514459609985352,1.5293127298355103,-8.305188179016113
1763693274476271000,6.70427099609375,6.713363170623779,1.9004993438720703,-7.694719314575195
1763693274485857800,6.71385791015625,7.00050163269043,0.049651071429252625,-8.00100040435791
1763693274495445200,6.7234453125,7.2472615242004395,0.3203391432762146,-6.4594244956970215
1763693274505031700,6.73303173828125,7.096214771270752,0.2629113793373108,-5.872884273529053
1763693274514617600,6.74261767578125,6.995716094970703,0.3083750307559967,-5.769693374633789
1763693274524204300,6.752204345703125,6.9119672775268555,0.6098706722259521,-5.590231895446777
1763693274533791700,6.761791748046875,6.81386137008667,0.6553342938423157,-5.609374523162842
1763693274543378400,6.77137841796875,6.636493682861328,0.729810893535614,-5.90159797668457
1763693274552964000,6.780964111328125,6.574280261993408,0.9068797826766968,-6.1695942878723145
1763693274562550800,6.79055078125,6.485745906829834,1.0001999139785767,-6.423532485961914
1763693274572138200,6.80013818359375,6.653542518615723,1.0648061037063599,-6.447460651397705
1763693274581725000,6.809724853515625,6.507281303405762,1.1940184831619263,-6.3514485359191895
1763693274591310600,6.819310546875,6.203392505645752,0.8422735929489136,-6.404090881347656
1763693274600897500,6.8288974609375,5.978168487548828,0.6481558084487915,-6.4115681648254395
1763693274610484700,6.838484619140625,5.875277042388916,0.7800601720809937,-6.6006011962890625
1763693274620071400,6.848071533203125,5.726922035217285,1.0408778190612793,-6.660421848297119
1763693274629657300,6.8576572265625,5.724529266357422,1.2613166570663452,-6.830312252044678
1763693274639244000,6.867244140625,5.791528224945068,1.464706540107727,-6.758527755737305
1763693274648831500,6.87683154296875,5.6359944343566895,1.531705617904663,-6.428318023681641
1763693274658418000,6.88641796875,5.3078789710998535,1.6034902334213257,-5.932704448699951
1763693274668003800,6.89600390625,4.939085006713867,1.6992031335830688,-5.5758748054504395
1763693274677590500,6.905590576171875,4.695017337799072,1.4623137712478638,-5.168796062469482
1763693274687178000,6.915177978515625,4.177868366241455,1.0456634759902954,-5.185545921325684
1763693274696764700,6.9247646484375,4.386044025421143,1.3402798175811768,-5.180759906768799
1763693274706350300,6.934350341796875,5.197809219360352,1.9746768474578857,-4.960620403289795
1763693274715937000,6.94393701171875,5.494519233703613,2.5109682083129883,-5.144867897033691
1763693274725524500,6.9535244140625,5.2767720222473145,3.2171499729156494,-5.278865814208984
1763693274735111000,6.96311083984375,5.3007001876831055,3.45882511138916,-5.274080276489258
1763693274744696800,6.97269677734375,5.176273345947266,1.6585252285003662,-4.622933387756348
1763693274754283500,6.982283447265625,5.116453170776367,1.9148563146591187,-5.415555953979492
1763693274763871000,6.99187109375,4.637589454650879,4.615455627441406,-6.792026996612549
1763693274773457700,7.001457763671875,4.685445785522461,5.826822280883789,-7.52931547164917
1763693274783043300,7.011043212890625,4.893621444702148,5.568098068237305,-7.438388347625732
1763693274792630000,7.020630126953125,4.46769905090332,5.209175109863281,-7.587042331695557
1763693274802217500,7.030217529296875,3.9122650623321533,4.785346031188965,-7.8693952560424805
1763693274811804200,7.03980419921875,3.8138601779937744,4.430909156799316,-8.063214302062988
1763693274821390000,7.04939013671875,3.8234314918518066,4.457230567932129,-8.233403205871582
1763693274830976500,7.0589765625,3.902693748474121,4.478765964508057,-8.398508071899414
1763693274840564000,7.06856396484375,3.828217029571533,4.067200183868408,-9.416056632995605
1763693274850150700,7.078150634765625,2.557030200958252,5.484349727630615,-10.093523979187012
1763693274859736600,7.087736572265625,3.0933215618133545,4.7973103523254395,-9.499805450439453
1763693274869323300,7.0973232421875,2.894717216491699,4.562514781951904,-9.63619613647461
1763693274878910700,7.10691064453125,2.4732813835144043,4.842773914337158,-9.38734245300293
1763693274888497200,7.1164970703125,2.059023857116699,5.024628639221191,-9.006584167480469
1763693274898083000,7.1260830078125,1.9226330518722534,5.283352375030518,-9.447162628173828
1763693274907669800,7.135669677734375,1.6474584341049194,5.407779216766357,-9.662516593933105
1763693274917257200,7.14525732421875,1.5825530290603638,5.613562107086182,-9.265308380126953
1763693274926843600,7.15484375,1.1590235233306885,5.584847927093506,-9.181260108947754
1763693274936429600,7.1644296875,1.7001005411148071,5.134698390960693,-8.5133638381958
1763693274946016300,7.174016357421875,1.5227324962615967,4.943272590637207,-8.96829891204834
1763693274955603700,7.183603759765625,1.4270195960998535,5.599205017089844,-8.927620887756348
1763693274965190400,7.1931904296875,1.1327024698257446,6.128317832946777,-8.944371223449707
1763693274974776000,7.202776123046875,1.2451651096343994,6.602396011352539,-9.1716890335083
1763693274984362800,7.21236279296875,1.5705889463424683,6.367899417877197,-9.152546882629395
1763693274993950200,7.2219501953125,2.011167526245117,6.492326259613037,-9.684052467346191
1763693275003537000,7.231536865234375,2.7870402336120605,6.616752624511719,-10.306485176086426
1763693275013122600,7.24112255859375,3.495614767074585,6.68853759765625,-10.708778381347656
1763693275022709200,7.250709228515625,3.6320056915283203,6.837191581726074,-10.79013442993164
1763693275032296700,7.260296630859375,3.7827534675598145,6.846762657165527,-10.656136512756348
1763693275041883400,7.26988330078125,3.8907296657562256,6.729215621948242,-10.562816619873047
1763693275051469300,7.27946923828125,3.8835511207580566,6.406184196472168,-10.378568649291992
1763693275061056000,7.289055908203125,3.84765887260437,5.910571098327637,-10.376175880432129
1763693275070643200,7.298643310546875,3.565006732940674,5.3694939613342285,-10.34028434753418
1763693275080230000,7.30822998046875,3.3209388256073,4.814060211181641,-10.282557487487793
1763693275089815800,7.31781591796875,3.11246395111084,4.330410957336426,-10.088738441467285
1763693275099402500,7.327402587890625,2.7942185401916504,4.119842529296875,-9.535696983337402
1763693275108990000,7.336989990234375,2.425424814224243,4.1389851570129395,-8.72901725769043
1763693275118576400,7.346576416015625,2.066202402114868,4.038486480712891,-7.917252063751221
1763693275128162300,7.356162353515625,2.1164517402648926,3.5979080200195312,-7.3283185958862305
1763693275137749000,7.3657490234375,1.848455548286438,3.64337158203125,-7.2182488441467285
1763693275147336400,7.37533642578125,1.6354942321777344,3.6409788131713867,-6.8279194831848145
1763693275156923000,7.3849228515625,1.261914849281311,3.387040376663208,-6.62931489944458
1763693275166508800,7.3945087890625,1.0657033920288086,2.8674988746643066,-6.698707103729248
1763693275176095500,7.404095458984375,1.048953652381897,2.283350944519043,-6.9068827629089355
1763693275185683000,7.413682861328125,1.0992028713226318,1.5532410144805908,-7.378567695617676
1763693275195269600,7.42326953125,1.084846019744873,0.8805587291717529,-7.756932735443115
1763693275204855300,7.432855224609375,1.1805589199066162,0.6242275834083557,-7.996214866638184
1763693275214442000,7.44244189453125,1.3217353820800781,0.9379864931106567,-8.101798057556152
1763693275224029400,7.452029541015625,1.293021559715271,1.5197415351867676,-8.097012519836426
1763693275233616100,7.4616162109375,1.2810574769973755,2.0895323753356934,-7.716254711151123
1763693275243202000,7.4712021484375,1.4246268272399902,2.388934373855591,-7.026822566986084
1763693275252788700,7.480788818359375,1.7527425289154053,2.3793630599975586,-6.4666032791137695
1763693275262376000,7.4903759765625,2.181356906890869,2.1230318546295166,-6.195915222167969
1763693275271962600,7.499962646484375,2.3512473106384277,1.7255241870880127,-6.004489421844482
1763693275281548500,7.509548583984375,2.3895325660705566,1.617847204208374,-6.064310073852539
1763693275291135200,7.51913525390625,2.683849811553955,1.5699907541275024,-6.049952983856201
1763693275300722700,7.52872265625,2.9904301166534424,1.4503495693206787,-6.112166404724121
1763693275310309000,7.53830908203125,3.2129626274108887,1.3618152141571045,-6.047560214996338
1763693275319895000,7.54789501953125,3.529114246368408,1.1437692642211914,-6.210271835327148
1763693275329481700,7.557481689453125,3.8162529468536377,0.9044869542121887,-6.305984973907471
1763693275339069200,7.567069091796875,4.000799655914307,0.8039883971214294,-6.260521411895752
1763693275348655600,7.576655517578125,4.156332969665527,0.7896314859390259,-6.186343669891357
1763693275358241500,7.586241455078125,4.194618225097656,0.8327022790908813,-5.982954025268555
1763693275367828200,7.595828125,4.216153621673584,0.9643075466156006,-5.745765209197998
1763693275377415700,7.605415771484375,4.223331928253174,1.349851131439209,-5.721837043762207
1763693275387002400,7.61500244140625,4.424628257751465,1.581954836845398,-5.700301647186279
1763693275396588000,7.624588134765625,4.635196685791016,1.4694921970367432,-5.669195175170898
1763693275406174700,7.6341748046875,5.047060966491699,1.191625714302063,-5.666802406311035
1763693275415762200,7.64376220703125,5.3557353019714355,1.0289137363433838,-5.846263885498047
1763693275425348900,7.653348876953125,5.525625705718994,0.9427721500396729,-6.1002020835876465
1763693275434934800,7.662934814453125,5.750850200653076,0.7704889178276062,-6.327520370483398
1763693275444521500,7.672521484375,6.018846035003662,0.5189434289932251,-6.5766730308532715
1763693275454108700,7.682108642578125,6.40438985824585,0.25812575221061707,-6.990930557250977
1763693275463695400,7.6916953125,6.902396202087402,0.01615155301988125,-7.445566654205322
1763693275473281300,7.70128125,7.1249284744262695,-0.14416755735874176,-7.761718273162842
1763693275482868000,7.710867919921875,7.285546779632568,-0.13459627330303192,-7.816753387451172
1763693275492455400,7.720455322265625,7.405188083648682,-0.014955141581594944,-7.740182876586914
1763693275502041900,7.730041748046875,7.486543655395508,-0.01734796352684498,-7.615756034851074
1763693275511627800,7.739627685546875,7.541578769683838,-0.20159530639648438,-7.551149845123291
1763693275521214500,7.74921435546875,7.680362701416016,-0.5775675773620605,-7.642077445983887
1763693275530802000,7.758802001953125,7.893622875213623,-1.1617153882980347,-7.974679470062256
1763693275540388600,7.768388671875,8.0922269821167,-1.7650058269500732,-8.477471351623535
1763693275549974300,7.777974365234375,8.319544792175293,-2.152942180633545,-9.006584167480469
1763693275559561000,7.78756103515625,8.592626571655273,-2.296511650085449,-9.4088773727417
1763693275569148400,7.7971484375,8.791230201721191,-2.3850460052490234,-9.588339805603027
1763693275578735000,7.806735107421875,8.970991134643555,-2.624328136444092,-9.674481391906738
1763693275588320800,7.81632080078125,9.102596282958984,-2.9955148696899414,-9.777671813964844
1763693275597907500,7.825907470703125,9.088239669799805,-3.3882367610931396,-9.856635093688965
1763693275607495000,7.835494873046875,8.978169441223145,-3.7806596755981445,-9.937990188598633
1763693275617081600,7.84508154296875,8.824729919433594,-4.025026798248291,-10.098309516906738
1763693275626667500,7.85466748046875,8.772088050842285,-4.084847450256348,-10.316056251525879
1763693275636254200,7.864254150390625,8.740981101989746,-4.015455722808838,-10.54845905303955
1763693275645841400,7.87384130859375,8.788837432861328,-3.9197425842285156,-10.768599510192871
1763693275655428000,7.883427978515625,8.784051895141602,-3.8407795429229736,-10.897811889648438
1763693275665014000,7.893013916015625,8.642875671386719,-3.8407795429229736,-10.919646263122559
1763693275674600700,7.9026005859375,8.343772888183594,-3.7782669067382812,-10.802098274230957
1763693275684188200,7.912188232421875,7.955836296081543,-3.656233072280884,-10.567602157592773
1763693275693774600,7.921774658203125,7.642077445983887,-3.6610186100006104,-10.330413818359375
1763693275703360500,7.931360595703125,7.4506516456604,-3.8189449310302734,-10.129416465759277
1763693275712947200,7.940947265625,7.366902828216553,-4.103990077972412,-9.947562217712402
1763693275722534700,7.95053466796875,7.287939548492432,-4.389034748077393,-9.734301567077637
1763693275732121300,7.960121337890625,7.218547821044922,-4.635495662689209,-9.550054550170898
1763693275741707000,7.96970703125,7.134500026702881,-4.8675994873046875,-9.23898696899414
1763693275751293700,7.979293701171875,7.022037029266357,-4.96839714050293,-8.872586250305176
1763693275760881200,7.988881103515625,6.864110946655273,-4.872385025024414,-8.41286563873291
1763693275770467800,7.9984677734375,6.670292377471924,-4.649852752685547,-7.965108394622803
1763693275780053500,8.008053466796875,6.416353702545166,-4.293023109436035,-7.483851909637451
1763693275789640200,8.01764013671875,6.042774677276611,-3.8503506183624268,-7.034001350402832
1763693275799227600,8.0272275390625,5.769992828369141,-3.3643085956573486,-6.782455921173096
1763693275808814300,8.036814453125,5.585745334625244,-2.8998019695281982,-6.662814617156982
1763693275818400300,8.046400146484375,5.525625705718994,-2.485544443130493,-6.540780544281006
1763693275827987000,8.055987060546874,5.487340450286865,-2.200798511505127,-6.291627883911133
1763693275837574100,8.06557421875,5.405984401702881,-2.0090737342834473,-6.028417587280273
1763693275847160800,8.075160888671874,5.281557559967041,-1.9037895202636719,-5.650052547454834
1763693275856746800,8.084746826171875,5.18823766708374,-1.8918254375457764,-5.2166523933410645
1763693275866333400,8.09433349609375,5.051846981048584,-1.9013967514038086,-4.771587371826172
1763693275875921000,8.1039208984375,4.891228675842285,-1.9348962306976318,-4.333401679992676
1763693275885507600,8.113507568359376,4.747659206390381,-2.068894386291504,-4.031607151031494
1763693275895093200,8.12309326171875,4.649553298950195,-2.3156540393829346,-3.8856449127197266
1763693275904680000,8.132679931640626,4.513162612915039,-2.547757863998413,-3.79471755027771
1763693275914267400,8.142267333984375,4.304687976837158,-2.6985056400299072,-3.6870405673980713
1763693275923853800,8.151853759765626,4.182653903961182,-2.8375885486602783,-3.653541088104248
1763693275933439700,8.161439697265624,4.194618225097656,-3.1701908111572266,-3.8234314918518066
1763693275943026400,8.1710263671875,4.237689018249512,-3.5030922889709473,-4.1129631996154785
1763693275952614000,8.18061376953125,4.304687976837158,-3.728017568588257,-4.357329845428467
1763693275962200600,8.19020068359375,4.266402721405029,-3.8503506183624268,-4.60857629776001
1763693275971786500,8.199786376953124,4.156332969665527,-3.751945972442627,-4.800301551818848
1763693275981373000,8.209373046875,4.074976921081543,-3.507878065109253,-4.898406982421875
1763693275990960400,8.21896044921875,4.110869407653809,-3.280559778213501,-4.960620403289795
1763693276000547000,8.228547119140625,4.314259052276611,-3.1079776287078857,-4.970191955566406
1763693276010133000,8.238133056640624,4.525126934051514,-3.0050861835479736,-4.886443138122559
1763693276019719700,8.2477197265625,4.718945503234863,-2.9907290935516357,-4.960620403289795
1763693276029307000,8.257306884765624,4.934299468994141,-3.0912277698516846,-5.221437931060791
1763693276038893600,8.2668935546875,5.260022163391113,-3.3786656856536865,-5.592624664306641
1763693276048479500,8.2764794921875,5.7771711349487305,-3.7663028240203857,-6.033203125
1763693276058066200,8.286066162109375,6.385247230529785,-4.24995231628418,-6.4905314445495605
1763693276067653600,8.295653564453126,6.909574508666992,-4.716851711273193,-6.935596466064453
1763693276077240300,8.305240234375,7.319046497344971,-5.102395057678223,-7.309175968170166
1763693276086826000,8.314825927734375,7.670791149139404,-5.351248741149902,-7.5942206382751465
1763693276096412700,8.32441259765625,7.943871974945068,-5.353641510009766,-7.744968891143799
1763693276106000100,8.334000244140626,7.965407371520996,-4.994718074798584,-7.689933776855469
1763693276115586800,8.3435869140625,7.874480247497559,-4.649852752685547,-7.613363265991211
1763693276125172500,8.35317236328125,7.867301940917969,-4.491926193237305,-7.558328628540039
1763693276134759200,8.36275927734375,7.9845499992370605,-4.376771926879883,-7.565506935119629
1763693276144346600,8.3723466796875,8.166404724121094,-4.4512481689453125,-7.642077445983887
1763693276153933300,8.381933349609374,8.551948547363281,-4.625924587249756,-7.785646915435791
1763693276163519200,8.391519287109375,8.915956497192383,-4.771886348724365,-7.9005022048950195
1763693276173106000,8.40110595703125,9.136096000671387,-4.84606409072876,-7.991429328918457
1763693276182693400,8.410693359375,9.289237022399902,-4.934598445892334,-8.056035995483398
1763693276192279800,8.42027978515625,9.272486686706543,-4.966004371643066,-8.097012519836426
1763693276201865700,8.42986572265625,9.14566707611084,-4.989932537078857,-8.152048110961914
1763693276211452400,8.439452392578126,9.191130638122559,-5.111966609954834,-8.274081230163574
1763693276221039900,8.449039794921875,9.35623550415039,-5.3368916511535645,-8.365009307861328
1763693276230626300,8.458626220703126,9.416056632995605,-5.660222053527832,-8.422436714172363
1763693276240212200,8.468212158203125,9.483354568481445,-6.01675271987915,-8.585148811340332
1763693276249799000,8.477798828125,9.531210899353027,-6.452545166015625,-8.726624488830566
1763693276259386400,8.487386474609375,9.538389205932617,-6.658627033233643,-8.93240737915039
1763693276268973000,8.49697314453125,9.39452075958252,-6.483652114868164,-9.111868858337402
1763693276278558700,8.506558837890625,8.980562210083008,-5.959324836730957,-9.142974853515625
1763693276288145400,8.5161455078125,8.271688461303711,-5.071288585662842,-8.980263710021973
1763693276297732900,8.52573291015625,7.515257835388184,-4.35045051574707,-8.731410026550293
1763693276307319600,8.535319580078125,6.952645301818848,-3.993920087814331,-8.508578300476074
1763693276316905200,8.5449052734375,6.638886451721191,-4.0776686668396,-8.336295127868652
1763693276326492200,8.5544921875,6.550352096557617,-4.463212490081787,-8.128119468688965
1763693276336079400,8.564079345703124,6.492924213409424,-4.9516472816467285,-7.867002487182617
1763693276345666000,8.573666015625,6.385247230529785,-5.437390327453613,-7.608577728271484
1763693276355252000,8.583251953125,6.2536420822143555,-5.882754325866699,-7.395317554473877
1763693276364838700,8.592838623046875,6.184250354766846,-6.311368942260742,-7.321139812469482
1763693276374426000,8.602426025390624,6.006882190704346,-6.661019802093506,-7.4001030921936035
1763693276384012500,8.612012451171875,5.7771711349487305,-6.850052833557129,-7.474280834197998
1763693276393598500,8.621598388671876,5.540281772613525,-6.919445037841797,-7.519744396209717
1763693276403185200,8.63118505859375,5.327021598815918,-6.943373203277588,-7.52931547164917
1763693276412772600,8.640772705078126,5.176273345947266,-7.000801086425781,-7.534400463104248
1763693276422359000,8.650359130859375,5.114060401916504,-7.086942672729492,-7.596613883972168
1763693276431945000,8.659945068359375,5.200201988220215,-7.187440872192383,-7.716254711151123
1763693276441531600,8.66953173828125,5.262415409088135,-7.05344295501709,-7.692326545715332
1763693276451119000,8.679119140625,5.18105936050415,-6.701697826385498,-7.488637447357178
1763693276460705800,8.688705810546875,4.987240791320801,-6.20847749710083,-7.177570819854736
1763693276470291700,8.698291748046875,4.800301551818848,-5.746363639831543,-6.820741176605225
1763693276479878100,8.707878173828124,4.66151762008667,-5.3608198165893555,-6.430710792541504
1763693276489465600,8.717465576171875,4.539483547210693,-5.097609519958496,-6.073881149291992
1763693276499052300,8.72705224609375,4.4150567054748535,-4.893920421600342,-5.729015827178955
1763693276508638200,8.73663818359375,4.3070807456970215,-4.659423828125,-5.43709135055542
1763693276518225000,8.746224853515624,4.1730828285217285,-4.489533424377441,-5.12811803817749
1763693276527812000,8.75581201171875,3.91705060005188,-4.364807605743408,-4.6995038986206055
1763693276537398800,8.765398681640624,3.6870405673980713,-4.2260236740112305,-4.299902439117432
1763693276546984700,8.774984619140625,3.5410783290863037,-4.149453639984131,-4.132105827331543
1763693276556571400,8.7845712890625,3.78753924369812,-4.269094467163086,-4.18983268737793
1763693276566158800,8.794158935546875,3.842574119567871,-4.383950233459473,-4.0435709953308105
1763693276575745500,8.80374560546875,3.6870405673980713,-4.338486671447754,-3.835395574569702
1763693276585331200,8.813331298828125,3.5937204360961914,-4.336093902587891,-3.6966118812561035
1763693276594918000,8.82291796875,3.6032917499542236,-4.4751763343811035,-3.5431721210479736
1763693276604505300,8.83250537109375,3.6511483192443848,-4.59721040725708,-3.397209882736206
1763693276614092000,8.842092041015626,3.5219359397888184,-4.515854358673096,-3.2105698585510254
1763693276623677700,8.851677734375,3.2874391078948975,-4.326522350311279,-2.9303104877471924
1763693276633264400,8.861264404296875,3.1579277515411377,-4.18773889541626,-2.6886353492736816
1763693276642851800,8.870851806640625,3.01196551322937,-4.039383888244629,-2.659921407699585
1763693276652438500,8.8804384765625,2.8971099853515625,-3.7974095344543457,-2.427518606185913
1763693276662024400,8.8900244140625,3.13639235496521,-3.8934216499328613,-2.3988046646118164
1763693276690785000,8.918784912109375,3.5721850395202637,-4.858027935028076,-3.2105698585510254
1763693276700371000,8.928370849609376,3.699004650115967,-5.341677665710449,-3.5359935760498047
1763693276709957600,8.93795751953125,3.746861219406128,-5.763113498687744,-3.8210387229919434
1763693276719545000,8.947545166015624,3.81864595413208,-6.158228397369385,-4.077070713043213
1763693276729131500,8.957131591796875,4.0079779624938965,-6.632306098937988,-4.35254430770874
1763693276738717400,8.966717529296876,4.29033088684082,-7.048657417297363,-4.622933387756348
1763693276748304100,8.97630419921875,4.465306282043457,-7.180262565612793,-4.802694320678711
1763693276757891600,8.9858916015625,4.465306282043457,-7.10847806930542,-4.907978534698486
1763693276767478300,8.995478271484375,4.35254430770874,-7.094120979309082,-4.951049327850342
1763693276777064000,9.00506396484375,4.510769844055176,-7.036693096160889,-5.00369119644165
1763693276786650600,9.014650634765625,4.7596235275268555,-6.883552551269531,-5.075475692749023
1763693276796238000,9.024238037109376,5.082953453063965,-6.763911247253418,-5.226223945617676
1763693276805824800,9.03382470703125,5.5331034660339355,-6.732804775238037,-5.386841773986816
1763693276815410700,9.04341064453125,5.939883232116699,-6.823731899261475,-5.432305812835693
1763693276824997400,9.052997314453124,6.382854461669922,-6.976872444152832,-5.487340450286865
1763693276834584800,9.062584716796875,6.868896484375,-7.211668491363525,-5.616552829742432
1763693276844171300,9.072171142578124,7.371688365936279,-7.422236919403076,-5.726622581481934
1763693276853757200,9.081757080078125,7.826623916625977,-7.733303546905518,-5.807978630065918
1763693276863343900,9.09134375,8.231010437011719,-8.011170387268066,-5.880062580108643
1763693276872931300,9.100931396484375,8.468199729919434,-8.264809608459473,-6.009274959564209
1763693276882517800,9.110517822265624,8.642875671386719,-8.540283203125,-6.181558132171631
1763693276892103700,9.120103759765625,8.669196128845215,-8.714959144592285,-6.260521411895752
1763693276901690400,9.1296904296875,8.475378036499023,-8.698209762573242,-6.301199436187744
1763693276911277800,9.13927783203125,8.252546310424805,-8.511569023132324,-6.430710792541504
1763693276920864500,9.148864501953126,7.929515361785889,-8.123632431030273,-6.653243541717529
1763693276930450200,9.1584501953125,7.57507848739624,-7.735696315765381,-6.744170665740967
1763693276940036900,9.168036865234376,7.39561653137207,-7.446165084838867,-6.81595516204834
1763693276949624300,9.177624267578125,7.338188648223877,-7.271489143371582,-6.911668300628662
1763693276959211000,9.1872109375,7.390830993652344,-7.367201805114746,-6.945167541503906
1763693276968797000,9.196796875,7.4602227210998535,-7.58016300201416,-6.842276573181152
1763693276978383600,9.206383544921875,7.474579811096191,-7.71176815032959,-6.626922130584717
1763693276987971000,9.21597119140625,7.445865631103516,-7.752446174621582,-6.464210510253906
1763693276997557500,9.2255576171875,7.500900745391846,-7.829315662384033,-6.440282344818115
1763693277007143400,9.235143310546874,7.666005611419678,-7.934599876403809,-6.449853420257568
1763693277016730000,9.244730224609375,7.855337619781494,-8.01356315612793,-6.356234073638916
1763693277026317600,9.254317626953124,8.030014038085938,-7.95134973526001,-6.308377742767334
1763693277035904300,9.263904296875,8.094619750976562,-7.663911819458008,-6.1241302490234375
1763693277045490000,9.273489990234374,7.989335536956787,-7.10847806930542,-5.877669811248779
1763693277055076600,9.28307666015625,7.781160354614258,-6.371189594268799,-5.659623622894287
1763693277064664000,9.2926640625,7.51286506652832,-5.650650501251221,-5.370092391967773
1763693277074250800,9.302250732421875,7.242475986480713,-4.958825588226318,-5.030012130737305
1763693277083836400,9.31183642578125,6.955038070678711,-4.240380764007568,-4.689932346343994
1763693277093423000,9.321423095703125,6.605386734008789,-3.651447296142578,-4.426722049713135
1763693277103010600,9.331010498046876,6.354140758514404,-3.25872540473938,-4.295116424560547
1763693277112597200,9.34059716796875,6.100501537322998,-3.141477108001709,-4.280759811401367
1763693277122183200,9.35018310546875,5.913562297821045,-3.0433712005615234,-4.297509670257568
1763693277131769900,9.359769775390625,5.710172176361084,-3.0433712005615234,-4.335794448852539
1763693277141357300,9.369357421875,5.5498528480529785,-3.2228329181671143,-4.357329845428467
1763693277150943700,9.37894384765625,5.405984401702881,-3.4983067512512207,-4.292723655700684
1763693277160529700,9.38852978515625,5.212165832519531,-3.768695592880249,-4.177868366241455
1763693277170116400,9.398116455078124,4.9175496101379395,-3.9484565258026123,-3.990929126739502
1763693277179703800,9.407703857421875,4.637589454650879,-4.118346691131592,-3.7683966159820557
1763693277189290200,9.417290283203124,4.450949192047119,-4.304986953735352,-3.57906436920166
1763693277198876200,9.426876220703125,4.362115859985352,-4.484747886657715,-3.545564889907837
1763693277208462800,9.436462890625,4.376472473144531,-4.680959224700928,-3.6511483192443848
1763693277218050300,9.44605029296875,4.462913513183594,-4.913063049316406,-3.8377883434295654
1763693277227637000,9.455636962890624,4.575376033782959,-5.102395057678223,-4.1057844161987305
1763693277237222700,9.46522265625,4.73090934753418,-5.198108196258545,-4.381258487701416
1763693277246809300,9.474809326171876,4.876871585845947,-5.205286502838135,-4.711467742919922
1763693277256396800,9.484396728515625,5.121238708496094,-5.1789655685424805,-5.022833824157715
1763693277265983500,9.4939833984375,5.295914649963379,-5.088038444519043,-5.31984281539917
1763693277275569400,9.5035693359375,5.434698581695557,-4.977968215942383,-5.508875846862793
1763693277285156000,9.513156005859376,5.7771711349487305,-5.004289627075195,-5.697908878326416
1763693277294743600,9.52274365234375,6.16271448135376,-5.193322658538818,-5.817550182342529
1763693277304330000,9.532330078125,6.507281303405762,-5.4541401863098145,-5.906383514404297
1763693277313916000,9.541916015625,6.856932163238525,-5.767899036407471,-5.896812438964844
1763693277323502600,9.551502685546875,7.167999267578125,-5.988038539886475,-5.9566330909729
1763693277333090000,9.561090087890625,7.4123663902282715,-6.0768723487854,-6.126523494720459
1763693277342676700,9.5706767578125,7.620542049407959,-6.122335910797119,-6.236593246459961
1763693277352262400,9.580262451171874,7.7353973388671875,-6.064609050750732,-6.2174506187438965
1763693277361849000,9.58984912109375,7.7353973388671875,-5.873183250427246,-6.114559173583984
1763693277371436500,9.5994365234375,7.699504852294922,-5.650650501251221,-6.09541654586792
1763693277381023200,9.609023193359375,7.697112083435059,-5.49721097946167,-6.148058891296387
1763693277390609200,9.618609130859374,7.776374340057373,-5.411069393157959,-6.234200477600098
1763693277400195600,9.628195556640625,7.788338661193848,-5.396712303161621,-6.380162239074707
1763693277409783000,9.637782958984374,7.848159313201904,-5.480461120605469,-6.509674072265625
1763693277419369700,9.64736962890625,7.915158271789551,-5.68893575668335,-6.6245293617248535
1763693277428955600,9.65695556640625,7.958229064941406,-5.937789440155029,-6.679564476013184
1763693277438542300,9.666542236328125,7.941479206085205,-6.158228397369385,-6.689135551452637
1763693277448129800,9.6761298828125,7.805088520050049,-6.375975131988525,-6.674778938293457
1763693277457716200,9.68571630859375,7.7593255043029785,-6.706483840942383,-6.7417778968811035
1763693277467302100,9.69530224609375,7.872087478637695,-7.173084259033203,-6.882954120635986
1763693277476888800,9.704888916015625,8.152048110961914,-7.6136627197265625,-7.014858722686768
1763693277486476300,9.714476318359376,8.350951194763184,-7.8628153800964355,-7.167999267578125
1763693277496062700,9.724062744140625,8.429914474487305,-7.982456207275391,-7.206284523010254
1763693277505648600,9.733648681640625,8.434700012207031,-8.078168869018555,-7.232605457305908
1763693277515235300,9.7432353515625,8.360522270202637,-8.219346046447754,-7.287640571594238
1763693277524822800,9.75282275390625,8.204689979553223,-8.312665939331055,-7.313961505889893
1763693277534409500,9.762409423828124,7.8888373374938965,-8.221738815307617,-7.299604415893555
1763693277543995400,9.771995361328125,7.486543655395508,-7.9489569664001465,-7.1488566398620605
1763693277553581800,9.781581787109374,6.976573467254639,-7.6064839363098145,-6.961917400360107
1763693277563169300,9.791169189453125,6.457031726837158,-7.403094291687012,-6.799205780029297
1763693277572756000,9.800755859375,6.02602481842041,-7.422236919403076,-6.6484575271606445
1763693277582342000,9.810341796875,5.7221360206604,-7.620841026306152,-6.583851337432861
1763693277591928600,9.819928466796876,5.585745334625244,-7.874779224395752,-6.591030120849609
1763693277601516000,9.82951611328125,5.511268615722656,-8.140382766723633,-6.643671989440918
1763693277611102500,9.8391025390625,5.422734260559082,-8.573782920837402,-6.512066841125488
1763693277620688400,9.8486884765625,5.518447399139404,-8.882756233215332,-6.67717170715332
1763693277630275000,9.858275146484376,5.6359944343566895,-9.236893653869629,-6.780063152313232
1763693277639862500,9.867862548828125,5.518447399139404,-9.277571678161621,-6.820741176605225
1763693277649449000,9.877448974609376,5.3246283531188965,-9.193822860717773,-6.6939215660095215
1763693277659035000,9.887034912109375,5.042275428771973,-9.000003814697266,-6.526423931121826
1763693277668621600,9.89662158203125,4.860121726989746,-8.492426872253418,-6.317949295043945
1763693277678209000,9.906208984375,4.946263313293457,-8.487641334533691,-6.109773635864258
1763693277687795700,9.915795654296875,4.659124851226807,-8.298309326171875,-5.944668769836426
1763693277697381600,9.925381591796874,4.364508628845215,-8.047062873840332,-5.750551223754883
1763693277706968300,9.93496826171875,4.1419758796691895,-7.786244869232178,-5.633302688598633
1763693277716555800,9.9445556640625,3.964907169342041,-7.515556812286377,-5.592624664306641
1763693277726142200,9.95414208984375,3.9672999382019043,-7.316952705383301,-5.5998029708862305
1763693277735728000,9.96372802734375,3.864408493041992,-7.1132636070251465,-5.597410202026367
1763693277745314800,9.973314697265625,3.7253258228302,-6.869195461273193,-5.549553871154785
1763693277754902300,9.98290234375,3.567399501800537,-6.555436611175537,-5.4418768882751465
1763693277764489000,9.992489013671875,3.3951163291931152,-6.263512134552002,-5.346164226531982
1763693277774074600,10.00207470703125,3.361616611480713,-6.0502519607543945,-5.197509765625
1763693277783661300,10.011661376953125,3.2970104217529297,-5.873183250427246,-5.051547527313232
1763693277793248800,10.021248779296876,3.1794631481170654,-5.732006549835205,-4.8074798583984375
1763693277802835500,10.03083544921875,3.1339993476867676,-5.624329566955566,-4.524827480316162
1763693277812421000,10.040421142578126,3.0837502479553223,-5.526223659515381,-4.309473514556885
1763693277822008000,10.050008056640625,3.088535785675049,-5.42781925201416,-4.1659040451049805
1763693277831595300,10.05959521484375,3.0789644718170166,-5.3440704345703125,-4.0435709953308105
1763693277841182000,10.069181884765625,3.1148569583892822,-5.257928848266602,-3.969393730163574
1763693277850768000,10.078767822265625,3.0957143306732178,-5.193322658538818,-3.88803768157959
1763693277860354600,10.0883544921875,3.0311081409454346,-5.102395057678223,-3.7301113605499268
1763693277869942000,10.09794189453125,2.9593234062194824,-4.96121883392334,-3.5910286903381348
1763693277879528400,10.107528564453125,2.9210381507873535,-4.822135925292969,-3.476173162460327
1763693277889114400,10.1171142578125,2.9617161750793457,-4.724030017852783,-3.3948171138763428
1763693277898701000,10.126701171875,3.0287153720855713,-4.606781959533691,-3.294318675994873
1763693277908288500,10.13628857421875,2.9928228855133057,-4.424927234649658,-3.222533941268921
1763693277917875200,10.145875244140624,2.98085880279541,-4.2571306228637695,-3.1148569583892822
1763693277927460900,10.1554609375,3.0215368270874023,-4.137489318847656,-3.050250768661499
1763693277937047600,10.165047607421876,3.11246395111084,-4.1398820877075195,-3.01405930519104
1763693277946635000,10.174635009765625,3.277568817138672,-4.340879440307617,-3.0260233879089355
1763693277956221700,10.1842216796875,3.5147573947906494,-4.6163530349731445,-3.1244282722473145
1763693277965807600,10.1938076171875,3.7037904262542725,-4.889134883880615,-3.2656047344207764
1763693277975394300,10.203394287109376,3.9696927070617676,-5.121537685394287,-3.4163525104522705
1763693277984981800,10.212981689453125,4.125226020812988,-5.346463203430176,-3.6391842365264893
1763693277994568200,10.222568115234376,4.292723655700684,-5.588437080383301,-3.85693097114563
1763693278004154000,10.232154052734375,4.54426908493042,-5.935396671295166,-4.067499160766602
1763693278013740800,10.24174072265625,4.7835516929626465,-6.258726596832275,-4.237689018249512
1763693278023328300,10.251328369140625,4.915156841278076,-6.498009204864502,-4.321437835693359
1763693278032915000,10.2609150390625,4.91037130355835,-6.6969122886657715,-4.433900356292725
1763693278042500600,10.27050048828125,4.8314080238342285,-6.787839412689209,-4.642076015472412
1763693278052087300,10.28008740234375,4.817050933837891,-6.871588230133057,-4.891228675842285
1763693278061674800,10.2896748046875,5.068596363067627,-7.015157699584961,-5.111368179321289
1763693278071261400,10.299261474609375,5.43709135055542,-7.1973114013671875,-5.295914649963379
1763693278080847000,10.30884716796875,5.717350482940674,-7.371987342834473,-5.434698581695557
1763693278090434000,10.31843408203125,5.923133373260498,-7.5203423500061035,-5.5758748054504395
1763693278100021200,10.328021240234374,6.100501537322998,-7.759923934936523,-5.712265968322754
1763693278109608000,10.33760791015625,6.308676719665527,-8.032705307006836,-5.776872158050537
1763693278119193900,10.34719384765625,6.531209468841553,-8.195417404174805,-5.709873199462891
1763693278128780500,10.356780517578125,6.631708145141602,-8.32971477508545,-5.657230854034424
1763693278138368000,10.366367919921874,6.761219501495361,-8.628817558288574,-5.688337802886963
1763693278147954400,10.375954345703125,6.878467559814453,-9.004789352416992,-5.803193092346191
1763693278157540400,10.385540283203126,6.974180698394775,-9.275178909301758,-5.9901323318481445
1763693278167127000,10.395126953125,6.976573467254639,-9.31585693359375,-6.126523494720459
1763693278176714500,10.404714599609376,6.859325408935547,-9.05264663696289,-6.272485256195068
1763693278186301200,10.41430126953125,6.689435005187988,-8.614460945129395,-6.389733791351318
1763693278205473500,10.4334736328125,6.449853420257568,-7.663911819458008,-6.55992317199707
1763693278215061000,10.44306103515625,6.361319065093994,-7.312166690826416,-6.579065799713135
1763693278224647700,10.452647705078125,6.299105644226074,-7.106084823608398,-6.564708709716797
1763693278234233600,10.462233642578125,6.282355785369873,-7.1228346824646,-6.464210510253906
1763693278243820300,10.4718203125,6.308676719665527,-7.29302453994751,-6.372983932495117
1763693278253407700,10.48140771484375,6.344569206237793,-7.460521697998047,-6.279664039611816
1763693278262994200,10.490994140625,6.3732829093933105,-7.668697357177734,-6.21984338760376
1763693278272580000,10.500580078125,6.4354963302612305,-7.8795647621154785,-6.215057849884033
1763693278282166800,10.510166748046874,6.485745906829834,-8.025527000427246,-6.238986015319824
1763693278291754200,10.519754150390625,6.574280261993408,-8.171489715576172,-6.294020652770996
1763693278301341000,10.5293408203125,6.67507791519165,-8.305487632751465,-6.3753767013549805
1763693278310926600,10.538926513671875,6.663113594055176,-8.300702095031738,-6.473781585693359
1763693278320513300,10.54851318359375,6.569494724273682,-8.094919204711914,-6.452246189117432
1763693278330100700,10.558100830078125,6.354140758514404,-7.69741153717041,-6.27487850189209
1763693278339687400,10.5676875,6.066702842712402,-7.2212395668029785,-6.1073808670043945
1763693278349273300,10.5772734375,5.844170093536377,-6.7351975440979,-5.975775241851807
1763693278358860000,10.586860107421876,5.626423358917236,-6.21565580368042,-5.882455348968506
1763693278368447200,10.596447265625,5.377270698547363,-5.662614822387695,-5.757729530334473
1763693278378034000,10.606033935546876,5.1427741050720215,-5.114359378814697,-5.592624664306641
1763693278387619800,10.615619873046874,4.955834865570068,-4.6402812004089355,-5.405984401702881
1763693278397206500,10.62520654296875,4.764409065246582,-4.199702739715576,-5.214259624481201
1763693278406794000,10.6347939453125,4.604089736938477,-3.8455650806427,-5.039583683013916
1763693278416380400,10.64438037109375,4.453341960906982,-3.5988051891326904,-4.888835906982422
1763693278425966300,10.65396630859375,4.410271167755127,-3.524627685546875,-4.826622486114502
1763693278435553000,10.663552978515625,4.482056140899658,-3.6370904445648193,-4.843372344970703
1763693278445140500,10.673140380859374,4.60648250579834,-3.852743625640869,-4.8792643547058105
1763693278454727200,10.68272705078125,4.757230281829834,-4.0776686668396,-4.946263313293457
1763693278464312800,10.692312744140626,4.884049892425537,-4.259523391723633,-4.974977493286133
1763693278473899800,10.701899658203125,4.91037130355835,-4.374378681182861,-4.936692237854004
1763693278483487000,10.711487060546874,4.874478816986084,-4.415356159210205,-4.915156841278076
1763693278493073700,10.72107373046875,4.8792643547058105,-4.448855400085449,-4.9486565589904785
1763693278502659600,10.73065966796875,4.984847545623779,-4.448855400085449,-5.01086950302124
1763693278512246300,10.740246337890625,5.097310543060303,-4.379164695739746,-5.092225551605225
1763693278521833700,10.749833740234376,5.231308460235596,-4.285844326019287,-5.111368179321289
1763693278531420200,10.759420166015625,5.267200946807861,-4.163810729980469,-5.144867897033691
1763693278541006000,10.769006103515625,5.288736343383789,-4.051347732543945,-5.199902534484863
1763693278550592800,10.7785927734375,5.360520839691162,-3.993920087814331,-5.310271739959717
1763693278560180200,10.78818017578125,5.504090309143066,-4.034597873687744,-5.508875846862793
1763693278569767000,10.797766845703125,5.731707572937012,-4.178167343139648,-5.707480430603027
1763693278579352600,10.8073525390625,6.021239280700684,-4.424927234649658,-5.903990745544434
1763693278588939300,10.816939208984374,6.34217643737793,-4.735994338989258,-6.09541654586792
1763693278598526700,10.826526611328125,6.665506362915039,-5.104787826538086,-6.2892351150512695
1763693278608113400,10.836113525390624,6.995716094970703,-5.5142598152160645,-6.464210510253906
1763693278617699300,10.84569921875,7.290332317352295,-5.894718647003174,-6.679564476013184
1763693278627286000,10.8552861328125,7.51286506652832,-6.093621730804443,-6.837490558624268
1763693278636873500,10.86487353515625,7.70668363571167,-6.14626407623291,-7.00050163269043
1763693278646460000,10.8744599609375,7.8433732986450195,-6.112764358520508,-7.184749126434326
1763693278656045800,10.8840458984375,7.9845499992370605,-6.019145488739014,-7.373782157897949
1763693278665632500,10.893632568359376,8.147261619567871,-5.971288681030273,-7.57507848739624
1763693278675220000,10.903219970703125,8.401200294494629,-6.115157604217529,-7.792825222015381
1763693278684806700,10.912806640625,8.707481384277344,-6.466902256011963,-8.048856735229492
1763693278694392300,10.922392333984375,9.02841854095459,-6.993622303009033,-8.31715202331543
1763693278703979000,10.93197900390625,9.253344535827637,-7.45573616027832,-8.532505989074707
1763693278713566500,10.94156640625,9.258130073547363,-7.625626564025879,-8.594719886779785
1763693278723153200,10.951153076171876,9.1145601272583,-7.690232753753662,-8.580363273620605
1763693278732739000,10.960739013671875,8.90399169921875,-7.7838521003723145,-8.518149375915527
1763693278742325800,10.97032568359375,8.7505521774292,-7.970492362976074,-8.448758125305176
1763693278751913200,10.979913330078125,8.614161491394043,-8.279166221618652,-8.398508071899414
1763693278761499600,10.989499755859375,8.46580696105957,-8.590532302856445,-8.338687896728516
1763693278771085600,10.99908544921875,8.314759254455566,-8.882756233215332,-8.290831565856934
1763693278780672300,11.00867236328125,8.113762855529785,-9.134002685546875,-8.250153541564941
1763693278790259700,11.018259765625,7.785945892333984,-9.19143009185791,-8.147261619567871
1763693278799846400,11.027846435546875,7.321439266204834,-9.05264663696289,-8.058428764343262
1763693278809432000,11.03743212890625,6.746862411499023,-8.724530220031738,-7.907680511474609
1763693278819018800,11.047018798828125,6.078666687011719,-8.346464157104492,-7.70668363571167
1763693278828606200,11.056606201171874,5.461019515991211,-8.075776100158691,-7.567899703979492
1763693278838193000,11.06619287109375,5.082953453063965,-8.011170387268066,-7.457530975341797
1763693278847778600,11.075778564453126,4.817050933837891,-8.102097511291504,-7.340282440185547
1763693278857365500,11.085365478515625,4.6902313232421875,-8.43021297454834,-7.256533622741699
1763693278866953000,11.094952880859376,4.788337230682373,-9.031110763549805,-7.251748085021973
1763693278876539400,11.104539306640625,4.565804481506348,-9.667901039123535,-7.177570819854736
1763693278886125300,11.114125244140626,4.273581027984619,-9.947860717773438,-7.1488566398620605
1763693278895712000,11.1237119140625,4.125226020812988,-10.769197463989258,-6.849454879760742
1763693278905299500,11.133299560546876,3.177070379257202,-9.9981107711792,-6.4666032791137695
1763693278914886000,11.142885986328125,3.550649642944336,-9.526723861694336,-5.961418628692627
1763693278924471800,11.152471923828125,3.81864595413208,-9.368498802185059,-5.731408596038818
1763693278934058500,11.16205859375,3.5769708156585693,-8.865707397460938,-5.432305812835693
1763693278943646000,11.17164599609375,3.4286158084869385,-8.295916557312012,-5.07308292388916
1763693278953232600,11.181232666015624,3.3352956771850586,-7.817351341247559,-4.812265396118164
1763693278962818300,11.190818359375,3.263211965560913,-7.3935227394104,-4.661218643188477
1763693278972405200,11.2004052734375,3.200998544692993,-7.017550468444824,-4.575077056884766
1763693278981992400,11.209992431640625,3.2512478828430176,-6.739983081817627,-4.543970108032227
1763693278991579100,11.2195791015625,3.2970104217529297,-6.466902256011963,-4.54636287689209
1763693279001165000,11.2291650390625,3.308974504470825,-6.186942100524902,-4.555934429168701
1763693279010751700,11.238751708984376,3.433401346206665,-6.047859191894531,-4.596612453460693
1763693279020339200,11.248339111328125,3.5410783290863037,-5.971288681030273,-4.634897232055664
1763693279029925600,11.257925537109376,3.6583266258239746,-5.894718647003174,-4.682754039764404
1763693279039511600,11.267511474609375,3.770789384841919,-5.842076301574707,-4.694717884063721
1763693279049098200,11.27709814453125,3.6870405673980713,-5.693721294403076,-4.579862594604492
1763693279058685700,11.286685791015625,3.550649642944336,-5.430212020874023,-4.42193603515625
1763693279068272400,11.2962724609375,3.471686601638794,-5.18614387512207,-4.271188259124756
1763693279077858000,11.305858154296875,3.4070804119110107,-5.018646240234375,-4.120141506195068
1763693279087445000,11.315445068359375,3.375973701477051,-4.9154558181762695,-3.9382870197296143
1763693279097032200,11.3250322265625,3.3520455360412598,-4.800600528717041,-3.739682674407959
1763693279106619000,11.334618896484375,3.263211965560913,-4.7024946212768555,-3.5479576587677
1763693279116204800,11.344204833984374,3.177070379257202,-4.618745803833008,-3.311068296432495
1763693279125791500,11.35379150390625,3.067000389099121,-4.511068820953369,-3.1004998683929443
1763693279135379000,11.36337890625,2.9760732650756836,-4.456034183502197,-2.9327032566070557
1763693279144965400,11.37296533203125,2.8971099853515625,-4.420141696929932,-2.808276414871216
1763693279154551300,11.38255126953125,2.8564319610595703,-4.453640937805176,-2.7580273151397705
1763693279164138000,11.392137939453125,2.8588249683380127,-4.511068820953369,-2.7747769355773926
1763693279173725400,11.401725341796874,2.837289333343506,-4.479962348937988,-2.839383125305176
1763693279183312100,11.41131201171875,2.822932481765747,-4.482355117797852,-2.942274570465088
1763693279192897800,11.420897705078126,2.8588249683380127,-4.649852752685547,-3.0765717029571533
1763693279202484500,11.430484375,3.0454649925231934,-4.970789909362793,-3.263211965560913
1763693279212072000,11.440072021484376,3.2368907928466797,-5.3608198165893555,-3.452244758605957
1763693279221658600,11.44965869140625,3.4190444946289062,-5.765506267547607,-3.6272199153900146
1763693279231244500,11.45924462890625,3.636791229248047,-6.1342997550964355,-3.859323740005493
1763693279240831200,11.468831298828125,3.9146578311920166,-6.524330139160156,-4.108177185058594
1763693279250418700,11.478418701171876,4.074976921081543,-6.888338088989258,-4.398007869720459
1763693279260005000,11.488005126953125,4.153940200805664,-7.187440872192383,-4.625326156616211
1763693279269591000,11.497591064453125,4.206582069396973,-7.415058135986328,-4.8553361892700195
1763693279279177700,11.507177734375,4.180261135101318,-7.546663284301758,-5.032404899597168
1763693279288765200,11.51676513671875,4.185046672821045,-7.675876140594482,-5.231009483337402
1763693279298351900,11.526351806640625,4.314259052276611,-7.824530124664307,-5.492125988006592
1763693279307937500,11.5359375,4.5083770751953125,-7.934599876403809,-5.700301647186279
1763693279317524200,11.545524169921874,4.750051975250244,-7.929814338684082,-5.884848117828369
1763693279327111700,11.555111572265625,4.975276470184326,-7.922635555267334,-6.023632049560547
1763693279336698400,11.564698486328124,5.267200946807861,-7.929814338684082,-6.090631008148193
1763693279346284300,11.5742841796875,5.508875846862793,-7.822137355804443,-6.09541654586792
1763693279355871000,11.58387109375,5.688636779785156,-7.730910778045654,-6.090631008148193
1763693279365458400,11.59345849609375,5.987739562988281,-7.858029365539551,-6.121737480163574
1763693279375044900,11.603044921875,6.409175395965576,-8.171489715576172,-6.200700759887695
1763693279384630800,11.612630859375,6.734898567199707,-8.583353996276855,-6.363412857055664
1763693279394217500,11.622217529296876,6.971787929534912,-8.94257640838623,-6.535995006561279
1763693279403805000,11.631804931640625,7.139285564422607,-9.157930374145508,-6.705885410308838
1763693279413391600,11.6413916015625,7.208677291870117,-9.193822860717773,-6.921239376068115
1763693279422977300,11.650977294921875,7.206284523010254,-8.985647201538086,-7.057929515838623
1763693279432564000,11.66056396484375,7.120142936706543,-8.573782920837402,-7.134500026702881
1763693279442151400,11.6701513671875,6.92393159866333,-7.932207107543945,-7.144071102142334
1763693279451738000,11.679738037109376,6.763612270355225,-7.17069149017334,-7.079464912414551
1763693279461324000,11.689323974609374,6.569494724273682,-6.423831462860107,-6.974180698394775
1763693279470910700,11.69891064453125,6.3493547439575195,-5.849255084991455,-6.873383045196533
1763693279480498200,11.708498291015625,6.289534091949463,-5.516652584075928,-6.744170665740967
1763693279490084600,11.718084716796875,6.33499813079834,-5.411069393157959,-6.631708145141602
1763693279499670500,11.72767041015625,6.375676155090332,-5.487639427185059,-6.569494724273682
1763693279509257200,11.73725732421875,6.394818305969238,-5.641079425811768,-6.547959327697754
1763693279518844700,11.7468447265625,6.449853420257568,-5.894718647003174,-6.545566558837891
1763693279528431400,11.756431396484375,6.512066841125488,-6.2204413414001465,-6.571887493133545
1763693279538017300,11.766017333984376,6.626922130584717,-6.481259346008301,-6.6006011962890625
1763693279547603700,11.775603759765625,6.67507791519165,-6.639484405517578,-6.641279220581055
1763693279557191200,11.785191162109374,6.691827774047852,-6.737590312957764,-6.7178497314453125
1763693279566777900,11.79477783203125,6.718148708343506,-6.897909641265869,-6.80159854888916
1763693279576363800,11.80436376953125,6.751648426055908,-7.0031938552856445,-6.859025955200195
1763693279585950500,11.813950439453125,6.646064758300781,-6.919445037841797,-6.880561351776123
1763693279595538000,11.823537841796876,6.430710792541504,-6.574579238891602,-6.780063152313232
1763693279605124600,11.83312451171875,6.169893264770508,-6.072086334228516,-6.62213659286499
1763693279614710300,11.842710205078125,5.9566330909729,-5.509174823760986,-6.401698112487793
1763693279624297000,11.852296875,5.717350482940674,-4.927420139312744,-6.085845470428467
1763693279633884400,11.861884521484376,5.4658050537109375,-4.362414836883545,-5.796014785766602
1763693279643471000,11.87147119140625,5.262415409088135,-4.003491401672363,-5.470590591430664
1763693279653057000,11.88105712890625,5.145166873931885,-3.7806596755981445,-5.199902534484863
1763693279662643500,11.8906435546875,5.099703311920166,-3.4504501819610596,-4.991727352142334
1763693279672231000,11.90023095703125,4.754837512969971,-3.3308091163635254,-4.797908306121826
1763693279681817600,11.909817626953124,4.611268520355225,-3.4241292476654053,-4.701896667480469
1763693279691403500,11.919403564453125,4.549055099487305,-3.6993038654327393,-4.67078971862793
1763693279700990200,11.928990234375,4.462913513183594,-3.993920087814331,-4.680361270904541
1763693279710577700,11.93857763671875,4.427021026611328,-4.211667060852051,-4.805087089538574
1763693279720164400,11.948164306640624,4.395615100860596,-4.446462631225586,-4.960620403289795
1763693279729750000,11.95775,4.395615100860596,-4.697709083557129,-5.19033145904541
1763693279739336700,11.967336669921876,4.410271167755127,-4.9755754470825195,-5.43709135055542
1763693279748924200,11.976924072265625,4.453341960906982,-5.210072040557861,-5.6548380851745605
1763693279758510800,11.9865107421875,4.494019985198975,-5.339284420013428,-5.776872158050537
1763693279768096500,11.996096435546875,4.5562334060668945,-5.300999641418457,-5.865705490112305
1763693279777683200,12.00568310546875,4.6974101066589355,-5.245964527130127,-5.961418628692627
1763693279787270700,12.015270751953125,4.929513931274414,-5.162215709686279,-6.1002020835876465
1763693279796857300,12.024857421875,5.193023204803467,-4.994718074798584,-6.207879066467285
1763693279806443300,12.034443359375,5.358128070831299,-4.764708042144775,-6.183950901031494
1763693279816030000,12.044030029296875,5.4179487228393555,-4.561318397521973,-6.057131290435791
1763693279825617400,12.053617431640625,5.480162143707275,-4.4273200035095215,-5.90159797668457
1763693279835203800,12.063203857421875,5.679065227508545,-4.501497745513916,-5.78644323348999
1763693279844789800,12.072789794921874,6.059524059295654,-4.7958149909973145,-5.762515068054199
1763693279854376400,12.08237646484375,6.547959327697754,-5.176572799682617,-5.863312721252441
1763693279863964000,12.0919638671875,6.988537788391113,-5.528616905212402,-5.9662041664123535
1763693279873550600,12.101550537109375,7.352545738220215,-5.758327484130859,-6.057131290435791
1763693279883136300,12.11113623046875,7.615756034851074,-5.916254043579102,-6.116951942443848
1763693279892723200,12.12072314453125,7.737790107727051,-5.959324836730957,-6.207879066467285
1763693279902310400,12.130310302734374,7.821837902069092,-5.921039581298828,-6.329913139343262
1763693279911897000,12.13989697265625,7.89840841293335,-5.839683532714844,-6.447460651397705
1763693279921483000,12.14948291015625,7.9055867195129395,-5.760720729827881,-6.543173313140869
1763693279931069700,12.159069580078125,7.917551040649414,-5.763113498687744,-6.653243541717529
1763693279940657200,12.1686572265625,8.020442008972168,-5.9306111335754395,-6.782455921173096
1763693279950243600,12.17824365234375,8.097012519836426,-6.218048572540283,-6.930810928344727
1763693279959829500,12.18782958984375,8.149654388427734,-6.536293983459473,-7.05553674697876
1763693279969416200,12.197416259765625,8.130512237548828,-6.773482799530029,-7.127321243286133
1763693279979003600,12.207003662109376,8.018049240112305,-6.890730857849121,-7.127321243286133
1763693279988590300,12.21659033203125,7.838587760925293,-6.945765972137451,-7.093822002410889
1763693279998176300,12.22617626953125,7.675576686859131,-7.079763889312744,-7.060322284698486
1763693280007763000,12.235762939453124,7.57507848739624,-7.316952705383301,-7.007680416107178
1763693280017350400,12.245350341796875,7.383652687072754,-7.570591926574707,-6.966702938079834
1763693280026936800,12.254936767578124,7.2783684730529785,-7.884350776672363,-7.050751209259033
1763693280036522800,12.264522705078125,7.175177574157715,-8.233702659606934,-7.2182488441467285
1763693280046109400,12.274109375,6.998108863830566,-8.518747329711914,-7.359425067901611
1763693280055697000,12.28369677734375,6.7540411949157715,-8.688637733459473,-7.5463643074035645
1763693280065283600,12.29328369140625,6.40438985824585,-8.722137451171875,-7.658827304840088
1763693280074869200,12.302869140625,5.939883232116699,-8.614460945129395,-7.740182876586914
1763693280084456000,12.3124560546875,5.528317451477051,-8.468498229980469,-7.8382887840271
1763693280094043400,12.32204345703125,5.1427741050720215,-8.332107543945312,-7.922037601470947
1763693280103630000,12.331630126953126,4.766801834106445,-8.492426872253418,-7.488637447357178
1763693280113216000,12.341216064453125,4.549055099487305,-8.43021297454834,-7.285247802734375
1763693280122802700,12.350802734375,4.237689018249512,-8.41585636138916,-7.199106216430664
1763693280132390100,12.36039013671875,4.206582069396973,-8.67188835144043,-7.026822566986084
1763693280141976600,12.3699765625,4.144368648529053,-8.822636604309082,-6.9475603103637695
1763693280151562500,12.3795625,4.323830604553223,-9.339784622192383,-6.799205780029297
1763693280161149200,12.389149169921875,3.988835334777832,-9.351749420166016,-6.588637351989746
1763693280170736600,12.398736572265625,4.1730828285217285,-8.889934539794922,-6.2892351150512695
1763693280180323300,12.4083232421875,4.494019985198975,-8.791529655456543,-6.066702842712402
1763693280189909000,12.417908935546874,4.223331928253174,-8.303094863891602,-5.7792649269104
1763693280199495700,12.42749560546875,3.9912281036376953,-7.755138397216797,-5.429912567138672
1763693280209083100,12.437083251953124,3.8979079723358154,-7.297810077667236,-5.152046203613281
1763693280218669800,12.446669921875,3.7420754432678223,-6.893123626708984,-4.943870544433594
1763693280228255700,12.456255859375,3.584149122238159,-6.51954460144043,-4.800301551818848
1763693280237842400,12.465842529296875,3.5171501636505127,-6.191727638244629,-4.692325115203857
1763693280247430000,12.475429931640624,3.4932219982147217,-5.921039581298828,-4.67078971862793
1763693280257016300,12.485016357421875,3.488436222076416,-5.669793128967285,-4.711467742919922
1763693280266602200,12.494602294921876,3.512364625930786,-5.480461120605469,-4.738088130950928
1763693280276189000,12.50418896484375,3.512364625930786,-5.291428089141846,-4.797908306121826
1763693280285776400,12.5137763671875,3.567399501800537,-5.190929412841797,-4.817050933837891
1763693280295363000,12.523363037109375,3.533900022506714,-5.12393045425415,-4.718646049499512
1763693280304948700,12.53294873046875,3.3664023876190186,-5.001896858215332,-4.536791801452637
1763693280314535400,12.542535400390625,3.2177481651306152,-4.934598445892334,-4.326223373413086
