time,seconds_elapsed,z,y,x
1763692621778179600,0.0521796875,-0.13606091382801533,0.9357757062464952,0.1624168962361291
1763692621788200700,0.06220068359375,-0.2005710876613855,0.8879749674126506,0.09491579695846884
1763692621798222600,0.07222265625,-0.19807868632376194,0.8822887384697794,0.09656305270884186
1763692621808243500,0.082243408203125,-0.10285539431869983,0.8033990338891744,0.04357685579480603
1763692621818264800,0.092264892578125,-0.0549292755395174,0.7939864778995513,-0.025188454732391983
1763692621828286700,0.10228662109375,0.1401005446076393,0.7053922486454248,-0.0621901881868951
1763692621838307600,0.1123076171875,0.33253508756458755,0.6323337344363331,-0.05427760669775307
1763692621848329500,0.12232958984375,0.3385223452806473,0.6222250128760933,-0.0136928271247074
1763692621858349600,0.132349609375,0.4069564145594835,0.4279261373519897,-0.03773282420802861
1763692621868370400,0.142370361328125,0.5374100098997354,0.44652503935992716,-0.13577281760163604
1763692621878392600,0.152392578125,0.679043170902133,0.36147798119336366,-0.2196711806571111
1763692621888413700,0.16241357421875,1.0079483775317668,0.024941256771981713,-0.17752707934547216
1763692621898434600,0.1724345703125,1.0243442165374754,-0.004048983129858971,-0.12798114081211387
1763692621908456400,0.18245654296875,1.4409808981120587,0.6043497489675879,-0.5557946846351027
1763692621918477600,0.1924775390625,1.471344472193718,0.549072682903707,-0.49475065254233774
1763692621928499700,0.202499755859375,1.9869284347325562,0.007877893768250942,-0.0930096345435828
1763692621938520600,0.2125205078125,2.397069909068942,-0.7525871305406093,0.7945478381093591
1763692621948541700,0.222541748046875,2.45464648424685,-0.8514192606925964,0.8745561714563518
1763692621958563600,0.2325634765625,1.9899322927236556,-0.35102088458687064,0.8861533780086785
1763692621968584400,0.24258447265625,2.0618004281044007,-0.46607905013561246,0.9727702427752315
1763692621978606600,0.252606689453125,2.5582033048331736,1.1396984424233436,0.17659633783400058
1763692621988627700,0.262627685546875,0.9856395150899887,-0.5566390265047549,0.23252675324007868
1763692621998648600,0.272648681640625,0.050802550998330115,-1.570532576176524,0.3058496174737811
1763692622008670500,0.28267041015625,-0.2105710881501436,-1.6462176394969223,0.3185886875376105
1763692622018691600,0.292691650390625,-0.13603519486486912,-1.7593565274208782,0.3412900564283132
1763692622028712400,0.30271240234375,-1.425332662603259,-1.3639245464384555,-0.7945514183059335
1763692622038734600,0.312734619140625,-1.3458862009227275,-1.4589859258800744,-0.7005560606606305
1763692622048755700,0.322755615234375,-1.3696248039066792,-0.7534557300686836,-1.5986714599460363
1763692622058777600,0.332777587890625,-1.228587855231762,-0.7673159131169319,-1.9773533816576003
1763692622068798500,0.342798583984375,-1.1585726542413235,-0.8263011860489845,-1.8526713554561136
1763692622078819600,0.352819580078125,-1.2505138558357953,-1.772289074230194,-1.808287147067487
1763692622088841700,0.362841796875,-1.2048726331233977,-1.8098773388683795,-1.737326628050953
1763692622098862600,0.372862548828125,-1.4999913054853677,-2.0701555839955805,-1.9949268861405551
1763692622108883700,0.3828837890625,-1.6749381225466726,-1.5999170760929584,-2.23848239839524
1763692622118905600,0.392905517578125,-1.6590256831437349,-1.612788248103857,-2.21562730024755
1763692622128926500,0.402926513671875,-0.6253519127249717,-0.4172703033030033,-3.1709958879753946
1763692622138948600,0.412948486328125,-0.6134118840843439,-0.4395201290339231,-3.1892291715413332
1763692622148969700,0.4229697265625,0.8313900336205959,-0.5222083491146564,-2.391533171599358
1763692622158990600,0.432990478515625,0.18489128797054288,-0.5996534078449011,-1.8433733657568692
1763692622169012500,0.443012451171875,0.17885902206897736,-0.6342015741348266,-1.9797955141127108
1763692622179033600,0.45303369140625,-1.531455534285307,-0.9028063335806131,-1.292072485409677
1763692622189054500,0.463054443359375,-1.5709119308829307,-0.8865472726970911,-1.4232557101987302
1763692622199076600,0.47307666015625,-2.1575924599081278,-1.8474585892438888,-1.239453971030563
1763692622209097700,0.48309765625,-2.410934183770418,-1.6736667874366045,-0.9626417936012148
1763692622219119600,0.49311962890625,-2.130504546496272,-1.6202105070590973,-0.46330417859479783
1763692622229140500,0.503140380859375,-1.2005401568770409,-1.25518652382195,0.2647535639103502
1763692622239161600,0.51316162109375,-1.310224520432949,-1.0998515852034092,0.23961291210874913
1763692622249183700,0.523183837890625,1.662718107920885,-0.14089140272438525,1.392909233382344
1763692622259204600,0.53320458984375,2.532340549302101,-0.3529138587266207,1.775842821189016
1763692622269226500,0.5432265625,3.192009742170572,-0.6946417220503092,2.187280618946254
1763692622279247600,0.55324755859375,3.1768022361665964,-0.3683791388839483,1.6764897359028457
1763692622289268500,0.5632685546875,3.1318659468531607,-0.3064537208467722,1.579735727199167
1763692622299290600,0.57329052734375,1.5848188756823538,-0.2222027814939618,1.0080416818384081
1763692622309311700,0.583311767578125,1.5726280871510505,-0.21708938400298355,0.8862363070517778
1763692622319332600,0.59333251953125,-0.026695114701986312,-0.7676692565992475,0.756921214222163
1763692622329354500,0.6033544921875,-0.03234218067824841,-0.7693012417152524,0.6095009211856871
1763692622339375600,0.613375732421875,-1.709160710144043,-0.40281244662255045,0.4877678444502875
1763692622349397800,0.623397705078125,-2.153720586910844,-0.510323557792604,0.4189555164435878
1763692622359418600,0.633418701171875,-2.182732161861658,-0.4572860873490572,0.34286450267080215
1763692622369439500,0.643439453125,-2.7201445098489523,-0.5748325625821947,-0.5319743216518312
1763692622379461600,0.653461669921875,-2.7703175307720898,-0.47867432781457897,-0.5177424922795966
1763692622389482500,0.663482421875,-1.9931120918035505,-0.5681149447649717,0.10476173026352188
1763692622399504600,0.673504638671875,-0.7927052059173584,-0.8422051498845219,0.461079597880505
1763692622409525800,0.68352587890625,-0.8478823187381028,-0.7258101827740668,0.44120994528438895
1763692622419546600,0.693546630859375,0.26434593295753,0.5894906180098652,-0.04479756582933478
1763692622429568500,0.703568603515625,0.22180618339180946,0.6896329539775848,-0.17133934888755903
1763692622439589400,0.71358935546875,-0.47271278906166553,-0.4467474499389529,0.2935086068168282
1763692622449610800,0.72361083984375,-0.5012766202449799,-0.36262978157699105,0.1460643118502572
1763692622459632600,0.733632568359375,-0.05078676890730858,0.048485506227612496,0.17009959622584284
1763692622469653500,0.743653564453125,-0.036330958053469656,-0.1544879664003849,0.18825630742423236
1763692622479675600,0.753675537109375,-0.04933014035820961,-0.0890861044242978,0.05179375399276614
1763692622489696500,0.763696533203125,-0.11802607544362545,-0.47987230542749165,-0.05487688776515424
1763692622499717600,0.773717529296875,-0.12667992202043532,-0.4190250380158424,-0.17413060530759394
1763692622509739500,0.783739501953125,0.963691302654147,0.0902168620198965,-0.009771452429890632
1763692622519760600,0.7937607421875,1.115512095671892,0.1587444548010826,-0.19732363017275928
1763692622529781500,0.803781494140625,1.12428167758286,0.1913221978008747,-0.3234652075327933
1763692622539803400,0.813803466796875,-0.012436872246861456,0.7539610492423177,-0.7877066669777035
1763692622549824800,0.82382470703125,-0.012999182304739952,0.7921814743041992,-0.8581848093047738
1763692622559846700,0.8338466796875,0.32355566229522226,-0.6475798188850284,-0.03831073369383812
1763692622569867500,0.843867431640625,0.3146481332182884,-0.5981275134518742,-0.0798839763149619
1763692622579888600,0.853888671875,0.6192255387991666,-0.4066045323818922,0.16398030962795018
1763692622589910500,0.86391064453125,0.4092524165421724,-0.38290333879888055,0.055834261555224654
1763692622599931600,0.873931640625,0.41398295219540593,-0.34680297463089227,-0.021703590025007723
1763692622609953500,0.88395361328125,-0.2300426813393831,0.5351651535823941,-0.5828557100400328
1763692622619974700,0.893974609375,-0.22368834387660025,0.5771905238851904,-0.6681492903135716
1763692622629995500,0.90399560546875,-1.0924176358103752,1.1121493412405252,-0.9529029282666742
1763692622640017400,0.914017333984375,-0.8150421254098414,0.4808592706382274,-0.37871597011163827
1763692622650038800,0.924038818359375,-0.8333370760351418,0.5724053354352713,-0.41491935626268384
1763692622660059600,0.9340595703125,0.5297592028856277,-0.45637540224492545,0.4659495785370469
1763692622670081500,0.94408154296875,0.5167307944864035,-0.3705035836920142,0.4240170010842383
1763692622680102700,0.9541025390625,0.7440344062507153,-0.0634575960405171,0.6148927702918648
1763692622690124500,0.96412451171875,0.746787504351139,-0.01775470626875758,0.5600757229551673
1763692622700145700,0.974145751953125,0.24557751960158347,0.5980911269642413,0.44762072564214467
1763692622710166800,0.984166748046875,0.14654723652899265,0.42219504635408517,0.5112351196795701
1763692622720188700,0.994188720703125,0.1629968515485525,0.43730216072350736,0.4416705850660801
1763692622730209500,1.00420947265625,-0.6558645398885011,0.7483239201381802,-0.11846680494844913
1763692622740231400,1.0142314453125,-0.6488222201615571,0.7778513356566429,-0.16588672777116298
1763692622750252500,1.02425244140625,0.007312953361868858,-0.6080272684365511,0.7199442133501172
1763692622760273700,1.034273681640625,0.007576572734117507,-0.5498502431474626,0.6744134652748703
1763692622770295600,1.044295654296875,1.7150941918462514,-1.347638305287063,1.3207014907836914
1763692622780316700,1.054316650390625,2.9739690487921235,0.02294862165004015,0.869514304831624
1763692622790337500,1.064337646484375,2.988864420107007,0.03011617519184947,0.8192679264113306
1763692622800359400,1.074359375,0.17067630013525484,0.45817996744886036,-0.40521570837199683
1763692622810380800,1.084380859375,0.1969037973254919,0.43525443441346284,-0.46567982168495653
1763692622820402700,1.094402587890625,0.773257578125596,-0.16786372693255544,0.2954991961121559
1763692622830423600,1.104423583984375,0.4413730634242296,-0.25270021108835933,0.4933423201143741
1763692622840444700,1.114444580078125,0.4813824177294969,-0.28493235552087426,0.4074599801674485
1763692622850466600,1.124466552734375,-0.360406844830513,-0.19108707387074828,0.3233744605094194
1763692622860487700,1.13448779296875,-0.3296890504837036,-0.20164938441738486,0.25230185942053796
1763692622870509800,1.144509765625,-0.6315390769273043,0.14904153756275773,-0.09270721753090619
1763692622880531200,1.15453125,-0.619002835959196,0.17363894933313131,-0.138590432305634
1763692622890552000,1.164552001953125,-0.08610065887272357,-0.2652751766316592,0.08118862917274236
1763692622900574000,1.174573974609375,-0.3300865253686905,-0.22095482725948093,-0.30189357332438227
1763692622910594800,1.1845947265625,-0.34396424407362935,-0.17577303875237701,-0.2949827710226178
1763692622920617000,1.194616943359375,-0.5390981091171503,-0.0823230400301516,-0.7951715960308909
1763692622930638000,1.20463818359375,-0.5784130514174699,-0.04560951239988208,-0.7195598902076482
1763692622940659000,1.214658935546875,-1.0596680433750152,-0.015483400335907935,-0.11263415327221155
1763692622950681000,1.22468115234375,-0.4694324522167444,-0.23734818204715846,0.0027244565278291702
1763692622960702000,1.234701904296875,0.9190624718546867,-0.49898865543827414,0.11625643542259931
1763692622970722800,1.244722900390625,2.1819138312160966,-0.5098705533280968,-0.07550503057837486
1763692622980745000,1.254744873046875,2.1678560797691344,-0.5332056900776923,-0.019098375962674618
1763692622990766000,1.26476611328125,2.59351485671103,0.2458911155954003,-0.199714178571105
1763692623000788000,1.2747880859375,2.60748317630887,0.22508023662641644,-0.22695523671805856
1763692623010808800,1.284808837890625,0.17064064429998396,0.484368155542016,-0.35000206293314695
1763692623020830000,1.294829833984375,-0.8927414511620998,0.010492460180819034,-0.41577831117957825
1763692623030852000,1.30485205078125,-0.9018266748934983,0.027603607849031684,-0.4007894163623452
1763692623040873000,1.314873046875,-1.1410773295611143,-0.6950058791875838,-0.2749976753532886
1763692623050894800,1.324894775390625,-1.1673808145970106,-0.6841125831209123,-0.20361206279247998
1763692623060916000,1.334916015625,-0.5566109694540501,0.42567002898827194,2.525639590358734
1763692623070936800,1.344936767578125,-2.106664236703515,0.36601401718780396,2.8184339114263652
1763692623080959000,1.354958984375,-1.6772662732332944,-0.21849822788760065,1.960953158737719
1763692623090980000,1.36497998046875,-0.09488602287471294,-0.5395860387645661,1.0658403022691607
1763692623101001000,1.3750009765625,-0.13905074329376219,-0.541358016873151,1.2342528952561318
1763692623111022800,1.38502294921875,0.3307973039865494,-0.19263824883550404,0.08528159757480025
1763692623121044000,1.3950439453125,0.2892529951989651,-0.19637246692776678,0.2742074017584324
1763692623131066000,1.405066162109375,-1.5836901639133691,-0.8316092293292283,-0.17037921688482163
1763692623141087000,1.4150869140625,-2.876280827978253,-0.8127224502906203,-0.04254501026272774
1763692623151108000,1.425108154296875,-2.9215006104081866,-0.8280627888940274,0.29860702593438326
1763692623161130000,1.4351298828125,11.259930407714844,-1.068491693560779,1.0351548027567565
1763692623171150800,1.44515087890625,11.243359212142229,-1.0618760748133063,1.2300970907509325
1763692623181173000,1.455173095703125,0.3314011150985956,-0.992694109776616,1.7571081639721988
1763692623191194000,1.465194091796875,-0.946529739972949,-1.1088307182118295,1.4767935313798486
1763692623201215000,1.475215087890625,-2.0841455309033394,-1.034670087979734,1.140416673695296
1763692623211236900,1.48523681640625,-1.9537346056610345,-1.2363286786168812,0.9171930977862328
1763692623221258000,1.495258056640625,-1.9374714531242847,-1.285801296185702,1.1607746943302453
1763692623231280000,1.505280029296875,-0.3245779910802841,-2.067173645575344,0.2368561972791329
1763692623241301000,1.515301025390625,-0.2889128034591675,-2.1271366774983704,0.5161727952774614
1763692623251322000,1.525322021484375,0.8859200807094574,-1.4542062903881072,-0.3166389417093247
1763692623261344000,1.535343994140625,0.8144219476848841,-1.2466583494514225,0.03783960905075073
1763692623271364900,1.54536474609375,0.8700807065427303,-1.2843240632399915,0.313989523179084
1763692623281386000,1.555385986328125,-0.7848591685920954,-1.4393787236124276,-0.46802258541882036
1763692623291408100,1.565408203125,-0.710798491603136,-1.4616826176181434,-0.17306158783659337
1763692623301429000,1.575428955078125,0.5594833100199699,-1.1048337575301528,-1.2687947779357434
1763692623311451000,1.585450927734375,-2.0394056409448384,-1.5176096720233558,0.9942959920153022
1763692623321472000,1.595471923828125,1.767115470984578,-0.2599821847900748,-0.6083461251273751
1763692623331492900,1.605492919921875,-0.4147282176047563,-0.0432806310608983,-0.6483595710858703
1763692623341515000,1.615514892578125,-0.3369593337476253,-0.02526303607225418,-0.43104514615535733
1763692623351536000,1.6255361328125,0.08313187219500541,-0.3807356393709779,0.6098503922104835
1763692623361558000,1.63555810546875,1.0576233858048916,-0.2019312700986862,1.8119170280024408
1763692623371579000,1.645578857421875,2.3759400272786615,0.4841621115759015,1.8446783108755944
1763692623381600000,1.65560009765625,1.2987708140045404,1.3769719517990946,1.3689336067721247
1763692623391622100,1.6656220703125,1.371460202640295,1.350018186160922,1.494807765367627
1763692623401643000,1.67564306640625,1.5013397974848746,0.3327057679563761,1.022985787665844
1763692623411665000,1.685664794921875,1.583190397697687,0.34235213270187376,1.1753820424839854
1763692623421686000,1.69568603515625,1.7868740644216536,-0.7657146154001355,1.107412375846505
1763692623431707000,1.705706787109375,2.397275076252222,-0.3346048795759678,1.7555735017508267
1763692623441729000,1.71572900390625,2.4362732076883313,-0.296474470885098,1.837812224498391
1763692623451750100,1.725750244140625,1.5701269179850816,0.17150690574049948,1.9459183789521455
1763692623461772000,1.73577197265625,1.6034207002997398,0.17959741934612392,2.0019424639910457
1763692623471793000,1.74579296875,0.28120062164664267,-0.1905836543932557,-0.10808335810005665
1763692623481814000,1.75581396484375,0.7397749952405691,-0.3713613695651293,-0.9411065458804369
1763692623491836200,1.765836181640625,0.6530740323871373,-0.9440633498594164,0.03942307884991169
1763692623501857000,1.77585693359375,1.5197101514339446,-0.569490617032349,-0.08692249664962291
1763692623511879000,1.78587890625,1.6821166358739137,-0.6240151111632585,0.10147007744014262
1763692623521900000,1.795900146484375,1.4200287109762428,0.8460641634002327,0.04348024528622627
1763692623531921000,1.8059208984375,1.5987357573539018,0.791700705049932,0.228963069409132
1763692623541943000,1.815943115234375,0.3539385255992412,1.83710553753376,1.0827280164450406
1763692623551964200,1.825964111328125,-0.13312369133234023,1.2080740595132111,1.0644120230317116
1763692623561985000,1.835985107421875,-0.004846855509281158,1.2143810507029293,1.1974877835690974
1763692623572007000,1.8460068359375,-0.7836445321053266,2.214588020327687,-1.8744968182951212
1763692623582028000,1.856028076171875,-0.6728454853057861,2.207184173811972,-1.7723294062405823
1763692623592050200,1.86605029296875,2.10240248760581,0.7337430215999483,-0.47089024980962274
1763692623602071000,1.876071044921875,2.208425990566611,0.6996633496046066,-0.3897860840499401
1763692623612092000,1.886091796875,0.043831542941927905,-0.399586762574315,0.9681447749316692
1763692623622114000,1.896114013671875,0.7537374696195125,-0.4294076080814004,2.1076368811279536
1763692623632135000,1.906135009765625,0.8272878589987754,-0.43312312147319315,2.167047101473808
1763692623642157000,1.916156982421875,0.021167291191220284,1.3054635896414517,1.0888041214883326
1763692623652178200,1.92617822265625,0.8370283317685127,0.9553449145913123,0.8767103538155555
1763692623662199000,1.936198974609375,1.2411620901226996,0.28406419438421726,0.872811592811346
1763692623672221000,1.946220947265625,1.2836954099476336,0.9015870209187269,0.862138223105669
1763692623682241800,1.95624169921875,1.3893535867273807,0.8520023212775587,0.9199737414807081
1763692623692264200,1.96626416015625,0.10357844789624214,0.9603954759791493,-0.23986557169556616
1763692623702285000,1.97628515625,-0.7505629312366247,0.5994000176057219,-0.04783434884250164
1763692623712306000,1.986305908203125,-0.8704641529023647,0.2133092809423804,0.3899889131456613
1763692623722328000,1.996328125,-1.0789192718118428,0.08831365874707699,0.3783130883991718
1763692623732349000,2.006348876953125,-0.9854583133041858,0.06974485961645842,0.43117432549297807
1763692623742371000,2.01637109375,-0.392233184941113,0.7746665681406855,-0.4733791440159082
1763692623752392000,2.026391845703125,-0.258693021762371,0.7668681693494319,-0.3953314432173967
1763692623762413000,2.0364130859375,1.9491364642158149,1.393297355917096,-1.385971543073654
1763692623772435000,2.04643505859375,2.884309820654988,1.0595064230725169,-0.9330003963142632
1763692623782455800,2.056455810546875,2.888558418010175,1.3993018570289015,-0.05432078825235367
1763692623792478200,2.066478271484375,3.062380907216668,1.2881935981497168,0.5369365471690893
1763692623802499000,2.0764990234375,3.1526372244641183,1.1792521619156002,0.5355927313446999
1763692623812520000,2.08652001953125,2.3773861344337464,1.049643785227835,0.6875473798751831
1763692623822542000,2.0965419921875,2.4312565485700963,0.9370280443951488,0.6620031887739897
1763692623832563000,2.10656298828125,0.6042226154565811,-0.21903350380808115,-0.08060439954400062
1763692623842585000,2.116585205078125,-1.3772028379455208,-0.9675319037303328,-0.16452303820252417
1763692623852606000,2.12660595703125,-1.2943781320035457,-1.0585919385761022,-0.17121347575187681
1763692623862627600,2.136627685546875,-0.9554565582722425,-2.650907015232742,0.5246650946170092
1763692623872649500,2.1466494140625,-0.818442873764038,-2.686109846039116,0.5674333922415972
1763692623882670300,2.15667041015625,-1.0278004944711923,-2.2002210568010807,0.5292231963127851
1763692623892692200,2.166692138671875,-0.5986664426341652,-1.6093112196430563,0.5030699334025382
1763692623902713300,2.17671337890625,-0.4654179558783769,-1.5792039584100246,0.5697042597830295
1763692623912734500,2.186734375,-1.3015654131591319,-0.0920645357131958,-0.10641396358311175
1763692623922756400,2.19675634765625,-1.188206452743709,-0.04968348384052515,-0.04593465270102024
1763692623932777500,2.206777587890625,-0.8949673105180262,-0.030160452724993226,-1.0892360831648111
1763692623942799400,2.21679931640625,-0.9293962343424558,-0.09593523966670035,-1.4841460860997437
1763692623952820200,2.2268203125,-0.863223680254817,-0.09358166227787733,-1.4623106863886117
1763692623962841600,2.236841552734375,-1.2056973935097455,-0.442504405541718,-1.5192606541007756
1763692623972863500,2.246863525390625,-1.1598191471710801,-0.4848933484598994,-1.525851138406992
1763692623982884400,2.25688427734375,-1.2005407413989304,-1.046822298066318,-0.5249783983498811
1763692623992906200,2.26690625,-1.2255574014946817,-1.282678341859579,-0.16375614548325537
1763692624002927400,2.27692724609375,-1.3518287427142262,-1.2729480982229113,0.10619359883069991
1763692624012948500,2.286948486328125,-1.6361837367385625,-1.0562047511786221,0.16318740568459034
1763692624022970400,2.296970458984375,-1.6802575640037656,-1.1052674727723002,0.12434826420247554
1763692624032991500,2.306991455078125,-1.8818875130683184,-0.6503022295862436,-0.2763502590060234
1763692624043013400,2.317013427734375,-1.9504294266358018,-0.6942842869147658,-0.3218020966261625
1763692624053034200,2.3270341796875,-1.6189178369000554,-0.39139381150752306,-0.7960282128602266
1763692624063055400,2.337055419921875,-1.3837851389452813,-0.4761076921969652,-0.7836018620073795
1763692624073077500,2.347077392578125,-1.4502280344069003,-0.5298197009012102,-0.8371995966821908
1763692624083098400,2.357098388671875,-1.0012608625918626,-0.7538277782514691,-0.4489987359970808
1763692624093120300,2.367120361328125,-1.0592141621276736,-0.8040645120605826,-0.4998498023122549
1763692624103141400,2.377141357421875,-0.9209200824201107,-0.9625950318500399,-0.2154904243737459
1763692624113162200,2.387162353515625,-0.5847001688629389,-1.0584829252436756,-0.015557634615898132
1763692624123184400,2.397184326171875,-0.48205111077129836,-1.0934148301541804,0.015340192472934722
1763692624133205500,2.40720556640625,-0.3410153311401605,-1.1184098629400134,0.05390577771067619
1763692624143227400,2.417227294921875,-0.3842579682782292,-1.127249002955854,0.030676293292641637
1763692624153248300,2.427248291015625,-0.23619448196738957,-0.8834995755642652,-0.07667056722640991
1763692624163269400,2.437269287109375,-0.27098259449303147,-0.8788751306340098,-0.088500121229887
1763692624173291500,2.44729150390625,-0.24196488206237554,-0.6909963512852788,-0.2402688917994499
1763692624183312400,2.4573125,-0.2709104060396552,-0.6421908193230629,-0.26440964584350585
1763692624193334300,2.467334228515625,-0.2776616338655352,-0.6306956118404865,-0.260209271544218
1763692624203355400,2.47735546875,-0.29965339318215845,-0.6878314575135708,-0.12281857041716575
1763692624213376300,2.487376220703125,-0.28753333179950713,-0.6754150435328483,-0.10997837806642055
1763692624223398400,2.4973984375,-0.19081804767102,-0.7506973712712526,0.07715747396051884
1763692624233419500,2.50741943359375,-0.09849982945770025,-0.7587889077901839,0.13768062398433684
1763692624243441400,2.51744140625,-0.031100948445498943,-0.768033705997467,0.19427929404079913
1763692624253462300,2.527462158203125,-0.06313099443465471,-0.7116893029630184,0.2558621822506189
1763692624263483400,2.5374833984375,-0.04679068500846624,-0.6867915930718184,0.27747546364367004
1763692624273505500,2.547505615234375,-0.1984793760791421,-0.3724620242834091,0.24752982271313667
1763692624283526400,2.5575263671875,-0.18415332908481358,-0.34054011484384533,0.27207389686107636
1763692624293548300,2.56754833984375,-0.2897191514059901,-0.08776187008321285,0.1367886435806751
1763692624303569400,2.5775693359375,-0.23412030604183673,-0.0434811220690608,0.03436754902601242
1763692624313590300,2.58759033203125,-0.21859218978136777,-0.010184124884009362,0.05945932018458843
1763692624323612400,2.5976123046875,-0.20539485455602408,0.060335226236283776,-0.14729659359157085
1763692624333633500,2.607633544921875,-0.19015812245756386,0.08826192855983972,-0.12576806787252426
1763692624343655400,2.617655517578125,-0.20694559112936256,0.14384206922352313,-0.2187719302624464
1763692624353676300,2.62767626953125,-0.19389117150604723,0.1639940458923578,-0.20267127481102942
1763692624363697400,2.637697509765625,-0.04110474832653999,0.15916794091016054,-0.2401817980378866
1763692624373719600,2.647719482421875,0.011443185034394263,0.16561171022206544,-0.17603168968856334
1763692624383740400,2.657740478515625,0.015219780963659285,0.176819332934916,-0.1685305202782154
1763692624393762300,2.66776220703125,0.12779928143918515,0.14600743056386709,-0.13780804975628852
1763692624403783400,2.677783447265625,0.12247954772114752,0.1551306482180953,-0.13493161753714084
1763692624413804300,2.68780419921875,0.11408785921186208,0.046773441612720484,-0.0962123030424118
1763692624423826400,2.697826416015625,0.04888911859244108,0.019726736994087696,-0.11789397349655628
1763692624433847600,2.70784765625,0.036113223649561405,0.031980946150422095,-0.11627075620889663
1763692624443869400,2.717869384765625,-0.18247867387086153,0.0022498247534036633,-0.23635493322610854
1763692624453890300,2.727890380859375,-0.19431611891984937,0.016547814697027204,-0.23336451923847198
1763692624463911200,2.7379111328125,-0.15964929468631744,-0.025678923396766185,-0.5050035318136215
1763692624473933600,2.74793359375,-0.07986322578787804,-0.03799947578758001,-0.6329962899982929
1763692624483954400,2.757954345703125,-0.0848363380253315,-0.0696887455150485,-0.6966372797816991
1763692624493976300,2.767976318359375,-0.08352525542676448,-0.07557780355364084,-0.7387666949808597
1763692624503997400,2.77799755859375,-0.08317804942429065,-0.06430939056426287,-0.7327677468270063
1763692624514018300,2.788018310546875,-0.05257102197557687,-0.15277707082927225,-0.6588923632770777
1763692624524040400,2.79804052734375,-0.0502259201541543,-0.14285188914239405,-0.6528484069377184
1763692624534061300,2.808061279296875,-0.0992623382627964,-0.1789154284313321,-0.5334381836593151
1763692624544083500,2.81808349609375,-0.12718728702068327,-0.19832944621443746,-0.4984317522078752
1763692624554104300,2.828104248046875,-0.16562544648647307,-0.2360778698503971,-0.5201882414638996
1763692624564125200,2.838125244140625,-0.1853819940969348,-0.23783348134607074,-0.5821352868109941
1763692624574147600,2.848147705078125,-0.19102906007319687,-0.23023820391148328,-0.5804623851627111
1763692624584168400,2.85816845703125,-0.32352409811317917,-0.18338760540932417,-0.5356751489311457
1763692624594190300,2.8681904296875,-0.325861308889091,-0.1800549538552761,-0.5348948122084141
1763692624604211500,2.87821142578125,-0.322271175442636,-0.1654737630560994,-0.4423170662760734
1763692624614232300,2.888232421875,-0.1539142581656575,-0.320922683443129,-0.1964811879992485
1763692624624254500,2.89825439453125,-0.15594517947137354,-0.3219908971965313,-0.19781915860474109
1763692624634275300,2.908275390625,-0.07517126857936382,-0.38927550417929885,-0.0215150817155838
1763692624644297500,2.91829736328125,-0.07905103262215853,-0.39163112739473577,-0.024237200155854222
1763692624654318300,2.928318359375,-0.13257657884359358,-0.3847960206776857,0.05335282000303268
1763692624664339200,2.938339111328125,-0.19232699092924593,-0.39000995593369003,0.09113689947426319
1763692624674361300,2.948361328125,-0.27271248702555895,-0.3759776311889291,0.17190145801603793
1763692624684382500,2.958382568359375,-0.3011544453948736,-0.4040042867556214,0.2500315764009952
1763692624694404400,2.968404296875,-0.2951411764547229,-0.4057128442391753,0.2515186000883579
1763692624704425200,2.97842529296875,-0.2140484088718891,-0.46126200524270533,0.24574469286203382
1763692624714446300,2.9884462890625,-0.2073947962015867,-0.45875382181406016,0.24962591820955274
1763692624724468500,2.998468505859375,-0.1876329878941178,-0.4085083201766014,0.08134732686579227
1763692624734489300,3.0084892578125,-0.17832915297597646,-0.3296747296974063,-0.04323299252688884
1763692624744511500,3.018511474609375,-0.17800620463192462,-0.3237672592192888,-0.04010404685139656
1763692624754532400,3.028532470703125,0.08837094189226627,-0.16097878972440957,-0.391005981233716
1763692624764553200,3.03855322265625,0.07890928606390953,-0.15843465819954872,-0.39340135193765163
1763692624774575400,3.048575439453125,0.2613680861905217,-0.06268763458132744,-0.6133002404034137
1763692624784596500,3.058596435546875,0.22127602203786373,-0.06582213321477175,-0.6355015508174896
1763692624794618400,3.068618408203125,0.20189152261018753,-0.07444090847820044,-0.6475754349708557
1763692624804639200,3.07863916015625,0.21832944719195366,-0.07615063500553369,-0.7082587439924478
1763692624814660400,3.088660400390625,0.19627455951124428,-0.09145575616508722,-0.7250152330040931
1763692624824682500,3.0986826171875,0.37991467837691306,-0.12344751597046852,-0.7491425430446863
1763692624834703400,3.108703369140625,0.43355449862778184,-0.19137538929283618,-0.7039169153958559
1763692624844725200,3.118725341796875,0.40605215919613835,-0.2787900533735752,-0.6143289989292621
1763692624854746400,3.128746337890625,0.3808709561884403,-0.30533348464518784,-0.6389408776164055
1763692624864767200,3.138767333984375,0.30558132192641496,-0.3384294063001871,-0.48934886656403537
1763692624874789000,3.1487890625,0.18919921429753303,-0.3142883599951863,-0.11759995898604392
1763692624884810000,3.15881005859375,0.19482260713726282,-0.3589928863793611,0.03370645476877689
1763692624894831900,3.168831787109375,0.2153971931323409,-0.38103403779566286,0.1923462801516056
1763692624904853000,3.17885302734375,0.17247604303359984,-0.36126316939890385,0.3374310429126024
1763692624914873900,3.188873779296875,0.15716799926459787,-0.36540421472638845,0.32839550354182717
1763692624924896000,3.19889599609375,0.17611673762351274,-0.22331483438909053,0.4661982926011085
1763692624934916900,3.208916748046875,0.16431816328018903,-0.2172834452703595,0.46428456793427464
1763692624944939000,3.21893896484375,0.25814883188307286,0.004994447286427021,0.4012964891016483
1763692624954960000,3.2289599609375,0.231980663664639,0.07529986339509487,0.3939683381706476
1763692624964980700,3.238980712890625,0.15768910052925347,0.11986176643818616,0.39679391698539257
1763692624975003000,3.2490029296875,0.07446691970229148,0.13152297813743352,0.4370201289117336
1763692624985024000,3.25902392578125,0.07875380324125289,0.13714695549905298,0.44201077680587764
1763692624995046000,3.2690458984375,0.015085633189976215,0.05235124174505472,0.5370622193753719
1763692625005066800,3.279066650390625,0.009959960739314556,0.018205226515233517,0.5094669409632683
1763692625015087900,3.289087890625,0.013923019151389599,0.060276481786370274,0.3692173432737589
1763692625025110000,3.299110107421875,-0.023659108006954192,0.15201690011173485,0.22206395754516123
1763692625035131000,3.309130859375,-0.0335863355204463,0.1605555958762765,0.2222609414219856
1763692625045153000,3.319153076171875,-0.11384002193063497,0.32396453535705805,-0.019971943926811217
1763692625055174000,3.329173828125,-0.1287327628970146,0.3313718890041113,-0.02266658983826637
1763692625065194800,3.33919482421875,-0.06586158844232559,0.44767800878733394,-0.1505535495609045
1763692625075217000,3.349216796875,0.012815934692323207,0.4495864727571606,-0.13203706513941288
1763692625085238000,3.359238037109375,-0.0027668343648314473,0.45250615959614515,-0.13757073386907576
1763692625095260000,3.369260009765625,0.2588596105009317,0.4323945149376988,-0.19327099378108978
1763692625105280800,3.37928076171875,0.2431824411585927,0.43178047469258307,-0.20082593920528888
1763692625115302000,3.389302001953125,0.1904027448683977,0.4426131266131997,-0.20652619667351244
1763692625125324000,3.399323974609375,0.14273819963485002,0.41804976324290033,-0.17741174587011335
1763692625135345000,3.409344970703125,0.13030103512704372,0.411519192430377,-0.18677461749911306
1763692625145366800,3.41936669921875,-0.03326104908883572,0.30430151124894617,-0.047640872097015376
1763692625155388000,3.429387939453125,-0.040785599374771116,0.29826047751903534,-0.05448270081579685
1763692625165408800,3.43940869140625,-0.18802607886493206,0.21015257047712801,0.12414192797541618
1763692625175431000,3.449430908203125,-0.18967793772518635,0.20880670882612465,0.1226245091497898
1763692625185452000,3.4594521484375,-0.24676819069087505,0.14897972437292337,0.18294483007788656
1763692625195474000,3.469473876953125,-0.24366905563175678,0.1532230610311031,0.18672785574793815
1763692625205494800,3.479494873046875,-0.25590835947990415,0.1393976570352912,0.20477029291689394
1763692625215516000,3.489515869140625,-0.23250176492929459,0.16842501407712698,0.13085223926901818
1763692625225537800,3.499537841796875,-0.22779607145637273,0.17630173880159855,0.13733926320075987
1763692625235559000,3.509558837890625,-0.25574147848039863,0.20617840614914892,0.10208908612132071
1763692625245580800,3.519580810546875,-0.2271896299958229,0.15945581794083116,0.09068155692219734
1763692625255602000,3.529601806640625,-0.21700842772126197,0.12717150492966176,0.0810626647055149
1763692625265622800,3.539622802734375,-0.2319119823426008,0.09822568869143723,0.08915946192145346
1763692625275644700,3.549644775390625,-0.23296996696293354,0.09467033429741858,0.08674480199515819
1763692625285666000,3.559666015625,-0.3456441599845886,-0.013104103983938693,0.17174655971527097
1763692625295688000,3.56968798828125,-0.3504933535814285,-0.019620938532054422,0.16594167282879352
1763692625305708800,3.579708740234375,-0.4290729692995548,-0.05416209055930376,0.19346797765791415
1763692625315730000,3.58972998046875,-0.4145820871323347,-0.07382306884080171,0.13992109638750552
1763692625325751800,3.599751708984375,-0.4282189828187227,-0.08033376590907573,0.12990823641717433
1763692625335773000,3.60977294921875,-0.23881518585979938,-0.03793780872821808,-0.13090835337042808
1763692625345794800,3.619794921875,-0.25963644009232517,-0.046808512926101685,-0.145765146240592
1763692625355816000,3.62981591796875,-0.21876374695599077,-0.009018003714084625,-0.2653787831366062
1763692625365836800,3.6398369140625,-0.10994184544831513,-0.08287555934637784,-0.3836982885688543
1763692625375858700,3.649858642578125,-0.10346914230287074,-0.21325492040663957,-0.39983167724609375
1763692625385880000,3.659880126953125,-0.13603870199620724,-0.272068928425014,-0.3665063307493925
1763692625395902000,3.66990185546875,-0.1642544503942132,-0.29176760836839677,-0.3918646438896656
1763692625405922800,3.6799228515625,-0.3538239593088627,-0.25628011540174483,-0.177723880559206
1763692625415944000,3.68994384765625,-0.3777119076356292,-0.2740188934490084,-0.20017828895151615
1763692625425965800,3.6999658203125,-0.3896861308068037,-0.39686289056837554,0.1630751774817705
1763692625435987000,3.709987060546875,-0.33696634801030156,-0.5022045487448573,0.23630115721225736
1763692625446008800,3.7200087890625,-0.35699615960419173,-0.5051879484698176,0.224052501013875
1763692625456030000,3.730030029296875,-0.12788871328830717,-0.3858730022594333,0.07037117482125758
1763692625466050800,3.74005078125,-0.15040800361037254,-0.3788084707006812,0.0625321517586708
1763692625476072700,3.75007275390625,-0.18472089983969925,-0.05589227535277605,-0.2077612914264202
1763692625486094000,3.760093994140625,-0.244526549243927,-0.05813713167011737,-0.3330395299553871
1763692625496116000,3.770115966796875,-0.26324527823925015,-0.050286710430681704,-0.3385977486044168
1763692625506136800,3.78013671875,-0.32840953206717965,-0.1326177876368165,-0.4565566040307283
1763692625516158000,3.790157958984375,-0.33770284559130664,-0.12836772897690535,-0.45915305026471614
1763692625526179800,3.800179931640625,-0.4425742559075355,-0.1517883520528674,-0.28084055616259573
1763692625536201000,3.810200927734375,-0.4424105897784233,-0.1464753403365612,-0.2776671868234873
1763692625546222800,3.820222900390625,-0.5722092283412814,-0.2266515775963664,-0.013071663019061089
1763692625556244000,3.830243896484375,-0.6273650061130523,-0.1864306263670325,0.05857260047793388
1763692625566264800,3.840264892578125,-0.6228901987865567,-0.16968056709617374,0.07062953349649906
1763692625576286700,3.85028662109375,-0.7241068859875202,-0.015997487337887285,0.06805062291920184
1763692625586308000,3.86030810546875,-0.7193038696199655,0.005841127243638038,0.08303601060509681
1763692625596330000,3.870330078125,-0.6153723705023527,0.2054679197922349,-0.010599135425686836
1763692625606350800,3.880350830078125,-0.576605709734559,0.34203736766427756,0.0017079729616641998
1763692625616372000,3.8903720703125,-0.5751999345898627,0.35932489481270313,0.0120820674598217
1763692625626393900,3.900393798828125,-0.49354690277576446,0.47735739999711513,0.03575111233890056
1763692625636415000,3.9104150390625,-0.4991618200480938,0.4863590370982885,0.037710429713129996
1763692625646436900,3.920436767578125,-0.34705022739022967,0.5201783045917749,0.1343371587753296
1763692625656458000,3.9304580078125,-0.3237111451178789,0.5853437274634837,0.13660568822920321
1763692625666478800,3.940478759765625,-0.3518395074933767,0.6801017400443553,0.162600545707345
1763692625676500700,3.950500732421875,-0.43150750297009943,0.7422042682141066,0.23600129748284815
1763692625686522000,3.960522216796875,-0.4614817854732275,0.7332809570461511,0.21449089194238186
1763692625696543000,3.97054296875,-0.4770628009647131,0.6994122974529862,0.2724076588600874
1763692625706564900,3.98056494140625,-0.33304946682751174,0.530088873231411,0.24967326448261737
1763692625716586000,3.9905859375,-0.3231885825484991,0.5570797560095787,0.1281283672630787
1763692625726608000,4.00060791015625,-0.3688666301399469,0.6596776684358716,-0.023261633121967315
1763692625736629000,4.01062890625,-0.39974399896264073,0.6544117107316851,-0.04422024999856949
1763692625746649900,4.02064990234375,-0.3476607605040073,0.7463537891089915,-0.2908423102170229
1763692625756672000,4.030672119140625,-0.37335254338234664,0.7412246095269918,-0.3089987291544676
1763692625766692900,4.04069287109375,-0.33861996043622494,0.7598030532687902,-0.4292454032570123
1763692625776714800,4.05071484375,-0.35791561253666876,0.7522200507938861,-0.4452238936334848
1763692625786736000,4.060736083984375,-0.6408955188155174,0.8619231190502643,-0.24703823980391024
1763692625796758000,4.070758056640625,-0.7623477693155407,0.7803253245547414,-0.08240823409557342
1763692625806779000,4.08077880859375,-0.7694339281842112,0.7696478631958364,-0.09297638986110687
1763692625816800000,4.090800048828125,-0.746429484693706,0.530523172995448,-0.04549509223997593
1763692625826822000,4.10082177734375,-0.7528694546133279,0.5248430815324187,-0.05278466472625732
1763692625836843000,4.110843017578125,-0.797927909001708,0.6307309754148125,-0.3281505888700485
1763692625846865000,4.120864990234375,-0.8271294535666703,0.6823194160938263,-0.4988116914361715
1763692625856886000,4.130885986328125,-0.7955757929176092,0.7405158767357468,-0.7050555640369653
1763692625866907000,4.140906982421875,-0.7488537892311811,0.7631488565653562,-0.9069453330814838
1763692625876928800,4.1509287109375,-0.7535106751263141,0.7701254175797104,-0.9057143299818038
1763692625886950000,4.160949951171875,-0.5976946749925613,0.8620552209973334,-1.135395192271471
1763692625896970800,4.170970703125,-0.5922948617756366,0.8669657893925905,-1.1291782174527645
1763692625906993000,4.180992919921875,-0.5004962835222483,0.9257827200204134,-1.1067980433404445
1763692625917013800,4.191013671875,-0.4096843782186508,0.8407713176891207,-1.020029860469699
1763692625927036000,4.201035888671875,-0.31831366998851296,0.7677014053031802,-0.9372516240179538
1763692625937056800,4.211056884765625,-0.29320085604190826,0.6859019507557154,-0.8297229771912098
1763692625947077600,4.22107763671875,-0.2685457227349281,0.6797127407267689,-0.8185171080440282
1763692625957100000,4.23110009765625,-0.32947453095018864,0.530055263222754,-0.5840484269559383
1763692625967121000,4.241120849609375,-0.3077157036066055,0.5188716059073806,-0.5776718776613473
1763692625977142800,4.251142822265625,-0.43124505264163016,0.35354105071425435,-0.35983693598806854
1763692625987164000,4.261163818359375,-0.4053063092648983,0.3461754903823137,-0.2724894919246435
1763692625997184800,4.271184814453125,-0.3019026334136724,0.30744068605750796,-0.23083178589046
1763692626007207000,4.28120703125,-0.14385434418320656,0.2610501062825322,-0.23113398370742796
1763692626017227800,4.291227783203125,-0.13911299487501383,0.2385723170146346,-0.24175650000870227
1763692626027250000,4.30125,0.19592267733365296,0.19484160409867762,-0.20191665705144404
1763692626037270800,4.311270751953125,0.1947024878889322,0.16405308260321616,-0.2212637470781803
1763692626047291600,4.321291748046875,0.5295788778826594,0.08723287777304649,-0.0597960047930479
1763692626057313800,4.331313720703125,0.7371089909017086,-0.04547317266911268,0.0184434191852808
1763692626067335000,4.3413349609375,0.7281921094745397,-0.08935030831843614,-0.014348843348026274
1763692626077356800,4.351356689453125,1.1792960010573268,-0.3880050458520651,0.08997837708890438
1763692626087377700,4.361377685546875,1.16601098754853,-0.43770898795872926,0.0498749147593975
1763692626097398800,4.371398681640625,1.4472344055488704,-0.7960992322698235,0.13368775495588778
1763692626107421000,4.3814208984375,1.3997031313061714,-0.9002499270960688,0.14903320812582968
1763692626117441800,4.39144189453125,1.2152552031889556,-0.9552648350924253,0.1647872420966625
1763692626127464000,4.4014638671875,0.9791682732492685,-1.0246499214857816,0.3016203093409538
1763692626137484800,4.41148486328125,0.9837246213793754,-1.06178518165946,0.2787082203090191
1763692626147505700,4.421505615234375,0.602799596916139,-1.386926651841402,0.7395107913464307
1763692626157527800,4.43152783203125,0.5250304207980633,-1.5589824236363172,0.9848802211552857
1763692626167549000,4.441548828125,0.3681210724696517,-1.6895131758660078,1.2356231606960295
1763692626177570800,4.45157080078125,0.2017740337103605,-1.712875931274891,1.4121914414793253
1763692626187591700,4.461591796875,0.24378596000969407,-1.7213438998907804,1.4315969836950302
1763692626197612800,4.47161279296875,-0.1347644442766905,-1.4872195021957157,1.4357465045899152
1763692626207635000,4.481635009765625,-0.2430287119016051,-1.3400842366456984,1.3755752367436884
1763692626217655800,4.49165576171875,-0.26360768181085587,-1.1771551896363497,1.2344114468187093
1763692626227677700,4.501677734375,-0.27560060968250033,-0.9869967749178409,1.1238643289536236
1763692626237698800,4.51169873046875,-0.25058599541336296,-0.9699339964359999,1.1499527099341154
1763692626247719700,4.5217197265625,-0.09276070128381252,-0.7037029803842306,0.9019155222207307
1763692626257741800,4.531741943359375,-0.0840431418210268,-0.6833686328858136,0.920725436630845
1763692626267763000,4.541762939453125,0.16915742000490425,-0.5224854124903678,0.5300923803627491
1763692626277784800,4.551784912109375,0.2525985042795539,-0.3813327284812927,0.3106827367186546
1763692626287805700,4.5618056640625,0.2891211855128407,-0.24139292739331722,0.10290683224499225
1763692626297826800,4.571826904296875,0.3341378465861082,-0.11611468886435031,-0.15215280145108698
1763692626307849000,4.581848876953125,0.2964402763545513,-0.09746610249578952,-0.1611725587308407
1763692626317869800,4.591869873046875,0.6123334411978721,0.15251958893686532,-0.6302864465177059
1763692626327891700,4.6018916015625,0.5617857417434453,0.16573066042661666,-0.6510077475070953
1763692626337912800,4.611912841796875,0.9084241734623908,0.4698325574502349,-0.6588689824014902
1763692626347933700,4.62193359375,1.0675362925320864,0.5534954677820205,-0.5532815327703953
1763692626357955800,4.631955810546875,1.0142594603747128,0.5580535694777965,-0.5828478189945221
1763692626367977000,4.64197705078125,1.178536414861679,0.5561185097619891,-0.21243629750013351
1763692626377997800,4.651997802734375,1.1328750261440872,0.5564198307961226,-0.2410486440002918
1763692626388019700,4.662019775390625,1.1061614990025759,0.37071810322552917,0.38694823027551173
1763692626398040800,4.672040771484375,1.0474702405810357,0.2851782931059599,0.6814566617846488
1763692626408063000,4.68206298828125,1.0204168139606713,0.28630086739510296,0.6645698243916034
1763692626418083800,4.692083740234375,0.9045067077577114,0.06958499287962913,1.035529627418518
1763692626428105000,4.70210498046875,0.8884767794549465,0.07320230659395456,1.0274059421956538
1763692626438126800,4.712126953125,0.7483189517021179,-0.05942366434931755,1.0906173083901405
1763692626448147700,4.722147705078125,0.6642699646621942,-0.024258535204827784,1.0089870729297399
1763692626458169900,4.732169921875,0.5083686243325471,0.011534370449185372,0.9294470877468586
1763692626468191000,4.74219091796875,0.38906741438657044,0.10353343971073627,0.8058855900079012
1763692626478211800,4.7522119140625,0.3854331495374441,0.11060557005405425,0.8082669321864843
1763692626488233700,4.762233642578125,0.1192456803664565,0.21173194862306116,0.5588040955841541
1763692626498254800,4.7722548828125,0.11988485505282878,0.21980594948530197,0.5646972452759742
1763692626508277000,4.782277099609375,0.0457271474301815,0.18312778542935848,0.36134383341968057
1763692626518297900,4.7922978515625,0.057385436519980425,0.17109335650354623,0.27859949923753735
1763692626528319000,4.802319091796875,0.0935720176666975,0.21276333749741314,0.192328744494915
1763692626538340900,4.8123408203125,0.09932897375822067,0.299068579031527,0.14758768549263476
1763692626548361700,4.82236181640625,0.09617430911958218,0.3069496876701712,0.15075754770040511
1763692626558383900,4.8323837890625,0.20802695662528276,0.34713352175951,-0.013426467806100845
1763692626568405000,4.842405029296875,0.2718751594185829,0.3523112166583538,-0.07883446726202964
1763692626578425900,4.85242578125,0.27992402583956716,0.3914300518646836,-0.1308545773565769
1763692626588447700,4.86244775390625,0.2530500474393368,0.3979945249468088,-0.16020868213474748
1763692626598468900,4.87246875,0.24074644618332386,0.39077538734823464,-0.17332827594876288
1763692626608491000,4.882490966796875,0.2839990201935172,0.38416882869005203,-0.1756628563761711
1763692626618512000,4.892511962890625,0.2720022929295897,0.37026422197818754,-0.19321020350456236
1763692626628533000,4.902532958984375,0.3345160322487354,0.3321098478898406,-0.0961684639006853
1763692626638555000,4.912554931640625,0.29283348403424025,0.26407208445221186,0.048286184263229365
1763692626648575700,4.92257568359375,0.21296265946179627,0.21307810253500936,0.2411883447319269
1763692626658598000,4.932597900390625,0.07136106264144182,0.14318039044439793,0.41826925121247766
1763692626668619000,4.942618896484375,0.0651116468578577,0.12566256167143583,0.40170974607765675
1763692626678639900,4.952639892578125,-0.16387421890497206,0.0031578795090317726,0.7704308302670717
1763692626688661800,4.962661865234375,-0.25413082841336726,-0.01973988873660564,0.9011141427099704
1763692626698683000,4.972682861328125,-0.3583452361255884,0.00473521182835102,0.9864467398196458
1763692626708703700,4.982703857421875,-0.47467064513117074,0.06359130542278289,0.9910112712562084
1763692626718726000,4.992725830078125,-0.46320904765725135,0.05977905365824699,0.9963082086205481
1763692626728747000,5.0027470703125,-0.6024424540415406,0.1923456956297159,0.818304926598072
1763692626738769000,5.012768798828125,-0.5848576975122094,0.1903764413833618,0.8290800031125545
1763692626748789800,5.022789794921875,-0.8737748848855494,0.2362777763366699,0.7354647308260202
1763692626758811000,5.032810791015625,-0.9923317062050103,0.2279308037519455,0.7303945879548788
1763692626768833000,5.0428330078125,-1.0585001686394213,0.2486222941249609,0.7405132463872433
1763692626778854000,5.05285400390625,-1.0678478426992892,0.3066401833295822,0.7333546068042516
1763692626788875800,5.062875732421875,-1.0480337196826934,0.31157880877554417,0.7500853768527508
1763692626798897000,5.07289697265625,-1.0054799415916205,0.5048761060416698,0.6199848327338695
1763692626808917800,5.082917724609375,-0.9525187512546777,0.6288666428476571,0.5208797308593988
1763692626818940000,5.09293994140625,-0.8869321803614497,0.7129243977159261,0.4120610442221164
1763692626828960800,5.102960693359375,-0.7875029610991477,0.7451362300127744,0.3284469414681196
1763692626838983000,5.11298291015625,-0.7766735240489244,0.7566419588893651,0.34338498288094993
1763692626849003800,5.123003662109375,-0.5811667340397835,0.7292001174733043,0.049210313370823856
1763692626859024600,5.133024658203125,-0.5737228477746248,0.7378127552568912,0.0598790069013834
1763692626869047300,5.14304736328125,-0.5068792625576257,0.7069608131363988,-0.18373393462896345
1763692626879068400,5.153068359375,-0.5034776374205947,0.7173799158200621,-0.26052140623331066
1763692626889090300,5.16309033203125,-0.488711737704277,0.7478428586229682,-0.2949018147408962
1763692626899111200,5.173111083984375,-0.4163678015053272,0.7681167081058025,-0.3262386177688837
1763692626909132300,5.18313232421875,-0.4163818300306797,0.77285834967494,-0.32305648060142994
1763692626919154400,5.193154541015625,-0.10144377395510673,0.7196928689375519,-0.4040057480603456
1763692626929175300,5.20317529296875,0.029549335089325904,0.676788377712667,-0.4223538901776075
1763692626939197200,5.213197265625,0.09731208097785711,0.6228364227727056,-0.4640250402152538
1763692626949218300,5.22321826171875,0.10507657749950886,0.5227288658574223,-0.48375557660162444
1763692626959239200,5.2332392578125,0.10290449415743351,0.520116637532413,-0.4869043960213661
1763692626969261300,5.24326123046875,0.08367898468375205,0.3067687781453132,-0.4528957434356212
1763692626979282400,5.253282470703125,0.08698036431670188,0.3009250205531716,-0.45470250059664247
1763692626989304300,5.26330419921875,0.06586041939854621,0.17191460975855588,-0.4699281267791986
1763692626999325200,5.2733251953125,0.04011895215958357,0.1322378484085202,-0.44416357092559333
1763692627009346300,5.28334619140625,0.05168459452986717,0.12903729880154133,-0.43891865600943564
1763692627019368400,5.293368408203125,0.049563364592194556,0.12862959478348493,-0.4668652320772409
1763692627029389300,5.303389404296875,0.06623100627660751,0.12858750920742748,-0.456312858402729
1763692627039410400,5.313410400390625,0.1407297824218869,0.08598550806045532,-0.4936462714970112
1763692627049432300,5.323432373046875,0.24507863016873596,0.08625643395632505,-0.5256196188628673
1763692627059453200,5.333453125,0.26285072596371173,0.0859974907591939,-0.5146978273540735
1763692627069475300,5.343475341796875,0.37120530222058296,0.09792378313541412,-0.6033049160897731
1763692627079496400,5.353496337890625,0.3864093010932207,0.09247048616558314,-0.5975538052171468
1763692627089517300,5.363517333984375,0.3820423380553722,0.0023725743502378462,-0.5697475144028663
1763692627099539200,5.373539306640625,0.3817810567706823,-0.06667202804237604,-0.5329302341371774
1763692627109560300,5.383560302734375,0.42987668689787384,-0.15299159036278723,-0.49137072778046126
1763692627119582500,5.39358251953125,0.5028910697042942,-0.24798867239654063,-0.44272915420830244
1763692627129603300,5.403603271484375,0.5143775093585252,-0.2642752058088779,-0.4467763837724924
1763692627139624400,5.41362451171875,0.4060410532802343,-0.41537411429286003,-0.3110714437752962
1763692627149646300,5.423646240234375,0.3656301324367523,-0.4596691830933094,-0.28742344168424605
1763692627159667200,5.433667236328125,0.2960480621665716,-0.5069307004839182,-0.2808890714794397
1763692627169689300,5.443689453125,0.21222996127307414,-0.5099748904854059,-0.2798714188694954
1763692627179710500,5.45371044921875,0.23668401905000208,-0.5212976640105247,-0.27302199136614796
1763692627189731300,5.4637314453125,0.19429332256615162,-0.5846592523306607,-0.20981588586866853
1763692627199753200,5.473753173828125,0.22913550336658953,-0.5957452944904565,-0.19694354481399057
1763692627209774300,5.4837744140625,0.1960802059829235,-0.6794739635348319,-0.07482230901122093
1763692627219795500,5.49379541015625,0.2111880510047078,-0.6942237888991832,-0.052475452646613116
1763692627229817300,5.5038173828125,0.2507783031150699,-0.7068214046657085,-0.038620530295372005
1763692627239838500,5.51383837890625,0.18315467343628405,-0.6653747110337018,-0.04220072686970234
1763692627249860400,5.5238603515625,0.21857699221223592,-0.6791746883273124,-0.03199614371955395
1763692627259881200,5.533881103515625,0.18998188910782335,-0.6685638624638318,-0.033953123006224634
1763692627269902600,5.543902587890625,0.21877894452512264,-0.6829015998959541,-0.028133623072504995
1763692627279924500,5.553924560546875,0.21244214271903036,-0.6413333257108926,0.04628185870349407
1763692627289945300,5.5639453125,0.22188655515164135,-0.6452069522738456,0.10373860689401626
1763692627299967200,5.57396728515625,0.23959406127780675,-0.659011021220684,0.1036146882534027
1763692627309988400,5.58398828125,0.3206950121670961,-0.7518857042729854,0.15645020638406276
1763692627320009500,5.594009521484375,0.3337643370985985,-0.7657745288938284,0.15366905123293398
1763692627330031400,5.60403125,0.2581885793715715,-0.7991209181785583,0.24189269360899923
1763692627340052500,5.614052490234375,0.2802840913236141,-0.802193165230751,0.2364525483816862
1763692627350074400,5.624074462890625,0.269998844152689,-0.8195277463912963,0.1900415103405714
1763692627360095200,5.63409521484375,0.2713078809246421,-0.7822276510447264,0.10596446624994277
1763692627370116400,5.644116455078125,0.276787481379509,-0.7927315094023942,0.10137304680645465
1763692627380138500,5.654138427734375,0.23520927032232283,-0.6282008724153042,-0.02420680501759052
1763692627390159400,5.664159423828125,0.299601955255866,-0.6236246505409478,-0.09761398653388023
1763692627400180200,5.67418017578125,0.38137832118868825,-0.5805085623919963,-0.15543898351490495
1763692627410202400,5.684202392578125,0.45745326060950753,-0.5426823973447084,-0.1926198363959789
1763692627420223200,5.69422314453125,0.4680491811648011,-0.5538491035252809,-0.19511399129927157
1763692627430245400,5.704245361328125,0.6708961048036813,-0.5768289970964193,-0.12532733836770057
1763692627440266500,5.7142666015625,0.6774293059647083,-0.5877355910360813,-0.12981938908994198
1763692627450287400,5.724287353515625,0.8147317442864179,-0.4983879130661487,-0.2722486689060926
1763692627460309200,5.734309326171875,0.8235808211743831,-0.4743289920866489,-0.3551584227830171
1763692627470330000,5.744330078125,0.8217951068013906,-0.4878934070587158,-0.3660235156685114
1763692627480352500,5.7543525390625,0.6214063899695873,-0.4650327559530735,-0.40816111417412754
1763692627490373400,5.764373291015625,0.6226449918538332,-0.4836562078803777,-0.42127135563790796
1763692627500394200,5.774394287109375,0.3614654139727354,-0.6218932967036962,-0.15568272914290426
1763692627510416400,5.78441650390625,0.36982407699525355,-0.6423258438795805,-0.16654489941895007
1763692627520437200,5.794437255859375,0.04654489355385303,-0.807228821310401,0.1812134762406349
1763692627530459400,5.80445947265625,-0.10742635549604893,-0.8543377784878015,0.30347733538448807
1763692627540480300,5.814480224609375,-0.08823854768425225,-0.8667664674282074,0.30409400597810743
1763692627550501400,5.82450146484375,-0.2916872366085648,-0.818276869547367,0.39794425606429573
1763692627560523300,5.834523193359375,-0.27142186269313096,-0.8216367013692856,0.40584699201285834
1763692627570544000,5.844544189453125,-0.40512598426193,-0.6217763923257589,0.31030279749035833
1763692627580565500,5.8545654296875,-0.42710722218453884,-0.4546656757175922,0.22156360680758952
1763692627590587400,5.86458740234375,-0.3746002053558826,-0.35695290498435495,0.13864450058043
1763692627600608300,5.874608154296875,-0.34030162991285323,-0.3441249875932932,0.0836117646664381
1763692627610630400,5.88463037109375,-0.3310360811784863,-0.3397971875220537,0.09150748635232447
1763692627620651300,5.8946513671875,-0.2890636101067066,-0.43041970773339266,0.005130933147668838
1763692627630672400,5.90467236328125,-0.28390812703967094,-0.42805239408016205,0.009473930788040161
1763692627640694300,5.9146943359375,-0.3913493878439069,-0.41103813091516495,-0.07115268058776855
1763692627650715400,5.92471533203125,-0.41112084076255556,-0.34529403137266634,-0.20899287904798983
1763692627660737300,5.9347373046875,-0.41000206586569543,-0.34170448244810103,-0.20576047299802303
1763692627670758100,5.944758056640625,-0.36552170362621544,-0.22068974658250806,-0.4421878869384527
1763692627680779500,5.954779541015625,-0.36621173171699045,-0.21496201658546923,-0.43827217479944225
1763692627690801400,5.964801513671875,-0.2775768781915307,-0.02359656416475773,-0.607624532854557
1763692627700822300,5.974822265625,-0.2464513798266649,0.05728431423306465,-0.6180570795416832
1763692627710843400,5.984843505859375,-0.16612608948498964,0.09282207608222962,-0.5755336965888739
1763692627720865300,5.994865234375,-0.02818535325974226,0.10091302807927131,-0.5168880308747291
1763692627730886400,6.004886474609375,-0.0335080095872283,0.10537877531647681,-0.5162362889677286
1763692627740908300,6.014908203125,0.17482114485502243,0.10705576861798763,-0.43669279665350913
1763692627750929400,6.024929443359375,0.234069452637434,0.18151684310138225,-0.4517687852323055
1763692627760950300,6.0349501953125,0.2954527266219258,0.20421733520925045,-0.5000432790577412
1763692627770972200,6.04497216796875,0.37312048819214105,0.20816811866164206,-0.5673831233590841
1763692627780993500,6.05499365234375,0.3572609480202198,0.20473405255973337,-0.5779600469529629
1763692627791015400,6.065015380859375,0.3512877188295126,0.26262276242673394,-0.43324470202624793
1763692627801036300,6.075036376953125,0.340827991874516,0.2545586984366178,-0.4445949480801821
1763692627811057400,6.085057373046875,0.2402823358029127,0.07723170824050903,-0.04277823449671268
1763692627821079300,6.095079345703125,0.24316695132851598,-0.06001578502357006,0.17802081767916678
1763692627831100400,6.105100341796875,0.24587357993870973,-0.0673334145605564,0.17393208706080912
1763692627841122300,6.115122314453125,0.19721242488324642,-0.24206921921968458,0.4844792147010564
1763692627851143400,6.125143310546875,0.20355127251595256,-0.2429278818756342,0.48709319659173483
1763692627861164300,6.135164306640625,0.062001405882835384,-0.24180559984743594,0.6034779345691204
1763692627871185700,6.145185546875,-0.09475099831819533,-0.20484277363121509,0.6259644916653633
1763692627881206800,6.155206787109375,-0.2610778710722923,-0.17603519681990146,0.6285363879799842
1763692627891227600,6.1652275390625,-0.33081542416512966,-0.14574994867146016,0.6380009664177895
1763692627901249500,6.17524951171875,-0.3219067260444164,-0.13255085988044737,0.6522814207047224
1763692627911270700,6.185270751953125,-0.3711404202908277,-0.16629764665961264,0.5799065048456191
1763692627921292800,6.195292724609375,-0.351387672072649,-0.12994623034000397,0.47398821582496165
1763692627931313700,6.205313720703125,-0.35620530148744584,-0.1071831943899393,0.40429216378629207
1763692627941334800,6.215334716796875,-0.37799832336157557,-0.10244213734269142,0.32697160821855065
1763692627951356700,6.225356689453125,-0.37330548937022684,-0.08760404917299747,0.3400321653217077
1763692627961377500,6.23537744140625,-0.3662959028691053,-0.020914777734875677,0.1092003794312477
1763692627971399700,6.245399658203125,-0.36838849123418327,-0.0056838908553123475,0.11909575050175189
1763692627981420800,6.2554208984375,-0.37341216461509463,0.12971651323735714,-0.021632570615410802
1763692627991441700,6.265441650390625,-0.354763285985589,0.15082009154260156,-0.05875614035129547
1763692628001463600,6.275463623046875,-0.36591947077214715,0.16577333052456378,-0.05366612373590469
1763692628011484700,6.285484619140625,-0.3905184899777174,0.12371347343027592,-0.07524199572801589
1763692628021505800,6.295505859375,-0.4043219744026661,0.14052198489010334,-0.07027122157812118
1763692628031527700,6.305527587890625,-0.33745793091952797,0.2110205854833126,-0.1793885989010334
1763692628041548800,6.315548828125,-0.2330839487314224,0.27972353483140466,-0.25318974817097184
1763692628051570700,6.32557080078125,-0.09556289922297,0.35222120028734205,-0.32722119906544683
1763692628061591600,6.335591552734375,0.04126023114919662,0.439085829269886,-0.4020587056457996
1763692628071613000,6.345613037109375,0.026740415148437023,0.45414077506065365,-0.399008670425415
1763692628081634800,6.355634765625,0.2207642731234431,0.5437304450929165,-0.42581542880833145
1763692628091655700,6.36565576171875,0.20733049879372117,0.5500210696697235,-0.4283306264996528
1763692628101677600,6.375677490234375,0.22680939850658177,0.4845552025467157,-0.33596564653515815
1763692628111698700,6.38569873046875,0.10159282703697681,0.394253000330925,-0.07109364387691021
1763692628121719800,6.3957197265625,0.09122983845472335,0.39079087717831135,-0.07880991734266281
1763692628131741700,6.40574169921875,-0.22301789726912974,0.3469213403135538,0.10264496643841266
1763692628141762800,6.4157626953125,-0.23130583314299583,0.34430443581342696,0.0965437269538641
1763692628151783700,6.42578369140625,-0.3176078598067164,0.3007768442541361,0.1090261919081211
1763692628161805600,6.4358056640625,-0.35962826167345047,0.38382629886269565,0.005485737934708595
1763692628171827000,6.445826904296875,-0.30621786626428366,0.4812713585704565,-0.20638649594187736
1763692628181848800,6.455848876953125,-0.2051122382223606,0.5200649073451757,-0.44998891607820984
1763692628191869700,6.46586962890625,-0.21378362045586108,0.5194628497987985,-0.4549620283156633
1763692628201890800,6.475890869140625,-0.20228549036383628,0.5536638100862503,-0.5620183814555406
1763692628211912700,6.48591259765625,-0.2511377840772271,0.45737084302306175,-0.43691783758103847
1763692628221933800,6.495933837890625,-0.22686609712988137,0.3184738289862871,-0.31628187189996243
1763692628231955700,6.505955810546875,-0.13757862491458653,0.21351123325526714,-0.2740723772019148
1763692628241976800,6.515976806640625,-0.14246785826086997,0.19746786094903945,-0.28794541973173615
1763692628251997700,6.525997802734375,-0.14448270521461962,0.1957142952799797,-0.351935953605175
1763692628262019600,6.53601953125,-0.15680647247582674,0.17872984273135661,-0.3706114279806614
1763692628272041000,6.546041015625,-0.3488523083761334,0.2214548857361078,-0.5089297653466462
1763692628282061800,6.556061767578125,-0.5117006913647055,0.17934709784686564,-0.4992208567589521
1763692628292083700,6.566083740234375,-0.5290305963501334,0.15728139651119707,-0.5247141944557429
1763692628302104800,6.576104736328125,-0.7191898878514766,0.025814824736118316,-0.2517144149214029
1763692628312126700,6.586126708984375,-0.7358154439598321,0.0037602293163537977,-0.27720775261819364
1763692628322147800,6.59614794921875,-0.8330790096208452,-0.1308592535316944,0.09976268900036811
1763692628332168700,6.606168701171875,-0.7689628035411238,-0.20397651219069957,0.23073066360354422
1763692628342190800,6.61619091796875,-0.7012585098415612,-0.21634324181079864,0.2422562662243843
1763692628352211700,6.626211669921875,-0.6488900247007608,-0.1602788247615099,0.22604455161392686
1763692628362233600,6.636233642578125,-0.6780559134304524,-0.16062544624209404,0.20891338407099247
1763692628372254700,6.646254638671875,-0.8477896720185876,0.006204115337133408,0.09965455245077609
1763692628382275800,6.65627587890625,-0.8802855819538236,0.009917582902312278,0.08329553832411765
1763692628392297700,6.666297607421875,-0.8110667920380831,-0.06637246057391166,0.048291444960236546
1763692628402318600,6.676318603515625,-0.8196259460687637,-0.1531108328282833,0.04198679185807705
1763692628412339700,6.686339599609375,-0.9215238935321569,-0.21222762318551538,0.13717384350597858
1763692628422361600,6.696361572265625,-1.0376219235226511,-0.28359423878490925,0.254817641633749
1763692628432382700,6.7063828125,-1.0556523779928684,-0.2740460737168789,0.251001882737875
1763692628442404900,6.71640478515625,-1.2100526661098003,-0.41340252195894717,0.4553583341568708
1763692628452425700,6.72642578125,-1.2239505508199333,-0.39347733978331084,0.4618412664353847
1763692628462446600,6.736446533203125,-1.2687632137537002,-0.16592589073777197,0.3682365155428648
1763692628472468700,6.74646875,-1.2857459127366542,-0.05310030654668808,0.28632161792218686
1763692628482489900,6.75648974609375,-1.286209146334231,-0.025818331867456433,0.30629414637088775
1763692628492511700,6.76651171875,-1.2029302668839692,-0.07885609457194805,0.25904256585240365
1763692628502532600,6.77653271484375,-1.1941384731411933,-0.05023848737478256,0.2853279307097196
1763692628512553700,6.7865537109375,-1.2251222249478102,0.08925356994569301,0.3760995040029287
1763692628522575600,6.79657568359375,-1.1877677690654993,0.2674655262827873,0.47647535646557804
1763692628532596700,6.8065966796875,-0.8884487224042416,0.42881285705864425,0.5310819759219885
1763692628542617900,6.816617919921875,-0.49823944450616836,0.4503472279965877,0.4417553407400846
1763692628552639700,6.8266396484375,-0.4706105560854077,0.48554362906217574,0.4822469256043434
1763692628562660600,6.83666064453125,-0.19834552056640387,0.5278250199526549,-0.13982874192893505
1763692628572682500,6.8466826171875,-0.15623276424109936,0.5581675512462854,-0.09538929622173309
1763692628582703900,6.856703857421875,-0.5366635754466057,0.6236649825513363,-0.5796452235609293
1763692628592724700,6.866724853515625,-0.4662088139951229,0.6517594426572323,-0.5226186834812164
1763692628602746600,6.87674658203125,-0.5255278489261865,0.5315688826560974,-0.5889379525631666
1763692628612767700,6.886767822265625,-0.5793465328752995,0.3197349349632859,-0.8325608309656382
1763692628622788600,6.89678857421875,-0.4622328961014747,0.3618292788490653,-0.7482622530788183
1763692628632810800,6.906810791015625,-0.7240969491153955,0.3564578149437904,-1.2636498162627219
1763692628642832000,6.916831787109375,-0.5907473400726914,0.4145724425211549,-1.168666762754321
1763692628652853800,6.926853759765625,-0.8298349131330848,0.05989478899240493,-1.4635937119364737
1763692628662874600,6.93687451171875,-1.1975839374199508,0.7368833654522895,-1.5980875225782394
1763692628672895700,6.946895751953125,-1.4984291707351802,0.8397595102980733,-1.731294216018915
1763692628682918000,6.95691796875,-1.2221917244538665,0.7606710682749748,-1.7619956437528133
1763692628692938800,6.966938720703125,-1.0902104811549187,0.8428677054464817,-1.6737579728513956
1763692628702960600,6.976960693359375,-1.268101534974575,0.25910481743365527,-1.6606173362493515
1763692628712981800,6.986981689453125,-1.1174942093998192,0.338328868535161,-1.5758470491975545
1763692628723002600,6.997002685546875,-1.0347232794716954,-0.07784604074656963,-1.1049977159202098
1763692628733024800,7.007024658203125,-0.7839350394845008,-0.2026905640333891,-0.9552578208297491
1763692628743046000,7.0170458984375,-0.47738604156970976,-0.2671691736847162,-0.8806517849177121
1763692628753066800,7.027066650390625,-0.4218531010486185,-0.2985878097772598,-0.8484154027014971
1763692628763088600,7.037088623046875,-0.23846681081354618,-0.23351152649372814,-0.7852040365070104
1763692628773109800,7.04710986328125,-0.5481283877909183,-0.04644961648583412,-0.6469950047343969
1763692628783132000,7.0571318359375,-0.38149332587048407,0.0067924366191029545,-0.5999310557425022
1763692628793152800,7.06715283203125,-1.084469307154417,0.19126579143851993,-0.27041911539137364
1763692628803174000,7.077173828125,-0.48296647205054755,0.142997435092926,-0.19327742352187632
1763692628813195800,7.08719580078125,-0.32767478805184364,0.1895250852510333,-0.16052081682384015
1763692628823216600,7.097216552734375,-0.5321400336075574,0.04486760799139738,0.038648002824187275
1763692628833237800,7.10723779296875,-0.3845675456840545,0.09037322162538766,0.06478606816530227
1763692628843260000,7.117260009765625,-0.6511228983193635,-0.9575336568072438,-0.028708792611956593
1763692628853280800,7.12728076171875,-0.518430584141612,-0.9047261957272886,-0.0055921209186315535
1763692628863302700,7.137302734375,-0.9907985052883624,-0.18125643859952686,-0.21191315040886402
1763692628873324300,7.14732421875,-0.9057435560762882,0.04865063366144895,-0.28826281511783597
1763692628883345400,7.157345458984375,-0.7902069593608378,0.08736264163255691,-0.27603403266370297
1763692628893367300,7.1673671875,-0.503307212757133,0.19959172123521565,-0.3556213641196489
1763692628903388200,7.17738818359375,-0.3914531039467081,0.22454496070593594,-0.3509901971876621
1763692628913410300,7.187410400390625,-0.2300993434300646,0.9058715663701296,-0.09496142619848251
1763692628923431400,7.197431396484375,0.1585620839715004,1.1263526386380196,0.07019581825435162
1763692628933452300,7.207452392578125,0.28773214230723676,1.114372862508893,0.05687339534461498
1763692628943474200,7.21747412109375,1.2490893759906292,1.1797685870051384,0.382632120642066
1763692628953495300,7.227495361328125,1.363168175113201,1.136081420969963,0.356406377017498
1763692628963516200,7.23751611328125,2.1380301196955145,1.479986336071789,0.5531348177760839
1763692628973538300,7.247538330078125,2.2996492531500756,1.180447801440954,0.4768336683839559
1763692628983559400,7.257559326171875,2.0979297261059284,0.6999290148034691,0.43629590629041193
1763692628993581300,7.267581298828125,1.6064650364317,0.6112412620469927,0.3865793969631195
1763692629003602200,7.277602294921875,1.6498751390911637,0.5693906637892127,0.36475685673356056
1763692629013623300,7.287623291015625,1.0138732375361024,0.6135220664605497,0.11944295650422572
1763692629023645400,7.2976455078125,1.0486815160669385,0.6041816989243031,0.11071078399419784
1763692629033666300,7.307666259765625,0.5815829136252403,-0.39939211678504943,0.12114449972510337
1763692629043687400,7.3176875,0.6093231534659862,-0.9774982942104339,-0.17296528785526752
1763692629053709300,7.327709228515625,0.6592224720142781,-0.9625722354963421,-0.1752671350568533
1763692629063730200,7.337730224609375,0.26222017297521233,-1.056952646936476,-1.2267659005016087
1763692629073752300,7.34775244140625,0.3337351110041141,-1.045024600994587,-1.2347446242958307
1763692629083773400,7.3577734375,0.2458661272846162,-1.4101502910405397,-0.5556336488544941
1763692629093794300,7.367794189453125,0.43009456743225455,-1.5470298277750612,-0.5759481226086616
1763692629103816200,7.377816162109375,0.4530534182153642,-1.578826065008342,-0.5925900453299283
1763692629113837300,7.38783740234375,0.5395673340640962,-1.2801628519073127,-0.39504619653522965
1763692629123859500,7.397859375,0.5245766856811941,-1.355018186405301,-0.42193069632947444
1763692629133880300,7.40788037109375,0.1233259354174137,-1.1540747583001851,-0.006736614778637886
1763692629143901400,7.4179013671875,0.4531098245777189,-1.0463356835931539,-0.08279284949898719
1763692629153923300,7.42792333984375,0.8510873983897268,-0.944897754856944,0.13023673771917818
1763692629163944200,7.437944091796875,1.0322317549169062,-0.880437557645142,0.3052349927067756
1763692629173965600,7.447965576171875,0.9632464814960956,-0.9943252181097865,0.2641103706359863
1763692629183987500,7.457987548828125,2.1565468963779506,-0.48923254670798777,0.25109073006510735
1763692629194008300,7.46800830078125,2.068781957554817,-0.5826160560652613,0.21867431510686874
1763692629204030200,7.4780302734375,2.067030729973316,0.29501638103127475,-0.4883814828366041
1763692629214051300,7.48805126953125,1.2510802575469016,0.20146102223843335,-0.35500410900413987
1763692629224072400,7.498072509765625,1.164506866595894,0.14053952054679392,-0.3761936120271683
1763692629234094300,7.50809423828125,1.2282301278352736,-0.034870822373032566,-0.7143278347730636
1763692629244115500,7.518115478515625,1.1666987506169826,-0.0754223207309842,-0.7295254039049148
1763692629254136300,7.52813623046875,1.5924387030363083,-0.4964139826446771,-0.8642185365110635
1763692629264158200,7.538158203125,1.9604244586884974,-1.0200789603084326,-0.30682956842184067
1763692629274179600,7.5481796875,1.4748177012622357,-0.12972352750003338,-0.6991600762575865
1763692629284201500,7.558201416015625,1.2226117034316062,-0.621377163875103,0.48720717836022376
1763692629294222300,7.568222412109375,1.2500082444012164,-0.6174164435505867,0.4864870473921299
1763692629304243200,7.5782431640625,0.8391291034400462,-0.262139655084908,-0.12503098576962948
1763692629314265300,7.588265380859375,0.8387503332555294,-0.25256986270695925,-0.11972528057694434
1763692629324286500,7.598286376953125,0.8083915084142237,0.7191162380933761,-0.5422749855875969
1763692629334308400,7.608308349609375,0.793642925158888,1.0081725416764615,-0.4682113859891891
1763692629344329500,7.61832958984375,0.7497872706890105,0.97850337959975,-0.48026130474507805
1763692629354350300,7.628350341796875,1.151206509387493,0.9040145403265952,-0.4814467151373624
1763692629364372200,7.638372314453125,1.4121756593883037,0.6607245471403003,-0.3417617655932903
1763692629374393300,7.648393310546875,1.4340426232814787,0.46470220882445573,-0.9046826488465071
1763692629384414500,7.65841455078125,1.4154922365903853,0.254552853217721,-0.7797188830941915
1763692629394436400,7.668436279296875,1.3429590614296496,0.17572656926214694,-0.3437468019306659
1763692629404457200,7.678457275390625,1.4230395832300184,0.07177168926894664,0.11705284649729727
1763692629414479400,7.688479248046875,1.3965104727447033,0.0019786065965890884,0.07563362539410591
1763692629424500500,7.69850048828125,1.542799935120344,-0.20411562840044498,0.7714712792307138
1763692629434521300,7.708521240234375,1.5020903235912322,-0.26103929262757297,0.7374573659479617
1763692629444543500,7.71854345703125,1.3936825558423995,-0.6848486423105001,1.5338257705479859
1763692629454564400,7.728564453125,1.1165466994166373,-0.9953472546339035,1.5935387732326984
1763692629464585200,7.738585205078125,1.047290207839012,-1.0228764820724725,1.5779899064451455
1763692629474607400,7.748607421875,0.590212794804573,-1.3299211545497178,1.506033508259058
1763692629484628500,7.75862841796875,0.5266565606951713,-1.3360177178591488,1.5033604896575212
1763692629494650400,7.768650390625,0.6382043800354004,-1.4819213957875965,0.9760977797627448
1763692629504671200,7.778671142578125,0.6945885305583477,-1.6102905860692263,0.7893459586173296
1763692629514692400,7.7886923828125,0.654029725676775,-1.5865022987246513,0.805225664794445
1763692629524714500,7.798714599609375,0.8884481378823518,-1.3451122939407825,0.5175713369637728
1763692629534735400,7.8087353515625,0.8491022159218787,-1.3044435989439487,0.5437964960664511
1763692629544756500,7.818756591796875,0.6866922243505716,-0.629459932565689,0.6487824726730584
1763692629554778400,7.8287783203125,0.768747991746664,-0.24289339508414268,0.5562555801451206
1763692629564799200,7.83879931640625,0.7078121692687273,-0.1940805565983057,0.5853787987768649
1763692629574821400,7.8488212890625,0.9389905766397714,-0.23235797254443166,0.2497761403352022
1763692629584842500,7.858842529296875,0.8824562039911746,-0.18685352795422075,0.2754313905954361
1763692629594863400,7.86886328125,0.41219018702711907,-0.008255202648043632,-0.09812602770924568
1763692629604885200,7.87888525390625,0.3920593262115493,0.037729134413599964,-0.07164426349699497
1763692629614906400,7.88890625,0.004724690434336662,0.16432839241325856,0.12166881586015224
1763692629624927200,7.89892724609375,0.2110299378335476,0.13137597088217734,0.07265957801938057
1763692629634949400,7.908949462890625,0.23591128111183643,0.1863008625075221,0.10519055926799774
1763692629644970500,7.918970458984375,0.20167758759856222,0.587743482081592,-0.09052958123087883
1763692629654992400,7.928992431640625,0.23226795617341994,0.6313970381081104,-0.06508242076337337
1763692629665013200,7.93901318359375,-0.03415419853627682,0.7668731377854943,0.008859598281979561
1763692629675034400,7.949034423828125,0.07425123112499714,0.8363233983695506,0.12181786894202232
1763692629685056500,7.959056396484375,0.08894203804479911,0.8600771989226341,0.13505904330909252
1763692629695077400,7.969077392578125,0.15774727872358635,0.8329013149663805,0.21979718165695666
1763692629705099300,7.979099365234375,-0.24308455200837922,0.6747364136189222,0.3950052800029516
1763692629715120400,7.989120361328125,-0.6433060870885848,0.783179544942081,1.1549112091243265
1763692629725141200,7.999141357421875,-0.6170762518107891,0.5466138915747404,1.3080389930874108
1763692629735163400,8.009163330078126,-0.5169447660306469,0.5326791819855571,1.666350911465287
1763692629745184500,8.0191845703125,-0.4488357274550944,0.4892687870651483,1.8808423879295586
1763692629755205400,8.029205322265625,-0.5468149671047926,0.514668893520534,1.8892963280200956
1763692629765227300,8.039227294921876,-1.076341530278325,0.5810846087142825,2.086516351687908
1763692629775248400,8.049248291015624,-1.2350234412372112,0.6148538995862006,2.091285465785861
1763692629785270500,8.0592705078125,-1.4058528861075639,0.8970107990443706,0.9626379942089318
1763692629795291400,8.06929150390625,-1.355436850208789,0.7793637860462069,0.5605664290815592
1763692629805312500,8.0793125,-1.5316889046497641,0.8107397520408034,0.5518968004137277
1763692629815334400,8.08933447265625,-1.8409978687971829,0.9714701199620962,0.4166261601805687
1763692629825355300,8.099355224609376,-1.9857441933840512,0.9990446478471159,0.40478023956418036
1763692629835376400,8.10937646484375,-1.3043139812149107,0.40181846714913844,0.3428875547528267
1763692629845398500,8.1193984375,-1.0741562951937318,0.15586071605831384,0.463414799362421
1763692629855419400,8.12941943359375,-1.1906811722941697,0.18385142352879047,0.45139644478857516
1763692629865440300,8.139440185546874,-0.9358347429573536,0.062407064074277874,0.7609218281656503
1763692629875462400,8.14946240234375,-1.0765320844143629,0.08653788124620913,0.7372825939029455
1763692629885483300,8.159483154296876,-1.253990592035651,0.47067222314476964,0.4318430185347795
1763692629895505200,8.169505126953124,-1.420925659815967,0.49257747322171924,0.39401509992182254
1763692629905526300,8.1795263671875,-1.1722378992393612,1.155901096944511,-1.1406664106726645
1763692629915547100,8.189547119140625,-0.6994868239939213,1.1232038192182778,-1.397881761097908
1763692629925569300,8.1995693359375,-0.8344897532016038,1.1174190983369945,-1.4479711953908203
1763692629935590100,8.209590087890625,0.0723337070658803,0.2564107560440898,-0.8769277959585189
1763692629945611300,8.219611328125,-0.048047407071292396,0.24348054732233285,-0.9297703283518552
1763692629955633200,8.229633056640624,-0.1101765309870243,-0.3924371830806136,-0.46413200772106644
1763692629965654000,8.239654052734375,-0.308591317397356,-0.5221230089187622,-0.3395890977293253
1763692629975676400,8.249676513671876,-0.732033295072615,-0.6765949009671807,-0.18714520437717436
1763692629985697300,8.259697265625,-0.6434767674803733,-0.7199898060575127,-0.06517769783139228
1763692629995718100,8.26971826171875,-0.6825023714452981,-0.690885876648128,-0.06765782420933246
1763692630005740300,8.279740234375,-0.27034166624099015,-0.47282589404731984,-0.6762006409525871
1763692630015761200,8.28976123046875,-0.26307664367407557,-0.4297758568719029,-0.6514227580487728
1763692630025783300,8.299783203125,-0.17379998511373995,0.00912672478556633,-1.1442378394186496
1763692630035804200,8.30980419921875,0.10044833317697048,-0.07361527130901813,-0.8697066125333308
1763692630045825300,8.3198251953125,0.1323281570404768,-0.030505612900853154,-0.8352928862780332
1763692630055847200,8.32984716796875,0.10472644888758659,-0.21253040552437305,-0.6688859340250491
1763692630065868000,8.339867919921875,0.12415069580376148,-0.17249650129973887,-0.64206573163867
1763692630075889200,8.34988916015625,-0.4487634659364819,-0.12025661097466946,-0.8336977260410785
1763692630085911300,8.359911376953125,-0.4417617704808712,-0.09692892687916756,-0.9096469932556152
1763692630095932200,8.36993212890625,-0.28686639232337474,-0.04833996027708053,-0.8857727811932563
1763692630105954000,8.3799541015625,0.3489993156313896,0.036812896351516244,-1.1874427748948335
1763692630115975200,8.38997509765625,0.3281836143568158,0.05626958423256874,-1.1874532962888478
1763692630125996000,8.39999609375,0.3895242182433605,0.24478227757066487,-1.925111153244972
1763692630136018200,8.41001806640625,0.3518137885302305,0.25146336276978254,-1.9381144272029398
1763692630146039300,8.420039306640625,-0.09812544318735598,-0.350126858356595,-1.9687199933469295
1763692630156060200,8.43006005859375,-0.12930617887079715,-0.5096437588348984,-1.8959142848551271
1763692630166082000,8.44008203125,-0.1707920354694128,-0.509327532492578,-1.914003483775258
1763692630176103200,8.450103271484375,-0.15617898822724818,-0.43678135171979665,-1.5237456905603408
1763692630186125300,8.460125244140626,-0.1967734489440918,-0.4304118166878819,-1.5392419503778219
1763692630196146200,8.470146240234374,-0.1349374627560377,-0.4802461071759462,-1.191474222368002
1763692630206167300,8.480167236328125,0.07665186252593993,-0.7957888511464,-0.7492021642774344
1763692630216189200,8.490189208984376,0.16627280447930096,-0.912312413072586,-0.7362269473701715
1763692630226210000,8.5002099609375,0.3523842818945646,-0.8095397286012769,-0.6946060662150383
1763692630236231400,8.5102314453125,0.3628635903328657,-0.785883835464716,-0.6795481978148221
1763692630246253300,8.52025341796875,0.6142360599488019,-0.6671382135748862,-0.05837737016677856
1763692630256274200,8.530274169921874,0.6314975758731365,-0.6555053511872887,-0.04554243851304054
1763692630266296000,8.540296142578125,0.4356564393430948,-0.679729399600625,0.6269692847937345
1763692630276317200,8.550317138671875,-0.007446224352717399,-0.8069403597578406,0.8219237016171217
1763692630286338300,8.56033837890625,0.0008043021202087402,-0.8109878815829753,0.8239239355236292
1763692630296360200,8.570360107421875,-0.5244307013392449,-1.0666907816186546,0.5811117889821529
1763692630306381300,8.58038134765625,-0.5214589920520782,-1.0735071836352348,0.5795464393615722
1763692630316402200,8.590402099609374,-0.8238181370615959,-1.1188052919983864,0.6580459755808115
1763692630326424000,8.600424072265625,-0.9126520202904939,-1.0863926764324308,0.7313701549887657
1763692630336445400,8.610445556640625,-0.8781950394153595,-0.9434870112761855,0.6337240197509527
1763692630346466300,8.62046630859375,-0.6136994688540697,-0.7755316605374216,0.44856560527682304
1763692630356488200,8.63048828125,-0.6149860015332699,-0.7560910470083355,0.4561854326307773
1763692630366509300,8.64050927734375,1.2679253016248344,-0.3352411316528916,0.10701134495437145
1763692630376531200,8.65053125,1.252358899180591,-0.3239893775373697,0.10472177271246909
1763692630386552300,8.66055224609375,0.9517691019311547,-0.6208236216455698,-0.37443595470488067
1763692630396573200,8.6705732421875,0.781523302167654,-0.6471250608548521,-0.5529898563474417
1763692630406595300,8.68059521484375,0.7940005064249038,-0.6345826824069023,-0.5422030893951654
1763692630416616200,8.6906162109375,-1.0610288103342056,-0.38762510662376876,-1.0831138008922339
1763692630426637000,8.700636962890625,-1.0396861625760794,-0.3490647820830345,-1.0580167690366507
1763692630436659500,8.710659423828124,-0.1260802025616169,-0.6861106250703335,-1.4745757091999052
1763692630446680300,8.720680419921875,0.08069324687123298,-0.6593956366240978,-1.3432055835366248
1763692630456702200,8.7307021484375,0.1766302401036024,-0.5778580478832125,-1.1513321815937756
1763692630466723300,8.740723388671874,0.4502396759688854,-0.28060528610199686,-1.0496417394012212
1763692630476744200,8.750744140625,0.4486012611120939,-0.20984014352709054,-1.0245090517103672
1763692630486766300,8.760766357421875,0.1347328800946474,-0.36445787378698585,-0.2925707414448261
1763692630496787200,8.770787109375,0.12837445097863673,-0.29744185461252926,-0.27202245893478394
1763692630506808300,8.780808349609375,0.5061690684616565,-0.21428163310587406,-0.11872282553613185
1763692630516830200,8.790830322265625,0.5370224718868732,0.10458908624351024,0.009275777867436408
1763692630526851000,8.80085107421875,0.5147928121611476,0.13931377814412116,0.011157353830337524
1763692630536873200,8.810873291015625,0.0479994762763381,0.3792325413316488,0.6368833605647086
1763692630546894300,8.820894287109375,0.017029168473184107,0.3926400121763348,0.6277846928298473
1763692630556915200,8.830915283203124,-0.06530073968917131,-0.4885220603510737,1.2809703688979148
1763692630566937000,8.84093701171875,-0.31418051570653915,-0.6704919079169631,1.405876851505041
1763692630576958200,8.850958251953125,-0.5268985527575015,-0.3215025291576981,0.9968722722440957
1763692630586979000,8.86097900390625,-0.3700567167073488,-0.5930480182304978,1.4619868612617253
1763692630597001200,8.871001220703125,-0.3756552673667669,-0.5846636362448334,1.4621487738251686
1763692630607022300,8.881022216796875,0.37143706514984365,-1.6213231444761156,0.30913141562342644
1763692630617043200,8.891043212890626,0.38616993937939403,-1.6351242908135055,0.3113204501003027
1763692630627065000,8.901065185546875,-0.4956996968954801,0.41536651550829407,0.3671855451852083
1763692630637086200,8.911086181640625,-0.1115185932457447,0.9018857116043567,0.6524819117128848
1763692630647108400,8.9211083984375,-0.091258480027318,0.8660694250747561,0.6495879438370465
1763692630657129200,8.931129150390625,0.055875031957030294,1.538141587920487,0.5094757087916135
1763692630667150300,8.941150390625,0.06410276207625866,1.5185858235791325,0.5064876328915358
1763692630677172200,8.951172119140624,0.09344546867758036,1.7891162903904914,0.66116323081851
1763692630687193000,8.961193115234375,0.5729848888888954,1.1553978235974907,0.34525019223093983
1763692630697214200,8.971214111328125,0.5577081170409918,1.160861934222281,0.3403852165430784
1763692630707236400,8.981236328125,0.6587742898553609,-0.07765051817446947,0.5640829127699136
1763692630717257200,8.99125732421875,0.6309995632231236,-0.06283639540225266,0.5567004013031721
1763692630727279000,9.001279052734375,-0.7649681809470057,-0.3209486946672201,0.41433015819787977
1763692630737300200,9.01130029296875,-1.048262267741561,-0.06137362937331199,0.09570026186704635
1763692630747321000,9.021321044921875,-0.8480953769668936,0.2544403327539563,0.10279928021728992
1763692630757343200,9.03134326171875,-0.24584552288800476,0.37701720336973665,-0.0751630852729082
1763692630767364400,9.0413642578125,-0.2241489471256733,0.3950432739257812,-0.0595914221316576
1763692630777385200,9.05138525390625,0.2679623698890209,0.5766665000110864,-0.05419453152418136
1763692630787407000,9.061406982421875,0.2927846764564514,0.588163168798387,-0.0395662867128849
1763692630797428200,9.07142822265625,0.8540399645850062,0.6423465944066643,0.5121159941673279
1763692630807450400,9.081450439453125,0.8722033977851271,0.6505646799147129,0.5226087466090917
1763692630817471200,9.09147119140625,0.562241376556456,0.9167986185759306,1.1149030238628386
1763692630827492400,9.101492431640626,0.6109677058026194,1.0093085599690674,1.350727211213112
1763692630837514200,9.11151416015625,0.5903071950897574,1.038553066892922,1.3508879547327757
1763692630847535000,9.12153515625,0.9318810368955135,0.5270937830686568,0.9493114796459674
1763692630857556200,9.13155615234375,0.8922200576364994,0.5646998756244779,0.9432739530473947
1763692630867577900,9.141577880859375,0.45507279521375893,2.024033299767971,-1.2047019527316092
1763692630877598700,9.1515986328125,-0.8878799826055764,4.2556645170941945,-1.892964202877879
1763692630887620600,9.16162060546875,0.9360217899620532,0.49619011076092717,0.005853986725211143
1763692630897641700,9.171641845703125,0.827118932172656,-0.3615621523454785,-0.32232407467365265
1763692630907662600,9.18166259765625,0.8235171082884073,-0.38345278937518595,-0.33069209004640576
1763692630917684700,9.191684814453126,0.6225546832218766,0.1976531543880701,0.21288813292086123
1763692630927705900,9.201705810546875,0.6180503575399517,0.1891740798562765,0.2081798090994358
1763692630937726700,9.211726806640625,0.6618176030740142,0.329759193110466,-0.33779578457176684
1763692630947748600,9.22174853515625,1.4950646627381443,0.8255211415871977,-0.8635176947653294
1763692630957769700,9.231769775390624,1.4867390252023935,0.8164838486507534,-0.8701736455231904
1763692630967790800,9.241790771484375,1.2650593907997012,1.8486688418164847,-1.1850871516793966
1763692630977812700,9.251812744140626,1.2499714195221663,1.8159870539203284,-1.2025123337328434
1763692630987833900,9.261833740234374,0.9199994604438543,0.40854251470714803,-1.231750703176856
1763692630997855700,9.271855712890625,0.5065782337844371,-0.20733751305639742,-1.074241343128681
1763692631007876600,9.281876708984376,-0.24311931279450655,-0.6348080155953765,-1.9427531929194926
1763692631017897700,9.291897705078124,0.31814474316239355,-0.8775415439426898,-1.7888620233684778
1763692631027920000,9.301919921875,0.3179194099739194,-0.8912459519073367,-1.7936334755539893
1763692631037940700,9.311940673828126,0.869361452357471,-0.6474731436401605,-1.0115525395035743
1763692631047961600,9.321961669921874,0.8673127031341195,-0.6471946189597249,-1.012428153294325
1763692631057983700,9.331983642578125,0.19880320120602846,-0.8109700536653399,-0.846643716853857
1763692631068004900,9.3420048828125,0.507837293934822,-0.9293599939852952,-0.6736299136817455
1763692631078026800,9.35202685546875,0.48529257691055533,-0.9575473930716514,-0.6942220353335141
1763692631088047600,9.362047607421875,-0.17701953168213366,-0.8593331025570631,-0.3540969310313463
1763692631098068700,9.37206884765625,-0.20355916356146334,-0.9132567081853746,-0.3864139772683382
1763692631108090600,9.382090576171874,-0.41555063990354535,-1.0647472463354468,0.3881383168429136
1763692631118111500,9.392111572265625,-0.6368272464632988,-1.3533183967500924,0.959482160526514
1763692631128132900,9.4021328125,-0.686148618993163,-1.6459928908303378,1.5572592531055212
1763692631138154800,9.41215478515625,-0.6119488257944583,-1.7157836354151368,2.0460691904872657
1763692631148175600,9.422175537109375,-0.6301274565637112,-1.7882006368502974,2.0068577085614203
1763692631158196700,9.43219677734375,-0.3089870387166738,-1.6543766882941127,2.1683751352071763
1763692631168218600,9.442218505859374,-0.3284887347832322,-1.6736814004838465,2.070376533269882
1763692631178239700,9.45223974609375,-0.4196367401733994,-1.7940081540852784,1.938403181016445
1763692631188261600,9.46226171875,-0.3014940526127815,-1.9172613165274262,1.7382932811260223
1763692631198282800,9.47228271484375,-0.3023094606488943,-1.9104379002481697,1.740859916743636
1763692631208303600,9.4823037109375,0.4885691143631935,-1.8732479872778056,0.45000119103789327
1763692631218325500,9.492325439453126,0.4896709381252527,-1.8327669238075612,0.4680822066515684
1763692631228347000,9.502346923828124,0.9446861579328775,-0.9473770044520496,-0.7557254285663366
1763692631238367700,9.51236767578125,0.9430208550691604,-0.8781073611319065,-0.7277654084950685
1763692631248389600,9.5223896484375,1.045479359024763,-0.16485972281098366,-1.046083754658699
1763692631258410800,9.53241064453125,1.532113413672149,-0.3880062148958444,-0.9008370793342589
1763692631268431600,9.542431640625,1.5215134014636278,-0.3243924053803086,-0.8818167370438575
1763692631278453800,9.552453857421876,1.5743582719445228,-0.24770050310492514,-0.5708177739828825
1763692631288475000,9.562474853515624,1.0539584335565566,-0.5046367443278431,0.13803367520570753
1763692631298496800,9.572496826171875,0.5167863240659236,-0.714914694750309,0.6953449018836021
1763692631308517600,9.582517578125,-0.04511573753356933,-1.1581883310988546,1.491549640354514
1763692631318538800,9.592538818359374,-0.07776742255240679,-1.159164482654631,1.4734750544816255
1763692631328561000,9.602560791015625,0.45042730749547477,-1.3265797351673245,1.3274182318180798
1763692631338581800,9.612581787109375,0.4279819591924548,-1.3307763100743293,1.3134651097893715
1763692631348603000,9.622602783203124,-0.7648515688300133,-0.4602043128833174,1.822038316783309
1763692631358624800,9.632624755859375,-0.7564934903293847,-0.47546851751059294,1.8208640123069286
1763692631368645600,9.642645751953125,-0.49473114412426944,-0.039326048216223715,1.5442986492455004
1763692631378667800,9.652667724609374,-0.43972354265153407,-0.050565527372062206,1.6986626970052718
1763692631388689000,9.66268896484375,-0.42260640363395213,-0.06394464890509843,1.70288060696125
1763692631398709800,9.672709716796875,-0.059470426100492475,-0.13789368221312762,1.750668194052577
1763692631408731600,9.682731689453124,-0.06141746851503849,-0.14400982700586318,1.747232958906889
1763692631418752800,9.692752685546875,0.13178046002984045,-0.3991132998436689,1.3495219270765781
1763692631428773600,9.702773681640625,0.09227496359348297,-0.3672632865965366,1.110105852714181
1763692631438795800,9.712795654296874,0.0357081499800086,-0.37895723152160643,1.0738397765904664
1763692631448817000,9.72281689453125,-0.08987433219254017,-0.006342062503099441,0.5888058506160975
1763692631458837800,9.732837646484375,-0.17804361403286456,-0.02293430086374283,0.530560582396388
1763692631468859600,9.742859619140624,-1.8142407947748898,0.20006226135641336,0.0820738875746727
1763692631478880800,9.752880859375,-0.6825061708375811,0.23133915089070795,0.38616789355278014
1763692631488903000,9.76290283203125,-0.8894184442192316,0.39291882911771536,0.36738369810581206
1763692631498923800,9.772923828125,-0.7609849565297365,0.46982758901417254,0.2844014635145664
1763692631508944600,9.782944580078125,-0.8196113330215216,0.5023907189667225,0.2595832486003637
1763692631518966800,9.792966796875,-0.06762392193973064,0.7416328980669379,0.0282990427672863
1763692631528987600,9.802987548828124,-0.11176058530807495,0.7788929536640644,0.01383621765077114
1763692631539008500,9.813008544921875,0.2336550266176462,1.0109963669255375,-0.026042203751206396
1763692631549030700,9.82303076171875,0.2778349446058273,1.0960384566560386,0.024848025530576703
1763692631559051800,9.8330517578125,0.24445406852960586,1.1215323788747191,0.011975684475898743
1763692631569072600,9.84307275390625,0.33695524209439753,1.2678878922238945,-0.04884031101465225
1763692631579094500,9.853094482421875,0.298486687490344,1.2873840353325008,-0.06809387753903866
1763692631589115600,9.86311572265625,0.612613427183032,1.2675748807519673,-0.432903341242671
1763692631599137800,9.8731376953125,0.6621767917752266,1.2711276047974824,-0.591816722869873
1763692631609158700,9.88315869140625,0.7364923203080892,1.2453127800613641,-0.7546972545623779
1763692631619179800,9.8931796875,0.6972820074260234,1.294465225765109,-0.8551046712070703
1763692631629201700,9.90320166015625,0.6443202325671911,1.3010443118944763,-0.8918839575499296
1763692631639222500,9.913222412109375,0.4895148707807064,1.333108260153234,-0.863195623204112
1763692631649244000,9.923243896484376,0.43885669668912886,1.3365405726894735,-0.9005600159585475
1763692631659265800,9.933265869140625,0.08888590567708014,1.4224573994278906,-0.6741285108536481
1763692631669286700,9.94328662109375,-0.03303600816130638,1.364704883161187,-0.6898819603025913
1763692631679308500,9.95330859375,-0.06936579717099667,1.3709019842356442,-0.7162380523085594
1763692631689329700,9.96332958984375,-0.1548492009282112,1.3604860964223742,-0.9769891756445169
1763692631699350800,9.973350830078125,-0.17459610392749308,1.3703870204508304,-0.9889859029084443
1763692631709372700,9.98337255859375,-0.041213469398021695,1.728744823797047,-1.60563954539299
1763692631719393800,9.993393798828125,0.1714934617370367,1.8281807650610804,-1.8900035995066164
1763692631729414700,10.00341455078125,0.4001157548844814,1.7512196904554962,-2.1562463059961794
1763692631739436500,10.0134365234375,0.45422260812520976,1.8563506284907458,-2.3557459650337695
1763692631749458000,10.0234580078125,0.45624797647297377,1.8570248744904994,-2.3538474379360674
1763692631759478800,10.033478759765625,0.3615606910407543,2.1281384018868206,-2.7327754433631894
1763692631769500700,10.043500732421874,0.3695131113499403,2.1209850230008365,-2.7291572528660297
1763692631779521800,10.053521728515625,0.5978028115421533,1.8490914511427283,-2.963627102997899
1763692631789543700,10.063543701171875,0.7956453510224819,1.5918898369818926,-2.983465191411972
1763692631799564800,10.073564697265626,0.8112333807766438,1.5552441138908266,-2.985574146389961
1763692631809586000,10.0835859375,0.755970927760005,0.8431453533440828,-2.702477335733175
1763692631819607800,10.09360791015625,0.7808271365970373,0.783151487891376,-2.7074001790881157
1763692631829628700,10.103628662109376,-0.04958148477077484,0.6756362850680947,-1.7249837176978586
1763692631839649800,10.11364990234375,-0.011202946537733077,0.5968079552859068,-1.7287538838863372
1763692631849672000,10.123671875,-0.6027127954155206,0.1499561681896448,-0.39983576889932154
1763692631859692800,10.13369287109375,-0.7919348060667515,-0.32531594996601343,0.05464344433546066
1763692631869713700,10.143713623046875,-0.7540028425574302,-0.40735768883675333,0.045637131059169764
1763692631879736000,10.153736083984375,-1.6250328126490114,-2.0407669924259184,0.3596083879292011
1763692631889757000,10.1637568359375,-1.594436598855257,-2.0874235296607018,0.36034079385697837
1763692631899778800,10.17377880859375,-1.7445260380357503,0.16512831061929464,0.17449322807490825
1763692631909800000,10.183800048828125,-2.2263632137954232,0.0041284781068563455,0.27699732473790645
1763692631919820800,10.19382080078125,-2.2171166620224714,-0.024022972883284092,0.2699094123035669
1763692631929843000,10.203843017578125,-0.9012737171858548,-0.14676467867195606,-0.5144371305912733
1763692631939863800,10.21386376953125,-0.9236936387866735,-0.17172610144913195,-0.5443441930770874
1763692631949885000,10.223885009765626,-0.4609621455132961,-0.44754970623254775,-0.2960223432034254
1763692631959906800,10.23390673828125,-0.1910433808594942,-0.579293341383338,-0.3255389450669288
1763692631969927700,10.243927734375,-0.04163081802725792,-0.7773720277070999,-0.39463527764677997
1763692631979949000,10.253948974609376,-0.1138449903666973,-0.930669615279138,-0.6091098029762506
1763692631989971000,10.263970947265625,-0.19660452211797236,-0.9549453938797116,-0.6917956849694251
1763692631999991800,10.27399169921875,-0.864926392519474,-0.8337973870232701,-1.321905021354556
1763692632010013700,10.284013671875,-0.9324497766941785,-0.8602896726295352,-1.396512810832262
1763692632020034800,10.294034912109375,-1.3258359310626984,-0.7389008427545428,-1.0712386541813612
1763692632030056000,10.304055908203125,-1.277913319414854,-0.6514589984059334,-0.6741472155541182
1763692632040077800,10.314077880859376,-1.2969342462271451,-0.6747083565682173,-0.7055003851950168
1763692632050099000,10.324098876953125,-1.367651458007097,-0.916997356018424,-0.06576163519918918
1763692632060119800,10.334119873046875,-1.3649240788698196,-0.9374062300577759,-0.07561667425930499
1763692632070141700,10.3441416015625,-1.2974094625234602,-1.0750289863750337,0.4971376207441091
1763692632080163000,10.3541630859375,-1.265003568959236,-1.1590925864621997,0.7149959432929753
1763692632090184000,10.364183837890625,-1.2254781987786292,-1.194241641254723,0.8075637523531913
1763692632100205800,10.374205810546876,-1.1528911014735699,-1.1862979887738823,0.8440665598422289
1763692632110227000,10.38422705078125,-1.1310118626207113,-1.210217501282692,0.849185802552104
1763692632120248800,10.394248779296875,-1.3082675411462783,-1.1692790494337677,0.9972241544216871
1763692632130270000,10.40427001953125,-1.3392857797443867,-1.182355680888891,1.001034652620554
1763692632140291000,10.414291015625,-1.3184300387203693,-1.2270745280593633,1.0197224019557236
1763692632150313000,10.42431298828125,-1.3133400221049785,-1.321464876371622,1.0887240419894457
1763692632160333800,10.434333740234376,-1.2980641270399094,-1.3557909243434667,1.080345505222678
1763692632170355000,10.44435498046875,-1.5822031402260064,-1.4528466924726962,1.4810153868585825
1763692632180377000,10.454377197265625,-1.5658306820958852,-1.4869666964784263,1.4732996979147195
1763692632190398000,10.46439794921875,-1.6666916877269744,-1.5776389010503886,1.886800419551134
1763692632200419000,10.474419189453124,-1.661554324838519,-1.4796268551096319,2.0376953298956155
1763692632210441000,10.48444091796875,-1.5356769513726234,-1.3698697185784579,2.2271990800976753
1763692632220461800,10.4944619140625,-1.4024614901036023,-1.331393857450783,2.365714985862374
1763692632230484000,10.50448388671875,-1.3801461979210377,-1.3427686534240841,2.377708790516853
1763692632240505000,10.514505126953125,-0.7212123335897922,-1.6564093631654977,2.353199203160405
1763692632250526000,10.52452587890625,-0.7120213113963604,-1.6426424113586544,2.3704718250006436
1763692632260547800,10.5345478515625,0.07906126175522804,-2.528550509369373,1.5274462986439465
1763692632270569000,10.54456884765625,0.13726678248643875,-2.542205817495286,1.1907061606049536
1763692632280589800,10.55458984375,0.10987082603871821,-2.4747856014341116,1.2105617846757173
1763692632290612000,10.564612060546875,0.22571546579003332,-0.5875181488931178,0.1405149706274271
1763692632300632800,10.5746328125,0.19610124877095222,-0.49696284869909285,0.17076514746248722
1763692632310654000,10.584654052734376,0.9869254632472991,0.055530748564004896,-0.8924094427287578
1763692632320675800,10.59467578125,0.9681167178809642,0.15137012664079666,-0.8527122231125831
1763692632330696700,10.60469677734375,1.8588930064499376,0.17439415161460636,-1.2116858202695846
1763692632340717800,10.6147177734375,2.26913384950757,-0.0944517231106758,-1.181738425773382
1763692632350740000,10.624739990234374,2.2578233509421346,-0.02811784098148346,-1.1556985601097345
1763692632360760800,10.6347607421875,2.7127275115907192,-0.6013417993232607,-0.9662965167164802
1763692632370783000,10.644782958984376,2.6873271128743887,-0.5580243433833122,-0.9656675711631775
1763692632380803800,10.654803955078124,2.725906142115593,-0.6368874522179365,-1.149636483591795
1763692632390824700,10.66482470703125,2.4431325720638037,-0.2872223661541939,-1.344210376664996
1763692632400846800,10.674846923828126,2.2210832275658845,-0.015043547613918781,-1.5857096870422362
1763692632410868000,10.684867919921874,1.8049626788198947,0.12731938896775244,-1.9176082302689552
1763692632420888800,10.694888916015625,1.7420435735702513,0.14964754063189029,-1.964326726824045
1763692632430910700,10.70491064453125,1.7031056478887796,-0.08033990338891744,-2.3007418706923723
1763692632440931800,10.714931884765624,1.6413427269369363,-0.040643560555577274,-2.3394196841329333
1763692632450953000,10.724952880859375,1.5051947193473576,-0.5581348180204629,-2.0227946978837252
1763692632460974800,10.734974853515626,1.4440484689891337,-0.1348266958579421,-1.8385978219181298
1763692632470996000,10.744995849609374,1.3857383188396692,-0.0608133651420474,-1.860261372193694
1763692632481017900,10.755017822265625,1.6752122633129358,-0.3330947672739625,-1.3972165751874446
1763692632491038700,10.765038818359375,1.6220692866683006,-0.2729410350844264,-1.4228794242322444
1763692632501060000,10.77506005859375,1.7867963230103254,-0.3849254922762513,-0.6577168897569179
1763692632511082000,10.78508203125,1.4846686486691236,-0.59810734744668,-0.13749182341396807
1763692632521102800,10.795102783203125,1.1853443413108586,-0.8654960091009736,0.3827414262354374
1763692632531124000,10.8051240234375,0.8623486509859561,-0.9371730058237909,0.8576455878615379
1763692632541145900,10.815145751953125,0.8192594508439301,-0.9693848381206392,0.7946288674563169
1763692632551167000,10.8251669921875,0.21204349879026413,-1.1497305916160345,1.1754419559776783
1763692632561188000,10.83518798828125,0.08323182543814182,-1.153045707513392,1.047907462954521
1763692632571210000,10.8452099609375,0.04720248067975044,-1.0816665246933699,0.9614467385977506
1763692632581230800,10.85523095703125,0.058445174705982206,-0.9450093985378741,0.7573223423689603
1763692632591252000,10.865251953125,0.015854571735858917,-0.9314657340928911,0.7139116551876068
1763692632601274000,10.875274169921875,0.15085107120275495,-0.4950307115927338,0.36701369574964043
1763692632611295000,10.885294921875,0.18016192136108874,-0.20836656384319066,0.2607686589926481
1763692632621316900,10.89531689453125,0.20635142462849615,-0.0207373753413558,0.11184884811341762
1763692632631338000,10.905337890625,0.12589841625392437,0.05931698910444975,0.10983049402832984
1763692632641358800,10.91535888671875,0.09528875845670699,0.09743161570429801,0.09090133715271949
1763692632651380700,10.925380615234374,0.010154314267635346,-0.024639643476903436,0.17043956876993177
1763692632661402000,10.935402099609375,-0.011763503029942512,-0.007144026535749435,0.15145722040235995
1763692632671423000,10.945423095703125,-0.6114847154140473,-0.058877428643405436,0.5946954931765794
1763692632681444900,10.95544482421875,-1.0469488470554351,-0.058253451526165005,0.8622545429617166
1763692632691465700,10.9654658203125,-1.052975267738104,-0.06849836668670177,0.8493938923448324
1763692632701486800,10.97548681640625,-1.6273106944531202,-0.07506751594394445,1.2963573231220245
1763692632711509000,10.985509033203124,-1.624132648938894,-0.08761106343567371,1.2940887936681509
1763692632721529900,10.99552978515625,-1.9022925877153873,0.043485798244178295,1.7456296153634785
1763692632731551000,11.005551025390625,-1.8091262282401321,0.05443652358651161,1.8511779020279644
1763692632741572900,11.01557275390625,-1.7318974426090716,0.09663432784676551,1.9281068279296159
1763692632751593700,11.02559375,-1.6473685630977153,0.2602536952078342,1.9416431858509777
1763692632761616000,11.035615966796875,-1.6487427740603684,0.27949878616482016,1.9495833312004804
1763692632771637000,11.045636962890624,-1.4127736252814531,0.7239423430755734,1.6535475439935923
1763692632781657900,11.055657958984375,-1.417719849511981,0.7567974417120218,1.6634440841078757
1763692632791679700,11.0656796875,-0.8196452352911233,1.267793784199655,1.419655786010623
1763692632801700900,11.075700927734376,-0.44851650543808935,1.4378665654838085,1.3604799589425325
1763692632811721700,11.0857216796875,-0.45972763528227806,1.4683037893235682,1.3606307655900716
1763692632821743900,11.095743896484375,0.050157238832116126,1.549381651598215,0.8373720306396484
1763692632831765000,11.105764892578126,0.03974865754246711,1.5653390991866587,0.8315028463453054
1763692632841785900,11.115785888671875,0.14902268673181532,1.679044388821721,0.5285556723147631
1763692632851807700,11.125807861328125,0.1433025555193424,1.6804063248246908,0.5218412693679333
1763692632861828900,11.135828857421876,-0.3181277920275926,1.7143810751408337,0.5264420411616564
1763692632871850000,11.14585009765625,-0.3530839545965194,1.7784207088530062,0.39806583661735057
1763692632881872000,11.155871826171875,-0.3485726146519184,1.776824671833217,0.40312428905069825
1763692632891893000,11.16589306640625,-0.7126824056535959,0.9650222589969635,0.3073223203748464
1763692632901915100,11.1759150390625,-0.6910767230451107,0.9690545832529663,0.33672727855741974
1763692632911936000,11.18593603515625,-0.4585965854257345,2.297959838758409,0.0631289486080408
1763692632921957000,11.19595703125,-0.32390462186336516,1.7442708942309022,-0.0032370822250843046
1763692632931979000,11.20597900390625,-0.285621945220232,1.739550879971683,0.04189794453084469
1763692632941999900,11.215999755859375,0.2813128498494625,1.343406951327622,-0.546817889714241
1763692632952021000,11.22602099609375,0.31805648035705086,1.338816700927913,-0.5046282687604428
1763692632962043100,11.236043212890625,0.7350093882739543,1.669281119698286,-0.7653092494696379
1763692632972064000,11.24606396484375,1.0544903484761714,1.7937465805396438,-0.9348276117414236
1763692632982084900,11.2560849609375,1.075256073129177,1.7941069382846355,-0.9103940122306347
1763692632992107000,11.26610693359375,1.4435399349451064,1.6809771104499698,-1.3755162000328303
1763692633002128000,11.2761279296875,1.453188053256273,1.6788836453020572,-1.3652648551315067
1763692633012149000,11.28614892578125,0.3454647117644548,1.6212860273361205,-3.1169466101408
1763692633022171100,11.296171142578125,0.37037645018100734,1.6176114304766058,-3.0899931367635727
1763692633032192000,11.30619189453125,1.368324827224016,2.0883985121726987,-2.5477070452600716
1763692633042214000,11.3162138671875,1.4146914416015148,2.194448026357591,-3.035187195342779
1763692633052235000,11.326235107421875,1.6143740559905766,2.132132439959049,-2.7737404909580943
1763692633062256000,11.336256103515625,1.8496821105122565,1.9909081520184873,-2.928906502750516
1763692633072278000,11.346278076171876,1.8992226787507533,1.9617074842363595,-2.8879771109908816
1763692633082299000,11.356298828125,2.0411714815735817,1.6907725282773374,-3.1627059062749145
1763692633092320000,11.366320068359375,1.9895032536566257,1.4959545973151922,-3.1849791128814218
1763692633102342000,11.376341796875,2.0610078164219856,1.4328928687244653,-3.1393016498118635
1763692633112362800,11.38636279296875,1.6295348002433776,0.9218155699551105,-2.8557652786940335
1763692633122384100,11.396384033203125,1.7182237220436334,0.8401596155315637,-2.8054005345910786
1763692633132406000,11.406406005859376,0.9330886591196059,0.6326102132901549,-1.9847779787003992
1763692633142427000,11.416427001953124,1.0381266581743955,0.5398933511480689,-1.9297107559949158
1763692633152448000,11.426447998046875,0.24166706815958022,0.19589491254389285,-1.1224304967582226
1763692633162470000,11.436469970703126,-0.05481061759591102,-0.02516542091667652,-0.8426403264313935
1763692633172491000,11.446490966796874,0.058365095207095145,-0.11820903079509734,-0.7908172002136706
1763692633182513000,11.456512939453125,-0.5285504116177558,-0.314798063082993,-0.6086854400843381
1763692633192534000,11.466533935546876,-0.4165647853821516,-0.3936003816410899,-0.5570300716489553
1763692633202555000,11.476554931640624,-0.7786585603863,-0.19443068521022797,-0.41767713053822514
1763692633212576800,11.48657666015625,-0.7453735458999872,-0.07681845126450061,-0.4919511580169201
1763692633222598100,11.49659814453125,-0.6053127487808465,-0.056958151018619535,-0.5360293691962957
1763692633232619000,11.506618896484374,-0.40919337983131404,-0.17510288440585137,-0.5717758053600788
1763692633242641000,11.516640869140625,-0.31028467731177806,-0.23779519516229627,-0.5343780948579311
1763692633252662000,11.526662109375,-0.24165128606855868,-0.4550388929441571,-0.4649503383666277
1763692633262683000,11.536682861328124,-0.16156652648448944,-0.5343868626862764,-0.4541939665526151
1763692633272705000,11.546705078125,-0.5015688811898231,-0.7046963753357529,-0.08723287777304649
1763692633282726100,11.55672607421875,-0.6052741703361273,-1.0359870157971978,0.15106500621438027
1763692633292747000,11.5667470703125,-0.923530557179451,-1.192611701965332,0.32348610419034957
1763692633302769000,11.576768798828125,-1.3997855488926172,-1.236928105814755,0.3108487409353256
1763692633312790000,11.5867900390625,-1.3606407024621963,-1.3328957864463329,0.275791456079483
1763692633322812200,11.596812255859374,-2.0292779224231836,-1.4986466128781437,0.8091741101592779
1763692633332833000,11.6068330078125,-1.9680989388391374,-1.599637966890633,0.7819102556586265
1763692633342854100,11.616854248046875,-1.7559224613189697,-2.208532958072424,1.8404723836183547
1763692633352876000,11.6268759765625,-1.8279636151790617,-2.4851158567905425,2.5187141750097273
1763692633362897000,11.63689697265625,-1.7700924409687517,-2.5644851615816355,2.49905144316256
1763692633372918000,11.64691796875,-2.5139786709204315,-2.8159271893024442,2.9819080250978467
1763692633382940200,11.656940185546874,-2.4143168119460343,-2.87468274513185,3.0010376729816195
1763692633392961000,11.6669609375,-2.564312143102288,-3.3179841462701556,2.529725982889533
1763692633402982000,11.67698193359375,-2.154984323236346,-3.7114194004774093,2.6492677235931157
1763692633413004000,11.687004150390624,-1.958983319969475,-3.7320144447386263,2.7418694349229336
1763692633423025000,11.69702490234375,-0.3837570330187678,-3.75543272972703,3.4029765516400334
1763692633433045800,11.707045654296875,-0.19436726458519696,-3.726538059154153,3.515055116856098
1763692633443068000,11.71706787109375,0.33817952319234607,-2.3983862523645163,1.970078422218561
1763692633453089000,11.727089111328125,0.25829203974604603,-2.0505138949364423,1.0602712699651717
1763692633463111000,11.73711083984375,0.3493631805077195,-1.9862673404753206,1.3776608108460902
1763692633473131800,11.7471318359375,0.5346978283315896,-2.439946343243122,1.473794787955284
1763692633483153000,11.75715283203125,0.7587137967273593,-2.4134996503442525,1.5623153674513102
1763692633493175000,11.767175048828125,-0.2203974856376648,-3.1367449510663747,1.555014104527235
1763692633503196000,11.77719580078125,0.05964958205968141,-3.0932921783089635,1.6523510276854037
1763692633513217000,11.787217041015625,-0.335368119033426,-2.5227888771027325,0.3902209683358669
1763692633523239000,11.797239013671875,0.21366189377233386,-2.2744576748788354,0.35255262419879435
1763692633533259800,11.807259765625,0.5620943693011998,-2.1940572734743355,0.442881129899621
1763692633543281200,11.81728125,1.4885902060270308,-1.293176647259295,0.4034346701741218
1763692633553303000,11.827302978515625,1.7645213628381489,-1.1787892205789685,0.479427776530385
1763692633563324000,11.837323974609374,0.7780670242339373,-0.848174871943891,-0.18619769439399242
1763692633573345000,11.847344970703125,0.578414804983139,-0.7076052485197782,-1.0708370876431466
1763692633583367000,11.857366943359375,0.47464116330835965,-0.6852662832006812,-1.4217904599517583
1763692633593388000,11.867387939453126,0.24167064835615454,-0.5612614256083965,-1.496726750731468
1763692633603409200,11.8774091796875,0.4956408063150942,-0.431709747543931,-1.4612994635194538
1763692633613431000,11.88743115234375,-0.15743293381109832,-0.7732657614320516,-1.989452400252223
1763692633623452000,11.897451904296876,0.08273775831088423,-0.6399728510126471,-1.9686235472351312
1763692633633473000,11.90747314453125,-0.12771554867848753,-0.3245832517772913,-1.7379425679922103
1763692633643495200,11.9174951171875,-0.5507365244626998,0.30033991414159533,-2.0880244181632994
1763692633653516000,11.92751611328125,-0.3921241716086864,0.46270489752739663,-2.0616694952011105
1763692633663538000,11.937537841796875,-0.37028058859109875,0.8979770137280225,-3.584269522857666
1763692633673559000,11.94755908203125,-0.25537878264784813,1.0361758163675665,-3.565837209588289
1763692633683580000,11.957579833984376,0.03004793226122856,0.7662474071025848,-4.282355247882008
1763692633693602000,11.96760205078125,0.10515914121642708,0.900907806482911,-4.261187956690788
1763692633703623200,11.977623046875,0.10307809715867042,0.745427906435728,-4.399534351107478
1763692633713644000,11.98764404296875,-0.046798283793032164,0.5503071931347251,-4.066165735328197
1763692633723666000,11.997666015625,0.011847381921112538,0.6939047860778867,-4.046073964414
1763692633733687000,12.00768701171875,-0.6842308026731014,0.19798238634243606,-3.3154327082216737
1763692633743708000,12.0177080078125,-0.6171183373868465,0.33163375481069085,-3.30523864646554
1763692633753730000,12.02772998046875,-0.7616258847817778,0.0284624166354537,-1.8395032463252543
1763692633763751000,12.0377509765625,-0.5433525516912341,-0.05535480747520923,-1.5255477715462444
1763692633773772000,12.04777197265625,-0.5024734288141132,0.027684271869808433,-1.5227952579677104
1763692633783794000,12.0577939453125,0.016909633746743202,0.45406376430168743,-1.1628519389957188
1763692633793814800,12.067814697265625,0.012302432212233544,0.4741458906047046,-1.1579074683308601
1763692633803837200,12.077837158203126,0.9739610599949955,0.4686548919729888,-2.3260341328591108
1763692633813858000,12.087858154296875,0.8985451690047979,0.3891002937428653,-2.5173469783097504
1763692633823879000,12.09787890625,0.8148179612651467,-0.16916677235513924,-2.513541156286001
1763692633833901000,12.107901123046876,0.7561562211990356,-0.9425538220793008,-2.0486112761855124
1763692633843922000,12.117921875,0.6122898943170905,-1.021859852375835,-2.0262556519925594
1763692633853942800,12.12794287109375,0.2553150697618723,-1.1941693066708743,-1.4652163447022437
1763692633863965000,12.13796484375,0.1532861893951893,-0.6738961634024977,-1.3426771757483482
1763692633873986000,12.147986083984375,0.1414648186981678,-0.3528082063950598,-0.6846656869590282
1763692633884007000,12.1580068359375,0.3922469212055206,-0.2938165037222206,0.15497370409071445
1763692633894028800,12.16802880859375,0.2656653449930251,-0.3435591704040766,0.16767419570982456
1763692633904050000,12.1780498046875,1.1277405858650802,-0.41983226274549956,2.0962503947168587
1763692633914071000,12.188071044921875,0.9629567047692835,-0.45325303244069215,2.1145856773525473
1763692633924093000,12.198093017578126,1.3874154582716525,-0.4051591558791697,2.7408810084074733
1763692633934114000,12.208114013671874,1.1637234611332417,-0.2649358616746962,2.5090812542676924
1763692633944135000,12.218135009765625,0.8456162004370242,-0.16534867537170647,2.2926474115639923
1763692633954156800,12.22815673828125,0.3311678908646106,0.010011544796079396,2.1679536949247122
1763692633964178200,12.23817822265625,0.09915482276771218,-0.07456716520637273,2.1567297055989503
1763692633974200000,12.248199951171875,-0.5861351701021195,0.009374269805848597,2.786199575036764
1763692633984221000,12.258220947265626,-0.8085662073940039,-0.10208411768525838,2.754404506847262
1763692633994242000,12.268241943359374,-0.7110685407161712,-0.2298170558899641,3.8170086036741733
1763692634004264000,12.278263916015625,-0.7642208697110414,-0.22118366757929322,4.346393128028512
1763692634014285000,12.28828515625,-0.9920050315339117,-0.311681684628129,4.300677671036124
1763692634024306200,12.29830615234375,-0.7504384280741214,-0.20303104803413152,5.007200385016203
1763692634034328000,12.308328125,-0.9890712431043386,-0.25957740338146684,4.958197576916217
1763692634044349000,12.318348876953126,-0.9241127409815788,-0.09450316103696822,4.796327683570981
1763692634054370000,12.3283701171875,-1.1370863602288066,0.2626303612112999,4.26787956328392
1763692634064392200,12.33839208984375,-1.2937762205876409,0.564738746330142,3.81130717716217
1763692634074413000,12.3484130859375,-1.4646419058151543,0.7852040365070104,3.4674615910321473
1763692634084434000,12.358433837890624,-1.679268260705471,0.7677332617461681,3.405401732960343
1763692634094456000,12.3684560546875,-1.588090152437985,1.059516944466531,3.0222417890518902
1763692634104477000,12.378476806640625,-1.7817355324894188,1.042523431828618,2.9559166747510432
1763692634114497800,12.388497802734374,-1.6050363188028334,1.0422580588907002,2.6992934450000523
1763692634124520000,12.39852001953125,-1.8212433670133352,1.2272811565473676,2.517905196714401
1763692634134541000,12.408541015625,-1.9763421587884424,1.233481180231273,2.4617191991120575
1763692634144562000,12.41856201171875,-1.389231713913381,1.7618664644151925,1.7827970242410898
1763692634154583800,12.428583740234375,-1.5273907690644264,1.7922466973707079,1.7369710926115511
1763692634164605000,12.43860498046875,-0.7307096452534199,1.1262637913107871,1.0692407583624124
1763692634174627000,12.448626953125,-0.06097761579304933,2.460774903999269,-0.3478139052391052
1763692634184648000,12.45864794921875,-0.34603958904296156,3.610812369607389,-0.9977776966512203
1763692634194669000,12.4686689453125,-0.4362421302765608,3.6701743668973443,-1.0194301410108804
1763692634204691000,12.47869091796875,-0.7903782242745161,3.61096814469099,-1.7953432020813225
1763692634214711800,12.4887119140625,-1.1567524530768394,3.9480917290896174,-3.07550693077147
