time,seconds_elapsed,z,y,x
1763692621778179600,0.0521796875,-0.06954093277454376,-0.06359878927469254,0.07833211869001389
1763692621788200700,0.06220068359375,-0.06150076910853386,-0.032899681478738785,0.06673648953437805
1763692621798222600,0.07222265625,-0.045646969228982925,0.02736685238778591,0.06383177638053894
1763692621808243500,0.082243408203125,-0.020401345565915108,0.1296505630016327,0.06891437619924545
1763692621818264800,0.092264892578125,0.01030756440013647,0.26225441694259644,0.08242405951023102
1763692621828286700,0.10228662109375,0.03584589436650276,0.36621707677841187,0.08597586303949356
1763692621838307600,0.1123076171875,0.061623964458703995,0.43963056802749634,0.09493180364370346
1763692621848329500,0.12232958984375,0.0816788449883461,0.5256854891777039,0.12485160678625107
1763692621858349600,0.132349609375,0.08756549656391144,0.6174330115318298,0.156284362077713
1763692621868370400,0.142370361328125,0.09593673795461655,0.6848933696746826,0.18670856952667236
1763692621878392600,0.152392578125,0.10434459894895554,0.6958994269371033,0.22899609804153442
1763692621888413700,0.16241357421875,0.0883084312081337,0.6078810691833496,0.2778226435184479
1763692621898434600,0.1724345703125,0.07532738149166107,0.5848698019981384,0.36673441529273987
1763692621908456400,0.18245654296875,0.06958822906017303,0.648222029209137,0.5172304511070251
1763692621918477600,0.1924775390625,0.07323143631219864,0.8216803669929504,0.722190797328949
1763692621928499700,0.202499755859375,0.05222245305776596,0.996107280254364,0.9361736178398132
1763692621938520600,0.2125205078125,-0.021833663806319237,0.8949061036109924,1.0637829303741455
1763692621948541700,0.222541748046875,-0.14284278452396393,0.8586617112159729,1.21034836769104
1763692621958563600,0.2325634765625,-0.26893389225006104,0.8426886200904846,1.3184130191802979
1763692621968584400,0.24258447265625,-0.33978885412216187,0.8018732070922852,1.4497793912887573
1763692621978606600,0.252606689453125,-0.16035491228103638,0.37919706106185913,1.5625741481781006
1763692621988627700,0.262627685546875,-0.15031468868255615,0.051773425191640854,1.6027711629867554
1763692621998648600,0.272648681640625,-0.3149089515209198,-0.05613599717617035,1.556402325630188
1763692622008670500,0.28267041015625,-0.4836234450340271,-0.13904908299446106,1.4796119928359985
1763692622018691600,0.292691650390625,-0.6198766231536865,0.03372322395443916,1.43646240234375
1763692622028712400,0.30271240234375,-0.7140592336654663,0.439231812953949,1.3642886877059937
1763692622038734600,0.312734619140625,-0.7356588244438171,0.8979194760322571,1.2266563177108765
1763692622048755700,0.322755615234375,-0.6179193258285522,1.2374845743179321,1.0514942407608032
1763692622058777600,0.332777587890625,-0.3032149374485016,1.481608271598816,0.8694890737533569
1763692622068798500,0.342798583984375,0.18974821269512177,1.5794059038162231,0.6528661251068115
1763692622078819600,0.352819580078125,0.7343798279762268,1.6201560497283936,0.37908220291137695
1763692622088841700,0.362841796875,1.2684770822525024,1.7000526189804077,0.08017074316740036
1763692622098862600,0.372862548828125,1.7382606267929077,1.7888251543045044,-0.2135397046804428
1763692622108883700,0.3828837890625,2.1149580478668213,1.930269718170166,-0.4084213674068451
1763692622118905600,0.392905517578125,2.4406015872955322,2.0901975631713867,-0.48015013337135315
1763692622128926500,0.402926513671875,2.740755081176758,2.0823445320129395,-0.5104731917381287
1763692622138948600,0.412948486328125,2.9118003845214844,1.7109694480895996,-0.42568477988243103
1763692622148969700,0.4229697265625,2.8977837562561035,1.0513889789581299,-0.1785154789686203
1763692622158990600,0.432990478515625,2.770073652267456,0.3911295533180237,-0.10738591849803925
1763692622169012500,0.443012451171875,2.521893262863159,0.15196233987808228,-0.2728310227394104
1763692622179033600,0.45303369140625,2.3738510608673096,0.08836604654788971,-0.5266691446304321
1763692622189054500,0.463054443359375,2.236193895339966,0.07494953274726868,-0.8415590524673462
1763692622199076600,0.47307666015625,2.1058714389801025,0.2758687734603882,-1.184499979019165
1763692622209097700,0.48309765625,2.0166776180267334,0.5651099681854248,-1.5252277851104736
1763692622219119600,0.49311962890625,1.940172553062439,0.8423817753791809,-1.8527921438217163
1763692622229140500,0.503140380859375,1.8829741477966309,0.9818012118339539,-2.1048922538757324
1763692622239161600,0.51316162109375,1.8220354318618774,0.8880182504653931,-2.28568434715271
1763692622249183700,0.523183837890625,1.7241723537445068,0.524433434009552,-2.3079380989074707
1763692622259204600,0.53320458984375,1.4753097295761108,0.10548676550388336,-2.031531810760498
1763692622269226500,0.5432265625,1.0464510917663574,-0.3561098277568817,-1.5478060245513916
1763692622279247600,0.55324755859375,0.5906294584274292,-0.7607558369636536,-1.01094388961792
1763692622289268500,0.5632685546875,0.26643189787864685,-1.0253171920776367,-0.5400326251983643
1763692622299290600,0.57329052734375,0.09946952015161514,-1.2468035221099854,-0.1796073019504547
1763692622309311700,0.583311767578125,0.007445027586072683,-1.5445220470428467,0.03216857090592384
1763692622319332600,0.59333251953125,-0.06864601373672485,-1.761116862297058,0.06804348528385162
1763692622329354500,0.6033544921875,-0.11430937051773071,-1.7480255365371704,-0.0317494235932827
1763692622339375600,0.613375732421875,-0.12374714016914368,-1.5320059061050415,-0.22795048356056213
1763692622349397800,0.623397705078125,-0.1169653832912445,-1.160102128982544,-0.48601990938186646
1763692622359418600,0.633418701171875,-0.08323565125465393,-0.7054077386856079,-0.7418719530105591
1763692622369439500,0.643439453125,-0.08978455513715744,-0.11296994984149933,-0.9996477961540222
1763692622379461600,0.653461669921875,-0.05468355864286423,0.33331298828125,-1.196150302886963
1763692622389482500,0.663482421875,0.00017455517081543803,0.4453500211238861,-1.3109904527664185
1763692622399504600,0.673504638671875,-0.055448759347200394,0.09255199879407883,-1.3352478742599487
1763692622409525800,0.68352587890625,-0.09268128126859665,-0.6424767971038818,-1.2807013988494873
1763692622419546600,0.693546630859375,-0.06198940798640251,-1.278213620185852,-1.1787010431289673
1763692622429568500,0.703568603515625,-0.04352711886167526,-1.5510517358779907,-1.0533416271209717
1763692622439589400,0.71358935546875,-0.08536084741353989,-1.658125400543213,-0.9607526659965515
1763692622449610800,0.72361083984375,-0.1453140527009964,-1.6915740966796875,-0.9087988138198853
1763692622459632600,0.733632568359375,-0.14051049947738647,-1.6456220149993896,-0.8267659544944763
1763692622469653500,0.743653564453125,-0.04037325829267502,-1.544503092765808,-0.743000864982605
1763692622479675600,0.753675537109375,0.061874814331531525,-1.4210444688796997,-0.694815993309021
1763692622489696500,0.763696533203125,0.09515143930912018,-1.2407058477401733,-0.6748962998390198
1763692622499717600,0.773717529296875,0.21724672615528107,-1.2812769412994385,-0.6171821355819702
1763692622509739500,0.783739501953125,0.3336436152458191,-1.3437130451202393,-0.5142330527305603
1763692622519760600,0.7937607421875,0.38214564323425293,-1.3367012739181519,-0.3519900441169739
1763692622529781500,0.803781494140625,0.4384089708328247,-1.0674278736114502,-0.24576447904109955
1763692622539803400,0.813803466796875,0.544945240020752,-0.7238066792488098,-0.26288992166519165
1763692622549824800,0.82382470703125,0.5482629537582397,-0.43249207735061646,-0.3800905644893646
1763692622559846700,0.8338466796875,0.5230976939201355,-0.2726674973964691,-0.4445403814315796
1763692622569867500,0.843867431640625,0.5556560754776001,-0.2862565815448761,-0.4198859930038452
1763692622579888600,0.853888671875,0.6129867434501648,-0.4174140691757202,-0.3532518446445465
1763692622589910500,0.86391064453125,0.6422988772392273,-0.576138973236084,-0.28377658128738403
1763692622599931600,0.873931640625,0.6558842062950134,-0.6848207116127014,-0.23081935942173004
1763692622609953500,0.88395361328125,0.6826947331428528,-0.7443552613258362,-0.24984334409236908
1763692622619974700,0.893974609375,0.7161232829093933,-0.6441575288772583,-0.3569306433200836
1763692622629995500,0.90399560546875,0.7821332812309265,-0.4040946662425995,-0.5478903651237488
1763692622640017400,0.914017333984375,0.8656561374664307,-0.1704328954219818,-0.737216055393219
1763692622650038800,0.924038818359375,0.8735401630401611,-0.12349232286214828,-0.8107988834381104
1763692622660059600,0.9340595703125,0.7850446701049805,-0.20687350630760193,-0.8041633367538452
1763692622670081500,0.94408154296875,0.6229264140129089,-0.3139401078224182,-0.6831797957420349
1763692622680102700,0.9541025390625,0.45039644837379456,-0.43877577781677246,-0.49252885580062866
1763692622690124500,0.96412451171875,0.33499887585639954,-0.5429277420043945,-0.2948816418647766
1763692622700145700,0.974145751953125,0.2968041002750397,-0.6269766092300415,-0.14985443651676178
1763692622710166800,0.984166748046875,0.2717837393283844,-0.7044353485107422,-0.09413876384496689
1763692622720188700,0.994188720703125,0.19275496900081635,-0.6765651106834412,-0.10680822283029556
1763692622730209500,1.00420947265625,0.16376054286956787,-0.532535970211029,-0.18634067475795746
1763692622740231400,1.0142314453125,0.20677192509174347,-0.4360792338848114,-0.3582761883735657
1763692622750252500,1.02425244140625,0.21686246991157532,-0.44507652521133423,-0.5400538444519043
1763692622760273700,1.034273681640625,0.13256622850894928,-0.47625601291656494,-0.6021201610565186
1763692622770295600,1.044295654296875,0.010870024561882019,-0.5722215175628662,-0.5128859281539917
1763692622780316700,1.054316650390625,-0.15628646314144135,-0.3463077247142792,-0.1202174574136734
1763692622790337500,1.064337646484375,-0.05806019529700279,-0.7370190024375916,-0.0786357894539833
1763692622800359400,1.074359375,-0.010789352469146252,-0.7861894965171814,0.09718610346317291
1763692622810380800,1.084380859375,-0.06765166670084,-0.6513366103172302,0.32887253165245056
1763692622820402700,1.094402587890625,-0.08216430246829987,-0.8134123086929321,0.36241719126701355
1763692622830423600,1.104423583984375,-0.09902860969305038,-0.9540885090827942,0.3477632999420166
1763692622840444700,1.114444580078125,-0.1317860186100006,-1.0040295124053955,0.2758558392524719
1763692622850466600,1.124466552734375,-0.16761544346809387,-0.9364338517189026,0.1432705521583557
1763692622860487700,1.13448779296875,-0.16090214252471924,-0.7744281888008118,-0.05415996536612511
1763692622870509800,1.144509765625,-0.12697860598564148,-0.6275427937507629,-0.25341489911079407
1763692622880531200,1.15453125,-0.10622591525316238,-0.4763711094856262,-0.3862115740776062
1763692622890552000,1.164552001953125,-0.11196048557758331,-0.3994414508342743,-0.44471240043640137
1763692622900574000,1.174573974609375,-0.1223641186952591,-0.30788329243659973,-0.4364161193370819
1763692622910594800,1.1845947265625,-0.13485199213027954,0.336528480052948,-0.5706552267074585
1763692622920617000,1.194616943359375,-0.21785366535186768,0.6550760269165039,-0.5500471591949463
1763692622930638000,1.20463818359375,-0.21539689600467682,0.9381330609321594,-0.45585620403289795
1763692622940659000,1.214658935546875,-0.16674095392227173,1.2324198484420776,-0.33020347356796265
1763692622950681000,1.22468115234375,-0.13686813414096832,1.407638669013977,-0.1689048409461975
1763692622960702000,1.234701904296875,-0.12713053822517395,1.2855433225631714,0.001132930163294077
1763692622970722800,1.244722900390625,-0.07610704749822617,0.8676609396934509,0.17588156461715698
1763692622980745000,1.254744873046875,0.05181043967604637,0.3588341474533081,0.31781020760536194
1763692622990766000,1.26476611328125,0.19134680926799774,-0.11270267516374588,0.3556571900844574
1763692623000788000,1.2747880859375,0.33226478099823,-0.3269691467285156,0.26564207673072815
1763692623010808800,1.284808837890625,0.45373648405075073,-0.23363082110881805,0.11181920021772385
1763692623020830000,1.294829833984375,0.5270253419876099,0.08328161388635635,0.010135718621313572
1763692623030852000,1.30485205078125,0.5598255395889282,0.4974032938480377,0.00008660904131829739
1763692623040873000,1.314873046875,0.5840315222740173,0.8488126993179321,0.05172130465507507
1763692623050894800,1.324894775390625,0.5729051828384399,0.9349697828292847,0.0958373099565506
1763692623060916000,1.334916015625,0.3797988295555115,0.981951892375946,0.07917844504117966
1763692623070936800,1.344936767578125,0.07279233634471893,1.283972144126892,0.08629133552312851
1763692623080959000,1.354958984375,-0.028164904564619064,1.6234596967697144,0.08276158571243286
1763692623090980000,1.36497998046875,0.008415707387030125,1.7812809944152832,0.04301488399505615
1763692623101001000,1.3750009765625,0.07982011884450912,1.8582911491394043,0.023252364248037338
1763692623111022800,1.38502294921875,0.1188771054148674,1.9636820554733276,0.04866354912519455
1763692623121044000,1.3950439453125,0.1349809616804123,2.1501662731170654,0.09135348349809647
1763692623131066000,1.405066162109375,0.08776137977838516,2.518958806991577,0.13915874063968658
1763692623141087000,1.4150869140625,0.06216893717646599,3.1775035858154297,0.16991931200027466
1763692623151108000,1.425108154296875,0.02256597764790058,4.034713268280029,0.1658744364976883
1763692623161130000,1.4351298828125,-0.07932789623737335,2.352820634841919,0.07376714795827866
1763692623171150800,1.44515087890625,-0.07658850401639938,2.1279687881469727,0.1698949933052063
1763692623181173000,1.455173095703125,-0.1655958741903305,1.6041663885116577,0.1783025860786438
1763692623191194000,1.465194091796875,-0.27001211047172546,1.5800461769104004,0.2828226089477539
1763692623201215000,1.475215087890625,-0.3622458875179291,1.8926341533660889,0.37532058358192444
1763692623211236900,1.48523681640625,-0.42594462633132935,2.2758986949920654,0.4757252633571625
1763692623221258000,1.495258056640625,-0.5417537689208984,2.557842969894409,0.5738499760627747
1763692623231280000,1.505280029296875,-0.7293906807899475,2.6743035316467285,0.6672001481056213
1763692623241301000,1.515301025390625,-0.9010372757911682,2.76224422454834,0.7070162892341614
1763692623251322000,1.525322021484375,-1.0185779333114624,2.6869304180145264,0.6834699511528015
1763692623261344000,1.535343994140625,-1.0977391004562378,2.6256473064422607,0.6255835294723511
1763692623271364900,1.54536474609375,-1.1304634809494019,2.7060444355010986,0.5482842326164246
1763692623281386000,1.555385986328125,-1.1239917278289795,2.934739112854004,0.5266473889350891
1763692623291408100,1.565408203125,-0.998314380645752,2.819720983505249,0.3918125629425049
1763692623301429000,1.575428955078125,-0.7022997736930847,2.4658114910125732,0.2496596872806549
1763692623311451000,1.585450927734375,-0.751519501209259,2.9267313480377197,0.39556992053985596
1763692623321472000,1.595471923828125,-0.47339731454849243,2.3185694217681885,0.07869424670934677
1763692623331492900,1.605492919921875,-0.14620791375637054,2.495964288711548,-0.14935047924518585
1763692623341515000,1.615514892578125,0.12466085702180862,2.470688819885254,-0.26499876379966736
1763692623351536000,1.6255361328125,0.20818129181861877,2.5384113788604736,-0.20010238885879517
1763692623361558000,1.63555810546875,0.20159024000167847,2.6348204612731934,-0.034173063933849335
1763692623371579000,1.645578857421875,0.12935498356819153,1.9419111013412476,0.24063733220100403
1763692623381600000,1.65560009765625,-0.06409037858247757,1.3179045915603638,0.4197634160518646
1763692623391622100,1.6656220703125,-0.15012326836585999,1.6334168910980225,0.3047381341457367
1763692623401643000,1.67564306640625,-0.2538781464099884,1.7727901935577393,0.12149161100387573
1763692623411665000,1.685664794921875,-0.3449676036834717,1.743936538696289,-0.02243061363697052
1763692623421686000,1.69568603515625,-0.4517763555049896,1.5256785154342651,-0.17029117047786713
1763692623431707000,1.705706787109375,-0.4613035321235657,1.0973052978515625,-0.22507771849632263
1763692623441729000,1.71572900390625,-0.39015159010887146,0.6861148476600647,-0.1681760847568512
1763692623451750100,1.725750244140625,-0.23113976418972015,0.5629422664642334,-0.04857306182384491
1763692623461772000,1.73577197265625,-0.15726341307163239,0.6972625255584717,0.10488946735858917
1763692623471793000,1.74579296875,-0.2729250192642212,1.0937265157699585,0.31334254145622253
1763692623481814000,1.75581396484375,-0.3499494791030884,1.577562689781189,0.5866428017616272
1763692623491836200,1.765836181640625,-0.4459754526615143,1.9725399017333984,0.7901063561439514
1763692623501857000,1.77585693359375,-0.518890380859375,2.1324594020843506,1.0355427265167236
1763692623511879000,1.78587890625,-0.6064766049385071,2.428877592086792,1.2537351846694946
1763692623521900000,1.795900146484375,-0.6774344444274902,2.4135119915008545,1.3740280866622925
1763692623531921000,1.8059208984375,-0.7130408883094788,2.2199177742004395,1.298011064529419
1763692623541943000,1.815943115234375,-0.741497814655304,1.9624927043914795,1.0539829730987549
1763692623551964200,1.825964111328125,-0.7781835198402405,1.7879362106323242,0.7419163584709167
1763692623561985000,1.835985107421875,-0.6085164546966553,1.5755174160003662,0.48055270314216614
1763692623572007000,1.8460068359375,-0.3146255910396576,1.4327664375305176,0.32636263966560364
1763692623582028000,1.856028076171875,-0.038692254573106766,1.5474435091018677,0.29322758316993713
1763692623592050200,1.86605029296875,0.08957929909229279,1.2740265130996704,0.519061267375946
1763692623602071000,1.876071044921875,-0.12913013994693756,1.2806702852249146,0.6096569895744324
1763692623612092000,1.886091796875,-0.4706633985042572,1.0239300727844238,0.8479219079017639
1763692623622114000,1.896114013671875,-0.7298483848571777,0.6864797472953796,0.9825758337974548
1763692623632135000,1.906135009765625,-0.8247254490852356,0.6140714287757874,1.0458276271820068
1763692623642157000,1.916156982421875,-0.7702824473381042,0.7542905807495117,1.1302852630615234
1763692623652178200,1.92617822265625,-0.6892048716545105,0.755391001701355,1.280018925666809
1763692623662199000,1.936198974609375,-0.6900613307952881,0.724010169506073,1.4551843404769897
1763692623672221000,1.946220947265625,-0.6672660708427429,0.739499032497406,1.6830086708068848
1763692623682241800,1.95624169921875,-0.6100634932518005,0.6504094004631042,1.8410049676895142
1763692623692264200,1.96626416015625,-0.5365804433822632,0.6041833758354187,1.8605858087539673
1763692623702285000,1.97628515625,-0.47287043929100037,0.5965390205383301,1.6903361082077026
1763692623712306000,1.986305908203125,-0.45220860838890076,0.5630796551704407,1.4543496370315552
1763692623722328000,1.996328125,-0.4803779125213623,0.6227051615715027,1.2187544107437134
1763692623732349000,2.006348876953125,-0.4998977482318878,0.8662732243537903,1.03568696975708
1763692623742371000,2.01637109375,-0.5177387595176697,1.1514407396316528,0.9760162830352783
1763692623752392000,2.026391845703125,-0.44438767433166504,1.4278383255004883,0.9747068285942078
1763692623762413000,2.0364130859375,-0.17099447548389435,1.4731509685516357,1.1248857975006104
1763692623772435000,2.04643505859375,0.06638054549694061,1.1990361213684082,1.3183910846710205
1763692623782455800,2.056455810546875,0.27273398637771606,0.9239408373832703,1.576069712638855
1763692623792478200,2.066478271484375,0.37332066893577576,0.516115665435791,1.7881908416748047
1763692623802499000,2.0764990234375,0.37266260385513306,0.06915600597858429,1.9617708921432495
1763692623812520000,2.08652001953125,0.3507009446620941,-0.26350316405296326,2.0848934650421143
1763692623822542000,2.0965419921875,0.31708014011383057,-0.3554019331932068,2.155635118484497
1763692623832563000,2.10656298828125,0.32516223192214966,-0.33199214935302734,2.097912073135376
1763692623842585000,2.116585205078125,0.3103553354740143,-0.1597125232219696,1.900330662727356
1763692623852606000,2.12660595703125,0.15105965733528137,0.3765460252761841,1.7785416841506958
1763692623862627600,2.136627685546875,-0.21546800434589386,0.7211009860038757,1.7076702117919922
1763692623872649500,2.1466494140625,-0.39643967151641846,0.9162408113479614,1.6338812112808228
1763692623882670300,2.15667041015625,-0.6153398156166077,1.0105780363082886,1.5416759252548218
1763692623892692200,2.166692138671875,-0.8323729038238525,0.9269672632217407,1.4208836555480957
1763692623902713300,2.17671337890625,-0.9132373929023743,0.9271140098571777,1.268364429473877
1763692623912734500,2.186734375,-0.8855695724487305,0.9060458540916443,1.0819828510284424
1763692623922756400,2.19675634765625,-0.7994482517242432,0.8104304075241089,0.8918030858039856
1763692623932777500,2.206777587890625,-0.6158778667449951,0.6753472685813904,0.7233830690383911
1763692623942799400,2.21679931640625,-0.34969839453697205,0.5597807765007019,0.5868132710456848
1763692623952820200,2.2268203125,-0.03702287748456001,0.4842442274093628,0.48322439193725586
1763692623962841600,2.236841552734375,0.2643047571182251,0.4062519669532776,0.4065250754356384
1763692623972863500,2.246863525390625,0.4932563006877899,0.30792924761772156,0.3356384336948395
1763692623982884400,2.25688427734375,0.6400755643844604,0.17840933799743652,0.25766614079475403
1763692623992906200,2.26690625,0.6911176443099976,0.0006361177074722946,0.15801189839839935
1763692624002927400,2.27692724609375,0.6802916526794434,-0.19271817803382874,0.03236742690205574
1763692624012948500,2.286948486328125,0.6524648070335388,-0.35260215401649475,-0.12249526381492615
1763692624022970400,2.296970458984375,0.6370201110839844,-0.4779936373233795,-0.2840804159641266
1763692624032991500,2.306991455078125,0.6545972228050232,-0.5513163208961487,-0.42859017848968506
1763692624043013400,2.317013427734375,0.7119888663291931,-0.5680111646652222,-0.5326989889144897
1763692624053034200,2.3270341796875,0.7873379588127136,-0.5438202023506165,-0.5907464623451233
1763692624063055400,2.337055419921875,0.8474356532096863,-0.49738001823425293,-0.6067637801170349
1763692624073077500,2.347077392578125,0.8791370391845703,-0.44253861904144287,-0.5981879830360413
1763692624083098400,2.357098388671875,0.864000141620636,-0.39781454205513,-0.5808425545692444
1763692624093120300,2.367120361328125,0.7972988486289978,-0.36460354924201965,-0.5689467787742615
1763692624103141400,2.377141357421875,0.697242021560669,-0.33241552114486694,-0.5510695576667786
1763692624113162200,2.387162353515625,0.5886238813400269,-0.3028043210506439,-0.5253015160560608
1763692624123184400,2.397184326171875,0.4760490953922272,-0.2795692980289459,-0.5016238689422607
1763692624133205500,2.40720556640625,0.36060523986816406,-0.26475629210472107,-0.48315757513046265
1763692624143227400,2.417227294921875,0.25497734546661377,-0.2426067590713501,-0.46670857071876526
1763692624153248300,2.427248291015625,0.1635001003742218,-0.19689208269119263,-0.4496552050113678
1763692624163269400,2.437269287109375,0.09204110503196716,-0.1398242712020874,-0.4272513687610626
1763692624173291500,2.44729150390625,0.03874509781599045,-0.046340517699718475,-0.39278918504714966
1763692624183312400,2.4573125,0.004506700672209263,0.06129220128059387,-0.34656044840812683
1763692624193334300,2.467334228515625,-0.02029152400791645,0.1633208990097046,-0.2952336072921753
1763692624203355400,2.47735546875,-0.04898202419281006,0.25395387411117554,-0.24108248949050903
1763692624213376300,2.487376220703125,-0.08379505574703217,0.31567588448524475,-0.18957586586475372
1763692624223398400,2.4973984375,-0.1197115108370781,0.34151491522789,-0.1478388011455536
1763692624233419500,2.50741943359375,-0.1537625640630722,0.3357643783092499,-0.11698143929243088
1763692624243441400,2.51744140625,-0.19822323322296143,0.3062690794467926,-0.09978700429201126
1763692624253462300,2.527462158203125,-0.24940526485443115,0.27515581250190735,-0.0925101786851883
1763692624263483400,2.5374833984375,-0.29879117012023926,0.25104889273643494,-0.09782558679580688
1763692624273505500,2.547505615234375,-0.3392077088356018,0.2416585385799408,-0.10773368179798126
1763692624283526400,2.5575263671875,-0.3628733456134796,0.2521815001964569,-0.12235017120838165
1763692624293548300,2.56754833984375,-0.3720255494117737,0.2679089307785034,-0.13398884236812592
1763692624303569400,2.5775693359375,-0.36679351329803467,0.27336493134498596,-0.1417732685804367
1763692624313590300,2.58759033203125,-0.34100911021232605,0.2728138566017151,-0.1434561163187027
1763692624323612400,2.5976123046875,-0.3074658215045929,0.2730711102485657,-0.1481533944606781
1763692624333633500,2.607633544921875,-0.25898224115371704,0.2707560062408447,-0.1603190004825592
1763692624343655400,2.617655517578125,-0.20174850523471832,0.26722410321235657,-0.1779821515083313
1763692624353676300,2.62767626953125,-0.14914479851722717,0.25419121980667114,-0.19459491968154907
1763692624363697400,2.637697509765625,-0.10217727720737457,0.22264741361141205,-0.20732775330543518
1763692624373719600,2.647719482421875,-0.06823794543743134,0.1832314282655716,-0.21070556342601776
1763692624383740400,2.657740478515625,-0.04693692550063133,0.13527429103851318,-0.21003496646881104
1763692624393762300,2.66776220703125,-0.034023359417915344,0.07327933609485626,-0.20688772201538086
1763692624403783400,2.677783447265625,-0.035476379096508026,0.01604507490992546,-0.19703055918216705
1763692624413804300,2.68780419921875,-0.051614824682474136,-0.030522333458065987,-0.17864707112312317
1763692624423826400,2.697826416015625,-0.07840036600828171,-0.06190955266356468,-0.16083292663097382
1763692624433847600,2.70784765625,-0.10225910693407059,-0.08393416553735733,-0.1433706134557724
1763692624443869400,2.717869384765625,-0.1196034774184227,-0.08313362300395966,-0.13136029243469238
1763692624453890300,2.727890380859375,-0.12820123136043549,-0.06704051047563553,-0.12514594197273254
1763692624463911200,2.7379111328125,-0.12870830297470093,-0.05152599886059761,-0.12281034886837006
1763692624473933600,2.74793359375,-0.12131279706954956,-0.026859160512685776,-0.1185939684510231
1763692624483954400,2.757954345703125,-0.10966439545154572,0.01424779649823904,-0.1120561733841896
1763692624493976300,2.767976318359375,-0.10171859711408615,0.047662071883678436,-0.10505645722150803
1763692624503997400,2.77799755859375,-0.09526974707841873,0.06369803100824356,-0.09650744497776031
1763692624514018300,2.788018310546875,-0.08945325016975403,0.07183009386062622,-0.08707208186388016
1763692624524040400,2.79804052734375,-0.08479271829128265,0.07133820652961731,-0.08508270233869553
1763692624534061300,2.808061279296875,-0.08012599498033524,0.05331107974052429,-0.08776503801345825
1763692624544083500,2.81808349609375,-0.07480126619338989,0.02242213860154152,-0.10251016169786453
1763692624554104300,2.828104248046875,-0.06720753759145737,-0.0009810598567128181,-0.12182594835758209
1763692624564125200,2.838125244140625,-0.048428524285554886,-0.0012660181382670999,-0.13961613178253174
1763692624574147600,2.848147705078125,-0.02011013962328434,0.018165292218327522,-0.15825679898262024
1763692624584168400,2.85816845703125,0.013105872087180614,0.0483010932803154,-0.17321151494979858
1763692624594190300,2.8681904296875,0.042485035955905914,0.07344147562980652,-0.17910103499889374
1763692624604211500,2.87821142578125,0.06332267820835114,0.07832011580467224,-0.176114022731781
1763692624614232300,2.888232421875,0.07349081337451935,0.06779033690690994,-0.16324284672737122
1763692624624254500,2.89825439453125,0.07641549408435822,0.03906441852450371,-0.1468430906534195
1763692624634275300,2.908275390625,0.07402914017438889,0.015735018998384476,-0.12812595069408417
1763692624644297500,2.91829736328125,0.07410930097103119,0.01215466670691967,-0.10502994060516357
1763692624654318300,2.928318359375,0.07181975990533829,0.008606160059571266,-0.08165847510099411
1763692624664339200,2.938339111328125,0.06459833681583405,0.016407890245318413,-0.053413793444633484
1763692624674361300,2.948361328125,0.053299661725759506,0.034816790372133255,-0.024614928290247917
1763692624684382500,2.958382568359375,0.030801543965935707,0.05694819241762161,0.005324061028659344
1763692624694404400,2.968404296875,-0.006187367253005505,0.06431370228528976,0.03414851799607277
1763692624704425200,2.97842529296875,-0.04260849207639694,0.05085407942533493,0.0641852468252182
1763692624714446300,2.9884462890625,-0.07736218720674515,0.03257346525788307,0.0861048549413681
1763692624724468500,2.998468505859375,-0.10083368420600891,0.013585126027464867,0.09529250115156174
1763692624734489300,3.0084892578125,-0.107545867562294,-0.017926935106515884,0.0940343365073204
1763692624744511500,3.018511474609375,-0.10066692531108856,-0.06378044188022614,0.08301391452550888
1763692624754532400,3.028532470703125,-0.07663939148187637,-0.11958637088537216,0.07282646745443344
1763692624764553200,3.03855322265625,-0.03803794085979462,-0.18116317689418793,0.06961150467395782
1763692624774575400,3.048575439453125,0.007025324273854494,-0.23155038058757782,0.07237596064805984
1763692624784596500,3.058596435546875,0.050402622669935226,-0.26305878162384033,0.07976197451353073
1763692624794618400,3.068618408203125,0.09230189770460129,-0.28951743245124817,0.08593378961086273
1763692624804639200,3.07863916015625,0.1331002116203308,-0.30834147334098816,0.08434734493494034
1763692624814660400,3.088660400390625,0.17176231741905212,-0.31501689553260803,0.08255225419998169
1763692624824682500,3.0986826171875,0.21272093057632446,-0.3206345736980438,0.07856948673725128
1763692624834703400,3.108703369140625,0.2539995312690735,-0.32910165190696716,0.07298453152179718
1763692624844725200,3.118725341796875,0.2919897735118866,-0.3347209393978119,0.060425594449043274
1763692624854746400,3.128746337890625,0.3164026439189911,-0.3343490958213806,0.038395561277866364
1763692624864767200,3.138767333984375,0.3213345408439636,-0.3123186230659485,0.007648834027349949
1763692624874789000,3.1487890625,0.29925215244293213,-0.2727409899234772,-0.02276330068707466
1763692624884810000,3.15881005859375,0.256190687417984,-0.23468415439128876,-0.04716424643993378
1763692624894831900,3.168831787109375,0.19639898836612701,-0.2026381939649582,-0.06588639318943024
1763692624904853000,3.17885302734375,0.12519966065883636,-0.16041377186775208,-0.07966718822717667
1763692624914873900,3.188873779296875,0.05253167077898979,-0.12877605855464935,-0.08978220820426941
1763692624924896000,3.19889599609375,-0.01427372358739376,-0.1105259507894516,-0.08629160374403
1763692624934916900,3.208916748046875,-0.06484344601631165,-0.09797871112823486,-0.06461885571479797
1763692624944939000,3.21893896484375,-0.09665943682193756,-0.07937147468328476,-0.031456902623176575
1763692624954960000,3.2289599609375,-0.11439096927642822,-0.05665860325098038,0.015997931361198425
1763692624964980700,3.238980712890625,-0.12183929979801178,-0.03331732749938965,0.07232511788606644
1763692624975003000,3.2490029296875,-0.13314534723758698,-0.02403675578534603,0.12428860366344452
1763692624985024000,3.25902392578125,-0.14143043756484985,-0.036268655210733414,0.17065557837486267
1763692624995046000,3.2690458984375,-0.1573137640953064,-0.07110350579023361,0.1980583816766739
1763692625005066800,3.279066650390625,-0.17487570643424988,-0.11442194879055023,0.20701272785663605
1763692625015087900,3.289087890625,-0.18307997286319733,-0.1588062047958374,0.19604864716529846
1763692625025110000,3.299110107421875,-0.1799219846725464,-0.19416846334934235,0.1710255891084671
1763692625035131000,3.309130859375,-0.16796201467514038,-0.21864914894104004,0.13682110607624054
1763692625045153000,3.319153076171875,-0.14368997514247894,-0.2297891527414322,0.09822604060173035
1763692625055174000,3.329173828125,-0.11335566639900208,-0.22600583732128143,0.06250034272670746
1763692625065194800,3.33919482421875,-0.08311973512172699,-0.21773912012577057,0.042731162160634995
1763692625075217000,3.349216796875,-0.061943523585796356,-0.21122683584690094,0.03420667722821236
1763692625085238000,3.359238037109375,-0.04690518602728844,-0.219814732670784,0.043519485741853714
1763692625095260000,3.369260009765625,-0.036183979362249374,-0.2312278300523758,0.06812892854213715
1763692625105280800,3.37928076171875,-0.02238054946064949,-0.24694794416427612,0.09516241401433945
1763692625115302000,3.389302001953125,-0.007066532503813505,-0.25634026527404785,0.1244632676243782
1763692625125324000,3.399323974609375,0.005459912121295929,-0.25196656584739685,0.1519974172115326
1763692625135345000,3.409344970703125,0.0035765008069574833,-0.23670530319213867,0.1730605810880661
1763692625145366800,3.41936669921875,-0.006448169704526663,-0.21546846628189087,0.1892494112253189
1763692625155388000,3.429387939453125,-0.02768024429678917,-0.18351291120052338,0.19658075273036957
1763692625165408800,3.43940869140625,-0.055756621062755585,-0.14362381398677826,0.19146855175495148
1763692625175431000,3.449430908203125,-0.08791160583496094,-0.1032753437757492,0.18383893370628357
1763692625185452000,3.4594521484375,-0.11710145324468613,-0.06441289931535721,0.17147652804851532
1763692625195474000,3.469473876953125,-0.14375638961791992,-0.03861203044652939,0.15715932846069336
1763692625205494800,3.479494873046875,-0.15844585001468658,-0.016450803726911545,0.14470185339450836
1763692625215516000,3.489515869140625,-0.16198599338531494,-0.008082618936896324,0.12947683036327362
1763692625225537800,3.499537841796875,-0.14876818656921387,-0.007286333944648504,0.11890728026628494
1763692625235559000,3.509558837890625,-0.12467349320650101,-0.01465506013482809,0.11716639250516891
1763692625245580800,3.519580810546875,-0.09750072658061981,-0.027755947783589363,0.11769875884056091
1763692625255602000,3.529601806640625,-0.06469427049160004,-0.05069366469979286,0.12249559909105301
1763692625265622800,3.539622802734375,-0.02853839471936226,-0.06943059712648392,0.124141164124012
1763692625275644700,3.549644775390625,0.004659099504351616,-0.08755339682102203,0.11597151309251785
1763692625285666000,3.559666015625,0.030024375766515732,-0.10343675315380096,0.09937575459480286
1763692625295688000,3.56968798828125,0.04954468831419945,-0.11417543143033981,0.07632384449243546
1763692625305708800,3.579708740234375,0.0643172413110733,-0.13148118555545807,0.04781949520111084
1763692625315730000,3.58972998046875,0.07305280864238739,-0.15890614688396454,0.017159443348646164
1763692625325751800,3.599751708984375,0.0886746421456337,-0.18698571622371674,-0.012213357724249363
1763692625335773000,3.60977294921875,0.11543166637420654,-0.2205839902162552,-0.03409512713551521
1763692625345794800,3.619794921875,0.1517510563135147,-0.2539217174053192,-0.05764812231063843
1763692625355816000,3.62981591796875,0.19660480320453644,-0.28777366876602173,-0.07280288636684418
1763692625365836800,3.6398369140625,0.24033123254776,-0.30862224102020264,-0.0783957913517952
1763692625375858700,3.649858642578125,0.2705160975456238,-0.3184625506401062,-0.07802905142307281
1763692625385880000,3.659880126953125,0.28600797057151794,-0.32321813702583313,-0.07581596076488495
1763692625395902000,3.66990185546875,0.2891952395439148,-0.3092779517173767,-0.07289570569992065
1763692625405922800,3.6799228515625,0.2790328860282898,-0.2801285982131958,-0.07379133254289627
1763692625415944000,3.68994384765625,0.24741114675998688,-0.24966385960578918,-0.06971795111894608
1763692625425965800,3.6999658203125,0.18846102058887482,-0.22733591496944427,-0.06556475162506104
1763692625435987000,3.709987060546875,0.10930006206035614,-0.2237650752067566,-0.055764757096767426
1763692625446008800,3.7200087890625,0.019047129899263382,-0.2409707009792328,-0.04343938082456589
1763692625456030000,3.730030029296875,-0.05496001988649368,-0.26657721400260925,-0.02907463163137436
1763692625466050800,3.74005078125,-0.10536433756351471,-0.29153287410736084,-0.008790663443505764
1763692625476072700,3.75007275390625,-0.131265789270401,-0.29896023869514465,0.016240360215306282
1763692625486094000,3.760093994140625,-0.13831837475299835,-0.29393965005874634,0.051515791565179825
1763692625496116000,3.770115966796875,-0.13978300988674164,-0.2739364802837372,0.09318247437477112
1763692625506136800,3.78013671875,-0.13911482691764832,-0.23308758437633514,0.13823702931404114
1763692625516158000,3.790157958984375,-0.14236286282539368,-0.1864638328552246,0.16821296513080597
1763692625526179800,3.800179931640625,-0.15787523984909058,-0.13337185978889465,0.18703192472457886
1763692625536201000,3.810200927734375,-0.19080255925655365,-0.08566851913928986,0.1914927214384079
1763692625546222800,3.820222900390625,-0.23285692930221558,-0.056025952100753784,0.18034593760967255
1763692625556244000,3.830243896484375,-0.2774718105792999,-0.03738846257328987,0.15461191534996033
1763692625566264800,3.840264892578125,-0.30792081356048584,-0.006526423152536154,0.1232241615653038
1763692625576286700,3.85028662109375,-0.32479146122932434,0.01261206902563572,0.09333628416061401
1763692625586308000,3.86030810546875,-0.3223309814929962,0.022589335218071938,0.06498213857412338
1763692625596330000,3.870330078125,-0.30237042903900146,0.020764240995049477,0.04940630495548248
1763692625606350800,3.880350830078125,-0.26545608043670654,0.009180821478366852,0.04329195246100426
1763692625616372000,3.8903720703125,-0.22044728696346283,-0.020295217633247375,0.04138241335749626
1763692625626393900,3.900393798828125,-0.1687185913324356,-0.0683056190609932,0.05116340517997742
1763692625636415000,3.9104150390625,-0.11935769021511078,-0.13593007624149323,0.05603152513504028
1763692625646436900,3.920436767578125,-0.07049907743930817,-0.2132491022348404,0.06474671512842178
1763692625656458000,3.9304580078125,-0.021871594712138176,-0.2904704213142395,0.06702243536710739
1763692625666478800,3.940478759765625,0.023632507771253586,-0.3615347445011139,0.0725298523902893
1763692625676500700,3.950500732421875,0.06089891865849495,-0.4142022132873535,0.0784335508942604
1763692625686522000,3.960522216796875,0.07453004270792007,-0.4552777409553528,0.09258025884628296
1763692625696543000,3.97054296875,0.060006700456142426,-0.4909861385822296,0.11580982804298401
1763692625706564900,3.98056494140625,0.027141425758600235,-0.5172097086906433,0.14675763249397278
1763692625716586000,3.9905859375,-0.008118456229567528,-0.5337724089622498,0.17484819889068604
1763692625726608000,4.00060791015625,-0.03911445289850235,-0.5305737257003784,0.19786536693572998
1763692625736629000,4.01062890625,-0.060095660388469696,-0.5142783522605896,0.21386106312274933
1763692625746649900,4.02064990234375,-0.07463225722312927,-0.49202337861061096,0.23590616881847382
1763692625756672000,4.030672119140625,-0.0845232605934143,-0.4694758355617523,0.26091042160987854
1763692625766692900,4.04069287109375,-0.08869510143995285,-0.45162174105644226,0.2965158224105835
1763692625776714800,4.05071484375,-0.0899059996008873,-0.4262036383152008,0.34013673663139343
1763692625786736000,4.060736083984375,-0.09276623278856277,-0.38823360204696655,0.38453778624534607
1763692625796758000,4.070758056640625,-0.11137695610523224,-0.3587060570716858,0.43001437187194824
1763692625806779000,4.08077880859375,-0.15129587054252625,-0.3581894040107727,0.4660080671310425
1763692625816800000,4.090800048828125,-0.20174691081047058,-0.3679545819759369,0.48909613490104675
1763692625826822000,4.10082177734375,-0.2488052248954773,-0.38394367694854736,0.4920051097869873
1763692625836843000,4.110843017578125,-0.28644654154777527,-0.3849056661128998,0.47757411003112793
1763692625846865000,4.120864990234375,-0.31665343046188354,-0.3744916319847107,0.45152947306632996
1763692625856886000,4.130885986328125,-0.33697664737701416,-0.35806307196617126,0.4235839545726776
1763692625866907000,4.140906982421875,-0.34143877029418945,-0.3237982988357544,0.40369918942451477
1763692625876928800,4.1509287109375,-0.3341628909111023,-0.2650938034057617,0.39221131801605225
1763692625886950000,4.160949951171875,-0.32015281915664673,-0.19775284826755524,0.39194661378860474
1763692625896970800,4.170970703125,-0.29842516779899597,-0.1206832081079483,0.39937904477119446
1763692625906993000,4.180992919921875,-0.268049955368042,-0.0351153165102005,0.4073975384235382
1763692625917013800,4.191013671875,-0.24001473188400269,0.039004579186439514,0.41305625438690186
1763692625927036000,4.201035888671875,-0.21004058420658112,0.07995786517858505,0.4071669578552246
1763692625937056800,4.211056884765625,-0.16828668117523193,0.09957905113697052,0.3937043845653534
1763692625947077600,4.22107763671875,-0.11955668777227402,0.1127110943198204,0.36155495047569275
1763692625957100000,4.23110009765625,-0.05740690976381302,0.11311550438404083,0.3190698027610779
1763692625967121000,4.241120849609375,0.007260499056428671,0.12192843854427338,0.26676878333091736
1763692625977142800,4.251142822265625,0.07440776377916336,0.13189992308616638,0.2050008624792099
1763692625987164000,4.261163818359375,0.13848847150802612,0.12862184643745422,0.1424245685338974
1763692625997184800,4.271184814453125,0.20059844851493835,0.10195348411798477,0.07885278016328812
1763692626007207000,4.28120703125,0.26218271255493164,0.07208932191133499,0.02206246741116047
1763692626017227800,4.291227783203125,0.33178842067718506,0.05170096457004547,-0.01843382604420185
1763692626027250000,4.30125,0.40621018409729004,0.02724968083202839,-0.046444687992334366
1763692626037270800,4.311270751953125,0.47699660062789917,0.0038397093303501606,-0.059029869735240936
1763692626047291600,4.321291748046875,0.5340703129768372,-0.03047299012541771,-0.05299062281847
1763692626057313800,4.331313720703125,0.5820987224578857,-0.08152758330106735,-0.03464316204190254
1763692626067335000,4.3413349609375,0.6145288348197937,-0.13967585563659668,0.005305585451424122
1763692626077356800,4.351356689453125,0.6283637285232544,-0.20316794514656067,0.055310145020484924
1763692626087377700,4.361377685546875,0.6144229173660278,-0.264716774225235,0.11224959790706635
1763692626097398800,4.371398681640625,0.5710971355438232,-0.3108993470668793,0.16319963335990906
1763692626107421000,4.3814208984375,0.5084593296051025,-0.31802836060523987,0.2055361568927765
1763692626117441800,4.39144189453125,0.4410375952720642,-0.27201083302497864,0.23812519013881683
1763692626127464000,4.4014638671875,0.37373417615890503,-0.19000783562660217,0.26956701278686523
1763692626137484800,4.41148486328125,0.29871708154678345,-0.0810796320438385,0.31030407547950745
1763692626147505700,4.421505615234375,0.21060772240161896,0.03096914291381836,0.3592117130756378
1763692626157527800,4.43152783203125,0.11110101640224457,0.12055280059576035,0.40952563285827637
1763692626167549000,4.441548828125,0.0003742320404853672,0.19890061020851135,0.44785597920417786
1763692626177570800,4.45157080078125,-0.10859587788581848,0.24897754192352295,0.4612499475479126
1763692626187591700,4.461591796875,-0.20562522113323212,0.26918935775756836,0.44713252782821655
1763692626197612800,4.47161279296875,-0.2757120728492737,0.2787743806838989,0.4043959975242615
1763692626207635000,4.481635009765625,-0.31980523467063904,0.2799554765224457,0.33887770771980286
1763692626217655800,4.49165576171875,-0.33302053809165955,0.2681485414505005,0.2650474011898041
1763692626227677700,4.501677734375,-0.3271096646785736,0.25154852867126465,0.19026635587215424
1763692626237698800,4.51169873046875,-0.31339505314826965,0.21297277510166168,0.11893623322248459
1763692626247719700,4.5217197265625,-0.29453322291374207,0.14781853556632996,0.04829934984445572
1763692626257741800,4.531741943359375,-0.27293846011161804,0.0689208060503006,-0.019696258008480072
1763692626267763000,4.541762939453125,-0.24286285042762756,-0.014313098043203354,-0.08788304030895233
1763692626277784800,4.551784912109375,-0.19937461614608765,-0.0954056978225708,-0.16421346366405487
1763692626287805700,4.5618056640625,-0.14249402284622192,-0.16795818507671356,-0.25008922815322876
1763692626297826800,4.571826904296875,-0.07400780916213989,-0.22707846760749817,-0.3413327932357788
1763692626307849000,4.581848876953125,0.009538749232888222,-0.2756316363811493,-0.431803822517395
1763692626317869800,4.591869873046875,0.09770075231790543,-0.3130333721637726,-0.5148789882659912
1763692626327891700,4.6018916015625,0.18402577936649323,-0.3262498378753662,-0.5818146467208862
1763692626337912800,4.611912841796875,0.26123183965682983,-0.3179311454296112,-0.6325469613075256
1763692626347933700,4.62193359375,0.3198655843734741,-0.3028762936592102,-0.6580224633216858
1763692626357955800,4.631955810546875,0.364986389875412,-0.2715804874897003,-0.663310706615448
1763692626367977000,4.64197705078125,0.3905061185359955,-0.23187489807605743,-0.6469064354896545
1763692626377997800,4.651997802734375,0.39162561297416687,-0.18410417437553406,-0.6076989769935608
1763692626388019700,4.662019775390625,0.36057978868484497,-0.13123030960559845,-0.5446544885635376
1763692626398040800,4.672040771484375,0.2990419566631317,-0.09786271303892136,-0.4689439535140991
1763692626408063000,4.68206298828125,0.22165581583976746,-0.08281612396240234,-0.37925082445144653
1763692626418083800,4.692083740234375,0.13673871755599976,-0.07482708990573883,-0.27596190571784973
1763692626428105000,4.70210498046875,0.056882500648498535,-0.07254263013601303,-0.17134200036525726
1763692626438126800,4.712126953125,-0.018611766397953033,-0.09938845783472061,-0.0721149742603302
1763692626448147700,4.722147705078125,-0.0789659172296524,-0.128998801112175,0.010240091010928154
1763692626458169900,4.732169921875,-0.13102345168590546,-0.14031918346881866,0.07421231269836426
1763692626468191000,4.74219091796875,-0.17040999233722687,-0.1414390504360199,0.11424681544303894
1763692626478211800,4.7522119140625,-0.19851380586624146,-0.13322636485099792,0.14062725007534027
1763692626488233700,4.762233642578125,-0.2178928405046463,-0.11504362523555756,0.1569332480430603
1763692626498254800,4.7722548828125,-0.22820933163166046,-0.08954605460166931,0.16824620962142944
1763692626508277000,4.782277099609375,-0.23155371844768524,-0.07435831427574158,0.16845101118087769
1763692626518297900,4.7922978515625,-0.22751013934612274,-0.07389462739229202,0.15616005659103394
1763692626528319000,4.802319091796875,-0.21398848295211792,-0.08000046014785767,0.134260356426239
1763692626538340900,4.8123408203125,-0.18445274233818054,-0.09041871130466461,0.10170233249664307
1763692626548361700,4.82236181640625,-0.14577698707580566,-0.11026671528816223,0.0651286169886589
1763692626558383900,4.8323837890625,-0.09986422955989838,-0.14317885041236877,0.03453459590673447
1763692626568405000,4.842405029296875,-0.04763298109173775,-0.1622505486011505,0.015537204220890999
1763692626578425900,4.85242578125,0.008887836709618568,-0.17944540083408356,0.008646981790661812
1763692626588447700,4.86244775390625,0.06714874505996704,-0.18090267479419708,0.009733552113175392
1763692626598468900,4.87246875,0.11936385184526443,-0.18219055235385895,0.01476992666721344
1763692626608491000,4.882490966796875,0.162483349442482,-0.18509607017040253,0.022802287712693214
1763692626618512000,4.892511962890625,0.19712963700294495,-0.18690983951091766,0.025243930518627167
1763692626628533000,4.902532958984375,0.22563771903514862,-0.17983941733837128,0.02882428467273712
1763692626638555000,4.912554931640625,0.24120399355888367,-0.16524207592010498,0.03381698578596115
1763692626648575700,4.92257568359375,0.2418823093175888,-0.15147726237773895,0.03391046077013016
1763692626658598000,4.932597900390625,0.2284570187330246,-0.13665446639060974,0.04218446463346481
1763692626668619000,4.942618896484375,0.20280465483665466,-0.10740257799625397,0.05225387588143349
1763692626678639900,4.952639892578125,0.16010665893554688,-0.0700032114982605,0.07009932398796082
1763692626688661800,4.962661865234375,0.10372328758239746,-0.03597387298941612,0.0866607278585434
1763692626698683000,4.972682861328125,0.04252392426133156,0.0016987191047519445,0.1070089116692543
1763692626708703700,4.982703857421875,-0.02113095298409462,0.04634128883481026,0.1314077228307724
1763692626718726000,4.992725830078125,-0.0721125602722168,0.07280503958463669,0.16043661534786224
1763692626728747000,5.0027470703125,-0.1026744619011879,0.09673461318016052,0.18797263503074646
1763692626738769000,5.012768798828125,-0.11405662447214127,0.12712015211582184,0.20650342106819153
1763692626748789800,5.022789794921875,-0.12383947521448135,0.15224973857402802,0.21696138381958008
1763692626758811000,5.032810791015625,-0.12925972044467926,0.17437052726745605,0.20537881553173065
1763692626768833000,5.0428330078125,-0.1338861584663391,0.19513891637325287,0.17717275023460388
1763692626778854000,5.05285400390625,-0.13877739012241364,0.20709726214408875,0.13256317377090454
1763692626788875800,5.062875732421875,-0.1393134891986847,0.2118520736694336,0.07334273308515549
1763692626798897000,5.07289697265625,-0.13740409910678864,0.2196761518716812,0.01372913084924221
1763692626808917800,5.082917724609375,-0.12483745068311691,0.23027606308460236,-0.04131254926323891
1763692626818940000,5.09293994140625,-0.10806277394294739,0.2387113869190216,-0.08651233464479446
1763692626828960800,5.102960693359375,-0.08955620229244232,0.24233195185661316,-0.11963912844657898
1763692626838983000,5.11298291015625,-0.062208231538534164,0.23738984763622284,-0.14151614904403687
1763692626849003800,5.123003662109375,-0.028950409963726997,0.22401490807533264,-0.16151514649391174
1763692626859024600,5.133024658203125,0.012412548065185547,0.21850314736366272,-0.18559741973876953
1763692626869047300,5.14304736328125,0.06208663061261177,0.22344385087490082,-0.22105340659618378
1763692626879068400,5.153068359375,0.10765308886766434,0.23670421540737152,-0.2683982253074646
1763692626889090300,5.16309033203125,0.15186847746372223,0.25300753116607666,-0.32969939708709717
1763692626899111200,5.173111083984375,0.18646685779094696,0.2761622369289398,-0.39246389269828796
1763692626909132300,5.18313232421875,0.2201225608587265,0.2874321937561035,-0.4477039575576782
1763692626919154400,5.193154541015625,0.2477191537618637,0.29407548904418945,-0.4857580363750458
1763692626929175300,5.20317529296875,0.27620166540145874,0.29387974739074707,-0.5047927498817444
1763692626939197200,5.213197265625,0.3030651807785034,0.28590157628059387,-0.5025444030761719
1763692626949218300,5.22321826171875,0.32962143421173096,0.28220537304878235,-0.4845089614391327
1763692626959239200,5.2332392578125,0.347491055727005,0.2919241487979889,-0.45551857352256775
1763692626969261300,5.24326123046875,0.3518674373626709,0.3110842704772949,-0.4271537661552429
1763692626979282400,5.253282470703125,0.3421763479709625,0.33511778712272644,-0.4021053612232208
1763692626989304300,5.26330419921875,0.3242173194885254,0.36358726024627686,-0.38834160566329956
1763692626999325200,5.2733251953125,0.303801029920578,0.40199345350265503,-0.3855326771736145
1763692627009346300,5.28334619140625,0.2811652421951294,0.44152194261550903,-0.38774096965789795
1763692627019368400,5.293368408203125,0.2598617672920227,0.4791182279586792,-0.3920898735523224
1763692627029389300,5.303389404296875,0.2459680438041687,0.515151858329773,-0.4006327688694
1763692627039410400,5.313410400390625,0.24239657819271088,0.5313215255737305,-0.4073944389820099
1763692627049432300,5.323432373046875,0.24914422631263733,0.5265148282051086,-0.4112131595611572
1763692627059453200,5.333453125,0.2725801467895508,0.5125115513801575,-0.4112910330295563
1763692627069475300,5.343475341796875,0.3052715063095093,0.4879055321216583,-0.4089501202106476
1763692627079496400,5.353496337890625,0.3458663523197174,0.47729095816612244,-0.4021923243999481
1763692627089517300,5.363517333984375,0.3855815529823303,0.4672955870628357,-0.390773743391037
1763692627099539200,5.373539306640625,0.41778457164764404,0.44891253113746643,-0.37759360671043396
1763692627109560300,5.383560302734375,0.4325219690799713,0.4243389964103699,-0.36287087202072144
1763692627119582500,5.39358251953125,0.43717291951179504,0.39975202083587646,-0.3476579189300537
1763692627129603300,5.403603271484375,0.423616886138916,0.3789846897125244,-0.33303263783454895
1763692627139624400,5.41362451171875,0.4009028673171997,0.3798960745334625,-0.31796523928642273
1763692627149646300,5.423646240234375,0.3730102777481079,0.3894922435283661,-0.30320999026298523
1763692627159667200,5.433667236328125,0.34545719623565674,0.4279361665248871,-0.28724929690361023
1763692627169689300,5.443689453125,0.32272523641586304,0.4861059784889221,-0.2722594141960144
1763692627179710500,5.45371044921875,0.30289703607559204,0.5479564666748047,-0.25239309668540955
1763692627189731300,5.4637314453125,0.2883828282356262,0.6047998070716858,-0.23034131526947021
1763692627199753200,5.473753173828125,0.27390414476394653,0.6491613984107971,-0.2062462419271469
1763692627209774300,5.4837744140625,0.2647809684276581,0.6676613092422485,-0.1851169914007187
1763692627219795500,5.49379541015625,0.2644031345844269,0.6641688346862793,-0.16921466588974
1763692627229817300,5.5038173828125,0.27094653248786926,0.6453064680099487,-0.16566067934036255
1763692627239838500,5.51383837890625,0.28249382972717285,0.620026171207428,-0.17303170263767242
1763692627249860400,5.5238603515625,0.2948245406150818,0.5945623517036438,-0.18942025303840637
1763692627259881200,5.533881103515625,0.31224524974823,0.566595733165741,-0.21385371685028076
1763692627269902600,5.543902587890625,0.3249557316303253,0.5291996002197266,-0.24119535088539124
1763692627279924500,5.553924560546875,0.3351602256298065,0.492244154214859,-0.2646741569042206
1763692627289945300,5.5639453125,0.33848196268081665,0.4580390453338623,-0.28258126974105835
1763692627299967200,5.57396728515625,0.3415937125682831,0.41834187507629395,-0.2873031198978424
1763692627309988400,5.58398828125,0.33760830760002136,0.38409629464149475,-0.28034985065460205
1763692627320009500,5.594009521484375,0.33040857315063477,0.3579825460910797,-0.26943811774253845
1763692627330031400,5.60403125,0.3208257257938385,0.3285679519176483,-0.2544064521789551
1763692627340052500,5.614052490234375,0.3046429753303528,0.2952256202697754,-0.2409643977880478
1763692627350074400,5.624074462890625,0.2851153314113617,0.2657204568386078,-0.23288489878177643
1763692627360095200,5.63409521484375,0.2692486643791199,0.2431979477405548,-0.22666876018047333
1763692627370116400,5.644116455078125,0.256950706243515,0.2298581749200821,-0.2251664698123932
1763692627380138500,5.654138427734375,0.24701997637748718,0.23815196752548218,-0.22179542481899261
1763692627390159400,5.664159423828125,0.24254506826400757,0.24920515716075897,-0.21338382363319397
1763692627400180200,5.67418017578125,0.23653873801231384,0.2558695673942566,-0.1947869062423706
1763692627410202400,5.684202392578125,0.23261882364749908,0.25823071599006653,-0.16232137382030487
1763692627420223200,5.69422314453125,0.22337035834789276,0.23852382600307465,-0.13226793706417084
1763692627430245400,5.704245361328125,0.20512105524539948,0.18907931447029114,-0.10172920674085617
1763692627440266500,5.7142666015625,0.18661583960056305,0.11619377136230469,-0.0745496153831482
1763692627450287400,5.724287353515625,0.1762891709804535,0.044574443250894547,-0.04713130742311478
1763692627460309200,5.734309326171875,0.17944197356700897,-0.00897843949496746,-0.0169760100543499
1763692627470330000,5.744330078125,0.193281888961792,-0.035675298422575,0.015373140573501587
1763692627480352500,5.7543525390625,0.2137211114168167,-0.03567848727107048,0.04804880917072296
1763692627490373400,5.764373291015625,0.22908729314804077,-0.022871609777212143,0.07937876880168915
1763692627500394200,5.774394287109375,0.224498450756073,0.0021407371386885643,0.11261434853076935
1763692627510416400,5.78441650390625,0.20112575590610504,0.033643271774053574,0.14226411283016205
1763692627520437200,5.794437255859375,0.15848349034786224,0.06829941272735596,0.16933976113796234
1763692627530459400,5.80445947265625,0.10178264230489731,0.10492826253175735,0.18896299600601196
1763692627540480300,5.814480224609375,0.040672190487384796,0.13104504346847534,0.19685642421245575
1763692627550501400,5.82450146484375,-0.023180823773145676,0.14020605385303497,0.19344651699066162
1763692627560523300,5.834523193359375,-0.07403451949357986,0.137384295463562,0.17634183168411255
1763692627570544000,5.844544189453125,-0.11334091424942017,0.12501363456249237,0.1513318121433258
1763692627580565500,5.8545654296875,-0.12710882723331451,0.1111973226070404,0.12080688774585724
1763692627590587400,5.86458740234375,-0.12327254563570023,0.09567482024431229,0.0955132395029068
1763692627600608300,5.874608154296875,-0.10715718567371368,0.07871616631746292,0.08161149173974991
1763692627610630400,5.88463037109375,-0.09292791783809662,0.051910918205976486,0.08218114078044891
1763692627620651300,5.8946513671875,-0.08180727809667587,0.016618089750409126,0.09095696359872818
1763692627630672400,5.90467236328125,-0.07887513935565948,-0.016413364559412003,0.09863299131393433
1763692627640694300,5.9146943359375,-0.08429685980081558,-0.03670218959450722,0.10196488350629807
1763692627650715400,5.92471533203125,-0.08992305397987366,-0.046743374317884445,0.09404171258211136
1763692627660737300,5.9347373046875,-0.09213463962078094,-0.04930802807211876,0.07713109254837036
1763692627670758100,5.944758056640625,-0.09571979194879532,-0.04317104071378708,0.05052664875984192
1763692627680779500,5.954779541015625,-0.09148243069648743,-0.02386604994535446,0.017813444137573242
1763692627690801400,5.964801513671875,-0.07575486600399017,0.005931525025516748,-0.020630352199077606
1763692627700822300,5.974822265625,-0.051906317472457886,0.03255800902843475,-0.05936018005013466
1763692627710843400,5.984843505859375,-0.023511961102485657,0.0438024066388607,-0.0954904854297638
1763692627720865300,5.994865234375,-0.004530203063040972,0.035166624933481216,-0.12040404975414276
1763692627730886400,6.004886474609375,0.008451908826828003,0.00497996062040329,-0.1320098340511322
1763692627740908300,6.014908203125,0.02092764899134636,-0.041938576847314835,-0.13282111287117004
1763692627750929400,6.024929443359375,0.034738801419734955,-0.0874972715973854,-0.12558184564113617
1763692627760950300,6.0349501953125,0.05376766622066498,-0.12510474026203156,-0.1127968579530716
1763692627770972200,6.04497216796875,0.07579333335161209,-0.14990836381912231,-0.0934348776936531
1763692627780993500,6.05499365234375,0.09986016899347305,-0.16163025796413422,-0.06875230371952057
1763692627791015400,6.065015380859375,0.11554459482431412,-0.14771685004234314,-0.03518502414226532
1763692627801036300,6.075036376953125,0.1195223405957222,-0.1137184277176857,0.007439734414219856
1763692627811057400,6.085057373046875,0.10150791704654694,-0.07952903211116791,0.0545867383480072
1763692627821079300,6.095079345703125,0.0620465986430645,-0.06046541780233383,0.105591781437397
1763692627831100400,6.105100341796875,0.0028948644176125526,-0.05908003821969032,0.15325836837291718
1763692627841122300,6.115122314453125,-0.06325628608465195,-0.06813841313123703,0.19614596664905548
1763692627851143400,6.125143310546875,-0.1303945779800415,-0.07222742587327957,0.22484073042869568
1763692627861164300,6.135164306640625,-0.1866481751203537,-0.07385259121656418,0.23899564146995544
1763692627871185700,6.145185546875,-0.23181405663490295,-0.07202726602554321,0.24498029053211212
1763692627881206800,6.155206787109375,-0.2696661055088043,-0.06834530085325241,0.24697458744049072
1763692627891227600,6.1652275390625,-0.2960042357444763,-0.06444083899259567,0.25009527802467346
1763692627901249500,6.17524951171875,-0.31906768679618835,-0.06446699053049088,0.25467202067375183
1763692627911270700,6.185270751953125,-0.3319621980190277,-0.07105165719985962,0.26372623443603516
1763692627921292800,6.195292724609375,-0.3394036591053009,-0.08534782379865646,0.2755788564682007
1763692627931313700,6.205313720703125,-0.3408127427101135,-0.10511007159948349,0.2842429280281067
1763692627941334800,6.215334716796875,-0.34096357226371765,-0.12389884144067764,0.2840917408466339
1763692627951356700,6.225356689453125,-0.3364521861076355,-0.1535150557756424,0.2743128836154938
1763692627961377500,6.23537744140625,-0.3273252248764038,-0.1825186312198639,0.2467474490404129
1763692627971399700,6.245399658203125,-0.3079669773578644,-0.20153306424617767,0.21101661026477814
1763692627981420800,6.2554208984375,-0.28771859407424927,-0.22238095104694366,0.17271634936332703
1763692627991441700,6.265441650390625,-0.26795074343681335,-0.23398514091968536,0.13580840826034546
1763692628001463600,6.275463623046875,-0.2557762563228607,-0.23571152985095978,0.10471837222576141
1763692628011484700,6.285484619140625,-0.2547179162502289,-0.23294104635715485,0.07527685910463333
1763692628021505800,6.295505859375,-0.25649067759513855,-0.2198433130979538,0.04522102698683739
1763692628031527700,6.305527587890625,-0.2538067400455475,-0.19925494492053986,0.013451116159558296
1763692628041548800,6.315548828125,-0.24809083342552185,-0.17856080830097198,-0.017889590933918953
1763692628051570700,6.32557080078125,-0.22673040628433228,-0.1659374237060547,-0.04292437061667442
1763692628061591600,6.335591552734375,-0.19415560364723206,-0.15601018071174622,-0.05729607865214348
1763692628071613000,6.345613037109375,-0.1497841477394104,-0.15598541498184204,-0.05364248901605606
1763692628081634800,6.355634765625,-0.0988103523850441,-0.1587940752506256,-0.034299470484256744
1763692628091655700,6.36565576171875,-0.05100421607494354,-0.17317861318588257,-0.0028568594716489315
1763692628101677600,6.375677490234375,-0.019409719854593277,-0.19062639772891998,0.03727074712514877
1763692628111698700,6.38569873046875,-0.0019748040940612555,-0.20198264718055725,0.07707302272319794
1763692628121719800,6.3957197265625,-0.001816708012484014,-0.20030900835990906,0.10542269051074982
1763692628131741700,6.40574169921875,-0.013923171907663345,-0.1953267604112625,0.11852996796369553
1763692628141762800,6.4157626953125,-0.03970310464501381,-0.1905602365732193,0.1174873411655426
1763692628151783700,6.42578369140625,-0.07269380986690521,-0.18918870389461517,0.10691485553979874
1763692628161805600,6.4358056640625,-0.09453106671571732,-0.19023853540420532,0.090644970536232
1763692628171827000,6.445826904296875,-0.09137441962957382,-0.18307410180568695,0.07268568128347397
1763692628181848800,6.455848876953125,-0.05403430387377739,-0.17475323379039764,0.06497056782245636
1763692628191869700,6.46586962890625,0.00517255999147892,-0.1480124443769455,0.06410131603479385
1763692628201890800,6.475890869140625,0.07277606427669525,-0.11453793197870255,0.0707949623465538
1763692628211912700,6.48591259765625,0.12203042954206467,-0.09083633124828339,0.07860308140516281
1763692628221933800,6.495933837890625,0.15617918968200684,-0.08221834152936935,0.08598311245441437
1763692628231955700,6.505955810546875,0.16921909153461456,-0.10388768464326859,0.08882017433643341
1763692628241976800,6.515976806640625,0.17658154666423798,-0.14805077016353607,0.08274871110916138
1763692628251997700,6.525997802734375,0.19053252041339874,-0.18868979811668396,0.06776869297027588
1763692628262019600,6.53601953125,0.21613524854183197,-0.2206517606973648,0.039894118905067444
1763692628272041000,6.546041015625,0.2603530287742615,-0.23329751193523407,0.00713697262108326
1763692628282061800,6.556061767578125,0.3087610602378845,-0.21880365908145905,-0.03206035494804382
1763692628292083700,6.566083740234375,0.35193729400634766,-0.18269839882850647,-0.07279420644044876
1763692628302104800,6.576104736328125,0.37480852007865906,-0.15102504193782806,-0.11191719770431519
1763692628312126700,6.586126708984375,0.3800176680088043,-0.11148880422115326,-0.15564870834350586
1763692628322147800,6.59614794921875,0.3600594699382782,-0.0649685263633728,-0.198759526014328
1763692628332168700,6.606168701171875,0.31906917691230774,-0.05021913722157478,-0.24848075211048126
1763692628342190800,6.61619091796875,0.2747010588645935,-0.06678148359060287,-0.3051011264324188
1763692628352211700,6.626211669921875,0.24230611324310303,-0.10135463625192642,-0.36272579431533813
1763692628362233600,6.636233642578125,0.22798512876033783,-0.11843498051166534,-0.42327749729156494
1763692628372254700,6.646254638671875,0.23269306123256683,-0.0984860435128212,-0.4764355421066284
1763692628382275800,6.65627587890625,0.24920682609081268,-0.06770725548267365,-0.5148208141326904
1763692628392297700,6.666297607421875,0.2693864107131958,-0.03887268528342247,-0.536895751953125
1763692628402318600,6.676318603515625,0.2825455367565155,-0.0006522481562569737,-0.5448741912841797
1763692628412339700,6.686339599609375,0.2690717875957489,0.06139381229877472,-0.5408198237419128
1763692628422361600,6.696361572265625,0.2294522523880005,0.137887641787529,-0.5437142252922058
1763692628432382700,6.7063828125,0.1672765016555786,0.17566831409931183,-0.5477864742279053
1763692628442404900,6.71640478515625,0.09458386152982712,0.21194753050804138,-0.555254340171814
1763692628452425700,6.72642578125,0.03520522266626358,0.243581622838974,-0.5664816498756409
1763692628462446600,6.736446533203125,-0.002124551683664322,0.30300191044807434,-0.5778459906578064
1763692628472468700,6.74646875,-0.022005049511790276,0.38409411907196045,-0.5790497660636902
1763692628482489900,6.75648974609375,-0.03682529926300049,0.4546881318092346,-0.5732760429382324
1763692628492511700,6.76651171875,-0.054316941648721695,0.505104124546051,-0.5561534762382507
1763692628502532600,6.77653271484375,-0.0870860293507576,0.5290027856826782,-0.5240069627761841
1763692628512553700,6.7865537109375,-0.12649042904376984,0.5678487420082092,-0.47943148016929626
1763692628522575600,6.79657568359375,-0.1854589283466339,0.6039319038391113,-0.41831034421920776
1763692628532596700,6.8065966796875,-0.2580830752849579,0.5892674326896667,-0.3633027672767639
1763692628542617900,6.816617919921875,-0.32722920179367065,0.5470761656761169,-0.2761121094226837
1763692628552639700,6.8266396484375,-0.39102068543434143,0.5040983557701111,-0.13863758742809296
1763692628562660600,6.83666064453125,-0.4445657432079315,0.49106183648109436,0.018427614122629166
1763692628572682500,6.8466826171875,-0.484872967004776,0.5312843322753906,0.1662876456975937
1763692628582703900,6.856703857421875,-0.5300465226173401,0.6365033984184265,0.292034775018692
1763692628592724700,6.866724853515625,-0.6190685033798218,0.7796618938446045,0.4237501919269562
1763692628602746600,6.87674658203125,-0.7280614972114563,0.9120684862136841,0.5486851334571838
1763692628612767700,6.886767822265625,-0.8398996591567993,1.0350490808486938,0.6641486287117004
1763692628622788600,6.89678857421875,-0.9518330693244934,1.126956582069397,0.738077700138092
1763692628632810800,6.906810791015625,-1.0380839109420776,1.2117068767547607,0.755266010761261
1763692628642832000,6.916831787109375,-1.101694941520691,1.2954738140106201,0.7086937427520752
1763692628652853800,6.926853759765625,-1.186041235923767,1.3052867650985718,0.6574527025222778
1763692628662874600,6.93687451171875,-1.1835328340530396,1.3311432600021362,0.5516349673271179
1763692628672895700,6.946895751953125,-1.1366041898727417,1.400704264640808,0.3599534034729004
1763692628682918000,6.95691796875,-1.0637229681015015,1.4874022006988525,0.1774144172668457
1763692628692938800,6.966938720703125,-0.9996686577796936,1.5499569177627563,0.08979083597660065
1763692628702960600,6.976960693359375,-0.9628556370735168,1.6653070449829102,0.07260295748710632
1763692628712981800,6.986981689453125,-0.9609386920928955,1.7762607336044312,0.12424217909574509
1763692628723002600,6.997002685546875,-0.96864914894104,1.8570665121078491,0.23853638768196106
1763692628733024800,7.007024658203125,-0.9820073246955872,1.8859435319900513,0.4057815372943878
1763692628743046000,7.0170458984375,-0.9710829257965088,1.839830994606018,0.596263587474823
1763692628753066800,7.027066650390625,-0.9215201735496521,1.776997685432434,0.7510489225387573
1763692628763088600,7.037088623046875,-0.8449108004570007,1.6571029424667358,0.8310973644256592
1763692628773109800,7.04710986328125,-0.7400059700012207,1.5690228939056396,0.7960208654403687
1763692628783132000,7.0571318359375,-0.6737876534461975,1.5749083757400513,0.6939353942871094
1763692628793152800,7.06715283203125,-0.6144835948944092,1.6625237464904785,0.617375373840332
1763692628803174000,7.077173828125,-0.57613605260849,1.556773066520691,0.5194592475891113
1763692628813195800,7.08719580078125,-0.5317771434783936,1.489122748374939,0.42277106642723083
1763692628823216600,7.097216552734375,-0.5026467442512512,1.4845622777938843,0.3251792788505554
1763692628833237800,7.10723779296875,-0.5297327041625977,1.5160146951675415,0.24367457628250122
1763692628843260000,7.117260009765625,-0.5720954537391663,1.4544039964675903,0.16937686502933502
1763692628853280800,7.12728076171875,-0.5699225664138794,1.3485676050186157,0.05965249240398407
1763692628863302700,7.137302734375,-0.513438880443573,1.338309645652771,-0.07491763681173325
1763692628873324300,7.14732421875,-0.45134514570236206,1.3518738746643066,-0.2408062070608139
1763692628883345400,7.157345458984375,-0.3898073136806488,1.361659288406372,-0.4153797924518585
1763692628893367300,7.1673671875,-0.3248900771141052,1.3849365711212158,-0.5723581910133362
1763692628903388200,7.17738818359375,-0.25140711665153503,1.443527340888977,-0.6824947595596313
1763692628913410300,7.187410400390625,-0.15862524509429932,1.5216487646102905,-0.7649387717247009
1763692628923431400,7.197431396484375,-0.010933885350823402,1.6349221467971802,-0.8055572509765625
1763692628933452300,7.207452392578125,0.15592621266841888,1.650246500968933,-0.7730943560600281
1763692628943474200,7.21747412109375,0.32419535517692566,1.5509673357009888,-0.6943371891975403
1763692628953495300,7.227495361328125,0.49243655800819397,1.3279224634170532,-0.5602374076843262
1763692628963516200,7.23751611328125,0.6326231360435486,1.0205416679382324,-0.38175341486930847
1763692628973538300,7.247538330078125,0.7079905867576599,0.7281044125556946,-0.21204720437526703
1763692628983559400,7.257559326171875,0.6719563007354736,0.5462817549705505,-0.07685066014528275
1763692628993581300,7.267581298828125,0.5406156182289124,0.49500229954719543,-0.020480860024690628
1763692629003602200,7.277602294921875,0.362383097410202,0.48246222734451294,-0.061512093991041183
1763692629013623300,7.287623291015625,0.15627706050872803,0.46261876821517944,-0.16858741641044617
1763692629023645400,7.2976455078125,-0.014156962744891644,0.4964636266231537,-0.31986168026924133
1763692629033666300,7.307666259765625,-0.1797696202993393,0.5604410171508789,-0.45691433548927307
1763692629043687400,7.3176875,-0.24276146292686462,0.6937913298606873,-0.5321421027183533
1763692629053709300,7.327709228515625,-0.24752718210220337,0.7838202714920044,-0.46989867091178894
1763692629063730200,7.337730224609375,-0.26796722412109375,1.0243529081344604,-0.5098560452461243
1763692629073752300,7.34775244140625,-0.16320672631263733,0.9292364716529846,-0.5193089246749878
1763692629083773400,7.3577734375,-0.047420162707567215,0.8359766006469727,-0.6458443403244019
1763692629093794300,7.367794189453125,0.09497559815645218,0.681495189666748,-0.7943506836891174
1763692629103816200,7.377816162109375,0.27980920672416687,0.49157044291496277,-0.9499955177307129
1763692629113837300,7.38783740234375,0.507200300693512,0.32767975330352783,-1.0746196508407593
1763692629123859500,7.397859375,0.7122626304626465,0.23490622639656067,-1.1809909343719482
1763692629133880300,7.40788037109375,0.8570137023925781,0.16569146513938904,-1.3180408477783203
1763692629143901400,7.4179013671875,0.9654672145843506,0.08607944846153259,-1.403011679649353
1763692629153923300,7.42792333984375,1.0276532173156738,-0.022120259702205658,-1.49299156665802
1763692629163944200,7.437944091796875,1.047000527381897,-0.0333283469080925,-1.546441674232483
1763692629173965600,7.447965576171875,0.9987615942955017,-0.10964281857013702,-1.5435031652450562
1763692629183987500,7.457987548828125,0.8973276615142822,-0.25498005747795105,-1.4811947345733643
1763692629194008300,7.46800830078125,0.8026477694511414,-0.3429085612297058,-1.361511468887329
1763692629204030200,7.4780302734375,0.7102590203285217,-0.5109438300132751,-1.2664510011672974
1763692629214051300,7.48805126953125,0.6192548274993896,-0.501395046710968,-1.1585426330566406
1763692629224072400,7.498072509765625,0.5198894143104553,-0.38803938031196594,-0.9978163838386536
1763692629234094300,7.50809423828125,0.4292804002761841,-0.3299260139465332,-0.8103894591331482
1763692629244115500,7.518115478515625,0.36264780163764954,-0.3211302161216736,-0.6297131776809692
1763692629254136300,7.52813623046875,0.3097752630710602,-0.1759679615497589,-0.4319566786289215
1763692629264158200,7.538158203125,0.16829966008663177,0.24688565731048584,-0.1944882720708847
1763692629274179600,7.5481796875,0.10553961247205734,0.3614678978919983,-0.0389559343457222
1763692629284201500,7.558201416015625,0.0153725016862154,0.29198405146598816,0.09212399274110794
1763692629294222300,7.568222412109375,-0.07228145003318787,0.19750230014324188,0.19667384028434753
1763692629304243200,7.5782431640625,-0.11140713095664978,0.02070554904639721,0.21074092388153076
1763692629314265300,7.588265380859375,-0.056261058896780014,-0.2653970420360565,0.17032639682292938
1763692629324286500,7.598286376953125,0.07631497830152512,-0.502909779548645,0.09866590797901154
1763692629334308400,7.608308349609375,0.26052263379096985,-0.5143349766731262,0.04148677736520767
1763692629344329500,7.61832958984375,0.4316919147968292,-0.5496533513069153,0.002536488464102149
1763692629354350300,7.628350341796875,0.5640501976013184,-0.655023455619812,-0.011746044270694256
1763692629364372200,7.638372314453125,0.6789037585258484,-0.6442323923110962,0.0072442153468728065
1763692629374393300,7.648393310546875,0.7820954322814941,-0.5757835507392883,0.042885567992925644
1763692629384414500,7.65841455078125,0.8631138801574707,-0.5001813769340515,0.08996234834194183
1763692629394436400,7.668436279296875,0.894844114780426,-0.41953736543655396,0.1417027711868286
1763692629404457200,7.678457275390625,0.8757991194725037,-0.41805702447891235,0.18129143118858337
1763692629414479400,7.688479248046875,0.8217042088508606,-0.4770822525024414,0.2256077527999878
1763692629424500500,7.69850048828125,0.7481684684753418,-0.599456250667572,0.2780947685241699
1763692629434521300,7.708521240234375,0.6638546586036682,-0.782591700553894,0.33342140913009644
1763692629444543500,7.71854345703125,0.5610883235931396,-0.9898585677146912,0.3968406021595001
1763692629454564400,7.728564453125,0.421010822057724,-1.1300615072250366,0.4659331142902374
1763692629464585200,7.738585205078125,0.28973275423049927,-1.2110345363616943,0.5275722742080688
1763692629474607400,7.748607421875,0.15041881799697876,-1.2006429433822632,0.565829873085022
1763692629484628500,7.75862841796875,0.02603975124657154,-1.1189651489257812,0.5855396389961243
1763692629494650400,7.768650390625,-0.09572529792785645,-1.0247243642807007,0.6000120639801025
1763692629504671200,7.778671142578125,-0.23123450577259064,-0.9337926506996155,0.6158918142318726
1763692629514692400,7.7886923828125,-0.34267741441726685,-0.8909298777580261,0.6330819725990295
1763692629524714500,7.798714599609375,-0.4465741217136383,-0.8895836472511292,0.6478385925292969
1763692629534735400,7.8087353515625,-0.5515899658203125,-0.9146887063980103,0.6500751376152039
1763692629544756500,7.818756591796875,-0.6389909982681274,-0.9578039050102234,0.623623788356781
1763692629554778400,7.8287783203125,-0.6049928665161133,-1.0724037885665894,0.5694524645805359
1763692629564799200,7.83879931640625,-0.5995912551879883,-1.1073558330535889,0.5968266129493713
1763692629574821400,7.8488212890625,-0.5698871612548828,-1.1415269374847412,0.6814043521881104
1763692629584842500,7.858842529296875,-0.5733744502067566,-1.0869256258010864,0.7825548648834229
1763692629594863400,7.86886328125,-0.5621654987335205,-0.9425767064094543,0.8727028965950012
1763692629604885200,7.87888525390625,-0.6191022992134094,-0.6415876150131226,0.9860528707504272
1763692629614906400,7.88890625,-0.6531375050544739,-0.43930643796920776,1.1103070974349976
1763692629624927200,7.89892724609375,-0.6978508830070496,-0.37930262088775635,1.19180166721344
1763692629634949400,7.908949462890625,-0.6771623492240906,-0.3869432210922241,1.1921545267105103
1763692629644970500,7.918970458984375,-0.5826361775398254,-0.3208502531051636,1.1711516380310059
1763692629654992400,7.928992431640625,-0.523718535900116,-0.2621834874153137,1.1433348655700684
1763692629665013200,7.93901318359375,-0.46196475625038147,-0.23834185302257538,1.124118685722351
1763692629675034400,7.949034423828125,-0.36909499764442444,-0.31844577193260193,1.1020684242248535
1763692629685056500,7.959056396484375,-0.2340524047613144,-0.5001971125602722,1.0429021120071411
1763692629695077400,7.969077392578125,-0.14163964986801147,-0.609813928604126,0.9593654274940491
1763692629705099300,7.979099365234375,-0.1472417563199997,-0.6482709050178528,0.8555372953414917
1763692629715120400,7.989120361328125,-0.11841649562120438,-0.6694003939628601,0.7635437250137329
1763692629725141200,7.999141357421875,-0.14236101508140564,-0.7261773347854614,0.6731511354446411
1763692629735163400,8.009163330078126,-0.19720056653022766,-0.8508720993995667,0.5599521398544312
1763692629745184500,8.0191845703125,-0.266161173582077,-1.0973808765411377,0.3507760763168335
1763692629755205400,8.029205322265625,-0.3364289402961731,-1.3691208362579346,0.04788702353835106
1763692629765227300,8.039227294921876,-0.3628707230091095,-1.5527198314666748,-0.3026742935180664
1763692629775248400,8.049248291015624,-0.329202264547348,-1.5913596153259277,-0.6244709491729736
1763692629785270500,8.0592705078125,-0.26177680492401123,-1.545730471611023,-0.8718039989471436
1763692629795291400,8.06929150390625,-0.22493863105773926,-1.4951205253601074,-1.0818288326263428
1763692629805312500,8.0793125,-0.1673523336648941,-1.3442538976669312,-1.269504189491272
1763692629815334400,8.08933447265625,-0.09401393681764603,-1.0862873792648315,-1.3955409526824951
1763692629825355300,8.099355224609376,-0.04574713855981827,-0.8322935104370117,-1.437538981437683
1763692629835376400,8.10937646484375,-0.05652441829442978,-0.7037184834480286,-1.3949073553085327
1763692629845398500,8.1193984375,-0.056605879217386246,-0.7031720876693726,-1.310017466545105
1763692629855419400,8.12941943359375,-0.031219828873872757,-0.760759174823761,-1.2135494947433472
1763692629865440300,8.139440185546874,0.008053344674408436,-0.9260807037353516,-1.2021564245224
1763692629875462400,8.14946240234375,0.05843129754066467,-1.1257070302963257,-1.2822110652923584
1763692629885483300,8.159483154296876,0.12568426132202148,-1.235681414604187,-1.444718837738037
1763692629895505200,8.169505126953124,0.261854887008667,-1.151164174079895,-1.6188523769378662
1763692629905526300,8.1795263671875,0.4594391882419586,-0.9583898186683655,-1.7465033531188965
1763692629915547100,8.189547119140625,0.6316882371902466,-0.7824331521987915,-1.783748745918274
1763692629925569300,8.1995693359375,0.7388709187507629,-0.6898409724235535,-1.7547931671142578
1763692629935590100,8.209590087890625,0.7918989658355713,-0.6495532393455505,-1.6803258657455444
1763692629945611300,8.219611328125,0.7778816819190979,-0.5966758728027344,-1.596609115600586
1763692629955633200,8.229633056640624,0.7257271409034729,-0.47224074602127075,-1.5168190002441406
1763692629965654000,8.239654052734375,0.621071994304657,-0.3174913823604584,-1.4416489601135254
1763692629975676400,8.249676513671876,0.4701267182826996,-0.1143297553062439,-1.3812193870544434
1763692629985697300,8.259697265625,0.30522939562797546,0.0970744639635086,-1.3396509885787964
1763692629995718100,8.26971826171875,0.1625572144985199,0.3037559986114502,-1.3155051469802856
1763692630005740300,8.279740234375,0.06497351080179214,0.582502007484436,-1.286386251449585
1763692630015761200,8.28976123046875,0.01513032615184784,0.8424009680747986,-1.2385132312774658
1763692630025783300,8.299783203125,-0.004572659265249968,0.9593167901039124,-1.1733908653259277
1763692630035804200,8.30980419921875,-0.03637160360813141,0.9399034380912781,-1.1075292825698853
1763692630045825300,8.3198251953125,-0.06397926807403564,0.8762357831001282,-1.0757489204406738
1763692630055847200,8.32984716796875,-0.06910824775695801,0.7508597373962402,-1.0264828205108643
1763692630065868000,8.339867919921875,-0.035226546227931976,0.6592515110969543,-0.9946747422218323
1763692630075889200,8.34988916015625,0.026042670011520386,0.6187757253646851,-0.9856125712394714
1763692630085911300,8.359911376953125,0.09019546955823898,0.5940552949905396,-1.0057965517044067
1763692630095932200,8.36993212890625,0.14309784770011902,0.5394191741943359,-1.0464258193969727
1763692630105954000,8.3799541015625,0.19841307401657104,0.367512047290802,-1.1136033535003662
1763692630115975200,8.38997509765625,0.2887275516986847,0.16902746260166168,-1.17375910282135
1763692630125996000,8.39999609375,0.39572253823280334,0.10637065023183823,-1.2254152297973633
1763692630136018200,8.41001806640625,0.4991024434566498,0.10634028911590576,-1.2769784927368164
1763692630146039300,8.420039306640625,0.559559166431427,0.12710601091384888,-1.321096420288086
1763692630156060200,8.43006005859375,0.5914233326911926,0.11677056550979614,-1.3587037324905396
1763692630166082000,8.44008203125,0.6145787835121155,0.11230182647705078,-1.4102553129196167
1763692630176103200,8.450103271484375,0.6188912391662598,0.1483471840620041,-1.4825925827026367
1763692630186125300,8.460125244140626,0.594866931438446,0.22594986855983734,-1.549512505531311
1763692630196146200,8.470146240234374,0.542950451374054,0.3286333680152893,-1.5857610702514648
1763692630206167300,8.480167236328125,0.4630794823169708,0.45898979902267456,-1.5719515085220337
1763692630216189200,8.490189208984376,0.3847452700138092,0.6095731854438782,-1.5076857805252075
1763692630226210000,8.5002099609375,0.3403147757053375,0.6879399418830872,-1.4026850461959839
1763692630236231400,8.5102314453125,0.329824835062027,0.7145968675613403,-1.2715436220169067
1763692630246253300,8.52025341796875,0.34018149971961975,0.6927904486656189,-1.1360903978347778
1763692630256274200,8.530274169921874,0.35850831866264343,0.6308975219726562,-1.0070512294769287
1763692630266296000,8.540296142578125,0.3736276924610138,0.5329580903053284,-0.8905296921730042
1763692630276317200,8.550317138671875,0.38692617416381836,0.44547513127326965,-0.7960377931594849
1763692630286338300,8.56033837890625,0.39417803287506104,0.3962515890598297,-0.7249377369880676
1763692630296360200,8.570360107421875,0.39558419585227966,0.3475114703178406,-0.6949111223220825
1763692630306381300,8.58038134765625,0.38980451226234436,0.3199056088924408,-0.6999688744544983
1763692630316402200,8.590402099609374,0.3669082522392273,0.3377421498298645,-0.741605281829834
1763692630326424000,8.600424072265625,0.31863951683044434,0.3833578824996948,-0.8083346486091614
1763692630336445400,8.610445556640625,0.24559353291988373,0.4155469536781311,-0.8767943978309631
1763692630346466300,8.62046630859375,0.17538392543792725,0.4210019111633301,-0.9211387634277344
1763692630356488200,8.63048828125,0.14225606620311737,0.2582750618457794,-0.7925165891647339
1763692630366509300,8.64050927734375,0.12716233730316162,0.033851005136966705,-0.5716742277145386
1763692630376531200,8.65053125,0.11447663605213165,0.09729336202144623,-0.5590316653251648
1763692630386552300,8.66055224609375,0.10549093037843704,0.19461549818515778,-0.4165383577346802
1763692630396573200,8.6705732421875,0.047198861837387085,0.2619923949241638,-0.3387090563774109
1763692630406595300,8.68059521484375,-0.032627951353788376,0.34386250376701355,-0.38987115025520325
1763692630416616200,8.6906162109375,-0.11554627120494843,0.493714839220047,-0.5967921018600464
1763692630426637000,8.700636962890625,-0.2004348784685135,0.5652044415473938,-0.7510901093482971
1763692630436659500,8.710659423828124,-0.26750925183296204,0.6107543706893921,-0.8256437182426453
1763692630446680300,8.720680419921875,-0.34352752566337585,0.5691170692443848,-0.8338239789009094
1763692630456702200,8.7307021484375,-0.40675923228263855,0.500271201133728,-0.8324918746948242
1763692630466723300,8.740723388671874,-0.457476943731308,0.34323740005493164,-0.8432672619819641
1763692630476744200,8.750744140625,-0.47004014253616333,0.2480086386203766,-0.8478742837905884
1763692630486766300,8.760766357421875,-0.4516388475894928,0.21954593062400818,-0.8383156657218933
1763692630496787200,8.770787109375,-0.40154320001602173,0.19764703512191772,-0.8018093109130859
1763692630506808300,8.780808349609375,-0.3184256851673126,0.11770614236593246,-0.728060245513916
1763692630516830200,8.790830322265625,-0.2059534788131714,-0.004665839020162821,-0.6310607194900513
1763692630526851000,8.80085107421875,-0.09641029685735703,-0.12601296603679657,-0.5463894009590149
1763692630536873200,8.810873291015625,0.0022672750055789948,-0.20854699611663818,-0.4833199083805084
1763692630546894300,8.820894287109375,0.0778454914689064,-0.2074396014213562,-0.42392146587371826
1763692630556915200,8.830915283203124,0.08787894994020462,-0.2099355161190033,-0.3508709669113159
1763692630566937000,8.84093701171875,0.03935547173023224,-0.2155066877603531,-0.287509948015213
1763692630576958200,8.850958251953125,0.03952484950423241,-0.16768643260002136,-0.24311266839504242
1763692630586979000,8.86097900390625,0.007508557289838791,-0.13587306439876556,-0.19459477066993713
1763692630597001200,8.871001220703125,-0.005626952275633812,0.10764452069997787,-0.19397959113121033
1763692630607022300,8.881022216796875,0.10486160218715668,0.16699689626693726,-0.14248913526535034
1763692630617043200,8.891043212890626,0.2968238294124603,0.22374168038368225,-0.034634582698345184
1763692630627065000,8.901065185546875,0.4186827838420868,0.24439290165901184,0.024903669953346252
1763692630637086200,8.911086181640625,0.43179619312286377,0.24207381904125214,0.0353509820997715
1763692630647108400,8.9211083984375,0.3663436770439148,0.20961973071098328,0.027783362194895744
1763692630657129200,8.931129150390625,0.2791536748409271,0.17620398104190826,-0.00036917999386787415
1763692630667150300,8.941150390625,0.1949695348739624,0.022992324084043503,-0.040811143815517426
1763692630677172200,8.951172119140624,0.09179176390171051,-0.06127035617828369,-0.1036100834608078
1763692630687193000,8.961193115234375,0.03809746354818344,-0.07501181960105896,-0.17116793990135193
1763692630697214200,8.971214111328125,0.016033172607421875,-0.14038975536823273,-0.23474638164043427
1763692630707236400,8.981236328125,-0.018455082550644875,-0.24022924900054932,-0.27128151059150696
1763692630717257200,8.99125732421875,-0.04832589253783226,-0.19762612879276276,-0.3465634882450104
1763692630727279000,9.001279052734375,-0.07514131814241409,-0.11407961696386337,-0.36146658658981323
1763692630737300200,9.01130029296875,-0.07910836488008499,0.04658409208059311,-0.3256417512893677
1763692630747321000,9.021321044921875,-0.0912489965558052,0.2166922390460968,-0.2719469666481018
1763692630757343200,9.03134326171875,-0.12463758140802383,0.30916813015937805,-0.21023166179656982
1763692630767364400,9.0413642578125,-0.12780626118183136,0.29918384552001953,-0.13961255550384521
1763692630777385200,9.05138525390625,-0.11478153616189957,0.25329118967056274,-0.07765279710292816
1763692630787407000,9.061406982421875,-0.12048184126615524,0.34214138984680176,-0.004838292486965656
1763692630797428200,9.07142822265625,-0.12203632295131683,0.20944857597351074,0.06683456152677536
1763692630807450400,9.081450439453125,-0.13611847162246704,0.16078050434589386,0.06302259862422943
1763692630817471200,9.09147119140625,-0.1811961978673935,0.01094572152942419,-0.0049937390722334385
1763692630827492400,9.101492431640626,-0.24311883747577667,-0.14398832619190216,-0.107194684445858
1763692630837514200,9.11151416015625,-0.3042532801628113,-0.23865118622779846,-0.16529794037342072
1763692630847535000,9.12153515625,-0.35355129837989807,-0.3164655268192291,-0.20355059206485748
1763692630857556200,9.13155615234375,-0.38831061124801636,-0.4802115857601166,-0.08729055523872375
1763692630867577900,9.141577880859375,-0.16475538909435272,-0.5157254338264465,-0.01751970872282982
1763692630877598700,9.1515986328125,0.205862358212471,-0.25154730677604675,-0.04140852764248848
1763692630887620600,9.16162060546875,0.2591850459575653,-0.13042178750038147,0.11138515919446945
1763692630897641700,9.171641845703125,0.1903122514486313,-0.11476771533489227,0.19111433625221252
1763692630907662600,9.18166259765625,0.15363940596580505,-0.09709387272596359,0.19191451370716095
1763692630917684700,9.191684814453126,0.0753941461443901,-0.1390514373779297,0.17888978123664856
1763692630927705900,9.201705810546875,-0.041545916348695755,-0.07208440452814102,0.18625788390636444
1763692630937726700,9.211726806640625,-0.11782657355070114,-0.05391738563776016,0.2225290685892105
1763692630947748600,9.22174853515625,-0.09905838966369629,-0.130762979388237,0.28910690546035767
1763692630957769700,9.231769775390624,0.004338836297392845,-0.2688766419887543,0.3884289562702179
1763692630967790800,9.241790771484375,0.10892871022224426,-0.33193439245224,0.4775533080101013
1763692630977812700,9.251812744140626,0.1686229258775711,-0.3526170253753662,0.5664405226707458
1763692630987833900,9.261833740234374,0.17747962474822998,-0.37757277488708496,0.6389849185943604
1763692630997855700,9.271855712890625,0.11001802235841751,-0.3604816794395447,0.6867743134498596
1763692631007876600,9.281876708984376,0.013320064172148705,-0.26740774512290955,0.7173946499824524
1763692631017897700,9.291897705078124,-0.11982227861881256,-0.2537310719490051,0.7414461970329285
1763692631027920000,9.301919921875,-0.2597097158432007,-0.2445388287305832,0.7401706576347351
1763692631037940700,9.311940673828126,-0.3594245910644531,-0.2519083321094513,0.7494803071022034
1763692631047961600,9.321961669921874,-0.34139978885650635,-0.31238889694213867,0.7542584538459778
1763692631057983700,9.331983642578125,-0.23148737847805023,-0.3838614821434021,0.7432028651237488
1763692631068004900,9.3420048828125,-0.10701274126768112,-0.482414573431015,0.7620223164558411
1763692631078026800,9.35202685546875,0.010145842097699642,-0.5669733881950378,0.8121089339256287
1763692631088047600,9.362047607421875,0.14690901339054108,-0.610686719417572,0.8089636564254761
1763692631098068700,9.37206884765625,0.3240100145339966,-0.6186090707778931,0.8320212960243225
1763692631108090600,9.382090576171874,0.4332015812397003,-0.6509800553321838,0.8612956404685974
1763692631118111500,9.392111572265625,0.49615606665611267,-0.6424163579940796,0.9015697836875916
1763692631128132900,9.4021328125,0.49029645323753357,-0.6470039486885071,0.9359161853790283
1763692631138154800,9.41215478515625,0.43621963262557983,-0.6262187361717224,0.9584635496139526
1763692631148175600,9.422175537109375,0.3350176513195038,-0.6063359975814819,0.9523698687553406
1763692631158196700,9.43219677734375,0.1915787160396576,-0.5594984889030457,0.9005165696144104
1763692631168218600,9.442218505859374,0.02020956762135029,-0.5093954205513,0.8310312628746033
1763692631178239700,9.45223974609375,-0.17774398624897003,-0.43159011006355286,0.7742704749107361
1763692631188261600,9.46226171875,-0.3496127128601074,-0.3381054997444153,0.7066140174865723
1763692631198282800,9.47228271484375,-0.5140986442565918,-0.2634722888469696,0.6093074679374695
1763692631208303600,9.4823037109375,-0.661188006401062,-0.2048560082912445,0.4950498640537262
1763692631218325500,9.492325439453126,-0.7884074449539185,-0.1453561931848526,0.3663560748100281
1763692631228347000,9.502346923828124,-0.894984781742096,-0.10442529618740082,0.2311439961194992
1763692631238367700,9.51236767578125,-0.9701253175735474,-0.07954604923725128,0.11509409546852112
1763692631248389600,9.5223896484375,-0.9720529913902283,-0.03941209241747856,0.06208835542201996
1763692631258410800,9.53241064453125,-0.9137154221534729,-0.10036172717809677,0.07858637720346451
1763692631268431600,9.542431640625,-0.7511812448501587,-0.26027175784111023,0.20547740161418915
1763692631278453800,9.552453857421876,-0.5419561266899109,-0.4547746777534485,0.34235695004463196
1763692631288475000,9.562474853515624,-0.4071049094200134,-0.609134316444397,0.45023924112319946
1763692631298496800,9.572496826171875,-0.3321550488471985,-0.7395117282867432,0.5391496419906616
1763692631308517600,9.582517578125,-0.3226284682750702,-0.7243407368659973,0.6393511891365051
1763692631318538800,9.592538818359374,-0.43071284890174866,-0.6363205909729004,0.7934784889221191
1763692631328561000,9.602560791015625,-0.5063098073005676,-0.689674437046051,0.9454525113105774
1763692631338581800,9.612581787109375,-0.4886282980442047,-0.5923374891281128,1.0545876026153564
1763692631348603000,9.622602783203124,-0.4478338658809662,-0.39248573780059814,1.113312840461731
1763692631358624800,9.632624755859375,-0.4161880612373352,-0.2685680389404297,1.1186617612838745
1763692631368645600,9.642645751953125,-0.3879010081291199,-0.20916679501533508,1.0754735469818115
1763692631378667800,9.652667724609374,-0.36477118730545044,-0.16040217876434326,1.0014691352844238
1763692631388689000,9.66268896484375,-0.35703912377357483,-0.1671968698501587,0.9133443832397461
1763692631398709800,9.672709716796875,-0.36086925864219666,-0.2548598647117615,0.8318780064582825
1763692631408731600,9.682731689453124,-0.3516327738761902,-0.41532954573631287,0.7595558762550354
1763692631418752800,9.692752685546875,-0.305210143327713,-0.6119206547737122,0.6928638815879822
1763692631428773600,9.702773681640625,-0.22591382265090942,-0.8179054856300354,0.6175583600997925
1763692631438795800,9.712795654296874,-0.13200169801712036,-1.0316036939620972,0.5319105386734009
1763692631448817000,9.72281689453125,-0.04284999892115593,-1.2050693035125732,0.426769495010376
1763692631458837800,9.732837646484375,0.022038986906409264,-1.2666785717010498,0.3016643226146698
1763692631468859600,9.742859619140624,0.050818730145692825,-1.0122268199920654,0.10083988308906555
1763692631478880800,9.752880859375,-0.006687705405056477,-0.9790099859237671,-0.09937550127506256
1763692631488903000,9.76290283203125,-0.06461226940155029,-0.8103950023651123,-0.26177194714546204
1763692631498923800,9.772923828125,-0.12666872143745422,-0.6515869498252869,-0.3772900104522705
1763692631508944600,9.782944580078125,-0.17550450563430786,-0.5247641205787659,-0.4304260015487671
1763692631518966800,9.792966796875,-0.20048761367797852,-0.43393754959106445,-0.43863093852996826
1763692631528987600,9.802987548828124,-0.19373522698879242,-0.36765649914741516,-0.40142500400543213
1763692631539008500,9.813008544921875,-0.17542359232902527,-0.32387226819992065,-0.3451734483242035
1763692631549030700,9.82303076171875,-0.15968894958496094,-0.31916072964668274,-0.2841320335865021
1763692631559051800,9.8330517578125,-0.14841978251934052,-0.34724777936935425,-0.2352646291255951
1763692631569072600,9.84307275390625,-0.13061584532260895,-0.39359959959983826,-0.20088262856006622
1763692631579094500,9.853094482421875,-0.10829908400774002,-0.46172434091567993,-0.1823102831840515
1763692631589115600,9.86311572265625,-0.08152322471141815,-0.530707061290741,-0.16798874735832214
1763692631599137800,9.8731376953125,-0.05242312699556351,-0.5828682780265808,-0.15320686995983124
1763692631609158700,9.88315869140625,-0.024323485791683197,-0.625828742980957,-0.14565685391426086
1763692631619179800,9.8931796875,0.0028948206454515457,-0.6440756320953369,-0.14239181578159332
1763692631629201700,9.90320166015625,0.036168619990348816,-0.6487931609153748,-0.1456693708896637
1763692631639222500,9.913222412109375,0.06250950694084167,-0.6327045559883118,-0.14896850287914276
1763692631649244000,9.923243896484376,0.07440409064292908,-0.6064563989639282,-0.15361244976520538
1763692631659265800,9.933265869140625,0.07018963247537613,-0.5515979528427124,-0.15651662647724152
1763692631669286700,9.94328662109375,0.04958983510732651,-0.48121076822280884,-0.14480651915073395
1763692631679308500,9.95330859375,-0.009588001295924187,-0.39850762486457825,-0.12321494519710541
1763692631689329700,9.96332958984375,-0.05756787955760956,-0.29312756657600403,-0.0910552516579628
1763692631699350800,9.973350830078125,-0.09498022496700287,-0.18619604408740997,-0.052590951323509216
1763692631709372700,9.98337255859375,-0.10967162996530533,-0.0768967866897583,-0.0025293175131082535
1763692631719393800,9.993393798828125,-0.10522095859050751,-0.016018256545066833,0.04600865766406059
1763692631729414700,10.00341455078125,-0.11186689883470535,-0.008605597540736198,0.08270087838172913
1763692631739436500,10.0134365234375,-0.10231520235538483,-0.021349621936678886,0.09236149489879608
1763692631749458000,10.0234580078125,-0.05628437548875809,0.011598912999033928,0.08463387191295624
1763692631759478800,10.033478759765625,-0.0057237278670072556,0.05924712494015694,0.07680977135896683
1763692631769500700,10.043500732421874,0.07753022015094757,0.0988055020570755,0.07881944626569748
1763692631779521800,10.053521728515625,0.18073463439941406,0.13518241047859192,0.10352825373411179
1763692631789543700,10.063543701171875,0.29935500025749207,0.13891902565956116,0.14547006785869598
1763692631799564800,10.073564697265626,0.41884252429008484,0.15005530416965485,0.20838510990142822
1763692631809586000,10.0835859375,0.5240365266799927,0.17979148030281067,0.27454912662506104
1763692631819607800,10.09360791015625,0.6200684905052185,0.250000923871994,0.34500011801719666
1763692631829628700,10.103628662109376,0.7064505815505981,0.32143035531044006,0.40250179171562195
1763692631839649800,10.11364990234375,0.7806193232536316,0.36099401116371155,0.44422686100006104
1763692631849672000,10.123671875,0.8206270337104797,0.3770562410354614,0.4761482775211334
1763692631859692800,10.13369287109375,0.8079195022583008,0.3405967652797699,0.47607558965682983
1763692631869713700,10.143713623046875,0.7394537925720215,0.27747437357902527,0.4197770655155182
1763692631879736000,10.153736083984375,0.5028558969497681,0.3101886510848999,0.31347671151161194
1763692631889757000,10.1637568359375,0.42433154582977295,0.2514810860157013,0.1711253821849823
1763692631899778800,10.17377880859375,0.4943910539150238,0.17141473293304443,-0.0464351624250412
1763692631909800000,10.183800048828125,0.5987538695335388,0.2992747724056244,-0.2501392662525177
1763692631919820800,10.19382080078125,0.6898515820503235,0.2632262408733368,-0.42595529556274414
1763692631929843000,10.203843017578125,0.7796617150306702,0.08625895529985428,-0.5726724863052368
1763692631939863800,10.21386376953125,0.875682532787323,-0.054740238934755325,-0.6864824295043945
1763692631949885000,10.223885009765626,0.9443444013595581,-0.1970749944448471,-0.7480373978614807
1763692631959906800,10.23390673828125,0.9733424782752991,-0.39810794591903687,-0.7659844756126404
1763692631969927700,10.243927734375,0.9703981876373291,-0.612821638584137,-0.7583082914352417
1763692631979949000,10.253948974609376,0.951947808265686,-0.7640566825866699,-0.7316809296607971
1763692631989971000,10.263970947265625,0.9397190809249878,-0.8281531929969788,-0.6889574527740479
1763692631999991800,10.27399169921875,0.9365190267562866,-0.7631552815437317,-0.6362622976303101
1763692632010013700,10.284013671875,0.90497225522995,-0.4937906861305237,-0.5757731199264526
1763692632020034800,10.294034912109375,0.8675732016563416,-0.2588266432285309,-0.544666588306427
1763692632030056000,10.304055908203125,0.8418800830841064,-0.06137997284531593,-0.5273451209068298
1763692632040077800,10.314077880859376,0.8028327822685242,0.09581603854894638,-0.5004434585571289
1763692632050099000,10.324098876953125,0.7435917258262634,0.23862630128860474,-0.457255482673645
1763692632060119800,10.334119873046875,0.6676583290100098,0.3527826964855194,-0.3957657516002655
1763692632070141700,10.3441416015625,0.591118574142456,0.412657767534256,-0.32413071393966675
1763692632080163000,10.3541630859375,0.5280264019966125,0.44114744663238525,-0.25387465953826904
1763692632090184000,10.364183837890625,0.48792606592178345,0.44673946499824524,-0.19198966026306152
1763692632100205800,10.374205810546876,0.4710778295993805,0.42234572768211365,-0.13909874856472015
1763692632110227000,10.38422705078125,0.4751523733139038,0.39190879464149475,-0.10292971134185791
1763692632120248800,10.394248779296875,0.49177342653274536,0.36602768301963806,-0.07968644052743912
1763692632130270000,10.40427001953125,0.5182104110717773,0.3354300260543823,-0.0686432421207428
1763692632140291000,10.414291015625,0.5495496988296509,0.3059943616390228,-0.0683034285902977
1763692632150313000,10.42431298828125,0.5812442898750305,0.2867584526538849,-0.07654811441898346
1763692632160333800,10.434333740234376,0.6040524244308472,0.28206250071525574,-0.083164744079113
1763692632170355000,10.44435498046875,0.6047001481056213,0.29735368490219116,-0.08190203458070755
1763692632180377000,10.454377197265625,0.5709879398345947,0.3014205992221832,-0.0754995346069336
1763692632190398000,10.46439794921875,0.5208663940429688,0.3190953731536865,-0.07206930965185165
1763692632200419000,10.474419189453124,0.46411871910095215,0.35028499364852905,-0.07187223434448242
1763692632210441000,10.48444091796875,0.39538559317588806,0.37424275279045105,-0.07036123424768448
1763692632220461800,10.4944619140625,0.3008476495742798,0.3984173536300659,-0.06849382817745209
1763692632230484000,10.50448388671875,0.16379031538963318,0.36688512563705444,-0.07546225935220718
1763692632240505000,10.514505126953125,-0.00885843113064766,0.2960655689239502,-0.09616167843341827
1763692632250526000,10.52452587890625,-0.21340948343276978,0.13265670835971832,-0.14270134270191193
1763692632260547800,10.5345478515625,-0.42728981375694275,-0.06114046275615692,-0.22014233469963074
1763692632270569000,10.54456884765625,-0.6626706719398499,-0.19772663712501526,-0.2763914167881012
1763692632280589800,10.55458984375,-0.8282082080841064,-0.23719973862171173,-0.3371346592903137
1763692632290612000,10.564612060546875,-0.9299896359443665,-0.20956268906593323,-0.4190668761730194
1763692632300632800,10.5746328125,-0.9532995223999023,-0.09870967268943787,-0.5106231570243835
1763692632310654000,10.584654052734376,-0.9368302822113037,0.009134361520409584,-0.5704261064529419
1763692632320675800,10.59467578125,-0.8818455934524536,0.10149438679218292,-0.5740794539451599
1763692632330696700,10.60469677734375,-0.7957757711410522,0.14048698544502258,-0.5132381916046143
1763692632340717800,10.6147177734375,-0.7028394341468811,0.09581378102302551,-0.3995853662490845
1763692632350740000,10.624739990234374,-0.633979082107544,-0.05091243237257004,-0.2829963266849518
1763692632360760800,10.6347607421875,-0.5894989371299744,-0.20362527668476105,-0.13747774064540863
1763692632370783000,10.644782958984376,-0.5561534762382507,-0.4754793643951416,0.01115119643509388
1763692632380803800,10.654803955078124,-0.5196681618690491,-0.7155153751373291,0.11550530046224594
1763692632390824700,10.66482470703125,-0.4820998013019562,-0.8982904553413391,0.15012812614440918
1763692632400846800,10.674846923828126,-0.4385688602924347,-1.025693416595459,0.11600690335035324
1763692632410868000,10.684867919921874,-0.372059166431427,-1.0272762775421143,0.06683670729398727
1763692632420888800,10.694888916015625,-0.28487926721572876,-0.8153738975524902,-0.07932475954294205
1763692632430910700,10.70491064453125,-0.24955323338508606,-0.8089503645896912,-0.28788328170776367
1763692632440931800,10.714931884765624,-0.2110508531332016,-0.6486304998397827,-0.4829116463661194
1763692632450953000,10.724952880859375,-0.25842615962028503,-0.5772668123245239,-0.674194872379303
1763692632460974800,10.734974853515626,-0.26256659626960754,-0.4933658242225647,-0.8331102132797241
1763692632470996000,10.744995849609374,-0.22490628063678741,-0.41016295552253723,-0.9127842783927917
1763692632481017900,10.755017822265625,-0.1439342051744461,-0.3848820924758911,-0.8795139789581299
1763692632491038700,10.765038818359375,-0.02001066878437996,-0.47387710213661194,-0.7518271803855896
1763692632501060000,10.77506005859375,0.14246398210525513,-0.590627908706665,-0.5417325496673584
1763692632511082000,10.78508203125,0.2719034254550934,-0.6785047650337219,-0.27589038014411926
1763692632521102800,10.795102783203125,0.26933160424232483,-0.7331640124320984,-0.004575495142489672
1763692632531124000,10.8051240234375,0.24426469206809998,-0.7918462753295898,0.2137303501367569
1763692632541145900,10.815145751953125,0.1459445059299469,-0.8522998094558716,0.3455789089202881
1763692632551167000,10.8251669921875,0.0026255750562995672,-0.8671784996986389,0.40254607796669006
1763692632561188000,10.83518798828125,-0.15697234869003296,-0.8876616954803467,0.41012436151504517
1763692632571210000,10.8452099609375,-0.32522669434547424,-0.8932061195373535,0.3814978301525116
1763692632581230800,10.85523095703125,-0.49606502056121826,-0.8764484524726868,0.3314639627933502
1763692632591252000,10.865251953125,-0.6632543206214905,-0.8513351082801819,0.2658191919326782
1763692632601274000,10.875274169921875,-0.7995072603225708,-0.7903128266334534,0.19445213675498962
1763692632611295000,10.885294921875,-0.8687950372695923,-0.7198678851127625,0.138704314827919
1763692632621316900,10.89531689453125,-0.8918473720550537,-0.6750151515007019,0.11650899052619934
1763692632631338000,10.905337890625,-0.8838538527488708,-0.6278205513954163,0.14601150155067444
1763692632641358800,10.91535888671875,-0.8653593063354492,-0.6000078320503235,0.22097788751125336
1763692632651380700,10.925380615234374,-0.833631694316864,-0.5811427235603333,0.33716630935668945
1763692632661402000,10.935402099609375,-0.7757510542869568,-0.5691688656806946,0.46056655049324036
1763692632671423000,10.945423095703125,-0.7138358354568481,-0.5341537594795227,0.561867892742157
1763692632681444900,10.95544482421875,-0.668189287185669,-0.4666498303413391,0.6301375031471252
1763692632691465700,10.9654658203125,-0.6339948773384094,-0.3884887993335724,0.6571865081787109
1763692632701486800,10.97548681640625,-0.6038596034049988,-0.30514010787010193,0.6486904621124268
1763692632711509000,10.985509033203124,-0.5849936008453369,-0.224907785654068,0.6103932857513428
1763692632721529900,10.99552978515625,-0.5865094661712646,-0.1611706167459488,0.5533550381660461
1763692632731551000,11.005551025390625,-0.6097427010536194,-0.13752460479736328,0.4893932044506073
1763692632741572900,11.01557275390625,-0.6482522487640381,-0.14666058123111725,0.42070814967155457
1763692632751593700,11.02559375,-0.6909438371658325,-0.1677948385477066,0.34036606550216675
1763692632761616000,11.035615966796875,-0.7259702682495117,-0.17502957582473755,0.2512337863445282
1763692632771637000,11.045636962890624,-0.7371891736984253,-0.16027505695819855,0.16318102180957794
1763692632781657900,11.055657958984375,-0.7277001142501831,-0.1437738537788391,0.10621920228004456
1763692632791679700,11.0656796875,-0.7015343904495239,-0.17310641705989838,0.07905954867601395
1763692632801700900,11.075700927734376,-0.6707354784011841,-0.2197314351797104,0.08608337491750717
1763692632811721700,11.0857216796875,-0.6436759829521179,-0.2664857804775238,0.12849020957946777
1763692632821743900,11.095743896484375,-0.6048556566238403,-0.2929474711418152,0.1943797469139099
1763692632831765000,11.105764892578126,-0.5428025126457214,-0.27870917320251465,0.2762620151042938
1763692632841785900,11.115785888671875,-0.4967479109764099,-0.2804681956768036,0.34123703837394714
1763692632851807700,11.125807861328125,-0.4807187020778656,-0.24592426419258118,0.37655016779899597
1763692632861828900,11.135828857421876,-0.4805874228477478,-0.1952991634607315,0.3852139413356781
1763692632871850000,11.14585009765625,-0.47033244371414185,-0.14123335480690002,0.3819788098335266
1763692632881872000,11.155871826171875,-0.4582187831401825,-0.0540611669421196,0.3810639977455139
1763692632891893000,11.16589306640625,-0.5517142415046692,0.0998968780040741,0.3701617121696472
1763692632901915100,11.1759150390625,-0.5264429450035095,0.26905420422554016,0.3752480745315552
1763692632911936000,11.18593603515625,-0.41121917963027954,0.35601571202278137,0.33639293909072876
1763692632921957000,11.19595703125,-0.3038756847381592,0.4898773729801178,0.29525241255760193
1763692632931979000,11.20597900390625,-0.22559961676597595,0.5338873863220215,0.26292917132377625
1763692632941999900,11.215999755859375,-0.1667163223028183,0.5313624739646912,0.21385325491428375
1763692632952021000,11.22602099609375,-0.11261104047298431,0.5236615538597107,0.1405363529920578
1763692632962043100,11.236043212890625,-0.05728360638022423,0.48299747705459595,0.059820469468832016
1763692632972064000,11.24606396484375,0.004729097243398428,0.40372994542121887,-0.011216679587960243
1763692632982084900,11.2560849609375,0.06991289556026459,0.30641987919807434,-0.06017756089568138
1763692632992107000,11.26610693359375,0.12360754609107971,0.22015422582626343,-0.08884382992982864
1763692633002128000,11.2761279296875,0.1772633194923401,0.19377881288528442,-0.11172038316726685
1763692633012149000,11.28614892578125,0.2114522010087967,0.421076238155365,-0.12689635157585144
1763692633022171100,11.296171142578125,0.23923777043819427,0.49147504568099976,-0.16053234040737152
1763692633032192000,11.30619189453125,0.30637431144714355,0.6149259805679321,-0.1761922538280487
1763692633042214000,11.3162138671875,0.36009401082992554,0.6881221532821655,-0.15229837596416473
1763692633052235000,11.326235107421875,0.39326944947242737,0.7489631175994873,-0.09763866662979126
1763692633062256000,11.336256103515625,0.4152567684650421,0.7630898356437683,-0.018597904592752457
1763692633072278000,11.346278076171876,0.44066327810287476,0.7703433036804199,0.0761798769235611
1763692633082299000,11.356298828125,0.49384555220603943,0.831987202167511,0.18606695532798767
1763692633092320000,11.366320068359375,0.5630710124969482,0.9078336358070374,0.30194297432899475
1763692633102342000,11.376341796875,0.6288926601409912,0.9660439491271973,0.4102127254009247
1763692633112362800,11.38636279296875,0.6735536456108093,1.0451682806015015,0.5043516755104065
1763692633122384100,11.396384033203125,0.7094138860702515,1.129634976387024,0.5825010538101196
1763692633132406000,11.406406005859376,0.7303974032402039,1.2070906162261963,0.6473711729049683
1763692633142427000,11.416427001953124,0.7386835813522339,1.2606470584869385,0.7060275673866272
1763692633152448000,11.426447998046875,0.7313300967216492,1.2781051397323608,0.752180278301239
1763692633162470000,11.436469970703126,0.7043192386627197,1.2623014450073242,0.7687318325042725
1763692633172491000,11.446490966796874,0.6654254198074341,1.249202013015747,0.7418716549873352
1763692633182513000,11.456512939453125,0.626797616481781,1.2584320306777954,0.6735011339187622
1763692633192534000,11.466533935546876,0.5893033146858215,1.2906134128570557,0.5685915946960449
1763692633202555000,11.476554931640624,0.5607147812843323,1.3372032642364502,0.447698175907135
1763692633212576800,11.48657666015625,0.5539587140083313,1.3581180572509766,0.34552693367004395
1763692633222598100,11.49659814453125,0.5764134526252747,1.3427588939666748,0.2812073528766632
1763692633232619000,11.506618896484374,0.6299144625663757,1.2730053663253784,0.2581113278865814
1763692633242641000,11.516640869140625,0.7249690294265747,1.1673091650009155,0.266416996717453
1763692633252662000,11.526662109375,0.8396700024604797,1.0313111543655396,0.27808237075805664
1763692633262683000,11.536682861328124,0.9435985088348389,0.8401762843132019,0.27561843395233154
1763692633272705000,11.546705078125,1.0173128843307495,0.6237545609474182,0.26281142234802246
1763692633282726100,11.55672607421875,1.05789315700531,0.40638095140457153,0.24227257072925568
1763692633292747000,11.5667470703125,1.1057319641113281,0.30265435576438904,0.21511000394821167
1763692633302769000,11.576768798828125,1.1785651445388794,0.35016512870788574,0.18370947241783142
1763692633312790000,11.5867900390625,1.2603719234466553,0.5339657664299011,0.16173657774925232
1763692633322812200,11.596812255859374,1.3252185583114624,0.735417902469635,0.13668769598007202
1763692633332833000,11.6068330078125,1.345944881439209,0.8125522136688232,0.09757477790117264
1763692633342854100,11.616854248046875,1.2946572303771973,0.8212556838989258,0.057843346148729324
1763692633352876000,11.6268759765625,1.1898415088653564,0.8026391863822937,0.01855998858809471
1763692633362897000,11.63689697265625,1.0590293407440186,0.8642109036445618,-0.017767924815416336
1763692633372918000,11.64691796875,0.917552649974823,1.1833772659301758,-0.03238168731331825
1763692633382940200,11.656940185546874,0.784792959690094,1.6929526329040527,-0.02057243138551712
1763692633392961000,11.6669609375,0.6328354477882385,2.2052130699157715,-0.002089892514050007
1763692633402982000,11.67698193359375,0.42761194705963135,2.6087071895599365,0.0029035345651209354
1763692633413004000,11.687004150390624,0.13731248676776886,2.788769245147705,-0.013178698718547821
1763692633423025000,11.69702490234375,-0.2045721560716629,2.682451009750366,-0.04642826318740845
1763692633433045800,11.707045654296875,-0.5061365365982056,2.513731002807617,-0.0523747056722641
1763692633443068000,11.71706787109375,-0.6616515517234802,2.508512020111084,0.028232788667082787
1763692633453089000,11.727089111328125,-0.6910436153411865,2.5783894062042236,0.20938213169574738
1763692633463111000,11.73711083984375,-0.6510536074638367,2.548156976699829,0.4410281777381897
1763692633473131800,11.7471318359375,-0.5807200074195862,2.3068735599517822,0.7209115028381348
1763692633483153000,11.75715283203125,-0.6370466351509094,2.2499308586120605,0.9687367677688599
1763692633493175000,11.767175048828125,-0.7730891108512878,2.473539352416992,1.1313468217849731
1763692633503196000,11.77719580078125,-0.8758596777915955,2.943192481994629,1.2173069715499878
1763692633513217000,11.787217041015625,-0.9489723443984985,3.335709810256958,1.2535122632980347
1763692633523239000,11.797239013671875,-1.0508395433425903,3.450944185256958,1.2705589532852173
1763692633533259800,11.807259765625,-1.1809583902359009,3.2660939693450928,1.2994173765182495
1763692633543281200,11.81728125,-1.3207652568817139,2.780484914779663,1.3769084215164185
1763692633553303000,11.827302978515625,-1.4765721559524536,2.1068291664123535,1.4524296522140503
1763692633563324000,11.837323974609374,-1.578534722328186,1.8624515533447266,1.5346392393112183
1763692633573345000,11.847344970703125,-1.5402816534042358,1.9223973751068115,1.6170438528060913
1763692633583367000,11.857366943359375,-1.453460693359375,1.9991917610168457,1.725131630897522
1763692633593388000,11.867387939453126,-1.3282848596572876,2.018472671508789,1.8335245847702026
1763692633603409200,11.8774091796875,-1.2498480081558228,1.9812638759613037,1.903359055519104
1763692633613431000,11.88743115234375,-1.2127785682678223,1.9867829084396362,1.9128100872039795
1763692633623452000,11.897451904296876,-1.2286959886550903,1.804704189300537,1.7799092531204224
1763692633633473000,11.90747314453125,-1.434674620628357,1.447078824043274,1.4956239461898804
1763692633643495200,11.9174951171875,-1.5408573150634766,1.3986241817474365,1.2795747518539429
1763692633653516000,11.92751611328125,-1.5232484340667725,1.2184038162231445,1.1130319833755493
1763692633663538000,11.937537841796875,-1.360265851020813,1.0356446504592896,1.0583908557891846
1763692633673559000,11.94755908203125,-1.1836216449737549,0.7567842602729797,1.094597339630127
1763692633683580000,11.957579833984376,-1.147299885749817,0.506304919719696,1.1960461139678955
1763692633693602000,11.96760205078125,-1.1436843872070312,0.39589086174964905,1.342831015586853
1763692633703623200,11.977623046875,-1.1314855813980103,0.2929096221923828,1.4862390756607056
1763692633713644000,11.98764404296875,-1.1239384412765503,0.20610390603542328,1.6010401248931885
1763692633723666000,11.997666015625,-1.091310977935791,0.25278326869010925,1.6424996852874756
1763692633733687000,12.00768701171875,-1.040560007095337,0.3508797585964203,1.593490719795227
1763692633743708000,12.0177080078125,-0.9741136431694031,0.42564108967781067,1.4350699186325073
1763692633753730000,12.02772998046875,-0.893337607383728,0.4269024133682251,1.1971511840820312
1763692633763751000,12.0377509765625,-0.7677456140518188,0.3250458240509033,0.8871175050735474
1763692633773772000,12.04777197265625,-0.5635306239128113,0.4327048659324646,0.5506531000137329
1763692633783794000,12.0577939453125,-0.307240754365921,0.07905782759189606,0.20594173669815063
1763692633793814800,12.067814697265625,-0.06778218597173691,-0.20307685434818268,-0.04841851070523262
1763692633803837200,12.077837158203126,0.22425207495689392,-0.6590976715087891,-0.1742161214351654
1763692633813858000,12.087858154296875,0.5079131722450256,-1.055946946144104,-0.1897236406803131
1763692633823879000,12.09787890625,0.7326847910881042,-1.3150014877319336,-0.15171366930007935
1763692633833901000,12.107901123046876,0.8264976143836975,-1.5051747560501099,-0.11583442986011505
1763692633843922000,12.117921875,0.8083223700523376,-1.5155822038650513,-0.09087475389242172
1763692633853942800,12.12794287109375,0.747388482093811,-1.4577618837356567,-0.08497026562690735
1763692633863965000,12.13796484375,0.6840853691101074,-1.3893553018569946,-0.10363636910915375
1763692633873986000,12.147986083984375,0.6132428050041199,-1.302981972694397,-0.12504218518733978
1763692633884007000,12.1580068359375,0.5385922789573669,-1.2786762714385986,-0.14332053065299988
1763692633894028800,12.16802880859375,0.4593829810619354,-1.3576300144195557,-0.1533312201499939
1763692633904050000,12.1780498046875,0.36765944957733154,-1.559794545173645,-0.15575788915157318
1763692633914071000,12.188071044921875,0.2927107810974121,-1.8638585805892944,-0.1584736555814743
1763692633924093000,12.198093017578126,0.2751038372516632,-2.127532720565796,-0.16996465623378754
1763692633934114000,12.208114013671874,0.3650013208389282,-2.2710185050964355,-0.19218812882900238
1763692633944135000,12.218135009765625,0.5311673879623413,-2.3632326126098633,-0.23482294380664825
1763692633954156800,12.22815673828125,0.7571127414703369,-2.3760368824005127,-0.31201106309890747
1763692633964178200,12.23817822265625,0.9867510199546814,-2.3097774982452393,-0.4174986183643341
1763692633974200000,12.248199951171875,1.1448825597763062,-2.2105774879455566,-0.5412778258323669
1763692633984221000,12.258220947265626,1.2008750438690186,-2.156925916671753,-0.6675761342048645
1763692633994242000,12.268241943359374,1.1684678792953491,-2.1417415142059326,-0.7790937423706055
1763692634004264000,12.278263916015625,1.0893213748931885,-2.144993782043457,-0.8700846433639526
1763692634014285000,12.28828515625,0.9785091280937195,-2.1572654247283936,-0.9345018267631531
1763692634024306200,12.29830615234375,0.8278388977050781,-2.208763360977173,-0.9852710366249084
1763692634034328000,12.308328125,0.6479294300079346,-2.2661187648773193,-1.0397181510925293
1763692634044349000,12.318348876953126,0.49764084815979004,-2.28416109085083,-1.0816434621810913
1763692634054370000,12.3283701171875,0.4185195565223694,-2.2374331951141357,-1.076417088508606
1763692634064392200,12.33839208984375,0.3976646363735199,-2.1673970222473145,-1.0192664861679077
1763692634074413000,12.3484130859375,0.4123748242855072,-2.096217393875122,-0.9264554977416992
1763692634084434000,12.358433837890624,0.429272323846817,-2.0526785850524902,-0.8256886601448059
1763692634094456000,12.3684560546875,0.42140328884124756,-1.9798636436462402,-0.7236039638519287
1763692634104477000,12.378476806640625,0.3798188269138336,-1.8988794088363647,-0.6365513801574707
1763692634114497800,12.388497802734374,0.29853472113609314,-1.8070504665374756,-0.5690889954566956
1763692634124520000,12.39852001953125,0.18844819068908691,-1.660807490348816,-0.5314812064170837
1763692634134541000,12.408541015625,0.06041712686419487,-1.519608736038208,-0.5265436172485352
1763692634144562000,12.41856201171875,-0.0737161785364151,-1.4349795579910278,-0.5220370292663574
1763692634154583800,12.428583740234375,-0.22436802089214325,-1.3945183753967285,-0.4879096746444702
