time,seconds_elapsed,z,y,x
1763690859969438500,0.0644384765625,0.38398236620724197,0.0071274955260567366,0.1558202561837621
1763690859979460400,0.07446044921875,0.44795828703343865,0.13017261384124867,-0.07127066267793998
1763690859989482500,0.084482421875,0.3358896586894989,0.264891419744771,-0.26727769382679833
1763690859999504600,0.094504638671875,0.11103402459919452,0.37425058820061385,-0.4005047542020678
1763690860009526500,0.104526611328125,0.08895721734762191,0.5019884217761457,-0.4439184005254879
1763690860019549400,0.114549560546875,0.20384791737496852,0.5798566743545234,-0.43577473196052013
1763690860029571600,0.124571533203125,0.05372808305621147,0.5500015612516552,-0.40741303575318305
1763690860039593500,0.134593505859375,-0.14618132582604884,0.5428755452966317,-0.33904684407878666
1763690860049615400,0.144615478515625,-0.24705869807004927,0.5280274106569588,-0.26243577022096143
1763690860059637500,0.154637451171875,-0.3421650856971741,0.4904971598163247,-0.12963673513256943
1763690860069659400,0.164659423828125,-0.40462300317585465,0.4005132297694683,0.011633871601172721
1763690860079681300,0.174681396484375,-0.38276071545779705,0.2645739330271259,0.07988334612729958
1763690860089703700,0.18470361328125,-0.31110651508867737,0.1285390669558197,0.14936159982997924
1763690860099725600,0.1947255859375,-0.20579028361439702,0.007958411658555268,0.19401563813593237
1763690860109748500,0.20474853515625,-0.2643973708838224,-0.09103583198627456,0.15672222825847565
1763690860119770600,0.2147705078125,-0.34299393773674963,-0.1338537591725588,0.08720694874734618
1763690860129792500,0.22479248046875,-0.2506073304623365,-0.08246190051157028,0.03744934022468514
1763690860139814400,0.234814453125,-0.16561200248301028,-0.031150249213632193,-0.04622541580852121
1763690860149836500,0.24483642578125,-0.08726385743319988,-0.0014565554838627576,-0.1441562680055387
1763690860159858400,0.2548583984375,0.08785247097611427,0.028063206451106815,-0.1936574723480269
1763690860169880300,0.26488037109375,0.30918226902782914,0.027237021292652933,-0.20630932078612968
1763690860179902500,0.27490234375,0.47576574689149853,-0.007984240219555796,-0.2587908561136573
1763690860189925400,0.28492529296875,0.5824906761199236,-0.036018786831758916,-0.3176731801278889
1763690860199947300,0.294947265625,0.5119774624794722,-0.031213322778791186,-0.37191345048993824
1763690860209969400,0.304969482421875,0.18606851505637167,0.024917145244032143,-0.35407764180898665
1763690860219991600,0.314991455078125,0.04169628447890281,0.13107026593387125,-0.2616698090834543
1763690860230013400,0.325013427734375,-0.06598199995160102,0.14413999272417277,-0.13801946401726453
1763690860240035600,0.33503564453125,-0.11359832212924957,0.0842172928115353,0.010050332161708501
1763690860250057500,0.345057373046875,-0.06900573168694972,-0.0391072178337723,0.09204689959180541
1763690860260079400,0.355079345703125,-0.025915947023034094,-0.1296946667317301,0.08476178408493287
1763690860270102500,0.3651025390625,-0.025689737051725385,-0.1754224717490375,0.04644373473431915
1763690860280124400,0.37512451171875,-0.04641512969434261,-0.17779365785978735,-0.048735352802835405
1763690860290146300,0.385146240234375,-0.030545360389351843,-0.13777305150814353,-0.12256921703228726
1763690860300168400,0.39516845703125,-0.022318799313902852,-0.01984780609048903,-0.1625438836166635
1763690860310190300,0.4051904296875,-0.09956453607976436,0.1799861264027655,-0.15529504499956964
1763690860320212500,0.41521240234375,-0.020688567763566968,0.31173399933725593,-0.05711062903343699
1763690860330234600,0.425234619140625,0.15680501117110252,0.3519749704413116,0.05228121784930117
1763690860340256500,0.435256591796875,0.2698614815086126,0.31280082485117017,0.03833607819764875
1763690860350279700,0.44527978515625,0.251717922052741,0.16913148184604943,-0.04580639581200666
1763690860360301600,0.455301513671875,0.14510463650524616,0.033431364154443144,-0.05468066194015555
1763690860370323500,0.465323486328125,0.050396308284997936,-0.06569587648659944,-0.006739656119095161
1763690860380345300,0.475345458984375,0.05973112286329269,-0.12412636508010327,0.0050574112537316975
1763690860390367500,0.485367431640625,0.1685176607966423,-0.18473953147493302,-0.011838394897058605
1763690860400389400,0.495389404296875,0.3969178356260061,-0.1938788965463638,-0.04831836949978024
1763690860410411300,0.505411376953125,0.5724117651760577,-0.24059593179672956,-0.05457173080611974
1763690860420433400,0.515433349609375,0.5928752920120954,-0.2787223218996078,-0.06201643905518576
1763690860430456300,0.525456298828125,0.46078152824938295,-0.2770691478651017,0.012387991603836416
1763690860440478500,0.535478515625,0.29861352874040603,-0.25938494954928754,0.11395349224247038
1763690860450500600,0.54550048828125,0.16366203745901584,-0.2583874629445374,0.17157065515909342
1763690860460522500,0.5555224609375,0.05821954925656318,-0.22599990875460207,0.1654338694371283
1763690860470544600,0.565544677734375,0.027220015358924866,-0.1295948596190661,0.1313385614812374
1763690860480566500,0.57556640625,0.08117313934266566,-0.050463747498020524,0.07188472118936479
1763690860490588400,0.58558837890625,0.17270166848301888,0.01832300767600536,-0.011887385137937962
1763690860500610300,0.5956103515625,0.26657471492290497,0.08133395592756569,-0.11317786822747439
1763690860510632400,0.605632568359375,0.3011211276471615,0.11022899182662367,-0.22000454079732298
1763690860520655400,0.6156552734375,0.2896878794848919,0.15762151518575845,-0.32742000957317646
1763690860530677500,0.625677490234375,0.16210077949166296,0.18005612289905548,-0.44461310479138044
1763690860540699400,0.635699462890625,0.04987374571561813,0.21556670448035,-0.5876242030834778
1763690860550721300,0.64572119140625,-0.002305354332923889,0.3131784990571439,-0.6555988746896386
1763690860560743700,0.65574365234375,-0.05065115982890129,0.4302618137579411,-0.6425635981582105
1763690860570765600,0.665765625,-0.16692834577858448,0.5367310146596282,-0.5336928160075098
1763690860580787500,0.675787353515625,-0.33075755649805066,0.6006090280693024,-0.39214660263620316
1763690860590809300,0.685809326171875,-0.4337707717269659,0.5931591504547744,-0.2692337049990892
1763690860600832500,0.69583251953125,-0.43865912829041476,0.519268934661895,-0.14569398070052264
1763690860610854400,0.7058544921875,-0.42151743935346603,0.34325529208667577,-0.012162512284889817
1763690860620876800,0.715876708984375,-0.47100598514378067,0.1819694822397083,0.12493987342007458
1763690860630898700,0.725898681640625,-0.5166320102870464,-0.0013505378261208533,0.2597980238622054
1763690860640920600,0.735920654296875,-0.5135328752279281,-0.17469240390881896,0.33584271427523343
1763690860650942700,0.745942626953125,-0.4783779752165079,-0.3038653117887676,0.44034065163657066
1763690860660964600,0.755964599609375,-0.466495814242959,-0.39711993406936524,0.567705048789829
1763690860670986800,0.76598681640625,-0.4400660724788904,-0.46069165800884365,0.7072514666460454
1763690860681009700,0.776009765625,-0.39060616826117034,-0.5312256221763789,0.7650661614287644
1763690860691031800,0.78603173828125,-0.3931307183027267,-0.5970907177500426,0.8249177688665688
1763690860701054000,0.796053955078125,-0.44399815123081204,-0.6232995102398097,0.8242406002573669
1763690860711075800,0.806075927734375,-0.4025479504674673,-0.6568820463679731,0.708822661485523
1763690860721097700,0.81609765625,-0.2945592849135399,-0.6570014349639416,0.5847928886476904
1763690860731119600,0.82611962890625,-0.15280863501131534,-0.6376891239896416,0.47467952255737034
1763690860741141800,0.836141845703125,-0.002482464465498924,-0.6075631580561399,0.39829599211141464
1763690860751163600,0.84616357421875,0.015773907715082167,-0.6041527650907635,0.34102194354403764
1763690860761185500,0.856185546875,-0.15592705929279327,-0.6411949401535093,0.3796604844201356
1763690860771208700,0.866208740234375,-0.2928881368309259,-0.6101965752996504,0.5179961747797206
1763690860781230600,0.876230712890625,-0.2849409772187471,-0.5134713542990387,0.6302592662498354
1763690860791252700,0.886252685546875,-0.1453033739477396,-0.41398689771816133,0.6253760242529213
1763690860801275000,0.89627490234375,0.12937573697566984,-0.3296855433523655,0.5203562549745664
1763690860811296800,0.906296875,0.5827560490578413,-0.24069909991025923,0.3373180840574205
1763690860821319000,0.91631884765625,0.950002384519577,-0.165672208237648,0.13234450538707895
1763690860831340800,0.9263408203125,0.9532143323034048,-0.1096276649326086,-0.009725786657258867
1763690860841362700,0.93636279296875,0.613521774199605,-0.04401785929426551,-0.003402666316647082
1763690860851385900,0.9463857421875,0.1661082615673542,0.08526011639535426,0.04713016436221078
1763690860861407700,0.95640771484375,-0.0649549949914217,0.22688304826468228,0.06291757087968289
1763690860871429600,0.9664296875,0.0030249007791280746,0.3116832920633256,0.014615567992813884
1763690860881451800,0.97645166015625,0.12550386397838592,0.3915305896297097,-0.05456106328163296
1763690860891473700,0.9864736328125,0.19562077177762985,0.3070385349974036,-0.17460078010261057
1763690860901495800,0.996495849609375,0.08882219279110432,0.16761223638951778,-0.22234354167152195
1763690860911518000,1.00651806640625,-0.16949731948375701,0.11156944665014742,-0.11136862684842198
1763690860921539800,1.016539794921875,-0.3851011411041021,0.10685907700210809,0.02914521126784384
1763690860931561700,1.026561767578125,-0.25805297029316426,0.09897928353771566,0.001651018610037863
1763690860941585000,1.0365849609375,0.15469079549610615,0.08638122937977313,-0.17397497635446488
1763690860951606800,1.046606689453125,0.5007639945477247,0.07740677254647016,-0.37301658942624927
1763690860961628700,1.056628662109375,0.5815209543049336,0.009130962569266557,-0.4629577763099223
1763690860971650800,1.06665087890625,0.34857378369569775,-0.0035236440815031526,-0.40334311943314965
1763690860981672700,1.076672607421875,0.024002806878089904,0.02347162261083722,-0.23198314788267016
1763690860991694600,1.086694580078125,-0.20171324343383312,0.03828326116502285,-0.05871602753661573
1763690861001716700,1.096716796875,-0.33980011013150213,0.031522973249852655,-0.00339022696018219
1763690861011739000,1.10673876953125,-0.40838264797031876,-0.0014516601130366324,-0.032792554794251916
1763690861021761500,1.116761474609375,-0.26095453695356846,0.018834610459953546,-0.05308079812861979
1763690861031784000,1.126783935546875,0.01421440331339836,0.08851648784279822,-0.06590732728019356
1763690861041805800,1.136805908203125,0.2870382417589426,0.12247165667563677,-0.09814341723546385
1763690861051827700,1.14682763671875,0.44306642333865165,0.09752250885814427,-0.1358116883073002
1763690861061849900,1.156849853515625,0.49315410406589505,0.02771408248618245,-0.18788637813329695
1763690861071871700,1.166871826171875,0.41760874147713184,-0.04935352123379707,-0.23440394528880715
1763690861081893600,1.1768935546875,0.1924684452265501,-0.07718100096657872,-0.24750468827188013
1763690861091915800,1.186915771484375,0.009895955592393875,-0.03622720541805029,-0.26000023190341887
1763690861101937700,1.196937744140625,0.04473638282716274,0.03121171534359455,-0.31005386423058806
1763690861111960600,1.206960693359375,0.19839841979742048,0.12795315682664513,-0.22053623652122914
1763690861121982700,1.216982666015625,0.20017828895151615,0.25584683855101464,-0.06356923972144722
1763690861132004900,1.2270048828125,0.2163917571276426,0.29149697473347186,-0.015707272219657897
1763690861142026800,1.23702685546875,0.20945932751595972,0.17356442279219628,-0.06189129657186567
1763690861152049000,1.247048828125,0.20708383055627344,-0.016641922721266744,-0.1311063601605594
1763690861162070800,1.25707080078125,0.10939502522051334,-0.18596900020465254,-0.147724317484349
1763690861172092700,1.2670927734375,-0.07109247483313083,-0.2722727804340422,-0.12724983086287975
1763690861182114800,1.27711474609375,-0.20154197852015493,-0.24724969059750437,-0.01967223032787442
1763690861192136700,1.28713671875,-0.33088498227000235,-0.18414149251654743,0.06395327060297132
1763690861202159600,1.29715966796875,-0.5042606044918299,-0.12103636317551135,0.14098119989968835
1763690861212181800,1.307181640625,-0.6650093848526477,-0.03986103187575936,0.16887896838970481
1763690861222203600,1.31720361328125,-0.7015729826182127,0.06051774319633841,0.1435912362676114
1763690861232225500,1.3272255859375,-0.5593810186892747,0.12829890152439474,0.004868628949671983
1763690861242248000,1.337248046875,-0.2988736409813165,0.1760638383924961,-0.19156682021170854
1763690861252269800,1.347269775390625,-0.07364566644728184,0.15577172260060906,-0.38683834016025065
1763690861262291700,1.357291748046875,0.04339665865600109,0.13157719254270195,-0.48031245041042564
1763690861272313900,1.36731396484375,0.10591010571420192,0.11994389176368712,-0.46124395812936125
1763690861282335700,1.377335693359375,0.11954524783492088,0.13058949667960404,-0.32574476983733475
1763690861292358700,1.387358642578125,0.09646657006442547,0.10793635084480047,-0.1289521778013557
1763690861302380800,1.397380859375,0.0029711247652769086,-0.0015188801303505897,0.015980609268322586
1763690861312402700,1.407402587890625,-0.11558043585717677,-0.14734116338565945,0.10024674619026482
1763690861322424600,1.417424560546875,-0.09415478599071501,-0.2340687219850719,0.10023257153443992
1763690861332446700,1.42744677734375,0.008144143489003181,-0.24512729161605237,0.024141411631181834
1763690861342468900,1.43746875,0.10059212556183338,-0.30922143199443813,-0.0218843534193933
1763690861352490800,1.44749072265625,0.09437748883068561,-0.2005034292526543,-0.020722031641751525
1763690861362513000,1.457512939453125,0.012686463093757629,-0.13391995627656578,-0.04679711474925279
1763690861372535800,1.467535888671875,-0.03215864080488682,-0.049141485918313264,-0.10265811818093061
1763690861382558000,1.477557861328125,-0.011090718334913253,0.013928572109341621,-0.1462789409816265
1763690861392579800,1.487579833984375,-0.07545183908641338,0.061037529286742206,-0.14206344217844308
1763690861402601700,1.497601806640625,-0.03037467999756336,0.0685458590902388,-0.1674869295094162
1763690861412623600,1.50762353515625,0.10241291124820709,0.03552037232294678,-0.1479902018789202
1763690861422645800,1.517645751953125,0.14891338113844393,0.005862023901194334,-0.10187120558694004
1763690861432667600,1.527667724609375,0.136863462382555,-0.03165872845873236,-0.042879502914100885
1763690861442689500,1.537689453125,0.10370353558063507,-0.03834712018147111,0.015081322341039776
1763690861452712000,1.5477119140625,0.0646931291848421,-0.04948518478944897,0.03726093237996101
1763690861462734600,1.557734619140625,-0.011945873859524727,-0.038596857158839704,0.031683351443335415
1763690861472756700,1.5677568359375,-0.07616086413860321,-0.035382279026508326,0.041174525627121324
1763690861482779000,1.57777880859375,-0.1709223838508129,-0.06167246618941426,0.07656732604764402
1763690861492800800,1.58780078125,-0.26412732177078724,-0.07977744720056652,0.09495419274009764
1763690861502822700,1.59782275390625,-0.26345687516331673,-0.07129355036318302,0.11322327827177942
1763690861512844800,1.6078447265625,-0.17146423564255237,-0.019505495458841324,0.13083667637370527
1763690861522866700,1.61786669921875,-0.12104863813519477,0.006571779605746269,0.10469430018365382
1763690861532888600,1.627888671875,-0.05819032316207885,0.03806143510788679,0.05868892033398151
1763690861542910700,1.63791064453125,0.034359950241446495,0.07050912198722362,0.03127842390425503
1763690861552933600,1.64793359375,0.08995616525709628,0.08183861751407384,-0.01272569912560284
1763690861562955800,1.657955810546875,0.09457973340451717,0.0742996003113687,-0.015158479230478404
1763690861572977700,1.667977783203125,0.11097498788833618,0.046168607587367294,-0.005787789621204137
1763690861582999800,1.677999755859375,0.1802075140684843,0.010513064577430486,-0.031936595552042125
1763690861593021700,1.688021728515625,0.2571212424010038,-0.03270443811938167,-0.02191350644864142
1763690861603043800,1.6980439453125,0.2976332855314016,-0.06480696482285857,-0.006066095105931163
1763690861613065700,1.708065673828125,0.24706395876705645,-0.13354776196330784,0.01716433916017413
1763690861623086800,1.7180869140625,0.16007248853445052,-0.1514196648709476,0.04725274956226349
1763690861633108700,1.728108642578125,0.08722761707603931,-0.17675956557169556,0.053236573212221264
1763690861643131100,1.738131103515625,0.0493564438432455,-0.1725764346681535,0.03337539618350565
1763690861653153800,1.74815380859375,0.009861468800902365,-0.13673618274107574,-0.02228548156619072
1763690861663176000,1.758176025390625,0.009890110373497008,-0.059350745243579146,-0.09253463744297623
1763690861673198000,1.768197998046875,0.08847089513540267,0.009163841925561427,-0.1749965744871646
1763690861683220000,1.778219970703125,0.0840080705076456,0.08436813599169254,-0.1971961313355714
1763690861693242000,1.7882421875,-0.026666473129391667,0.1147569906450808,-0.19273396429494022
1763690861703264000,1.798263916015625,-0.09009937312006949,0.11220920585840939,-0.15929354005120694
1763690861713286000,1.808285888671875,-0.07637947532534599,0.08649228853881359,-0.10812646658942103
1763690861723307800,1.818307861328125,-0.12507014873623848,0.04181742664054036,-0.03460121165141463
1763690861733330000,1.828329833984375,-0.1944675100892782,-0.004085515747964382,0.01831906215324998
1763690861743352800,1.838352783203125,-0.23278759613335132,-0.03069777447208762,0.050912733374536036
1763690861753375000,1.848375,-0.25682313623726366,-0.040247546975314616,0.061150707337632774
1763690861763396900,1.85839697265625,-0.24347265627682207,-0.019782997225970027,0.03664192369878292
1763690861773419000,1.8684189453125,-0.1330804367125034,0.01654898374080658,-0.028787703067064283
1763690861783441200,1.878441162109375,0.00505202269256115,0.04642199782654643,-0.12406477108597755
1763690861793463000,1.888463134765625,0.08088263196349144,0.09135945618376136,-0.1930916186261922
1763690861803485000,1.89848486328125,0.09754618199467659,0.10855448274314403,-0.1596638346683234
1763690861813506800,1.9085068359375,0.05433540129959583,0.11345686783194542,-0.060827832058817144
1763690861823529000,1.918529052734375,-0.01194002864062786,0.07931406747251749,0.07762691810317338
1763690861833552000,1.9285517578125,-0.10457914937138557,0.0008174538627266884,0.20455160866491495
1763690861843574000,1.938573974609375,-0.1484089387476444,-0.09915800110548734,0.2602285607665777
1763690861853596000,1.948595947265625,-0.13229191668331622,-0.2052823340922594,0.25051285711191595
1763690861863617800,1.95861767578125,-0.101950554433465,-0.2659073370553553,0.20826127683781087
1763690861873640000,1.968639892578125,-0.07098667637109755,-0.2248579721778631,0.1660348310049623
1763690861883662000,1.978662109375,-0.08586568107306956,-0.1507562325261533,0.1617256625689566
1763690861893684000,1.98868408203125,-0.06876783127784729,-0.07602759314775466,0.14579714881405234
1763690861903706000,1.9987060546875,0.03855915549695491,-0.024888357540965078,0.09970599037706851
1763690861913728000,2.00872802734375,0.04263268854618072,-0.04050955891236663,0.03731222417578101
1763690861923751000,2.0187509765625,-0.042273207584023476,-0.07308949386924504,0.02632394330203533
1763690861933773000,2.02877294921875,-0.1246814416795969,-0.11042743700817227,0.036744288094714285
1763690861943795000,2.038794921875,-0.13375088331997395,-0.1230984102718532,0.01926262661367655
1763690861953816800,2.04881689453125,-0.10576631332933902,-0.13048296756520866,-0.015496625143662094
1763690861963839000,2.0588388671875,-0.10868307755887507,-0.12845306917279958,0.005255947766825557
1763690861973860900,2.06886083984375,-0.2207803474754095,-0.1749830574184656,0.03349237362667918
1763690861983883000,2.078883056640625,-0.46338557326793667,-0.2347122805856168,0.1129119473002851
1763690861993905200,2.0889052734375,-0.7597714890867471,-0.32812033986225725,0.25365137433335183
1763690862003927000,2.098927001953125,-1.0322440298765898,-0.461081680239737,0.40778490127287803
1763690862013950000,2.108949951171875,-1.1947995673984289,-0.6025776247285306,0.4905059641772881
1763690862023972000,2.11897216796875,-1.2136644268661736,-0.7676748095571995,0.4564877035129815
1763690862033994000,2.128993896484375,-1.0749544598340988,-0.8079227949239313,0.284242254364863
1763690862044015900,2.139015869140625,-0.7832166620820761,-0.6523680760748684,0.06026495574535801
1763690862054038000,2.1490380859375,-0.17494740158319472,-0.3901782982379198,-0.17587942173629997
1763690862064060000,2.159059814453125,0.19979367354810237,0.015176380213350056,-0.2743005234019831
1763690862074081800,2.169081787109375,0.054362873828411096,0.33765886031910775,-0.5467400752376764
1763690862084104000,2.17910400390625,-0.0070686232119798655,0.4936883570730686,-0.7679344834066927
1763690862094126000,2.1891259765625,0.15730068573355674,0.4690530975103378,-0.6423921140488237
1763690862104148000,2.19914794921875,0.2033124953240156,0.12099267016425728,-0.3747895173829049
1763690862114171100,2.209171142578125,0.6080190851300954,-0.5287751602843404,0.24753199640391393
1763690862124193000,2.219193115234375,0.6053992580205202,-1.0434230110168456,0.14564955703690646
1763690862134215000,2.22921484375,-0.46410161258280275,-1.4686257147543131,-0.41919056730847803
1763690862144237000,2.239237060546875,-0.8859475532382726,-1.40898869991526,-0.33612186001017685
1763690862154259000,2.249259033203125,-0.7036316687136888,-1.1995759880200028,-0.16551303562056272
1763690862164280800,2.25928076171875,-0.7071148346543311,-0.8114758112303913,0.29576014860328287
1763690862174303000,2.269302978515625,-1.16986211001873,-0.4413607884645462,0.9405841294415295
1763690862184324900,2.279324951171875,-1.3254875560164452,0.026514789699018,1.5143822344094513
1763690862194347000,2.289346923828125,-0.9862848272562026,0.5996091303117573,1.8910908102214334
1763690862204370000,2.299369873046875,-0.003339373555779457,0.9205337134510279,2.012351045280695
1763690862214392000,2.30939208984375,1.2875164295405148,1.2110112820088863,2.086126767848432
1763690862224414000,2.3194140625,1.3754612549751997,1.002028632093966,1.4853575077161192
1763690862234436000,2.32943603515625,0.818040138182044,0.6155332601524889,0.9630132572621106
1763690862244458000,2.3394580078125,0.31749066316783425,0.20632015270739792,0.8302210629064589
1763690862254480000,2.34947998046875,-0.2493324882209301,-0.1638452850714326,0.5844906177654862
1763690862264502000,2.359501953125,-0.36284430111050603,-0.24492402412891387,0.36536454030312593
1763690862274524000,2.36952392578125,-0.546357286465168,-0.1331577397324145,-0.09344320365525781
1763690862284545800,2.3795458984375,-0.7931231390684843,0.13437763691619037,-0.6008233649397269
1763690862294568000,2.38956787109375,-0.9457458961188793,0.5564474494554102,-1.033519164378941
1763690862304590800,2.3995908203125,-1.0404776052147149,0.919465645828098,-1.2973369818091391
1763690862314613000,2.409613037109375,-0.90400577249825,1.1138602368116377,-1.0994541833836584
1763690862324635100,2.41963525390625,-0.6120043553739786,0.8607456727687269,-0.7941437873531132
1763690862334657000,2.429656982421875,0.12306173152327538,0.22150858868472276,-0.5008860865574329
1763690862344679000,2.439678955078125,1.0971312203288077,-0.14498429806120694,-0.1617995132564567
1763690862354701000,2.449701171875,1.419666891926527,0.3628825872942805,0.05528451871797442
1763690862364723000,2.459722900390625,1.1216267791599035,0.04216645927391946,-0.7794749913357197
1763690862374744800,2.469744873046875,1.180112285876274,-0.19779848114289342,-1.188467076441273
1763690862384767000,2.47976708984375,0.7260919223248958,0.20905520369447766,-1.2217762755207717
1763690862394788900,2.489788818359375,6.265370308563113,0.25812172468043865,-3.3176693812325593
1763690862404811800,2.499811767578125,-2.878724713999033,0.4628163950778544,-1.9797402767941354
1763690862414834000,2.509833984375,-1.492129486069083,1.1531539901934564,-1.6744446399413049
1763690862424856000,2.51985595703125,0.1811567776173353,1.1434130059670655,-1.0275767687179147
1763690862434878000,2.5298779296875,0.33835166488885876,0.554211653227359,-0.12437928039524704
1763690862444900000,2.539900146484375,1.494341316899657,-0.1679068354219198,0.11282233278807252
1763690862454922000,2.549921875,2.430914311003685,-0.8951444937158376,0.6259390649631619
1763690862464943900,2.55994384765625,2.2450182299047707,-0.8631240923378616,1.149896449702233
1763690862474966000,2.569966064453125,0.9179939658403397,-0.11165727106407285,1.5532175764992833
1763690862484988000,2.57998779296875,-1.0967337454438209,-0.6900223186213523,1.2781561882600188
1763690862495010800,2.5900107421875,-2.0873872893035412,-1.3080956917107105,0.8162460943721235
1763690862505033000,2.600032958984375,-2.0648007789641616,-1.1869253268919884,0.7879448596477509
1763690862515054800,2.610054931640625,-1.6416916865050792,-0.7603906438983976,1.1890478720039128
1763690862525077000,2.620076904296875,-1.0087643700897693,-0.4108420238211751,1.6099943796016274
1763690862535099100,2.63009912109375,-0.781443222668767,-0.36491760025322434,1.1423829322669654
1763690862545121000,2.64012109375,-0.47509997645914553,-0.1001588487111032,0.7208031682670116
1763690862555143000,2.650142822265625,4.092351146942377,1.0279702980801462,-0.1529758813370019
1763690862565165000,2.6601650390625,2.158171721100807,0.15389832994416355,-1.8772464092642067
1763690862575187000,2.67018701171875,-0.4268856883883476,-0.2631228209033608,-1.4936901595145462
1763690862585208800,2.680208740234375,1.2569418430566788,0.33111864489540455,-1.5664059977658091
1763690862595232000,2.69023193359375,-0.5456804101169109,1.0755404430285096,-1.5611016077473758
1763690862605254000,2.70025390625,-0.48294601378440855,1.3938330702289938,-1.2406661232993006
1763690862615275800,2.71027587890625,-0.4006470852822065,1.096755226623267,-0.8077323869183659
1763690862625299200,2.72029931640625,-0.49076925475597377,0.6350904857985675,-0.7036614793300628
1763690862635321300,2.7303212890625,-0.21463877598047254,0.4020949460029602,-0.8219209982033818
1763690862645343200,2.74034326171875,0.11204524746835232,0.24765929431170225,-0.6215380535252392
1763690862655365000,2.750365234375,0.1689618974328041,0.06254471897929907,-0.4124327270787209
1763690862665387500,2.760387451171875,0.15674246732890604,-0.16004750022366643,-0.23073073666878044
1763690862675409400,2.770409423828125,0.32202713755369183,-0.32895737520828844,-0.11227240728773176
1763690862685431300,2.780431396484375,0.5538794986635446,-0.2681749897263944,-0.20848113013356923
1763690862695454500,2.790454345703125,0.7350169870585203,-0.1541343306571245,-0.22253661655820905
1763690862705476400,2.800476318359375,0.865523189368844,-0.15342238299548625,-0.04586472926996648
1763690862715498500,2.81049853515625,0.8199562009364366,-0.11251929472088813,0.23511216662339865
1763690862725520400,2.820520263671875,0.8974217179328202,-0.05212459338232875,0.5654283360294997
1763690862735542300,2.830542236328125,1.1271002421349285,-0.09974150008186697,0.634047844877839
1763690862745564200,2.840564208984375,1.307768359452486,-0.19409063960090278,0.4205289397727698
1763690862755586300,2.85058642578125,1.0985445942580698,-0.2788715941771865,0.17913915418460963
1763690862765608200,2.860608154296875,0.8217816627979279,-0.30591493779495355,-0.09285130217671393
1763690862775630300,2.87063037109375,-0.3511141158282757,-0.1038239470899105,-0.0721494365401566
1763690862785653200,2.8806533203125,-0.7540928589284419,0.001900280663371086,-0.13848204002771525
1763690862795675400,2.89067529296875,-0.8294476673811674,-0.12301993820816277,-0.3443254786014557
1763690862805697500,2.900697509765625,-0.453222491171956,-0.19363763513639567,-0.31584928916897625
1763690862815719400,2.910719482421875,-0.19436989493370055,-0.07054010164737701,-0.0928335473243147
1763690862825741300,2.9207412109375,-0.24687515819668768,0.08163432711362838,-0.06900324746891856
1763690862835763200,2.93076318359375,-0.35765959194898606,0.05475011958032846,-0.24014175828844309
1763690862845785300,2.940785400390625,-0.3255670021176338,0.11203048829063772,-0.29601463482100515
1763690862855807200,2.95080712890625,-0.3276742035299539,0.27621552671045063,-0.24537023352645337
1763690862865829000,2.9608291015625,-0.5173381127297878,0.3297230988837778,-0.13483371012061834
1763690862875851500,2.9708515625,-0.9170704212546348,0.26039997181072827,0.12244005596097558
1763690862885873400,2.980873291015625,-1.0997089618623257,0.1295258129708469,0.463714914820157
1763690862895896300,2.990896240234375,-1.0971931796491146,-0.020646189926564692,0.7316133891601115
1763690862905918500,3.00091845703125,-1.114537113159895,-0.14540727271363138,0.8757671546813101
1763690862915940400,3.0109404296875,-0.8097101167321205,-0.33709581960886714,0.7927988024849444
1763690862925962500,3.02096240234375,1.4275024078577756,-0.5821959309570491,0.6260896524149924
1763690862935984400,3.030984375,-0.32157822474241254,-0.4418523713737726,0.5492731008466333
1763690862946006300,3.04100634765625,-0.36423312512040135,-0.27562296764478084,0.4799664865169674
1763690862956028200,3.051028076171875,0.35800153725445266,-0.1728632887855172,0.35868115354906766
1763690862966050300,3.06105029296875,0.14850889199078082,-0.2026172065362334,0.3455014635782689
1763690862976072200,3.071072265625,0.1390150874584913,-0.36260859265848994,0.3996035675786435
1763690862986095400,3.081095458984375,0.11229425379335879,-0.5300960336245596,0.35480277774576097
1763690862996117200,3.0911171875,-0.0006155015498399734,-0.6351217577196657,0.27968850005064155
1763690863006139400,3.101139404296875,0.01049567505121231,-0.5023896960534155,0.11591902016177773
1763690863016161500,3.11116162109375,0.08184007881879805,-0.17638401025757192,-0.19886132460143416
1763690863026183400,3.121183349609375,0.1589841087758541,0.23282895105704665,-0.4310169064415619
1763690863036205300,3.131205322265625,0.09971592724919319,0.5841944112978875,-0.5708687369851395
1763690863046227200,3.141227294921875,-0.051610944771766656,0.7942804924100637,-0.5891011437682434
1763690863056249300,3.151249267578125,-0.18628478815555571,0.8108369288049638,-0.6077351536221802
1763690863066271200,3.161271240234375,-0.14390578210949898,0.6737804280683398,-0.6284490019574761
1763690863076293000,3.171293212890625,0.059790744096040724,0.45872298828437924,-0.713508335083723
1763690863086315500,3.1813154296875,0.5343132129281759,0.32402649467736483,-0.7898771428845822
1763690863096338200,3.191338134765625,0.7519792277753352,0.34237171418517826,-0.7535704424895345
1763690863106360300,3.2013603515625,0.6278530818909406,0.36521979807019234,-0.6589920973245054
1763690863116382500,3.211382568359375,0.5471522362351418,0.37146731415763495,-0.3668037062607705
1763690863126404400,3.221404296875,0.49414603771269316,0.29582974324077366,-0.08305062365233898
1763690863136426500,3.231426513671875,0.37415947585105896,0.11798428212851285,0.10966390528976917
1763690863146448400,3.241448486328125,0.27051848411262036,-0.011665595613420008,0.13338983145523817
1763690863156470300,3.25147021484375,0.2790565953552723,-0.08240516535565257,-0.07281663174461572
1763690863166492200,3.2614921875,0.66336395573318,-0.07234948915690183,-0.466821940924786
1763690863176514300,3.271514404296875,1.155516773802042,0.10897811498269439,-0.7456503170147538
1763690863186537200,3.281537109375,1.3280284726709126,0.3492686340920627,-0.8403845103286206
1763690863196559400,3.291559326171875,1.2322767728775739,0.4773654371730983,-0.8521910487826914
1763690863206581200,3.301581298828125,0.9278221168935299,0.46304508926719423,-0.7981234315738082
1763690863216603400,3.311603271484375,0.43650107347369194,0.34454598948433995,-0.8390197978466749
1763690863226625500,3.32162548828125,0.06221767898201942,0.24323694782480595,-0.7601672104060649
1763690863236647400,3.3316474609375,-0.2693003404945135,0.1735633998788893,-0.5590845564933493
1763690863246669300,3.34166943359375,-0.6294657777845859,0.1098801783889532,-0.3759169870428741
1763690863256691200,3.351691162109375,-0.8703390652179718,0.07845292059853673,-0.25087200928051023
1763690863266713300,3.36171337890625,-1.029580363625288,0.07403291219919919,-0.12843929637577384
1763690863276735200,3.3717353515625,-1.1346961040914059,0.08102496304363012,0.01540971404518932
1763690863286757000,3.381757080078125,-1.0734335338771344,0.10780205694064497,0.08065985605828463
1763690863296780300,3.3917802734375,-0.8209837904185057,0.1253248541496694,0.18218257700111715
1763690863306802200,3.40180224609375,-0.5143973831027746,0.07412921218052507,0.2986160494910553
1763690863316824300,3.41182421875,-0.3707365156650543,-0.078043024623394,0.31690873509403317
1763690863326846500,3.421846435546875,-0.2918383355170488,-0.2484292557708919,0.31100137421377
1763690863336868400,3.431868408203125,-0.2781844886958599,-0.35175124468803404,0.382982176188752
1763690863346890500,3.441890380859375,-0.35891280688047406,-0.3930157136209309,0.441505603762716
1763690863356912400,3.451912353515625,-0.26021394771933554,-0.43304216519147154,0.4724825605023652
1763690863366934300,3.461934326171875,-0.17647475728094578,-0.4686217203557491,0.4484657250989228
1763690863376956200,3.4719560546875,-0.23799334808290004,-0.44481838157251474,0.38841333439201114
1763690863386978300,3.481978271484375,-0.3967272814899683,-0.3749376206167042,0.15735139300748704
1763690863397001200,3.492001220703125,-0.5229541990458965,-0.2936288721956313,0.09586385493092238
1763690863407023400,3.5020234375,-0.6858592806577682,-0.25357173322588206,0.318852599170804
1763690863417045200,3.512045166015625,-0.6640829176574945,-0.23060455300584434,0.6318176746729761
1763690863427067400,3.5220673828125,-0.20406360595226286,-0.2544141753993928,0.9176401109013705
1763690863437089500,3.532089599609375,0.36921266709864137,-0.3891398951008916,0.9801084036435931
1763690863447111400,3.542111328125,0.7876800712317228,-0.5672448839321732,0.9339292746622114
1763690863457133300,3.55213330078125,0.9408400038987398,-0.661815849508345,0.856209782904759
1763690863467155200,3.5621552734375,0.9061071286916732,-0.6467530126720666,0.7160305470377206
1763690863477177300,3.57217724609375,0.8164116601973772,-0.5354428014799952,0.5360508503757417
1763690863487199200,3.58219921875,0.6316296778202056,-0.3575554009221494,0.3816032890509814
1763690863497221000,3.59222119140625,0.2898503765702247,-0.15344517934918403,0.20351137889698145
1763690863507244300,3.602244384765625,-0.05316401943266391,-0.02575681093856692,-0.07136581188179553
1763690863517266200,3.61226611328125,-0.14955869330465793,0.07974076845198869,-0.2766853361792862
1763690863527288300,3.622288330078125,-0.1644388670504093,0.17713775123432277,-0.43163602472059426
1763690863537310500,3.632310546875,-0.07728782234191894,0.24485256632789967,-0.5415056817155331
1763690863547332400,3.642332275390625,0.08630173440277576,0.27822730492427944,-0.7353862587623298
1763690863557354500,3.6523544921875,0.17012158886194229,0.3722479431413114,-0.9844773394428193
1763690863567376400,3.66237646484375,0.19121172316372392,0.5071694776758552,-0.9840275498487054
1763690863577398300,3.672398193359375,0.08701075945496559,0.5714163243979216,-0.8739788830250501
1763690863587420200,3.682420166015625,0.06613046851158141,0.5007135795347393,-0.7858877809874713
1763690863597442300,3.6924423828125,0.2653454653888941,0.3880558992564678,-0.6298797654129564
1763690863607465200,3.70246533203125,0.5746171662658452,0.2573378077611327,-0.4592671781636774
1763690863617487400,3.7124873046875,0.9558908580362796,0.15406842581406235,-0.4286417382754385
1763690863627507700,3.7225078125,1.2463427076309919,0.01371449096724391,-0.5418551527403295
1763690863637529600,3.732529541015625,1.1654296805292368,-0.0680550068333745,-0.7251933660499751
1763690863647551700,3.7425517578125,0.8425637540638446,-0.005313742368668318,-0.7581444724068045
1763690863657573600,3.75257373046875,0.5544412241995335,0.1114544419683516,-0.7560960154443979
1763690863667595500,3.762595458984375,0.3775385968953371,0.2466835811473429,-0.7854619567908346
1763690863677617700,3.77261767578125,0.18928923066854475,0.3475628530874848,-0.8428365796558559
1763690863687639800,3.782639892578125,0.027503508475422857,0.38095220473110675,-0.9622257601462304
1763690863697661700,3.79266162109375,-0.0837637403577566,0.32387510350793597,-1.066861023619026
1763690863707684900,3.802684814453125,-0.19601941570639608,0.23420286975875496,-1.0112664160385727
1763690863717706800,3.812706787109375,-0.3618272330224514,0.14253887767046688,-0.7457521699540317
1763690863727728600,3.822728759765625,-0.5089660057038069,-0.011595891378074884,-0.4361234723329544
1763690863737750800,3.832750732421875,-0.6329752472102642,-0.18634601682350038,-0.15670871118977664
1763690863747772700,3.842772705078125,-0.7008996134012937,-0.2928736699141562,0.12662293113619089
1763690863757794600,3.852794677734375,-0.7271779639959335,-0.32770942097380756,0.27565876961052416
1763690863767816700,3.862816650390625,-0.6552011075437069,-0.3167756467662752,0.2670940626218915
1763690863777838600,3.872838623046875,-0.35799510751366614,-0.2210822530314326,0.17593056740164756
1763690863787860700,3.88286083984375,0.08453355568647385,-0.10239727528765798,-0.020472294664382933
1763690863797883000,3.8928828125,0.2707826880067587,0.03656666650548577,-0.29264000728875394
1763690863807904800,3.90290478515625,0.18497662816643715,0.19479601139128208,-0.5863660562485457
1763690863817927700,3.912927734375,-0.08786591497957706,0.33550869654789567,-0.8409642099127173
1763690863827949800,3.92294970703125,-0.4146323560148477,0.46004561519026754,-1.0523419382706285
1763690863837971700,3.9329716796875,-0.7907920657724141,0.4918544196441769,-1.1743518226534126
1763690863847993600,3.94299365234375,-1.167415301388502,0.3263232273124158,-1.0646569377034902
1763690863858015700,3.953015625,-1.3876345078498125,0.01174026828482747,-0.8917869269162416
1763690863868037600,3.96303759765625,-1.3889414987951516,-0.3064990212932229,-0.7050292605519294
1763690863878059500,3.9730595703125,-1.291719726449251,-0.570089459708333,-0.4763312718197703
1763690863888081700,3.98308154296875,-1.177352173513174,-0.7250862524136901,-0.21173399444967508
1763690863898103800,3.993103759765625,-1.2005986090660095,-0.8058436505623161,0.06618862843960523
1763690863908125700,4.003125732421875,-1.3399521346986294,-0.8983544687382876,0.20528116504848
1763690863918148900,4.01314892578125,-1.4909616113334894,-0.8902828059636055,0.20308190143853425
1763690863928170800,4.023170654296875,-1.5650947690367698,-0.7854701400972902,0.1875315733462572
1763690863938192600,4.033192626953125,-1.5766495977520942,-0.6360482249148189,0.20939006167203186
1763690863948214800,4.04321484375,-1.556159182909131,-0.5474300302632152,0.2338932192876935
1763690863958236700,4.053236572265625,-1.5265905585974453,-0.5147130249232054,0.22220132018923758
1763690863968258600,4.063258544921875,-1.3188397885650396,-0.5059555718414486,0.1862833268508315
1763690863978280700,4.07328076171875,-0.8648129952728748,-0.5239391184300184,0.08495645727366209
1763690863988302600,4.083302490234375,-0.45744916895627974,-0.4926696815498173,0.02198211470544338
1763690863998324700,4.09332470703125,-0.08360358135998248,-0.4065216764040291,0.11540069537609815
1763690864008347000,4.103346923828125,0.20795184556245802,-0.3121693220146,0.2054889625802636
1763690864018369800,4.113369873046875,0.3464841179400682,-0.23243659073859452,0.2609820094823837
1763690864028391700,4.1233916015625,0.376596932131052,-0.1594796372078359,0.3650159460611641
1763690864038413800,4.133413818359375,0.34510581532418727,-0.06608472967371344,0.4274769322797656
1763690864048435700,4.143435791015625,0.33063656046688555,-0.0304917305059731,0.4494052709713578
1763690864058457600,4.15345751953125,0.34741409226655956,0.01746682923808694,0.4079129846319556
1763690864068479700,4.163479736328125,0.42440030131340023,0.05110021877065301,0.4016946946389973
1763690864078501600,4.173501708984375,0.42787762203514573,0.1276928984552622,0.48864656351357694
1763690864088523500,4.1835234375,0.2792027258276939,0.14185542545095084,0.5893721061967313
1763690864098545700,4.193545654296875,0.09390110349059104,0.1358832191735506,0.6865165755227208
1763690864108567800,4.20356787109375,-0.1351771167308092,0.12460311574637889,0.7167720130547881
1763690864118589700,4.213589599609375,-0.2371101355075836,0.1488172272875905,0.6567677723385393
1763690864128612900,4.22361279296875,-0.1374263569623232,0.19635383529253303,0.5765354209773242
1763690864138634800,4.233634765625,-0.008073416340351105,0.2654571821350604,0.5322947127126157
1763690864148656600,4.24365673828125,0.06774316440522671,0.31354718623906375,0.5400963263742625
1763690864158678800,4.2536787109375,0.18359131128787992,0.30404804794453083,0.6250568753011524
1763690864168700700,4.26370068359375,0.3231090875715017,0.2478060823712498,0.7697616988338529
1763690864178722600,4.27372265625,0.44312546004951,0.13705971560701727,0.8592296421825886
1763690864188744700,4.28374462890625,0.4559855261445045,0.0596083002012223,0.9694238549567759
1763690864198766600,4.2937666015625,0.273961902564764,-0.008893938942998647,1.0909523855634033
1763690864208788700,4.303788818359375,0.1170125144869089,-0.12064517190083861,0.8501188456185161
1763690864218811000,4.313810791015625,0.4594838896542787,-0.15376812769323586,0.20656419059634207
1763690864228832800,4.323832763671875,0.906626184129715,0.019635405448824167,-0.13916969349831343
1763690864238855700,4.333855712890625,0.9577075520694255,0.2755861427657306,-0.28348215671256183
1763690864248877800,4.3438779296875,0.8050421249210834,0.41762795763425525,-0.3943779418848455
1763690864258899700,4.353899658203125,0.5564402890622615,0.4238808074839413,-0.34854382694885133
1763690864268921600,4.363921630859375,0.37337972365021704,0.3323538127135485,-0.1478922213971615
1763690864278943700,4.37394384765625,0.3144195851594209,0.18777889917083085,0.059986266668140886
1763690864288965600,4.383965576171875,0.29642449426352974,0.020213059206306932,0.1837275048881769
1763690864298987500,4.393987548828125,0.3200789260953665,-0.08841741138249636,0.24509675034731626
1763690864309009700,4.404009765625,0.39573476332128044,-0.09688830260783433,0.27419161966741085
1763690864319031800,4.41403173828125,0.46813364457786083,-0.05482632662169635,0.26791063970178364
1763690864329053700,4.4240537109375,0.5301029017567634,0.028713907178491354,0.2514863052539527
1763690864339076900,4.434076904296875,0.5355623362064361,0.1278430475156754,0.1677211035914719
1763690864349098800,4.4440986328125,0.5339923104107379,0.16734342938549815,0.04387859695404768
1763690864359120600,4.45412060546875,0.5861591354995965,0.20923428658843038,-0.11202172046229243
1763690864369142800,4.464142822265625,0.552474308040738,0.21960618912950156,-0.26162439903914925
1763690864379164700,4.47416455078125,0.4885276133090257,0.19185184769816696,-0.36303704720363017
1763690864389186600,4.4841865234375,0.38444647658765313,0.13681436254382132,-0.3519666410043835
1763690864399208700,4.494208740234375,0.2724392230421305,0.0765934834022075,-0.24465163692831993
1763690864409230600,4.504230712890625,0.18631050711870192,0.030017244862020013,-0.10047112953066825
1763690864419252700,4.514252685546875,0.15717092187404633,-0.026274697332829236,0.047180853369832035
1763690864429275000,4.52427490234375,0.13133973052501677,-0.07622085069753229,0.162133366587013
1763690864439296800,4.534296875,0.0973755016028881,-0.1187116465549916,0.18554449118226765
1763690864449319700,4.544319580078125,0.09775953248441219,-0.11497253309190272,0.1885328593432903
1763690864459341800,4.554341796875,0.1981839002639055,-0.08692739202044904,0.1943694565422833
1763690864469363700,4.56436376953125,0.26487726335525513,-0.01654109269529581,0.15575272563919423
1763690864479385600,4.574385498046875,0.2818535325974226,0.0984907693684101,0.10117781649529933
1763690864489407700,4.58440771484375,0.2927501896649599,0.220020834344998,0.0735218939371407
1763690864499429600,4.5944296875,0.2682330035239458,0.2921153988927603,0.1258838032066822
1763690864509451500,4.604451416015625,0.21274200244843958,0.3201750799462199,0.17316081042736767
1763690864519473700,4.6144736328125,0.10371054984331131,0.2709404358517378,0.19214096683785317
1763690864529495800,4.624495849609375,0.018521160596609115,0.1998527102589607,0.20868542053401468
1763690864539517700,4.634517578125,0.0009615385085344314,0.1460596722077578,0.19674860676378012
1763690864549539800,4.644539794921875,0.03444996661245823,0.16201061699017882,0.13740399900004266
1763690864559562800,4.654562744140625,0.0020195231288671492,0.20951639146544038,0.09275748641341924
1763690864569584600,4.664584716796875,-0.13581249202489853,0.25389935774505135,0.060110769830644124
1763690864579606800,4.674606689453125,-0.2415501637816429,0.221338858141005,0.1282857497818768
1763690864589628700,4.684628662109375,-0.2569926475852728,0.13237374974787233,0.2101606076531112
1763690864599650600,4.694650634765625,-0.1784609626621008,-0.017417144877463576,0.27414091239348054
1763690864609672700,4.704672607421875,-0.046238019561767575,-0.15805354992747306,0.27977307306155563
1763690864619694600,4.714694580078125,0.15684300509393215,-0.2151594388537109,0.3778540925852954
1763690864629717000,4.724717041015625,0.30969606376886366,-0.2820586997807026,0.5295560815289616
1763690864639739400,4.734739501953125,0.32828093725144863,-0.36709333685711026,0.472062800720334
1763690864649761300,4.74476123046875,0.23478666099607942,-0.33677594000473615,0.39842619436234233
1763690864659784200,4.7547841796875,0.11062193666696547,-0.21074965958744285,0.34452363152205945
1763690864669806300,4.764806396484375,0.005213350734114647,-0.011257014812529087,0.3375383026793599
1763690864679828200,4.774828125,-0.11701777518391608,0.11227394165769218,0.30400559704229235
1763690864689850000,4.78485009765625,-0.2150941185325384,0.13339111009687185,0.3011388094343245
1763690864699872300,4.794872314453125,-0.24715105252861974,0.09906111660227179,0.42573914870172735
1763690864709894100,4.80489404296875,-0.22943594761788844,0.09080021486580371,0.5347074729427695
1763690864719916000,4.814916015625,-0.09267653013169765,-0.0803895877495408,0.5300844893172383
1763690864729938200,4.824938232421875,0.031547230908274645,-0.14417305474355815,0.41131183329001064
1763690864739960300,4.834960205078125,0.1282365038126707,-0.121297206068784,0.3538618071012199
1763690864749982200,4.844982177734375,0.19955460409522055,-0.12956059202328324,0.25088673192560673
1763690864760004400,4.85500439453125,0.22281448365151882,-0.15497311956882476,0.09935776146128773
1763690864770027300,4.86502734375,0.35997137602269647,-0.12191504570618271,0.02442263972535729
1763690864780049400,4.87504931640625,0.408419472849369,-0.09316825917139648,-0.06077595574110746
1763690864790071300,4.8850712890625,0.3812275145411491,-0.04685074463263154,-0.07502323841080069
1763690864800093200,4.89509326171875,0.32021921134889125,-0.018379267907887697,-0.030153000070899723
1763690864810115000,4.905114990234375,0.11544365773499012,-0.04210603432357311,-0.03460281908661127
1763690864820137200,4.91513720703125,-0.22963468506038187,-0.04734641919508576,-0.05216799413263797
1763690864830159000,4.9251591796875,-0.422241077452898,-0.031026568035036322,-0.0002649345465004444
1763690864840181000,4.935180908203125,-0.4604354912906885,-0.04446282658278942,0.056352732471376656
1763690864850203400,4.945203369140625,-0.38771395395100117,-0.05410977585017681,0.07975655054301023
1763690864860225300,4.955225341796875,-0.2062321821630001,-0.07616130253002047,0.04269274817034602
1763690864870247200,4.9652470703125,-0.046852352067828174,-0.10189444033205508,0.07078150918781757
1763690864880270300,4.975270263671875,0.015231471401453017,-0.15995646093934773,0.08904007332548498
1763690864890292200,4.985292236328125,0.08520809394717216,-0.23075725934952496,0.113396077555418
1763690864900314000,4.995314208984375,0.15874913097620008,-0.3095445264689624,0.1959194624632597
1763690864910336300,5.005336181640625,0.09001169483661652,-0.317355054089427,0.269542770948261
1763690864920358100,5.015358154296875,-0.07808452567756176,-0.23840835862457752,0.2690114405505359
1763690864930380000,5.025380126953125,-0.06145546243786811,-0.06368219857662916,0.26661241658478974
1763690864940402200,5.035402099609375,-0.15751052909195423,0.042306086940318344,0.17385303047522901
1763690864950424300,5.04542431640625,-0.5257838695138692,0.0465811339110136,-0.016868717214465142
1763690864960446200,5.0554462890625,-0.855144418695569,0.1155589546777308,-0.11391732495054602
1763690864970468400,5.06546826171875,-1.0835451780468224,0.2039868874542415,-0.07711436547115445
1763690864980490200,5.075490234375,-1.206446166050434,0.29021292627230283,0.09178221164047717
1763690864990513400,5.085513427734375,-1.0981219849318264,0.2988254179254174,0.3291130041614175
1763690865000535300,5.095535400390625,-0.949739349669218,0.17029548412412404,0.47737172078341245
1763690865010557200,5.10555712890625,-0.6724146926730871,-0.15497282730787992,0.4792779927961528
1763690865020579000,5.1155791015625,-0.19544132355749605,-0.5093703487209975,0.4157607755228877
1763690865030601200,5.125601318359375,0.17348317424952983,-0.5991128712274134,0.42002866210043427
1763690865040623000,5.135623046875,0.22943302500844,-0.4855379299737513,0.4091416496440768
1763690865050645000,5.14564501953125,0.11643676042556762,-0.3833224409937858,0.2813698407337069
1763690865060667400,5.15566748046875,0.008242343166470528,-0.2955013880692422,0.1601458460316062
1763690865070689300,5.165689208984375,-0.1559820043504238,-0.2929424973666668,0.020774054089933634
1763690865080711200,5.175711181640625,-0.3741670746356249,-0.24908055928647516,-0.08778890422061085
1763690865090733300,5.1857333984375,-0.5086427650988101,-0.18029986852705476,-0.1437811328165233
1763690865100756200,5.195756103515625,-0.5500245768010616,-0.1857635407604277,-0.07855959584340452
1763690865110778000,5.205778076171875,-0.41680970005393025,-0.32198680554330344,0.007407061386108398
1763690865120800300,5.21580029296875,-0.11731003612875937,-0.5049731366753578,0.11680398630276322
1763690865130822100,5.225822265625,0.31349896318316456,-0.7551973130390047,0.21027824268341064
1763690865140844000,5.235843994140625,0.7799328181058168,-1.0522077904969453,0.175415019094944
1763690865150866200,5.2458662109375,0.9407517410933971,-1.1173084775693713,0.17127704250738024
1763690865160888300,5.255888427734375,0.8092489289611577,-0.934899507933855,0.1187386076271534
1763690865170910200,5.26591015625,0.6050310092300176,-0.6470718693628906,0.024240561156719923
1763690865180932400,5.275932373046875,0.26824761657118795,-0.39431788226068015,-0.09664251115322113
1763690865190954200,5.285954345703125,-0.1661994469821453,-0.28406945508122444,-0.24173794143870472
1763690865200976100,5.29597607421875,-0.5862187567323446,-0.24752748462557791,-0.32815921056792136
1763690865210998300,5.305998291015625,-0.9626794952630996,-0.2549772161096334,-0.48099838684797286
1763690865221021200,5.316021240234375,-1.056682305562496,-0.26114275300204753,-0.685630440337956
1763690865231043000,5.32604296875,-0.9088368459165096,-0.2651215935051441,-0.7887398094177246
1763690865241065200,5.336065185546875,-0.7452081262052058,-0.298728241161257,-0.8322763880010694
1763690865251087000,5.346087158203125,-0.47182548483312126,-0.41002866161167617,-0.8411354017611592
1763690865261109000,5.35610888671875,-0.10698387242555618,-0.524308097872883,-0.832742032751441
1763690865271131400,5.36613134765625,0.29975334642529483,-0.4505899507112801,-0.6820121037103235
1763690865281153300,5.3761533203125,0.6801297970950603,-0.3652053311534226,-0.590762099250406
1763690865291175200,5.386175048828125,1.0339654468417168,-0.2673912920027971,-0.6421118358027189
1763690865301197300,5.396197265625,1.3059417285472155,-0.11517112440392374,-0.8120067032366991
1763690865311219200,5.40621923828125,1.3711276096850633,0.0033444881223142144,-1.1591701817430555
1763690865321241000,5.416240966796875,1.3176543781727552,0.16628683300465344,-1.4532026663035154
1763690865331264300,5.42626416015625,1.0880676239073277,0.2570744806498289,-1.6816566171467304
1763690865341286100,5.4362861328125,0.779546449136734,0.3495024428479373,-1.875546911869943
1763690865351308000,5.44630810546875,0.5490355657637119,0.4029787431001663,-1.9391224352017045
1763690865361330200,5.456330078125,0.17105097866654395,0.4561548913620412,-1.8637541827455162
1763690865371352300,5.466352294921875,-0.3786000886470079,0.45839229502528905,-1.7092879897855222
1763690865381374200,5.476374267578125,-0.840060246810317,0.3859409529291093,-1.3819297203369438
1763690865391396400,5.486396240234375,-1.1704857948750256,0.32883871726468206,-0.8603631762571632
1763690865401418200,5.496418212890625,-1.3302110774070024,0.1884248689241707,-0.3683515202246606
1763690865411440000,5.506440185546875,-1.3975474145770073,-0.06050166884437203,-0.14488383336141705
1763690865421462300,5.516462158203125,-1.3205407472640276,-0.3378095208361745,-0.09905329862199723
1763690865431484200,5.526484130859375,-0.9662181907832622,-0.6467863304197787,-0.04540471054278314
1763690865441507000,5.536507080078125,-0.5548492204785347,-0.8292009991437196,-0.23006613528020678
1763690865451529200,5.546529296875,-0.45215398515760896,-0.681802260351926,-0.39766814253665506
1763690865461551000,5.556551025390625,-0.48699441239237784,-0.36583047731444235,-0.6055385934259742
1763690865471573000,5.566572998046875,-0.4308323801875114,-0.09606135026440024,-0.8564606158606708
1763690865481595400,5.576595458984375,-0.5306435845047235,0.09864654445201158,-0.962816857907176
1763690865491617300,5.5866171875,-0.6562105768471956,0.1777664045266807,-0.8304871664967387
1763690865501639200,5.59663916015625,-0.7508914325386286,0.06685790600329637,-0.5077756268754601
1763690865511661300,5.606661376953125,-0.8486082949250936,-0.17929127600640057,-0.18680355133265256
1763690865521683200,5.61668310546875,-0.7501268779069185,-0.4909738374173641,0.10246449530497193
1763690865531705000,5.626705078125,-0.45727498143315315,-0.7769125935018062,0.3416604241106659
1763690865541727200,5.636727294921875,-0.2994926496624946,-0.7338755619384348,0.47622247768305237
1763690865551749000,5.6467490234375,-0.1702349861085415,-0.41364816728308795,0.6928327729322016
1763690865561772000,5.65677197265625,-0.12020984922349452,-0.1326449679046869,0.7901741530697792
1763690865571794200,5.666794189453125,-0.17907704873383043,0.05863762853816151,0.7317024556830525
1763690865581816300,5.67681640625,-0.24023791213929652,0.14964067249968646,0.567250692618452
1763690865591838200,5.686838134765625,-0.2760895622432232,0.1731379410084337,0.24096944128423928
1763690865601860400,5.6968603515625,-0.24784780262112616,0.19648089573830366,-0.20329024695958942
1763690865611882200,5.70688232421875,0.05148585708737373,0.2591767866913229,-0.5488996278917416
1763690865621904100,5.716904052734375,0.33851299293041226,0.350461643268913,-0.6350957464955747
1763690865631925500,5.726925537109375,0.4785352116048336,0.48300958053991194,-0.47783780392520125
1763690865641947400,5.736947509765625,0.8050912247598171,0.4516626945093274,-0.09465835159868001
1763690865651969500,5.746969482421875,1.1032459038168192,0.23594174931533635,0.21298395797815173
1763690865661991700,5.75699169921875,1.2757523419886827,0.058223275583609936,0.4995766844592988
1763690865672014600,5.7670146484375,1.363231887999177,-0.059614437681064,0.7152402003776281
1763690865682036500,5.777036376953125,1.450165490564704,-0.09621274143382906,0.8121114787854253
1763690865692058600,5.78705859375,1.606322266960144,-0.04081022235937416,0.9197121679350734
1763690865702080500,5.79708056640625,1.7918202886521815,-0.012592574265226721,0.8763478771787137
1763690865712102400,5.807102294921875,1.8990262793958186,0.022223814506828785,0.7125074874781072
1763690865722124500,5.81712451171875,1.8263702085077762,0.1430647281754762,0.4437179825825616
1763690865732146400,5.827146484375,1.6938514973312615,0.3456519779648632,0.17728800989259033
1763690865742168300,5.837168212890625,1.472986978703737,0.5441514469839632,-0.1328821193951182
1763690865752190500,5.8471904296875,1.1201514459103346,0.6415430960040539,-0.4251899173211306
1763690865762212600,5.857212646484375,0.8106389220148325,0.6630609541986138,-0.6818253489665687
1763690865772234500,5.867234375,0.5698790318280458,0.5923218228477984,-0.8330413079589605
1763690865782257700,5.877257568359375,0.36520986119806764,0.44933081749565895,-0.9408834777142852
1763690865792279600,5.887279541015625,-0.024238953721523283,0.3645931175392121,-0.8720344709590077
1763690865802301400,5.897301513671875,-0.46095162411928176,0.29791714397408064,-0.5904432425595819
1763690865812323600,5.907323486328125,-0.7318027011871338,0.21662088970839977,-0.2657372411854565
1763690865822345500,5.917345458984375,-0.8269780623972416,0.10143135286495089,-0.05452800126224756
1763690865832367400,5.927367431640625,-0.8443558981776237,-0.030599867055565118,0.052563277060538524
1763690865842389500,5.937389404296875,-0.7484241656422614,-0.1283276161622256,0.0006922200478613376
1763690865852411400,5.947411376953125,-0.5438678077369928,-0.1946983231704682,-0.17539361098073422
1763690865862433500,5.95743359375,-0.2751666021794081,-0.16942118550762533,-0.41136246749870475
1763690865872455700,5.96745556640625,-0.0071592241048812864,-0.03201243726722896,-0.5964813536800444
1763690865882477600,5.9774775390625,0.1037976436048746,0.0844273188330233,-0.6987270186025649
1763690865892499500,5.98749951171875,0.07377426126301288,0.13322634798921643,-0.7687896389313041
1763690865902522600,5.997522705078125,0.019585574957728384,0.11290427545048295,-0.7854273238688707
1763690865912544500,6.00754443359375,-0.06451309644281863,0.11707615430764853,-0.6755473646756261
1763690865922566400,6.01756640625,-0.2869996633142233,0.06046615913957357,-0.49298042799942193
1763690865932588500,6.027588623046875,-0.3860644331783056,-0.0859401345487684,-0.29723792953826483
1763690865942610400,6.0376103515625,-0.26184359474778174,-0.30545966830812393,-0.28174145052507515
1763690865952632300,6.04763232421875,-0.06612637685835361,-0.3825050601962954,-0.4073381804186851
1763690865962654500,6.057654541015625,0.12070026308894156,-0.2998427782744169,-0.5030683259673416
1763690865972676600,6.067676513671875,0.17582067728638648,-0.0839196615718305,-0.5080721256040036
1763690865982698500,6.077698486328125,0.01737374412715435,0.0692776074308902,-0.45114882670305667
1763690865992720600,6.087720703125,-0.23321780424416064,0.04668773609064519,-0.3744912650886923
1763690866002742500,6.097742431640625,-0.430322092577815,-0.07258052143380045,-0.29402196316644547
1763690866012764400,6.107764404296875,-0.6429331621229648,-0.20908603722415864,-0.19576551401056347
1763690866022787600,6.11778759765625,-0.7592547717362642,-0.26469861885271967,-0.030263401642814276
1763690866032809500,6.1278095703125,-0.7309843705415725,-0.3437124612696469,0.25059593228548765
1763690866042831400,6.137831298828125,-0.7377502114146948,-0.43210437288470566,0.47564233970753844
1763690866052853500,6.147853515625,-0.710514998486638,-0.46230581520721314,0.5859132709797471
1763690866062875400,6.15787548828125,-0.6290227101922035,-0.4781442395258695,0.6135135908931494
1763690866072897500,6.1678974609375,-0.5490116003662348,-0.4429285492379218,0.5406690116956829
1763690866082919700,6.177919677734375,-0.5452794281005859,-0.3285474061679095,0.47306226008646185
1763690866092941600,6.187941650390625,-0.5288561165660619,-0.21755488262288272,0.3819566325332969
1763690866102963500,6.19796337890625,-0.44614977630674835,-0.1907780809868127,0.36536395578123626
1763690866112985600,6.207985595703125,-0.3363923475146293,-0.16122041646055876,0.3800107591625303
1763690866123007500,6.218007568359375,-0.1680196481466293,-0.14716631827540694,0.48560273883827026
1763690866133030400,6.228030517578125,-0.09584288520812988,-0.13870251437798142,0.653499491257593
1763690866143052500,6.238052490234375,-0.039162966609001156,-0.1500702230233699,0.791743667408824
1763690866153074400,6.248074462890625,-0.017544424518942833,-0.18266805896311997,0.8605243581682444
1763690866163096300,6.258096435546875,-0.024980711999535558,-0.154297046938166,0.9115165865197777
1763690866173118500,6.268118408203125,-0.05140694663226604,-0.09998035033904015,0.8726206002838909
1763690866183140600,6.278140625,-0.04777355856597423,-0.007660086299106478,0.7966973442934453
1763690866193162500,6.28816259765625,-0.06305880598127842,0.15333609295152126,0.7261559274718165
1763690866203184600,6.2981845703125,-0.09791501530706882,0.3018195582401007,0.7576204485327005
1763690866213206500,6.30820654296875,-0.0894721811324358,0.31593649252839384,0.8678780088666826
1763690866223228400,6.318228515625,0.04321837947964668,0.20322306347489355,0.962918053259328
1763690866233250600,6.32825048828125,0.23661621451079845,0.06830065215751528,1.10450774044618
1763690866243272400,6.3382724609375,0.48558045394122595,-0.04198196955248713,1.2529593492917717
1763690866253295400,6.34829541015625,0.7521727045208215,-0.057880307364836334,1.3041311719939113
1763690866263317500,6.3583173828125,1.028500167173147,-0.0026585516847670077,1.2030009940326214
1763690866273339400,6.36833935546875,1.2562912701934574,0.12386902931816875,0.9995395917572081
1763690866283361500,6.378361572265625,1.370059688192606,0.2751804845742881,0.8092327815439552
1763690866293383700,6.3883837890625,1.3884610218018292,0.3973755893308669,0.6806254716575145
1763690866303405600,6.398405517578125,1.3114526009231806,0.4451940099518746,0.6247586230069399
1763690866313427500,6.408427490234375,1.22047819853425,0.42739509921520946,0.6342173562258482
1763690866323449600,6.41844970703125,1.132362692707777,0.34111301936097443,0.6940351344592869
1763690866333471500,6.428471435546875,1.065021094840765,0.2422440643299371,0.7040408340364694
1763690866343493400,6.438493408203125,1.0906026953428982,0.11360818593613803,0.6507045267768203
1763690866353515300,6.448515380859375,1.0971873344302177,0.04602547278963029,0.5678052942939102
1763690866363537700,6.45853759765625,1.0360159496307373,0.020626681508496402,0.5073614931166172
1763690866373560300,6.468560302734375,0.8600351133465767,0.04955167415440082,0.43017435467019677
1763690866383582700,6.478582763671875,0.6135854870855808,0.028571576098352668,0.3273331350073218
1763690866393604600,6.4886044921875,0.32685178123116493,-0.017875483104214072,0.28503632735200224
1763690866403626500,6.49862646484375,0.04204465952515602,-0.07213964579850435,0.25224676823243497
1763690866413648600,6.508648681640625,-0.21054244657754898,-0.15351890217252076,0.22355404997244477
1763690866423670500,6.51867041015625,-0.3467500753998756,-0.21396379932835696,0.23323402472659943
1763690866433692400,6.5286923828125,-0.44501405027508734,-0.23906302314102648,0.28741876550912854
1763690866443714600,6.538714599609375,-0.5726841523766517,-0.2676093917328864,0.336268501939252
1763690866453736400,6.548736328125,-0.6602396862328053,-0.30184082022383807,0.3106123748961836
1763690866463758600,6.558758544921875,-0.6789508164435625,-0.2961970421832055,0.3017233313240111
1763690866473780500,6.568780517578125,-0.6908417452454566,-0.2771257734231651,0.27415771739780903
1763690866483802600,6.578802734375,-0.6729279028922319,-0.24391309352070092,0.0905834303099662
1763690866493824500,6.588824462890625,-0.540547723403573,-0.17317454669177532,-0.084067472544685
1763690866503847700,6.59884765625,-0.4540209480732679,-0.1089032961808145,-0.18366978335157036
1763690866513869600,6.60886962890625,-0.3614467092722654,-0.08996157208457589,-0.20423567458353936
1763690866523891500,6.618891357421875,-0.27800445595383644,-0.13422668413817881,-0.13855294983945787
1763690866533913600,6.62891357421875,-0.1891308252364397,-0.23057985695600508,-0.024104879013076425
1763690866543935500,6.638935546875,-0.12147709268033503,-0.35720132678747174,0.08400222528874873
1763690866553957400,6.648957275390625,-0.12672376116216183,-0.4567435049049556,0.10035495580509304
1763690866563979300,6.658979248046875,-0.15451251631975174,-0.5390637684561312,0.07244673898629844
1763690866574001700,6.669001708984375,-0.2338566866695881,-0.5262926958188414,0.08361731762439012
1763690866584023600,6.6790234375,-0.3675876962453127,-0.4440086726248264,0.22917393568083644
1763690866594045400,6.68904541015625,-0.47300154287517066,-0.4282717359192669,0.38798597582541405
1763690866604067600,6.699067626953125,-0.589644055005908,-0.44048122915104027,0.5192218806497753
1763690866614090500,6.709090576171875,-0.7557073083877563,-0.4522445860505104,0.597391673457995
1763690866624113400,6.719113525390625,-0.8188292427331209,-0.44565424787476654,0.5563948790179565
1763690866634135300,6.72913525390625,-0.6883949366152287,-0.37599443619325756,0.42879170467276123
1763690866644157200,6.7391572265625,-0.49538522411882874,-0.22951631937772035,0.2697068754687905
1763690866654179000,6.749178955078125,-0.24859306803047657,-0.08153875778466463,0.11432367726173251
1763690866664201200,6.759201171875,-0.02255553067922592,0.07429740835428238,0.021051336661353705
1763690866674223000,6.76922314453125,0.03590776420533657,0.13983473327830434,-0.0718085872132331
1763690866684245000,6.779244873046875,0.044159459722042084,0.15480097787231206,-0.21290351315308362
1763690866694267400,6.789267333984375,0.05568330877721309,0.2703219386272132,-0.19555187125988305
1763690866704289300,6.799289306640625,-0.007961772659420966,0.4322368401579559,-0.016653795822151006
1763690866714311200,6.809311279296875,-0.08502046242058277,0.5184155327029526,0.19103559941183776
1763690866724333300,6.819333251953125,-0.060384033814072605,0.44694823320806026,0.3374577482564375
1763690866734356200,6.829356201171875,0.07787117518782616,0.29111411289572714,0.43014531123880295
1763690866744378000,6.839378173828125,0.16050328116714954,0.20575053612589836,0.4350837174890563
1763690866754400300,6.849400146484375,0.2723626506745815,0.24307430460900067,0.3646668403625488
1763690866764422100,6.859422119140625,0.4005558998674154,0.3832369546674192,0.1996164903502911
1763690866774444000,6.869444091796875,0.44604631593227384,0.5292771184571087,0.06555000174250453
1763690866784466200,6.879466064453125,0.41982466396093365,0.7121203878566622,0.12122870740983635
1763690866794488000,6.889488037109375,0.34254853205680846,0.8438729369662702,0.3603043708367273
1763690866804510200,6.89951025390625,0.09143851276934147,0.8489113695248961,0.6427363243766129
1763690866814532400,6.909532470703125,-0.15492460425198076,0.7037192008666694,0.8008319598801433
1763690866824554200,6.91955419921875,-0.12531623245179652,0.5240155446670949,0.6963521061647683
1763690866834576100,6.929576171875,0.03876841433346271,0.4374456608474254,0.4333329282989725
1763690866844598300,6.939598388671875,0.2966185555309057,0.39247883026525376,0.15744305334631353
1763690866854620200,6.9496201171875,0.6530477289021015,0.3160353497929871,-0.19777080768467858
1763690866864643000,6.95964306640625,0.9227624954164028,0.28388664586022494,-0.48509168404359365
1763690866874665200,6.969665283203125,0.9139590112358331,0.290732127840817,-0.5159704045731573
1763690866884687000,6.97968701171875,0.45952714427411556,0.4474434693790972,-0.2368035172438249
1763690866894709000,6.989708984375,0.1910825438261032,0.5302415795750915,0.09972433888451196
1763690866904731400,6.9997314453125,-0.021488193708658218,0.3818453541785478,0.2003312875561416
1763690866914753300,7.009753173828125,-0.09841185891330241,0.19658304093852638,-0.07459469253411516
1763690866924775200,7.019775146484375,0.022632103046774862,0.1278429744504392,-0.4523885976310819
1763690866934797300,7.02979736328125,-0.08348667698204516,0.2746842254899442,-0.6953118763968348
1763690866944819200,7.039819091796875,-0.4310568365931511,0.5169119962722063,-0.7831135670337825
1763690866954841000,7.049841064453125,-0.8329553832411766,0.5925028054378927,-0.8444407999821006
1763690866964863200,7.05986328125,-1.191017126250267,0.4801737725920975,-0.8575272221788763
1763690866974885000,7.069885009765625,-1.447882348063588,0.2139255131445825,-0.9105804747134446
1763690866984908000,7.079907958984375,-1.4907809940695762,0.0019917583391070364,-0.8669016381151974
1763690866994930200,7.08993017578125,-1.3999246651023625,0.0090441610686481,-0.7363065154124051
1763690867004952300,7.099952392578125,-1.1559504890441894,0.029094869320094585,-0.8280142005119472
1763690867014974200,7.10997412109375,-0.4499176044076681,-0.07149944819882512,-1.0989916073732078
1763690867024996400,7.119996337890625,0.03320668855309486,-0.12104498487338423,-1.2512260957583785
1763690867035018200,7.130018310546875,0.146166128256917,-0.20517215171605346,-1.231373686558008
1763690867045040000,7.1400400390625,0.16458558204472065,-0.35426264298707244,-1.060287636578083
1763690867055062300,7.150062255859375,0.07119476616382599,-0.45248540906906126,-0.7991479523159563
1763690867065084200,7.160084228515625,-0.04168284047544002,-0.6207949800729751,-0.6057484367843717
1763690867075106000,7.17010595703125,0.14615619138479233,-0.93328622751832,-0.5548004129007459
1763690867085128200,7.180128173828125,0.3672194474548101,-0.9997427131138742,-0.39715105985999105
1763690867095150300,7.190150390625,0.3028139030396938,-0.9076596188306808,-0.12019852411188184
1763690867105172200,7.200172119140625,0.08364917406737804,-0.8416660745717585,0.044239904547110194
1763690867115195400,7.2101953125,-0.08171265304684638,-0.8807073144972324,0.009682020580768584
1763690867125217300,7.22021728515625,-0.20466098732352256,-0.9442471819937228,-0.04817527123466134
1763690867135239200,7.2302392578125,-0.395927655544877,-0.8482963063664734,-0.07568674382083118
1763690867145261300,7.24026123046875,-0.4974824886590242,-0.6561354657843709,0.00006711041945964097
1763690867155283200,7.250283203125,-0.5676029035896063,-0.34706425591558215,0.24644743430390953
1763690867165305000,7.26030517578125,-0.5807178212285041,-0.45218686451390383,0.33051118052154776
1763690867175327200,7.2703271484375,-0.21850363471508025,-0.5912564586386084,0.31116650164760645
1763690867185349000,7.28034912109375,0.0639922874391079,-0.5546469028394669,0.31549232895746826
1763690867195371300,7.290371337890625,0.27439444876313207,-0.47199068533219396,0.2508765027925372
1763690867205393400,7.300393310546875,0.4811906945496797,-0.32539054957218466,0.08085143310762942
1763690867215415300,7.310415283203125,0.5904547868669032,-0.18488748857825993,-0.04491115487217903
1763690867225437200,7.320437255859375,0.4869447280317545,-0.04133000844977796,-0.15875227278135717
1763690867235460400,7.33046044921875,0.29468846425116063,0.1100347113635391,-0.16752959960736333
1763690867245482200,7.340482177734375,0.10555646997094154,0.2634622089255601,-0.04574292952120304
1763690867255504100,7.350504150390625,-0.1249514907926321,0.32703743999637663,0.044712855821102855
1763690867265526300,7.3605263671875,-0.2009603792399168,0.35116584601551293,-0.053098552981019016
1763690867275548200,7.370548095703125,-0.07529051104485988,0.39927075542770324,-0.09464790326990187
1763690867285570000,7.380570068359375,0.17786708842217921,0.4369301125407219,-0.1295555505219847
1763690867295592200,7.39059228515625,0.35527415811717505,0.4278278646092862,-0.3298381035655737
1763690867305614300,7.4006142578125,0.5262456418067216,0.3794278447080403,-0.48184426308758554
1763690867315636200,7.41063623046875,0.5076017316132784,0.3145279409047216,-0.654505234234035
1763690867325658400,7.420658447265625,0.2640548410564661,0.3290869198720902,-0.7319297616329044
1763690867335680300,7.43068017578125,-0.02174479881823063,0.3812164086252451,-0.6972671021178364
1763690867345702100,7.4407021484375,-0.3222217833429575,0.35295236410610376,-0.6085343411758541
1763690867355724000,7.45072412109375,-0.570365354040265,0.26071890156678856,-0.47169776680022474
1763690867365747200,7.460747314453125,-0.6319289530277252,0.13688187482208014,-0.2403483867764473
1763690867375769000,7.47076904296875,-0.6794131732583045,0.06720525813624262,-0.06690517921112478
1763690867385791200,7.480791259765625,-0.6564443856030702,0.10923508541844784,0.04321465315259993
1763690867395813000,7.490813232421875,-0.5964613338053226,0.25983576205670833,0.21484189733713863
1763690867405835300,7.500835205078125,-0.5949468375891447,0.34995230550728734,0.4587715036012232
1763690867415857400,7.510857421875,-0.47778234741091724,0.2628009685378522,0.5287069173537194
1763690867425879300,7.52087939453125,-0.23081132762432097,-0.02720817879065871,0.4824427404373884
1763690867435901200,7.530901123046875,0.05772855086922645,-0.25850195616967975,0.3686647508922964
1763690867445923000,7.540923095703125,0.42905426459908486,-0.2825649688024074,0.2014230283156037
1763690867455945200,7.5509453125,2.884039187020063,-0.30194077346697445,-0.06488331799469887
1763690867465967000,7.560967041015625,0.8369067512154579,0.062211103110760446,0.3309343743696809
1763690867475989000,7.570989013671875,0.2560778708279133,0.10932912037745117,0.49170207862667736
1763690867486011400,7.581011474609375,0.6848761148393153,-0.283901916494593,0.2223331298753619
1763690867496034000,7.591033935546875,0.2391547930777073,-0.4121545677244663,0.1928538643475622
1763690867506056200,7.60105615234375,0.054693713217973706,-0.4083548831805587,0.16972294493317602
1763690867516078300,7.611078369140625,-0.18905483739078044,-0.33242885071113704,0.18829817380458116
1763690867526100200,7.621100341796875,-0.23542554342150687,-0.23788119294531643,0.17030564019195735
1763690867536122400,7.631122314453125,-0.35880934650599955,-0.2119292978260666,0.16727942423857747
1763690867546144300,7.641144287109375,-0.41316579059362407,-0.1344027713574469,0.14056604322753846
1763690867556166100,7.651166259765625,-0.21115794812738894,-0.055317471139505504,0.12628193567879498
1763690867566188000,7.66118798828125,-0.0035889644026756286,0.05795512616671621,0.15460969308391212
1763690867576210200,7.671210205078125,0.23259470390975473,0.2004952459461987,0.2094833659786731
1763690867586232000,7.681232177734375,0.20167174237966537,0.1766484333474189,0.243738102279976
1763690867596254200,7.691254150390625,0.21185878987312315,0.10112754761278629,0.05282207412719726
1763690867606276400,7.7012763671875,0.1711877567887306,0.10919139240719378,-0.07425634569153189
1763690867616298200,7.71129833984375,0.12321429173648357,0.14019925574176012,-0.041839200080931185
1763690867626321200,7.721321044921875,0.023940847557783126,0.08034275293312966,-0.04059314554259181
1763690867636343000,7.731343017578125,-0.11800327908992767,-0.009151786161586642,-0.08314750815555452
1763690867646365000,7.741364990234375,-0.19092063126266,-0.04579641327410936,-0.1620855819225311
1763690867656387000,7.751386962890625,-0.23045593831539152,-0.03709777770750224,-0.31131299744620916
1763690867666409000,7.761408935546875,-0.26717209629416466,0.04979636963047087,-0.4014759373217821
1763690867676430800,7.771430908203125,-0.2944698530644178,0.13196502281650901,-0.31494214772880075
1763690867686453000,7.781452880859375,-0.26529811911582946,0.1372922091886401,-0.17717822937518357
1763690867696475100,7.79147509765625,-0.3086404172360897,0.014018369284644722,-0.001217266835272312
1763690867706497000,7.8014970703125,-0.3417833929032087,-0.13139094925560058,0.05499211164265871
1763690867716519200,7.811519287109375,-0.35445173581838607,-0.19953275758959352,0.09029796443209051
1763690867726541000,7.821541015625,-0.43013446105122566,-0.21848018077425657,0.008876111025363207
1763690867736563000,7.83156298828125,-0.5352116230726242,-0.11853738596662879,-0.13148703004121778
1763690867746584800,7.841584716796875,-0.517335774642229,0.04733524021394551,-0.28350393015295267
1763690867756608000,7.85160791015625,0.015875030001997945,0.30298772523663936,-0.5456726652018725
1763690867766630000,7.8616298828125,-0.04081950164437294,0.6510230912066995,-0.48447424626499414
1763690867776652000,7.871652099609375,2.128482685279846,0.32644480786547064,-0.460680698223412
1763690867786674000,7.881673828125,1.1191361313879489,0.6242712778814137,-0.6899306217499077
1763690867796696000,7.891696044921875,0.7694085014820098,0.30509529197514057,-0.2115060309126973
1763690867806718200,7.90171826171875,0.7897036860138178,0.04320084382295608,0.13990911368876696
1763690867816740000,7.911739990234375,0.7082885546088218,-0.5021536953404545,0.8969443096794187
1763690867826762000,7.921761962890625,0.13869476946294307,-1.1492742261506617,0.7855977119997143
1763690867836783900,7.931783935546875,0.0001613280415534973,-1.3695134524866939,0.5707157749131322
1763690867846806000,7.941805908203125,0.22182722617983816,-0.9881523746937513,0.5525251614451409
1763690867856828000,7.951827880859375,0.35105391007363795,-0.3997276323497295,0.7961946554683148
1763690867866849800,7.961849853515625,0.29224691631793975,-0.1409476629562676,0.6060530457541347
1763690867876872000,7.971871826171875,0.30819618059992787,0.03354322703108191,0.18842077727094292
1763690867886894800,7.981894775390625,0.3101806324154138,0.0710815150476992,-0.35222163867875933
1763690867896917000,7.9919169921875,0.19396599030792713,0.07871712449267507,-0.7394315886303782
1763690867906939100,8.001939208984375,0.08636252467930317,0.07029547923654317,-0.6018761984609067
1763690867916961000,8.0119609375,0.03517418923377991,0.15519173075556755,-0.3126138509117067
1763690867926983200,8.021983154296874,0.02349018118083477,0.303418737065047,-0.13012129464596509
1763690867937005000,8.032005126953125,0.006854103678464889,0.38462723998203874,-0.0957404477469623
1763690867947027000,8.04202685546875,0.03450257358253002,0.39904797952249643,-0.006730331168323755
1763690867957048800,8.052048828125,0.05276069932878017,0.24209376913905142,0.10093070986643433
1763690867967071000,8.062071044921876,-0.03690554307103157,0.06462196364477277,0.05792480409368872
1763690867977092900,8.0720927734375,-0.08168927217125892,-0.1254546180091798,-0.06357610785365105
1763690867987115000,8.082114990234375,-0.023044190979003905,-0.36568449297249317,-0.11784589657112955
1763690867997137200,8.09213720703125,0.09540507831275463,-0.5793037166468799,-0.009210749807208776
1763690868007159000,8.102158935546875,0.19473171398341654,-0.5473993428640067,0.3283098710849881
1763690868017182200,8.11218212890625,0.2726800460606813,-0.40426381447464227,0.6046795654438436
1763690868027204000,8.1222041015625,0.24164485632777213,-0.3555105972215533,0.43004232578836377
1763690868037226000,8.13222607421875,0.31709844897985456,-0.2736047596901655,0.4925258160997182
1763690868047248000,8.142247802734374,0.37697453327178954,-0.13484876155927777,0.3481744821798056
1763690868057270000,8.15227001953125,0.3914806130081415,-0.16432649271711705,0.09403554352521896
1763690868067292000,8.1622919921875,0.8424842590868472,-0.12683613549545406,-0.042724093156680465
1763690868077313800,8.172313720703125,-1.6479314576774835,0.5166828636914491,-0.3339177740946412
1763690868087336000,8.1823359375,-1.2796540256023405,0.6302602891631424,-1.0558088106635957
1763690868097358000,8.192358154296874,-1.1862345681488513,0.5259906441323459,-0.7983299869965761
1763690868107380000,8.2023798828125,-1.7107020943671465,0.40741584876477716,-0.12403397408891469
1763690868117402000,8.212402099609376,-1.8721254129886626,0.1305776601113379,0.338049174810946
1763690868127424000,8.222424072265625,-1.6512065338253974,-0.021606851652264593,0.0958258427417837
1763690868137446000,8.23244580078125,-1.311750122565031,0.10547799790725111,-0.4550510217733681
1763690868147468000,8.242468017578124,-1.3548358155757187,0.2147369756579399,-0.47450376413166523
1763690868157491000,8.252490966796875,-1.925982675382495,0.13575842375010252,0.3307908377131447
1763690868167512800,8.262512939453124,-1.5917548124253749,0.1532568171702325,0.4410600519523024
1763690868177535000,8.272534912109375,0.10735913547873496,0.7733129615746438,0.24366222403217105
1763690868187556900,8.282556884765626,0.38289574001431465,0.542153405034542,1.380336605926603
1763690868197579000,8.2925791015625,-0.9379670788109302,0.2800343543462455,-0.4176057458024472
1763690868207601200,8.30260107421875,-0.7802180647879838,-0.06500825954861938,-1.007117698861286
1763690868217623000,8.312623046875,-0.6527718345701694,0.019976985428109766,-0.7867210169412195
1763690868227645000,8.32264501953125,-0.5521043056845665,0.0203451611533761,-0.20304419977664948
1763690868237667000,8.3326669921875,-0.4329436732530594,-0.1408146842263639,0.5008555452886968
1763690868247689000,8.34268896484375,0.19259119482338427,0.011599398509413003,0.6013822043988853
1763690868257710800,8.3527109375,-0.7066653373211622,0.0938197818826884,0.8603712134331464
1763690868267733000,8.36273291015625,-0.8743325187683105,0.049037331424094735,1.2632435735493899
1763690868277755100,8.372755126953125,-0.04111643876433372,0.11383136370014399,1.2504726470425724
1763690868287777000,8.382777099609376,-0.4482745133757591,0.15010825347881762,1.293321900948882
1763690868297800200,8.39280029296875,-0.955239116129279,0.23207986798910424,1.2742093503303824
1763690868307822000,8.402822021484376,-1.4989111090332268,0.08183364907801151,0.6546529721416533
1763690868317844000,8.412843994140625,-2.813818818846345,-0.15135782428164965,-0.1716813124593347
1763690868327866000,8.4228662109375,-1.354562843853235,-0.012397814311529509,-0.23503603264726697
1763690868337888000,8.432887939453124,-0.6759487120181322,0.11717159577244891,0.1259412324823439
1763690868347910000,8.442909912109375,-0.15898469329774378,-0.025518600002210585,0.7290362321484833
1763690868357932000,8.45293212890625,0.9485025013506412,-0.24105346630588173,0.6560372661069035
1763690868367954000,8.462953857421875,1.8220207811266182,-0.3799380592525005,0.5761972750641405
1763690868377976000,8.47297607421875,1.4265595740497112,-0.839992296140641,0.3231777688935399
1763690868387998200,8.482998291015624,1.136025306868553,-0.8021822054453194,0.29475509974658487
1763690868398020000,8.49302001953125,0.3894944076269865,-0.3830278419613838,1.0794912264809011
1763690868408042000,8.5030419921875,-0.022657822009921072,-0.3310532515089959,1.770477933155
1763690868418064100,8.513064208984375,0.7676771476447581,-0.9897445392560213,1.669784393045306
1763690868428087000,8.523087158203126,0.6228010591983795,-0.9328370224460959,0.6541719106264412
1763690868438109000,8.53310888671875,-0.5693424407333135,-0.725212728337571,-0.10485314400717616
1763690868448131000,8.543131103515625,-1.5464952825069427,-0.5258771738205105,-0.3405217024043202
1763690868458153000,8.553153076171874,-1.3781465485364197,-0.38229108865205197,-0.09060644585937261
1763690868468174800,8.5631748046875,-0.13901450293660164,-0.49917723681293424,0.46207975136637686
1763690868478197000,8.573197021484376,1.0114005638122558,-0.4530187852934003,0.8788950043782592
1763690868488219100,8.58321923828125,3.4365748698592182,-0.4862622987255454,1.2880837080344556
1763690868498241000,8.593240966796875,4.011147027939558,-0.6606484131641686,1.263526482143998
1763690868508263200,8.60326318359375,1.6186287908256054,0.11224073350783437,0.9037985594883561
1763690868518285000,8.61328515625,-0.2653191619038582,0.7106073529452085,0.8099149916544556
1763690868528307000,8.623306884765626,-1.0078402409821747,1.184907411198318,0.4179293517336249
1763690868538328800,8.633328857421875,-0.6207160696178674,0.9129385821469128,-0.3762167006418109
1763690868548351000,8.64335107421875,-0.6919084976941346,0.14957641162443905,-0.12910510334074496
1763690868558372900,8.653372802734374,-0.47142158020734787,-0.24935323874801396,-0.2937055906936526
1763690868568396000,8.66339599609375,-0.32527240308523175,-0.5516210522122681,-0.7105740351974964
1763690868578418000,8.67341796875,1.0734990003287792,-1.0726429680213332,-0.8116267640084027
1763690868588440000,8.683440185546875,0.6132856273561715,-1.3301352356918155,-0.01990998460650444
1763690868598462200,8.693462158203126,0.8300164071798324,-1.614570016954094,0.22553192591667173
1763690868608484000,8.703484130859374,1.0062918424963951,-0.742960639539361,-0.7619067475497722
1763690868618506000,8.713506103515625,1.1433066960483789,0.8315401826810092,-1.21506055739969
1763690868628528400,8.7235283203125,1.3102011395573616,0.9755374424662441,-1.163081071576476
1763690868638550300,8.73355029296875,1.0920815357238054,0.6999001540351658,-0.9860679696351289
1763690868648572200,8.743572265625,1.0950450617045164,0.394334102743119,-0.6387184670373797
1763690868658594000,8.753593994140624,0.5715788214832545,-0.15851751417741178,0.2512397831469774
1763690868668616200,8.7636162109375,0.23820728309452532,-0.8796130164545028,1.0824670274212955
1763690868678638300,8.773638427734374,0.15571020167171953,-1.0910987352315336,1.2418524104744195
1763690868688660200,8.78366015625,0.1107604683548212,-1.2145973238021135,1.4114558206811547
1763690868698682400,8.793682373046876,0.2513531803935766,-0.7871451606374233,1.389556415823102
1763690868708704300,8.803704345703125,0.3150187200963497,0.010717336711566895,1.1870415006175636
1763690868718727400,8.8137275390625,0.2560369542956352,-1.3177668986365199,1.2347677129104733
1763690868728749300,8.823749267578124,0.1741641422510147,-2.8103406213417648,0.42619273768812416
1763690868738771200,8.833771240234375,-1.676220563572645,-2.0664634514793754,-0.1755629031330347
1763690868748793300,8.84379345703125,-0.39582010351717467,-0.3328553324948996,-0.2694558233171701
1763690868758815200,8.853815185546875,-0.42665304867625237,0.6147449593190103,0.3479305173560977
1763690868768837000,8.863837158203125,-0.3709247317135334,0.7877185766112059,1.1565727125957608
1763690868778859300,8.873859375,0.24084464586079118,0.4146813827883452,1.0798147593468428
1763690868788881400,8.88388134765625,0.5577770906239747,-0.19595250621633603,0.8038689894884824
1763690868798903300,8.8939033203125,0.42648353732824323,-0.5790844478730112,0.7089607547819614
1763690868808925200,8.90392529296875,0.4273837010383606,-0.95920283212848,1.1049538767784832
1763690868818947300,8.913947265625,0.8304132975429296,-1.3823606591001152,1.8833102393478154
1763690868828969200,8.92396923828125,1.1060346577525138,-1.549525443983078,2.1954852604508397
1763690868838991000,8.9339912109375,1.1288970624238253,-1.6264821346744893,1.969567550086975
1763690868849013200,8.94401318359375,1.5054729517668484,-1.7040804842703043,2.230840066948533
1763690868859036200,8.9540361328125,1.250138008260727,-1.6333642954036593,2.2835130879938603
1763690868869058000,8.96405810546875,0.8674655556082725,-1.239238720844686,1.3812608811646698
1763690868879080200,8.974080078125,0.7181500234097242,-0.8860032289482652,0.3435971643269062
1763690868889102300,8.984102294921875,0.24931670612990856,-1.2179057176977395,-0.12094634680449962
1763690868899124200,8.994124267578124,-0.22489947323203086,-1.645685140055418,0.38304362405240533
1763690868909146400,9.004146484375,-0.3703922322720289,-1.842351621493697,1.2813251736849545
1763690868919168300,9.014168212890626,-0.5255132358789444,-1.8330531934030352,1.247107262262702
1763690868929190100,9.024190185546875,-0.5370078588396311,-1.5888102834060787,0.8144383142977952
1763690868939212300,9.03421240234375,-0.8853601087391376,-1.5662994686514138,0.19180179801136255
1763690868949234200,9.044234130859374,-1.3059066572338343,-1.2851882788538933,-0.7504135858938098
1763690868959256000,9.054256103515625,-1.0671551842600107,-0.8121316447906196,-1.3967635707229376
1763690868969278200,9.0642783203125,-0.8630266963779926,-0.956055254817754,-2.418349428462982
1763690868979300400,9.07430029296875,-0.8311468725144863,-1.2433403109446166,-2.757200859567523
1763690868989322200,9.084322265625,-0.5196574955880642,-2.1153657218143342,-1.888365184649825
1763690868999344400,9.094344482421874,-0.31525486693978305,-2.8386960704714057,-0.38754444260299203
1763690869009367300,9.1043671875,-0.4245972851902246,-3.2979581340685487,1.2413099741607905
1763690869019389200,9.11438916015625,-0.7593781058549881,-2.85307677026242,1.107488948214054
1763690869029411300,9.124411376953125,-1.093794184860587,-1.4421914429455995,0.42564124128520486
1763690869039433200,9.13443310546875,-1.280938220193982,-0.5216483771443367,-0.5901350533932447
1763690869049455000,9.144455078125,-1.1961404606133699,-0.17422127926573155,-1.3022668394267558
1763690869059477200,9.154477294921875,-1.1382780542314053,0.10837313482686876,-1.6012801811397075
1763690869069499100,9.1644990234375,-0.9537374793946742,0.41212870263084767,-2.179770389446616
1763690869079521300,9.174521240234375,-1.3857669604122638,0.8348682311251759,-2.4937229416161775
1763690869089543400,9.18454345703125,-0.9599036008089781,0.48780309842675923,-2.5660329755455256
1763690869099565300,9.1945654296875,0.06795008515417575,-0.5812054586149752,-1.5205699831336736
1763690869109587200,9.204587158203125,-0.4419745364487171,-1.7106252297386526,0.21859832726120948
1763690869119609300,9.214609375,-0.6781669725894928,-1.2670232382185755,0.5383119271755218
1763690869129631200,9.22463134765625,-1.065940547773242,-0.16818842884227633,-0.07022738243639469
1763690869139653000,9.234653076171876,-1.2688000386327505,0.6590951923727989,-1.02442897221148
1763690869149675000,9.244675048828125,-1.1643033068478106,1.1072156842306256,-1.91327224689126
1763690869159698200,9.2546982421875,-0.9536194059729576,1.2217381354674697,-2.8326076904684303
1763690869169720000,9.264719970703124,-0.4913409171640873,1.5200386527359484,-3.706374392047524
1763690869179742500,9.274742431640625,-0.0007306523621082306,1.763465716305375,-4.010685840168595
1763690869189764400,9.284764404296874,0.1652373239517212,1.4144924118980764,-3.1422955709308384
1763690869199786200,9.2947861328125,0.13157704641222953,0.867235253983736,-2.2313035928070546
1763690869209808400,9.304808349609376,-0.004618307450413704,0.5002186356246471,-1.5081822107255458
1763690869219830300,9.314830322265625,-0.17133797891438007,0.24518530541360375,-0.6257575709164143
1763690869229852200,9.32485205078125,-0.10537819079458713,0.20588848329186438,-0.34455987187922
1763690869239874300,9.334874267578124,-0.09539221883118153,0.46973728038221596,-0.4711491930067539
1763690869249896200,9.344896240234375,-0.030490415331721303,0.9649863109007477,-0.8699766616463661
1763690869259918300,9.35491845703125,0.32114334045648574,1.5147528212875128,-1.2577139964729547
1763690869269940200,9.364940185546875,0.6137088212043047,1.9954086783081293,-1.4777835653305054
1763690869279962400,9.37496240234375,0.8214215973138809,2.1907301748782393,-1.6808149056255817
1763690869289984300,9.384984375,1.00346626368165,2.0205691307887435,-1.567832085046172
1763690869300006100,9.395006103515625,0.9793810392171144,1.4385031098216772,-0.9009604134529828
1763690869310029300,9.405029296875,0.6376145974487066,0.9237459534958005,-0.13171499357819558
1763690869320051200,9.41505126953125,0.3204220404446125,0.9818073895812034,-0.03407996425628662
1763690869330073300,9.4250732421875,0.16646657348573207,1.257476680585742,-0.37056408170759675
1763690869340095200,9.43509521484375,0.27485212940275666,1.4132561481013892,-0.7260124273478984
1763690869350117000,9.4451171875,0.6718342624366282,1.414842248249054,-0.7225123102724552
1763690869360139000,9.455138916015626,0.8529618139594792,1.3893231915891169,-0.5693804346561432
1763690869370161400,9.465161376953125,1.146432134592533,1.4281427515879273,-0.6285708747714758
1763690869380183300,9.475183349609376,1.3155869242489338,1.493613879407942,-0.7024427511900663
1763690869390205200,9.485205078125,1.541599327158928,1.6499334451496601,-0.9745546419739722
1763690869400227300,9.495227294921875,1.7606103268742561,1.719429298441112,-0.8362959258407354
1763690869410249200,9.505249267578124,1.8225912744909525,1.5410852401569484,-0.1413520059734583
1763690869420271000,9.51527099609375,1.9595184497594833,1.3121627950191497,0.6660276219844817
1763690869430293200,9.525293212890626,1.916812111455202,0.9773454417362809,1.4748293917000292
1763690869440315100,9.535315185546875,1.943437083530426,0.7463999663382768,1.927826841944456
1763690869450337300,9.545337158203125,2.0183733743101357,0.7795835662767291,2.320039860880375
1763690869460360200,9.555360107421874,2.1120745713144538,0.9533011338040233,2.497509474417567
1763690869470382300,9.56538232421875,2.327684238153696,0.9758958274498581,2.56514800940454
1763690869480404200,9.575404296875,2.7758792565524577,0.569384526309371,2.479499185952544
1763690869490426400,9.58542626953125,2.888202151918411,-0.04271744422018528,2.290903782767057
1763690869500448300,9.5954482421875,2.7861726870298384,-0.3271434576541185,1.9154186112701892
1763690869510470100,9.60547021484375,2.610693370527029,-0.4810846038267016,1.5852391469210385
1763690869520492300,9.6154921875,2.5295161395311356,-0.544193970951438,1.3717460338443517
1763690869530514200,9.62551416015625,2.534583944314718,-0.44781449464857576,1.247607028478384
1763690869540536000,9.6355361328125,2.589529001945257,-0.26919161942303177,1.229663960030675
1763690869550558200,9.64555810546875,2.621460263735056,-0.22475948023945092,1.261374272546172
1763690869560580400,9.655580322265624,2.5246499947994945,-0.3186825033009052,1.4637141234457491
1763690869570602200,9.665602294921875,2.269518464910984,-0.40913668120801444,1.6094728399455547
1763690869580624400,9.675624267578126,1.9736486819207668,-0.5075397722929715,1.444193430417776
1763690869590646300,9.685646240234375,1.717552690914273,-0.4652490290522575,0.9668898064345121
1763690869600668200,9.695668212890626,1.4136644366413353,-0.39191695859879255,0.3727057699114084
1763690869610690300,9.705690185546874,1.0907260294616221,-0.2735764103785157,-0.3127507751643657
1763690869620713200,9.715713134765625,0.8553963476300239,-0.05364215833842754,-1.1060293970555066
1763690869630735400,9.7257353515625,0.5792524248510599,0.23630378756076095,-1.8234622121065853
1763690869640757500,9.735757568359375,-0.1128998184710741,0.45659810508489607,-2.327316573885083
1763690869650779400,9.745779296875,-0.743704735904932,0.5851873678579926,-2.6314965045809746
1763690869660801500,9.755801513671875,-1.1562059251099823,0.48299832849353547,-2.627632230368256
1763690869670823700,9.76582373046875,-1.603918128427863,0.2723969913356006,-2.4598130732297894
1763690869680845600,9.775845458984374,-2.0728747798264027,0.21526538344621657,-2.269177104127407
1763690869690867500,9.785867431640625,-2.5012872393906114,0.15458689673021433,-1.9622335539370774
1763690869700889300,9.795889404296876,-2.863126747372746,0.16051073382124303,-1.659666903656721
1763690869710911500,9.805911376953125,-3.1653058596402404,0.39344562947079537,-1.479895442917943
1763690869720933400,9.815933349609375,-3.2527240308523178,0.8180958138920367,-1.499765095514059
1763690869730955300,9.825955322265624,-3.0285856051206586,0.8436956807032227,-1.6628192302078009
1763690869740977400,9.835977294921875,-2.7616215986192225,0.6233076935462654,-1.8397189349025487
1763690869750999600,9.84599951171875,-2.7576906889110804,0.47126112894862887,-1.8873253202080726
1763690869761021400,9.856021484375,-2.9201731611967086,0.503773697757721,-1.800605652654171
1763690869771043600,9.866043701171876,-2.965243306022882,0.7817996348910033,-1.8155986391246317
1763690869781066500,9.87606640625,-3.0360499496519564,1.0204138913512228,-1.8203163152962922
1763690869791088400,9.88608837890625,-3.1303356685459613,0.908463044168055,-1.7046499547213314
1763690869801110500,9.896110595703124,-3.0307120957553386,0.5661271319486201,-1.4008411954253912
1763690869811132400,9.90613232421875,-2.9288258387297392,-0.005435907443612813,-0.785356012198329
1763690869821154300,9.916154296875,-2.8541747946321965,-0.7693363130286336,-0.018051789519190786
1763690869831176400,9.926176513671875,-2.756307125598192,-1.354610628517717,0.6352537135362625
1763690869841198300,9.9361982421875,-2.5304227329820392,-1.3812956602171063,1.0875351244658231
1763690869851220500,9.946220458984374,-2.111001973646879,-1.0807834582485258,1.2737176212906838
1763690869861242600,9.95624267578125,-1.3892507108747958,-0.8898882536880671,1.3244792557567358
1763690869871264500,9.966264404296876,-0.5835515833497047,-0.9448802192002534,1.3797235885947943
1763690869881286400,9.976286376953125,0.15612930386662482,-1.1918667288169265,1.506380129739642
1763690869891308500,9.98630859375,0.7511936303555965,-1.1748019045084714,1.434961491692066
1763690869901330400,9.996330322265624,1.2553928600490092,-0.7463178410127759,1.0279600689470767
1763690869911352300,10.006352294921875,1.6810779404759406,-0.662965750195831,0.7213508652776479
1763690869921374500,10.01637451171875,2.552860774761438,-1.2012997430726886,1.356396489021182
1763690869931396600,10.026396728515625,8.0926693223536,-4.463119226789474,11.540776809096336
1763690869941419300,10.036419189453126,4.3823938312143085,-0.7648173742994666,2.550471833798289
1763690869951441400,10.04644140625,2.4032570732712744,1.0341744134172797,5.439447308176756
1763690869961463600,10.056463623046875,2.981836128905415,-0.43661943915635343,3.564639524236321
1763690869971485400,10.0664853515625,3.4748671911135314,-0.7832403352186084,-0.38018940366506576
1763690869981507600,10.076507568359375,2.2935776781514288,0.42060850781500336,-2.4145447754830123
1763690869991529500,10.086529541015626,2.172580185681581,-0.2593772046342492,-2.9677304466634986
1763690870001551400,10.09655126953125,1.719940170572698,-1.125309267064929,-3.1197809567838903
1763690870011573500,10.106573486328125,1.3640975649178027,-1.7564073222264647,-2.8546424121439453
1763690870021595400,10.116595458984374,1.3042197270601987,-1.6686960132867097,-1.30472066231966
1763690870031617300,10.1266171875,1.5973656380444765,-1.5283461700931191,-0.26157997537553307
1763690870041639700,10.1366396484375,1.8181401403009891,-1.1471467126026749,0.1521662454545498
1763690870051661600,10.14666162109375,1.7709347370117903,-0.6547466417744755,0.5910398932784795
1763690870061683500,10.156683349609375,1.7737860347896812,-0.1139846910983324,0.8379314180880785
1763690870071705300,10.166705322265624,1.8066501935154198,0.7018550144299864,0.6730582512736321
1763690870081727500,10.1767275390625,1.6231494831204414,1.4184940487548707,0.3212760269254446
1763690870091749400,10.186749267578126,1.328581722639501,1.811045798125863,-0.0653776043176651
1763690870101771300,10.196771240234375,0.9665034374654292,2.1023472502872345,-0.4026420584917068
1763690870111794400,10.20679443359375,0.577668955051899,2.2022584078475833,-0.679399144732952
1763690870121816300,10.21681640625,0.2885246809244156,2.4380323263153434,-1.0158289016485214
1763690870131838500,10.22683837890625,0.17905951307713985,2.519518769390881,-1.370807291689515
1763690870141860600,10.236860595703124,0.03831424082517624,2.0388816170707345,-1.4090145650088786
1763690870151882500,10.246882568359375,-0.135738842266798,1.455667010590434,-1.4638029707729816
1763690870161904600,10.256904541015626,-0.34378771846294404,1.2913517699196935,-1.7066636326313018
1763690870171926500,10.266926513671875,-0.6237783797979355,1.3451309986412525,-2.0270091007083653
1763690870181948400,10.276948486328125,-0.6964002561554312,1.2495556783281265,-2.399887304577231
1763690870191970300,10.28697021484375,-0.7019008993983268,1.1081040113724767,-2.7214193520903587
1763690870201992400,10.296992431640625,-0.7658931868374347,0.7948137225039302,-2.8664439090967178
1763690870212014300,10.307014404296876,-0.8197077791333198,0.41067441216930745,-2.795273108330369
1763690870222036500,10.317036376953125,-0.9131845197319984,0.036557898677140474,-2.559499189862609
1763690870232058600,10.32705859375,-1.2612465545132756,-0.36105756382420656,-2.2472218774288892
1763690870242080500,10.33708056640625,-1.531852424648404,-0.6831256179101765,-1.9319974056273697
1763690870252102400,10.347102294921875,-1.6615864735424517,-0.8113510158069431,-1.7007348271042106
1763690870262124500,10.35712451171875,-1.6892577398002147,-0.8992229221358895,-1.4722387906849383
1763690870272146400,10.367146484375,-1.6133534807711838,-1.1124113531775772,-1.051645480439067
1763690870282169300,10.37716943359375,-1.4901272063359616,-1.4112398398429153,-0.5720598829984664
1763690870292191500,10.38719140625,-1.3319468151584266,-1.736468842177838,-0.001967500680685043
1763690870302213400,10.39721337890625,-0.9310480932027101,-2.049190245117247,0.6582797843366861
1763690870312235300,10.4072353515625,-0.7473264335334301,-2.0196791962116953,0.8845236579149961
1763690870322257400,10.41725732421875,-0.6432417896807193,-1.899569154100865,1.1322586478114127
1763690870332279600,10.427279541015626,-0.6028326224029064,-1.918562316123396,1.4949042114794253
1763690870342301400,10.437301513671875,-0.45992578820288177,-1.9873837772846221,1.723640486395359
1763690870352323600,10.447323486328125,-0.4204486410781741,-1.968918730789423,2.0403356152713297
1763690870362345500,10.457345458984374,-0.48844753381013867,-2.0260805876865984,2.382045358416438
1763690870372367400,10.467367431640625,-0.6105407125622033,-2.182322119756043,2.6128005719393492
1763690870382389500,10.477389404296876,-0.5648205793946981,-2.203777580238879,2.6172312478631734
1763690870392411400,10.487411376953125,-0.32600013283789153,-1.8980156410485505,2.404492168024182
1763690870402433300,10.497433349609375,-0.03976502415537834,-1.5578127953350542,2.172123674085736
1763690870412455700,10.50745556640625,0.13901187258809805,-1.2927020154848694,2.091160962623358
1763690870422477600,10.5174775390625,0.1927270961627364,-1.1548900202058254,2.22099788736999
1763690870432499500,10.52749951171875,0.16037497861236333,-1.1997932840324939,2.4058991122126576
1763690870442521600,10.537521484375,0.8447510349750519,-1.2123061441250145,2.629960965576768
1763690870452544500,10.54754443359375,2.8703981996804475,-1.5135992673382161,2.8550059847593308
1763690870462566400,10.55756640625,-0.7205337036758661,-0.05010536251440644,2.917158197289705
1763690870472588500,10.567588623046875,-1.411382463183999,0.8156579192206264,2.171194868803024
1763690870482610400,10.5776103515625,-0.7040531089961528,-0.45523441551625726,1.9768495237886905
1763690870492632300,10.58763232421875,-0.2781087931111455,-0.7781526566907763,1.84564715590775
1763690870502654500,10.597654541015626,-0.14778876102268695,-0.8560979200281202,1.717830923333764
1763690870512676400,10.60767626953125,-0.3724982646405697,-0.9276444222390651,1.820999036863446
1763690870522698500,10.617698486328125,-0.8378469546750187,-0.8756316186681389,1.7756003907352684
1763690870532720600,10.627720703125,-1.0864601887106895,-0.6409823203161359,1.3985411017894744
1763690870542742500,10.637742431640625,-1.1348325899526477,-0.2860958463422954,0.6978080771267414
1763690870552764400,10.647764404296876,-1.0216627223685384,-0.18450024282634256,-0.04261398384571075
1763690870562786300,10.657786376953124,-0.6828311650082468,0.02941869444698095,-0.7882616705119609
1763690870572808400,10.667808349609375,-0.4155950635671615,0.3305971052393317,-1.4731255103915928
1763690870582830300,10.677830322265624,-0.22913550336658953,0.5049208219662309,-1.8089765906363724
1763690870592852500,10.6878525390625,-0.0012187281399965286,0.45570817050784823,-1.5370733741670846
1763690870602874600,10.69787451171875,-0.014147183296084402,0.39943244879543777,-1.0393108995229006
1763690870612896500,10.707896484375,0.6813505710616707,0.6063061437323689,-0.525209869018197
1763690870622919700,10.717919677734375,2.0104586556628345,1.2393304907813667,-0.2546037066221237
1763690870632940500,10.7279404296875,2.0953560762256385,1.7704045756578444,0.4776327098071575
1763690870642962700,10.737962646484375,2.0127876831322906,1.8618436729490755,1.101841882237792
1763690870652984600,10.747984619140626,1.1467112437948583,1.921260030774772,1.173370410400629
1763690870663006500,10.75800634765625,0.8432800856396555,1.6340388336643576,-0.1106821424216032
1763690870673028400,10.7680283203125,0.47674160618633027,1.669036497287452,-2.7946412401676177
1763690870683050800,10.77805078125,0.22425942176282404,1.5302856137230991,-5.898139170670509
1763690870693072600,10.78807275390625,-0.18982173011004924,0.736168202920258,-6.351961965823173
1763690870703094500,10.798094482421876,-0.11812018346786499,0.05132452904582023,-5.862426052254438
1763690870713116700,10.80811669921875,-0.09444149397760629,-1.2569970803752541,-3.135164988398552
1763690870723138600,10.818138671875,0.35545974381715056,-1.8421175204768776,-0.9627180737078189
1763690870733160400,10.828160400390624,0.6595291998758912,-1.6220418141394852,-0.35910920623540876
1763690870743182600,10.8381826171875,0.6791998227685689,-1.1110647608742117,0.520944612789154
1763690870753204500,10.84820458984375,0.4794026420891285,-0.630939065207541,0.860336726641655
1763690870763226600,10.8582265625,0.017261515924334524,-0.6514461389243602,0.9872142170608043
1763690870773248800,10.868248779296875,-1.0074155858293175,-1.359182904869318,1.6546417689710855
1763690870783270700,10.878270751953124,-1.0269213735491036,-2.0496280520126224,1.5350152725934982
1763690870793292500,10.88829248046875,-1.5408349186576902,-2.5903654527693987,0.7476245396971702
1763690870803315700,10.898315673828124,-2.472432316306233,-2.8485329893529414,1.209193418931961
1763690870813337600,10.908337646484375,-3.089236765438318,-2.757704717436433,2.3469968413889406
1763690870823359500,10.918359375,-3.2172809615492817,-1.7581033124893903,2.5668045444399117
1763690870833381600,10.928381591796875,-3.9600346803396937,-0.35904257073998447,2.65377263379693
1763690870843403500,10.938403564453125,-3.2778064496606585,1.136081420969963,2.215188324308395
1763690870853425400,10.94842529296875,-1.917090343874693,2.2369962514907122,1.4241402379482984
1763690870863447600,10.958447509765625,1.4338830488055943,2.7214778042793273,0.44726504407227036
1763690870873469700,10.9684697265625,3.8219407993793486,2.8023066602289677,-0.5920908636361361
1763690870883491600,10.97849169921875,3.1733120559632777,3.007801175767183,-1.718175791248679
1763690870893513700,10.988513671875,2.3364520664989947,3.666077452972531,-3.7179081779748198
1763690870903535600,10.99853564453125,1.765909017804265,3.7739217416197057,-4.083770950123667
1763690870913557500,11.0085576171875,1.284461133623123,2.6452619950830933,-4.0875323484838
1763690870923579600,11.01857958984375,2.2754496085256335,2.253096906942129,-2.9587007525116205
1763690870933601500,11.0286015625,2.0817074901014565,2.1329034243315457,-1.357470840254426
1763690870943623400,11.03862353515625,1.772115471228957,1.4705436772048472,-1.7525374950557946
1763690870953645600,11.0486455078125,1.107528111180663,1.5806886440098284,-2.0034785875171424
1763690870963667700,11.058667724609375,1.2293757907390594,2.3586311650812624,-2.9302818827569483
1763690870973689600,11.068689697265626,1.001387119320035,2.999123948314786,-2.699922390553355
1763690870983711500,11.07871142578125,0.8014549871493131,3.432123735669255,-1.9578964015156028
1763690870993734700,11.088734619140626,-0.009687281277775763,3.3035324270695448,-1.3785592209905386
1763690871003756500,11.098756591796874,-0.9781131381731479,2.845534392058849,-0.8079287862733006
1763690871013778700,11.10877880859375,-0.05808810489661991,0.8577525553673505,-0.2158724094286561
1763690871023800600,11.118800537109376,0.7376449974745511,-0.1944984897494316,0.09049275635182857
1763690871033822500,11.128822509765625,0.8099941943705081,-0.5008797298818827,-0.3249816034451127
1763690871043844600,11.1388447265625,0.8429963002622127,-0.47336043931543825,-0.5689408741950989
1763690871053866800,11.14886669921875,0.4925292501658201,-0.4353261844754219,-0.7598115288361906
1763690871063888600,11.158888671875,0.10896657067537308,-0.4645698146164417,-0.24239655147790906
1763690871073910500,11.16891064453125,1.3446055134624242,0.02532967156767845,0.8606412625461817
1763690871083932700,11.1789326171875,1.5787464239008724,1.3365215757280586,2.3469883658215402
1763690871093954600,11.18895458984375,-1.5759987326279281,2.3950866262972355,2.774972078579664
1763690871103976400,11.1989765625,-2.270586970925331,-0.042830841466784474,3.9123169436141847
1763690871113998600,11.20899853515625,-1.1417914691798388,-1.7822084106981753,1.877094725833833
1763690871124020500,11.2190205078125,-2.0668284853994847,-3.5509757405430076,-0.5312655157953501
1763690871134042600,11.229042724609375,-1.4191935753263532,-5.071918648642301,-2.2230223789349197
1763690871144064800,11.239064697265626,-0.8990485884822904,-5.488181236207485,-3.0337372887954115
1763690871154086700,11.249086669921875,-0.47219607171118255,-5.552026224130392,-2.716827055864036
1763690871164108500,11.259108642578125,0.6202418762348592,-4.124157905569672,-1.8730752610594033
1763690871174130700,11.269130615234374,1.0977915839336811,-2.3080928179770708,-0.1998918732255697
1763690871184153600,11.279153564453125,1.367983466440439,-1.7494675860911606,0.26292379119992254
1763690871194175500,11.289175537109376,1.3305804952412843,-1.260844695714116,-0.12637158672362564
1763690871204197600,11.29919775390625,0.8363257364571094,-0.6478840625286102,-0.6685758451625704
1763690871214219500,11.309219482421875,0.21517127542197703,0.0415706122726202,-0.924988939294219
1763690871224241400,11.319241455078124,-0.3455956446677446,1.110737720876932,-1.0850856854870914
1763690871234263600,11.329263671875,0.032712183034420014,2.447301382181048,-1.741296554595232
1763690871244285700,11.33928564453125,-0.07618709455840289,2.556364983490109,-1.5548539455294608
1763690871254307600,11.3493076171875,-0.7460865895401686,1.8419126455545425,-1.4674150237902999
1763690871264329700,11.359329833984376,-1.9729455020874738,1.8946663306206464,-2.255131335379183
1763690871274351600,11.3693515625,-0.2958464021146297,2.882641010659933,-2.4642314741939306
1763690871284373500,11.37937353515625,3.0611569183796643,0.8664876504868269,-2.479564944665134
1763690871294395600,11.389395751953124,-0.3967180022049695,-0.6817302180290222,-2.0333409340783954
1763690871304417500,11.39941748046875,0.003853752818703651,-0.07052548860013484,-1.2160200500816105
1763690871314439400,11.409439453125,1.7827584457963703,-0.20987258449196813,0.6900625775665045
1763690871324461800,11.4194619140625,0.6835550953686237,-0.31052023963332176,1.2320295201182365
1763690871334483700,11.429483642578125,1.2971435050636528,0.8952408667623997,-0.5347112723350524
1763690871344505600,11.439505615234374,0.5255815884074196,0.7587059056818485,-0.060666504017263645
1763690871354527500,11.449527587890625,0.17454872112181036,0.44104105499088764,-0.09574293196499348
1763690871364549600,11.459549560546876,0.08279109593331814,0.2543874335229397,-0.15014423810765146
1763690871374571500,11.469571533203125,0.3040776758978143,0.2774041519731283,-0.6780329709462821
1763690871384594700,11.4795947265625,0.1340133336484432,0.549007508713007,-0.912846812210232
1763690871394616600,11.489616455078124,-0.20848317596018312,-0.22284020261466503,-0.3912982421785593
1763690871404638500,11.499638427734375,-0.11431315586771815,-0.6059393562465906,-0.059881491119414564
1763690871414660600,11.50966064453125,-0.26327742694318296,-0.40613106965124607,0.4154993481077254
1763690871424682500,11.5196826171875,-0.14487842653393745,-0.00506897382736206,0.9055217300191521
1763690871434704600,11.52970458984375,-0.07099548073206097,-0.5570160431236029,0.8086696677684784
1763690871444726500,11.5397265625,-0.14906886396110056,-1.1223153459459543,0.3110626759469509
1763690871454748700,11.549748779296875,-0.29271219574213025,-0.686959935376048,-0.16298428432792425
1763690871464770600,11.5597705078125,-0.2399029810965061,-0.05445931994020939,-0.3901458572730422
1763690871474792400,11.56979248046875,0.08793605760633945,0.026788638204336166,-0.3598493570782244
1763690871484814600,11.579814697265626,0.08951258620806038,0.21877719095945358,-0.2662177181787789
1763690871494836500,11.58983642578125,-0.15127663967106492,0.7121095742017031,-0.10835048460364341
1763690871504858400,11.5998583984375,0.12450550059080123,-0.16017594890892506,0.0998456911087036
1763690871514880800,11.609880859375,-0.07918580145034938,0.11186463020443915,0.120742348664999
1763690871524902700,11.619902587890625,-0.4353724347699433,0.3768663967221975,-0.09724763743951916
1763690871534924500,11.629924560546876,-0.7812304567009211,1.0412836609005927,-0.3549373273782432
1763690871544946700,11.63994677734375,-0.5174246585020795,2.779952205079794,-0.11281053275242447
1763690871554968600,11.649968505859375,0.29891214636079966,3.4475165351122614,0.4685914713479578
1763690871564990500,11.659990478515626,-0.8357658375520258,3.5568075154364105,0.10188640315607189
1763690871575012600,11.6700126953125,-0.04841251405663788,3.25100378293097,0.20683526262268423
1763690871585034500,11.680034423828126,0.4141658344816416,2.2805799571514127,1.0525557271517814
1763690871595057400,11.690057373046875,0.003944353711605072,2.014657568657398,1.3570838867634534
1763690871605079600,11.70007958984375,0.014366890461370348,2.063017402678728,1.2523248507805167
1763690871615101700,11.710101806640624,-0.11093063728995621,2.0536217978239057,1.0861743575066327
1763690871625123600,11.72012353515625,0.09254026346616447,1.977210173794627,0.9012871611893176
1763690871635145500,11.7301455078125,-0.25149938393123444,2.234170672675967,0.8096091405756771
1763690871645167600,11.740167724609375,-1.0860709701973945,2.513202133589983,0.834722685174644
1763690871655189500,11.750189453125,-0.5229092639256269,3.8814796145409343,0.36670448366999625
1763690871665211400,11.76021142578125,-0.21461780625768004,4.5782834830611945,0.504995056246221
1763690871675233500,11.770233642578125,-0.6078443861503153,2.1735943311601877,0.691497578805685
1763690871685255400,11.78025537109375,-0.3938491687703877,0.44401919401884077,0.5351120351556689
1763690871695277600,11.790277587890625,-0.5561486857045441,0.4543874432981014,0.3558649636171758
1763690871705299700,11.8002998046875,-0.4353309337157756,-0.2766366747319698,0.23700068378373979
1763690871715321600,11.810321533203124,-0.4399111741781234,-0.3407429439395666,0.405595939861238
1763690871725343500,11.820343505859375,-0.3740736241985112,0.12949614848494528,0.6791326758164912
1763690871735365400,11.830365478515626,-0.6977198143213987,-0.1940536685913801,0.8125340150464325
1763690871745387500,11.840387451171875,-0.2861742453407496,-0.43288755915164945,0.9902863910477608
1763690871755409400,11.850409423828125,-1.1792016007721424,1.2311246802330016,1.2216742764510213
1763690871765431300,11.860431396484374,-0.47814884263575075,1.09914139110744,1.315899643459916
1763690871775453400,11.870453369140625,0.4830892216473818,-0.5658130975633859,1.329830407526344
1763690871785475600,11.8804755859375,2.195263142132759,-3.077494889718294,0.5618404676053673
1763690871795498500,11.89049853515625,-0.06439328772174194,-2.6171008994817733,1.129094557757303
1763690871805520600,11.900520751953126,-1.3143413081020117,-1.6605162139624356,1.292083591325581
1763690871815542500,11.91054248046875,-0.6580787088066339,-1.1717080301463603,0.5480538977826014
1763690871825564400,11.920564453125,0.4198141425669193,-0.7942717245817184,-0.2910338690000586
1763690871835586600,11.930586669921874,1.5344050317406654,-1.885586367586255,-1.199186111919582
1763690871845608400,11.9406083984375,1.4392296705305576,-7.266441201540827,-0.4629287328785285
1763690871855630300,11.95063037109375,1.3357657889246939,-10.724802955794333,0.05127497711593751
1763690871865652500,11.960652587890625,0.4836310734391212,-8.557439043456316,0.48988600564803925
1763690871875674400,11.97067431640625,-1.9554244584441183,2.2849013274818657,-1.0509524566736073
1763690871885696500,11.980696533203124,-2.2741817805469036,0.4221674276947975,-1.6776166941061614
1763690871895718700,11.99071875,-0.4638952763557434,-4.671795879495144,-1.0495160671949386
1763690871905740500,12.000740478515626,0.2922223663985729,-1.3788830461174248,-1.0716930468853563
1763690871915762400,12.010762451171875,0.5592226132571697,-1.2414420761078595,-0.08193601347394287
1763690871925784600,12.02078466796875,0.3549883269131183,-0.5846861403375864,0.7405764478165656
1763690871935806500,12.030806396484374,0.2621884626626968,-0.020216274076700208,1.0196212066035717
1763690871945828400,12.040828369140625,0.12255319747924803,0.19528350264728067,1.1604866711691022
1763690871955850500,12.0508505859375,0.08070490077640861,0.3840963479757309,1.3578621776595712
1763690871965872600,12.06087255859375,0.1528103520443663,0.36594226712584493,1.9216116206914184
1763690871975894500,12.07089453125,0.06900861776378005,0.46343584215044975,2.415455168326199
1763690871985916700,12.080916748046874,0.2000619690954685,0.4845487728059292,2.033418090967834
1763690871995938600,12.0909384765625,0.32551085148360576,0.43694764819741244,1.3736442686811088
1763690872005960400,12.10096044921875,-0.01111526825428009,1.3591618620812893,0.9775338039152324
1763690872015983600,12.110983642578125,-0.003822736625932157,1.7715180898576974,1.4435378891184925
1763690872026005500,12.121005615234376,0.33798586378376927,1.6539046868681906,1.8926742800205945
1763690872036027400,12.13102734375,0.40705169162750243,0.7720593082517385,1.8452851907275616
1763690872046049500,12.141049560546875,0.5080454202601686,-0.02422200258672237,1.5746763979829848
1763690872056071400,12.151071533203124,0.5235667049210518,-0.5762053122401237,1.102936691737175
1763690872066093600,12.161093505859375,0.49589426961950955,-0.6290548588961362,0.7056896241568028
1763690872076115700,12.17111572265625,0.2696259191870689,-0.8862100035667418,0.2202794122159481
1763690872086137600,12.1811376953125,0.11663202726934105,-1.2123673727929591,-0.2888349159173667
1763690872096159500,12.191159423828125,0.10936057496163994,-1.143275131866336,-0.5250288133628667
1763690872106181400,12.201181396484374,0.3004793591449037,-1.1000614285618067,-0.45842086353264744
1763690872116203500,12.21120361328125,0.15912563613839448,-0.8357768704026937,-0.005867284598201513
1763690872126225400,12.221225341796876,-0.19215214581899343,-0.15153496181368828,0.5253940664786845
1763690872136247300,12.231247314453125,-0.01148819321990013,0.5420668957948684,0.5405401976842433
1763690872146269400,12.24126953125,0.3133107471346855,1.0401935275763272,0.7497361980888992
1763690872156291600,12.25129150390625,0.036634397979453205,0.7473889773756265,1.3649965595841407
1763690872166313500,12.2613134765625,-0.22305114195160566,0.44195115557312964,1.733092497612536
1763690872176335600,12.271335693359376,-0.32548977216295893,0.31260289112627504,1.8528937660351394
1763690872186357500,12.281357421875,-0.3147918525379151,0.2858563384979963,1.8190452724471686
1763690872196379400,12.29137939453125,-0.19085691837668417,0.17216157025694845,1.7149743648588656
1763690872206401500,12.301401611328124,-0.09701309803128241,0.0683136577695608,1.503998787561059
1763690872216423400,12.31142333984375,-0.1291021076660603,0.1583738679230213,1.132444891098514
1763690872226445300,12.3214453125,-0.26236031209826466,0.22133038257360457,0.7415361596941947
1763690872236468500,12.331468505859375,-0.49068384149484334,0.3320943580597639,0.43060733925998207
1763690872246490400,12.341490478515626,-0.6204723239898682,0.46255379861891266,0.1633193615011871
1763690872256512500,12.351512451171875,-0.6156512605089693,0.33561142627000806,0.07694061633944511
1763690872266534700,12.36153466796875,-0.5900351732153445,0.19938158561587332,0.055581382772698994
1763690872276556500,12.371556640625,-0.4853261869192123,0.06058803195357322,0.1258547232426703
1763690872286578400,12.381578369140625,-0.23664609819240867,-0.07938041070699692,0.22862543495260176
1763690872296600600,12.3916005859375,0.029854966972395775,-0.17139935371279716,0.26927995529361065
1763690872306622500,12.40162255859375,0.28093049946837123,-0.3085778733938932,0.2464369859751314
1763690872316644400,12.411644287109375,0.3413209630232304,-0.4632920497655868,0.2541479987438768
1763690872326666500,12.42166650390625,0.3409387587726116,-0.6027881987392902,0.23459420716390011
1763690872336688600,12.431688720703125,0.36035073072910306,-0.5826169328480959,0.05469005995616316
1763690872346710500,12.44171044921875,0.34031441632919013,-0.385968571588397,-0.24786314632073042
1763690872356732700,12.451732666015625,0.14622516496777532,-0.19078677574992178,-0.49123256141878663
1763690872366754600,12.461754638671875,-0.20160159975290298,0.02965805616080761,-0.656003144641593
1763690872376776400,12.4717763671875,-0.4259926120061427,0.22304946145117283,-0.7665812421668321
