time,seconds_elapsed,z,y,x
1763690859969438500,0.0644384765625,-0.2761994004249573,0.32357555627822876,0.45385995507240295
1763690859979460400,0.07446044921875,-0.2505360543727875,0.2585586905479431,0.4544127285480499
1763690859989482500,0.084482421875,-0.20649056136608124,0.21194404363632202,0.40255218744277954
1763690859999504600,0.094504638671875,-0.1651582419872284,0.16720019280910492,0.30423080921173096
1763690860009526500,0.104526611328125,-0.13663366436958313,0.07512087374925613,0.20715966820716858
1763690860019549400,0.114549560546875,-0.09940721839666367,-0.0201005507260561,0.10302265733480453
1763690860029571600,0.124571533203125,-0.05280403420329094,-0.09922812879085541,0.006926218047738075
1763690860039593500,0.134593505859375,-0.0038951225578784943,-0.1588086485862732,-0.07029443234205246
1763690860049615400,0.144615478515625,0.030698541551828384,-0.18967574834823608,-0.13212716579437256
1763690860059637500,0.154637451171875,0.05591098591685295,-0.18684381246566772,-0.15795165300369263
1763690860069659400,0.164659423828125,0.07182922959327698,-0.16024842858314514,-0.15576094388961792
1763690860079681300,0.174681396484375,0.08231151103973389,-0.12329641729593277,-0.12910684943199158
1763690860089703700,0.18470361328125,0.0765119418501854,-0.08592188358306885,-0.06590551137924194
1763690860099725600,0.1947255859375,0.05947205051779747,-0.025508588179945946,0.00691557303071022
1763690860109748500,0.20474853515625,0.041213419288396835,0.06911884993314743,0.05161859840154648
1763690860119770600,0.2147705078125,0.015693699941039085,0.13955555856227875,0.0986986830830574
1763690860129792500,0.22479248046875,-0.0012591845588758588,0.18367081880569458,0.13013489544391632
1763690860139814400,0.234814453125,-0.0027071540243923664,0.2145594209432602,0.1443396806716919
1763690860149836500,0.24483642578125,0.0000279122032225132,0.21668913960456848,0.15402746200561523
1763690860159858400,0.2548583984375,0.0044530294835567474,0.17552074790000916,0.17586296796798706
1763690860169880300,0.26488037109375,0.008719679899513721,0.09263120591640472,0.21965919435024261
1763690860179902500,0.27490234375,0.005260550882667303,-0.015555175952613354,0.29162704944610596
1763690860189925400,0.28492529296875,0.007221170235425234,-0.11217997968196869,0.3847697675228119
1763690860199947300,0.294947265625,0.02845628373324871,-0.1371944695711136,0.4366268217563629
1763690860209969400,0.304969482421875,0.049054503440856934,-0.12843799591064453,0.4617636203765869
1763690860219991600,0.314991455078125,0.06318070739507675,-0.10891091078519821,0.4816369116306305
1763690860230013400,0.325013427734375,0.0773380696773529,-0.06997256726026535,0.49919992685317993
1763690860240035600,0.33503564453125,0.080267034471035,-0.03185189515352249,0.5200878381729126
1763690860250057500,0.345057373046875,0.07026047259569168,-0.011988707818090916,0.5239909887313843
1763690860260079400,0.355079345703125,0.04535363242030144,-0.019432561472058296,0.5262539386749268
1763690860270102500,0.3651025390625,0.00903211161494255,-0.055466197431087494,0.5154236555099487
1763690860280124400,0.37512451171875,-0.030821578577160835,-0.11536406725645065,0.4898030161857605
1763690860290146300,0.385146240234375,-0.050134819000959396,-0.20278072357177734,0.43142572045326233
1763690860300168400,0.39516845703125,-0.04156798869371414,-0.23593656718730927,0.3581062853336334
1763690860310190300,0.4051904296875,-0.000009629293344914913,-0.19618728756904602,0.28306320309638977
1763690860320212500,0.41521240234375,0.06303112208843231,-0.13806486129760742,0.22029834985733032
1763690860330234600,0.425234619140625,0.13299742341041565,-0.11963018774986267,0.17828139662742615
1763690860340256500,0.435256591796875,0.19731639325618744,-0.11578427255153656,0.15743786096572876
1763690860350279700,0.44527978515625,0.24126334488391876,-0.09968093782663345,0.1497618407011032
1763690860360301600,0.455301513671875,0.25124800205230713,-0.07868920266628265,0.14627130329608917
1763690860370323500,0.465323486328125,0.23243063688278198,-0.05633516237139702,0.13734865188598633
1763690860380345300,0.475345458984375,0.18927958607673645,-0.039127808064222336,0.12820680439472198
1763690860390367500,0.485367431640625,0.13882173597812653,-0.07975859194993973,0.11976298689842224
1763690860400389400,0.495389404296875,0.08511107414960861,-0.17356888949871063,0.11038634181022644
1763690860410411300,0.505411376953125,0.033089686185121536,-0.2829590439796448,0.08632441610097885
1763690860420433400,0.515433349609375,-0.02375127747654915,-0.3784734308719635,0.0530581958591938
1763690860430456300,0.525456298828125,-0.08130299299955368,-0.4384848177433014,0.009868646040558815
1763690860440478500,0.535478515625,-0.13324354588985443,-0.4649120271205902,-0.030127812176942825
1763690860450500600,0.54550048828125,-0.18331442773342133,-0.4470517933368683,-0.06163567304611206
1763690860460522500,0.5555224609375,-0.21965806186199188,-0.39064526557922363,-0.08886010199785233
1763690860470544600,0.565544677734375,-0.23554114997386932,-0.31703680753707886,-0.10906550288200378
1763690860480566500,0.57556640625,-0.23849961161613464,-0.2577705383300781,-0.11943861842155457
1763690860490588400,0.58558837890625,-0.2369062453508377,-0.24082165956497192,-0.11640074849128723
1763690860500610300,0.5956103515625,-0.250736266374588,-0.2505059838294983,-0.11024440824985504
1763690860510632400,0.605632568359375,-0.28577759861946106,-0.27722492814064026,-0.1042533591389656
1763690860520655400,0.6156552734375,-0.339972585439682,-0.29136350750923157,-0.09451699256896973
1763690860530677500,0.625677490234375,-0.4014820158481598,-0.2863684892654419,-0.07035280019044876
1763690860540699400,0.635699462890625,-0.44079408049583435,-0.2809361219406128,-0.021331828087568283
1763690860550721300,0.64572119140625,-0.4444442093372345,-0.2725743353366852,0.05607960745692253
1763690860560743700,0.65574365234375,-0.3999992311000824,-0.25564223527908325,0.14974108338356018
1763690860570765600,0.665765625,-0.3073292076587677,-0.18456724286079407,0.24059268832206726
1763690860580787500,0.675787353515625,-0.18319550156593323,-0.0631251335144043,0.32403764128685
1763690860590809300,0.685809326171875,-0.04827282950282097,0.06045060604810715,0.39438557624816895
1763690860600832500,0.69583251953125,0.07608787715435028,0.15797267854213715,0.4527328312397003
1763690860610854400,0.7058544921875,0.17789092659950256,0.23406292498111725,0.48774993419647217
1763690860620876800,0.715876708984375,0.2521704435348511,0.3095138967037201,0.5050147175788879
1763690860630898700,0.725898681640625,0.2928883135318756,0.37678641080856323,0.5055183172225952
1763690860640920600,0.735920654296875,0.31195297837257385,0.4173317551612854,0.4885120689868927
1763690860650942700,0.745942626953125,0.31642070412635803,0.444705069065094,0.4579027593135834
1763690860660964600,0.755964599609375,0.3087255358695984,0.4664109945297241,0.41935616731643677
1763690860670986800,0.76598681640625,0.28486254811286926,0.469669908285141,0.3821941614151001
1763690860681009700,0.776009765625,0.24536527693271637,0.44384509325027466,0.34222471714019775
1763690860691031800,0.78603173828125,0.19003304839134216,0.4102114737033844,0.2981318235397339
1763690860701054000,0.796053955078125,0.12529495358467102,0.3739563226699829,0.2528391182422638
1763690860711075800,0.806075927734375,0.055552635341882706,0.3143521249294281,0.21412448585033417
1763690860721097700,0.81609765625,-0.010049497708678246,0.24468712508678436,0.18549112975597382
1763690860731119600,0.82611962890625,-0.05996432527899742,0.14616668224334717,0.16909563541412354
1763690860741141800,0.836141845703125,-0.09415125846862793,0.0307198204100132,0.15108299255371094
1763690860751163600,0.84616357421875,-0.12291446328163147,-0.04539252445101738,0.12402287125587463
1763690860761185500,0.856185546875,-0.15132059156894684,-0.05077772215008736,0.09177051484584808
1763690860771208700,0.866208740234375,-0.18373818695545197,-0.003942572046071291,0.06207946315407753
1763690860781230600,0.876230712890625,-0.21718555688858032,0.05445355921983719,0.04174955189228058
1763690860791252700,0.886252685546875,-0.24356789886951447,0.10809069126844406,0.04039213806390762
1763690860801275000,0.89627490234375,-0.25577297806739807,0.09574850648641586,0.05670098215341568
1763690860811296800,0.906296875,-0.2583533227443695,-0.03412880003452301,0.09493012726306915
1763690860821319000,0.91631884765625,-0.2596445679664612,-0.2294536828994751,0.12977014482021332
1763690860831340800,0.9263408203125,-0.2500593364238739,-0.3925837278366089,0.134871706366539
1763690860841362700,0.93636279296875,-0.23162734508514404,-0.43436354398727417,0.11025110632181168
1763690860851385900,0.9463857421875,-0.1963692307472229,-0.3701275587081909,0.0569697804749012
1763690860861407700,0.95640771484375,-0.15537570416927338,-0.3211536109447479,0.008188363164663315
1763690860871429600,0.9664296875,-0.11075443774461746,-0.32729220390319824,-0.02597173862159252
1763690860881451800,0.97645166015625,-0.07810031622648239,-0.390006959438324,-0.047760237008333206
1763690860891473700,0.9864736328125,-0.07030284404754639,-0.45926085114479065,-0.057010993361473083
1763690860901495800,0.996495849609375,-0.07078318297863007,-0.49097535014152527,-0.07071553170681
1763690860911518000,1.00651806640625,-0.07096347957849503,-0.4156284034252167,-0.09999912232160568
1763690860921539800,1.016539794921875,-0.07457246631383896,-0.28515779972076416,-0.11751417070627213
1763690860931561700,1.026561767578125,-0.08049000799655914,-0.2149811089038849,-0.09411057084798813
1763690860941585000,1.0365849609375,-0.087523452937603,-0.24238868057727814,-0.036995042115449905
1763690860951606800,1.046606689453125,-0.09650283306837082,-0.33137235045433044,0.019763313233852386
1763690860961628700,1.056628662109375,-0.09624315798282623,-0.39716610312461853,0.04724844545125961
1763690860971650800,1.06665087890625,-0.08377636969089508,-0.3871760666370392,0.048212241381406784
1763690860981672700,1.076672607421875,-0.08480802178382874,-0.3233262896537781,0.043310828506946564
1763690860991694600,1.086694580078125,-0.10409703105688095,-0.2359224110841751,0.04114701226353645
1763690861001716700,1.096716796875,-0.12849248945713043,-0.10447023063898087,0.03746405243873596
1763690861011739000,1.10673876953125,-0.13527634739875793,0.05238063633441925,0.04526898264884949
1763690861021761500,1.116761474609375,-0.1267167329788208,0.1576782763004303,0.07768294960260391
1763690861031784000,1.126783935546875,-0.11586274951696396,0.17929860949516296,0.1253625899553299
1763690861041805800,1.136805908203125,-0.10985227674245834,0.13176579773426056,0.16926614940166473
1763690861051827700,1.14682763671875,-0.1071329265832901,0.02954702451825142,0.18684062361717224
1763690861061849900,1.156849853515625,-0.11098320782184601,-0.09226832538843155,0.17543116211891174
1763690861071871700,1.166871826171875,-0.1193079873919487,-0.18056116998195648,0.1366848349571228
1763690861081893600,1.1768935546875,-0.12457308173179626,-0.2102077603340149,0.07420843094587326
1763690861091915800,1.186915771484375,-0.12837819755077362,-0.1715620905160904,0.038380127400159836
1763690861101937700,1.196937744140625,-0.11829760670661926,-0.13964277505874634,0.051924433559179306
1763690861111960600,1.206960693359375,-0.07785084843635559,-0.08332862704992294,0.10310559719800949
1763690861121982700,1.216982666015625,-0.03454916179180145,-0.007551396731287241,0.17333446443080902
1763690861132004900,1.2270048828125,-0.012415365315973759,0.04761065915226936,0.2431550920009613
1763690861142026800,1.23702685546875,-0.006797663867473602,0.06515432894229889,0.2849158048629761
1763690861152049000,1.247048828125,-0.006662641651928425,0.04619688168168068,0.30217602849006653
1763690861162070800,1.25707080078125,-0.019175825640559196,0.035154782235622406,0.2951546609401703
1763690861172092700,1.2670927734375,-0.043711259961128235,0.027022287249565125,0.2679843008518219
1763690861182114800,1.27711474609375,-0.08065978437662125,0.016297973692417145,0.22401277720928192
1763690861192136700,1.28713671875,-0.11901596188545227,0.009752722457051277,0.16910851001739502
1763690861202159600,1.29715966796875,-0.14681163430213928,0.028197508305311203,0.10234306007623672
1763690861212181800,1.307181640625,-0.1578403264284134,0.06264922767877579,0.032414574176073074
1763690861222203600,1.31720361328125,-0.1525629758834839,0.1014944538474083,-0.03464919328689575
1763690861232225500,1.3272255859375,-0.13696084916591644,0.09821876883506775,-0.09394926577806473
1763690861242248000,1.337248046875,-0.11637207120656967,0.03237571194767952,-0.14346812665462494
1763690861252269800,1.347269775390625,-0.08516168594360352,-0.05311468616127968,-0.1929216980934143
1763690861262291700,1.357291748046875,-0.04295128583908081,-0.11585313826799393,-0.22926682233810425
1763690861272313900,1.36731396484375,-0.0020070490427315235,-0.14816686511039734,-0.23802809417247772
1763690861282335700,1.377335693359375,0.027656761929392815,-0.14693154394626617,-0.21245573461055756
1763690861292358700,1.387358642578125,0.03664732724428177,-0.1120542511343956,-0.16081172227859497
1763690861302380800,1.397380859375,0.023034222424030304,-0.03891029953956604,-0.10397275537252426
1763690861312402700,1.407402587890625,-0.010482193902134895,0.046795815229415894,-0.040986597537994385
1763690861322424600,1.417424560546875,-0.045417334884405136,0.10160240530967712,0.023385871201753616
1763690861332446700,1.42744677734375,-0.08076760172843933,0.10838521271944046,0.051953867077827454
1763690861342468900,1.43746875,-0.11271766573190689,0.08119048178195953,0.06607870012521744
1763690861352490800,1.44749072265625,-0.1343957930803299,0.04956784099340439,0.04868506267666817
1763690861362513000,1.457512939453125,-0.1363140195608139,0.03151437267661095,0.012448424473404884
1763690861372535800,1.467535888671875,-0.12261631339788437,-0.0014731379924342036,-0.028414322063326836
1763690861382558000,1.477557861328125,-0.09786750376224518,-0.03155680373311043,-0.06832485646009445
1763690861392579800,1.487579833984375,-0.06744302064180374,-0.03722001612186432,-0.10210759192705154
1763690861402601700,1.497601806640625,-0.03702344745397568,-0.05741382762789726,-0.11896277964115143
1763690861412623600,1.50762353515625,-0.016859056428074837,-0.07769300043582916,-0.11778593063354492
1763690861422645800,1.517645751953125,-0.009796817786991596,-0.08299507200717926,-0.10955152660608292
1763690861432667600,1.527667724609375,-0.018685651943087578,-0.08607368916273117,-0.09523916244506836
1763690861442689500,1.537689453125,-0.03181212767958641,-0.08526168763637543,-0.07926923036575317
1763690861452712000,1.5477119140625,-0.045003294944763184,-0.08195191621780396,-0.06471744924783707
1763690861462734600,1.557734619140625,-0.057217083871364594,-0.08277376741170883,-0.053222183138132095
1763690861472756700,1.5677568359375,-0.06811606884002686,-0.07333951443433762,-0.048582423478364944
1763690861482779000,1.57777880859375,-0.07828281074762344,-0.04903990030288696,-0.04360581934452057
1763690861492800800,1.58780078125,-0.08909817785024643,-0.00587405264377594,-0.04337305948138237
1763690861502822700,1.59782275390625,-0.09331873804330826,0.026265688240528107,-0.038336776196956635
1763690861512844800,1.6078447265625,-0.09613876044750214,0.04941335320472717,-0.033466119319200516
1763690861522866700,1.61786669921875,-0.0917477235198021,0.07267197966575623,-0.03263097256422043
1763690861532888600,1.627888671875,-0.08282586932182312,0.06977872550487518,-0.03871869295835495
1763690861542910700,1.63791064453125,-0.06872006505727768,0.0506124347448349,-0.053995050489902496
1763690861552933600,1.64793359375,-0.04923104867339134,0.026767555624246597,-0.07180760055780411
1763690861562955800,1.657955810546875,-0.03532741591334343,0.008172855712473392,-0.08371208608150482
1763690861572977700,1.667977783203125,-0.028553400188684464,-0.007110758684575558,-0.08883947134017944
1763690861582999800,1.677999755859375,-0.027039293199777603,-0.019326824694871902,-0.07594703137874603
1763690861593021700,1.688021728515625,-0.028124263510107994,-0.031191207468509674,-0.04468897730112076
1763690861603043800,1.6980439453125,-0.03473547101020813,-0.03498644754290581,-0.005236821249127388
1763690861613065700,1.708065673828125,-0.04544750228524208,-0.015892380848526955,0.033285003155469894
1763690861623086800,1.7180869140625,-0.06417398899793625,0.014436786994338036,0.06266644597053528
1763690861633108700,1.728108642578125,-0.08551736176013947,0.039407115429639816,0.0828460156917572
1763690861643131100,1.738131103515625,-0.10523444414138794,0.06230743229389191,0.09039228409528732
1763690861653153800,1.74815380859375,-0.11547669023275375,0.07321999967098236,0.08368085324764252
1763690861663176000,1.758176025390625,-0.11217150837182999,0.04854152351617813,0.07053137570619583
1763690861673198000,1.768197998046875,-0.10083230584859848,-0.00012428243644535542,0.04874245449900627
1763690861683220000,1.778219970703125,-0.07835380733013153,-0.030793214216828346,0.021222233772277832
1763690861693242000,1.7882421875,-0.05480187013745308,-0.03248778358101845,-0.005574226379394531
1763690861703264000,1.798263916015625,-0.0406760573387146,-0.03605921193957329,-0.016942236572504044
1763690861713286000,1.808285888671875,-0.035661857575178146,-0.03520939499139786,-0.016102008521556854
1763690861723307800,1.818307861328125,-0.040111858397722244,-0.020392591133713722,-0.012552791275084019
1763690861733330000,1.828329833984375,-0.04796552285552025,0.0038589525502175093,-0.005804341286420822
1763690861743352800,1.838352783203125,-0.06106160208582878,0.027885906398296356,0.00037311180494725704
1763690861753375000,1.848375,-0.06794241815805435,0.05366690456867218,0.0062472461722791195
1763690861763396900,1.85839697265625,-0.06967543065547943,0.06630001962184906,0.011858448386192322
1763690861773419000,1.8684189453125,-0.06039431318640709,0.05156980827450752,0.015270223841071129
1763690861783441200,1.878441162109375,-0.03642764315009117,0.01746637374162674,0.011080366559326649
1763690861793463000,1.888463134765625,-0.005162399262189865,-0.01880667917430401,0.00026633450761437416
1763690861803485000,1.89848486328125,0.02460559271275997,-0.03719101473689079,-0.01587904989719391
1763690861813506800,1.9085068359375,0.0373149998486042,-0.04279350861907005,-0.027060333639383316
1763690861823529000,1.918529052734375,0.03403577208518982,-0.02759496495127678,-0.03173162415623665
1763690861833552000,1.9285517578125,0.015645844861865044,-0.0026171766221523285,-0.03005383163690567
1763690861843574000,1.938573974609375,-0.01647229865193367,0.017610367387533188,-0.02778715267777443
1763690861853596000,1.948595947265625,-0.053921934217214584,0.032157350331544876,-0.02309120073914528
1763690861863617800,1.95861767578125,-0.08568213135004044,0.036804523319005966,-0.021040331572294235
1763690861873640000,1.968639892578125,-0.10614026337862015,0.04662280157208443,-0.01732894964516163
1763690861883662000,1.978662109375,-0.11231645196676254,0.05646822229027748,-0.01810407266020775
1763690861893684000,1.98868408203125,-0.10879682004451752,0.056140922009944916,-0.01589817740023136
1763690861903706000,1.9987060546875,-0.1021738201379776,0.04182944446802139,-0.010612850077450275
1763690861913728000,2.00872802734375,-0.09414252638816833,0.035336125642061234,-0.008250626735389233
1763690861923751000,2.0187509765625,-0.0899025946855545,0.04009383171796799,-0.005865851417183876
1763690861933773000,2.02877294921875,-0.09106399863958359,0.055391825735569,-0.0017640504520386457
1763690861943795000,2.038794921875,-0.09422674030065536,0.06237686052918434,0.003101780079305172
1763690861953816800,2.04881689453125,-0.09120911359786987,0.0598394051194191,0.007552188355475664
1763690861963839000,2.0588388671875,-0.09644056856632233,0.06333491206169128,0.008950207382440567
1763690861973860900,2.06886083984375,-0.1149711087346077,0.09346804767847061,0.008322766982018948
1763690861983883000,2.078883056640625,-0.15018370747566223,0.15660911798477173,0.0013109399005770683
1763690861993905200,2.0889052734375,-0.20248205959796906,0.26369908452033997,-0.00884289387613535
1763690862003927000,2.098927001953125,-0.27409622073173523,0.39459800720214844,-0.016599291935563087
1763690862013950000,2.108949951171875,-0.3593578338623047,0.5293043851852417,-0.02100362814962864
1763690862023972000,2.11897216796875,-0.4497067332267761,0.6790052652359009,-0.018160264939069748
1763690862033994000,2.128993896484375,-0.5375809073448181,0.8075309991836548,0.009247656911611557
1763690862044015900,2.139015869140625,-0.5671239495277405,0.8060380816459656,0.06088344752788544
1763690862054038000,2.1490380859375,-0.5342650413513184,0.6830383539199829,0.0763782486319542
1763690862064060000,2.159059814453125,-0.4644005596637726,0.5252858400344849,0.03237474709749222
1763690862074081800,2.169081787109375,-0.3469706177711487,0.32985082268714905,-0.08171853423118591
1763690862084104000,2.17910400390625,-0.1833086758852005,0.11000341176986694,-0.23172616958618164
1763690862094126000,2.1891259765625,-0.02356269769370556,-0.17496733367443085,-0.37890177965164185
1763690862104148000,2.19914794921875,0.17138516902923584,-0.5391224026679993,-0.46554288268089294
1763690862114171100,2.209171142578125,0.44967857003211975,-1.0452758073806763,-0.3960098624229431
1763690862124193000,2.219193115234375,0.6310595870018005,-1.1154149770736694,-0.24227812886238098
1763690862134215000,2.22921484375,0.68841552734375,-0.8150323033332825,-0.11862275749444962
1763690862144237000,2.239237060546875,0.6887603998184204,-0.5191167593002319,-0.11838214099407196
1763690862154259000,2.249259033203125,0.6511507034301758,-0.3215051591396332,-0.17943456768989563
1763690862164280800,2.25928076171875,0.57136470079422,-0.05162262171506882,-0.23143117129802704
1763690862174303000,2.269302978515625,0.46936169266700745,0.3155575394630432,-0.28072842955589294
1763690862184324900,2.279324951171875,0.3242723345756531,0.70396888256073,-0.28906604647636414
1763690862194347000,2.289346923828125,0.08449807018041611,0.8863725066184998,-0.24325941503047943
1763690862204370000,2.299369873046875,-0.24113549292087555,0.6241831183433533,-0.17760035395622253
1763690862214392000,2.30939208984375,-0.3467940390110016,0.27982601523399353,-0.09490733593702316
1763690862224414000,2.3194140625,-0.2015664428472519,0.07144468277692795,-0.08958543837070465
1763690862234436000,2.32943603515625,-0.09114139527082443,-0.10579480975866318,-0.2243395298719406
1763690862244458000,2.3394580078125,-0.13546110689640045,-0.20567014813423157,-0.4488205015659332
1763690862254480000,2.34947998046875,-0.23490965366363525,-0.31822118163108826,-0.6622856259346008
1763690862264502000,2.359501953125,-0.27647024393081665,-0.36095672845840454,-0.7598737478256226
1763690862274524000,2.36952392578125,-0.2654397189617157,-0.21997801959514618,-0.738620936870575
1763690862284545800,2.3795458984375,-0.20614396035671234,0.09268967062234879,-0.6327135562896729
1763690862294568000,2.38956787109375,-0.09255481511354446,0.5351547002792358,-0.4509543776512146
1763690862304590800,2.3995908203125,0.07519262284040451,1.0208863019943237,-0.24138623476028442
1763690862314613000,2.409613037109375,0.19232270121574402,1.4297165870666504,-0.02850831300020218
1763690862324635100,2.41963525390625,0.18715345859527588,1.6078836917877197,0.1338583528995514
1763690862334657000,2.429656982421875,0.08249177038669586,1.455277681350708,0.24362213909626007
1763690862344679000,2.439678955078125,0.12167766690254211,1.1515477895736694,0.24057701230049133
1763690862354701000,2.449701171875,0.010536501184105873,0.8601910471916199,0.17086558043956757
1763690862364723000,2.459722900390625,-0.17472971975803375,0.4117533564567566,0.11139120906591415
1763690862374744800,2.469744873046875,-0.27290767431259155,-0.16395200788974762,-0.07007712125778198
1763690862384767000,2.47976708984375,-0.08276720345020294,-1.4252853393554688,0.2675676643848419
1763690862394788900,2.489788818359375,-0.0005279965698719025,-0.5825028419494629,-0.32158616185188293
1763690862404811800,2.499811767578125,0.31772351264953613,-0.11342737078666687,-0.5070645213127136
1763690862414834000,2.509833984375,0.6098413467407227,0.1896992176771164,-0.38191914558410645
1763690862424856000,2.51985595703125,0.7147039771080017,0.5667119026184082,-0.20127178728580475
1763690862434878000,2.5298779296875,0.6165289878845215,0.7226532697677612,0.03803480416536331
1763690862444900000,2.539900146484375,0.4464595913887024,0.5479719638824463,0.28212371468544006
1763690862454922000,2.549921875,0.3322930634021759,0.1979239284992218,0.47016820311546326
1763690862464943900,2.55994384765625,0.29443153738975525,-0.08839374035596848,0.5460430979728699
1763690862474966000,2.569966064453125,0.16449162364006042,-0.0732874944806099,0.5232959389686584
1763690862484988000,2.57998779296875,-0.0066230446100234985,0.12992937862873077,0.3115478456020355
1763690862495010800,2.5900107421875,-0.1555640548467636,0.3121471405029297,0.09156197309494019
1763690862505033000,2.600032958984375,-0.35640445351600647,0.6048649549484253,0.02090243622660637
1763690862515054800,2.610054931640625,-0.5182927250862122,0.8246327638626099,0.08275807648897171
1763690862525077000,2.620076904296875,-0.6435287594795227,1.067438006401062,0.1855861097574234
1763690862535099100,2.63009912109375,-0.7327504754066467,1.255506157875061,0.2644662857055664
1763690862545121000,2.64012109375,-0.6899692416191101,1.1598855257034302,0.31745365262031555
1763690862555143000,2.650142822265625,-0.5793290138244629,0.7009488344192505,0.5220339298248291
1763690862565165000,2.6601650390625,-0.4679206609725952,0.522111177444458,0.5539348125457764
1763690862575187000,2.67018701171875,-0.3456419110298157,-0.17018553614616394,0.2067217379808426
1763690862585208800,2.680208740234375,-0.03955993801355362,-0.028066188097000122,0.35137489438056946
1763690862595232000,2.69023193359375,0.0606156624853611,-0.04040834307670593,0.16616109013557434
1763690862605254000,2.70025390625,0.19963866472244263,-0.26828718185424805,0.01541094109416008
1763690862615275800,2.71027587890625,0.2744319438934326,-0.3779558837413788,-0.18100571632385254
1763690862625299200,2.72029931640625,0.33259859681129456,-0.3309285342693329,-0.32853633165359497
1763690862635321300,2.7303212890625,0.37873202562332153,-0.28797227144241333,-0.3492932915687561
1763690862645343200,2.74034326171875,0.3577253222465515,-0.28146374225616455,-0.24641869962215424
1763690862655365000,2.750365234375,0.32124269008636475,-0.2793926000595093,-0.1298830360174179
1763690862665387500,2.760387451171875,0.27847766876220703,-0.23554100096225739,-0.05296405032277107
1763690862675409400,2.770409423828125,0.21235883235931396,-0.1156124621629715,0.007586377672851086
1763690862685431300,2.780431396484375,0.16457968950271606,0.015753669664263725,0.05866988003253937
1763690862695454500,2.790454345703125,0.15285539627075195,0.0454883947968483,0.12072712182998657
1763690862705476400,2.800476318359375,0.13826598227024078,-0.013968122191727161,0.17862655222415924
1763690862715498500,2.81049853515625,0.10903380066156387,-0.09138674288988113,0.20144638419151306
1763690862725520400,2.820520263671875,0.04942311346530914,-0.22571741044521332,0.19441314041614532
1763690862735542300,2.830542236328125,-0.030014457181096077,-0.4473547339439392,0.19674421846866608
1763690862745564200,2.840564208984375,-0.09880773723125458,-0.6407569050788879,0.2164645791053772
1763690862755586300,2.85058642578125,-0.13417212665081024,-0.7194432020187378,0.2698945105075836
1763690862765608200,2.860608154296875,-0.1455608457326889,-0.5951841473579407,0.2633599042892456
1763690862775630300,2.87063037109375,-0.12816454470157623,-0.4110489785671234,0.250480055809021
1763690862785653200,2.8806533203125,-0.09510248154401779,-0.1111508384346962,0.26322701573371887
1763690862795675400,2.89067529296875,-0.056072793900966644,0.1216893345117569,0.3146822154521942
1763690862805697500,2.900697509765625,-0.04048193246126175,0.1918029636144638,0.3447849154472351
1763690862815719400,2.910719482421875,-0.012713420204818249,0.22198989987373352,0.30947431921958923
1763690862825741300,2.9207412109375,0.026186056435108185,0.13710474967956543,0.2106073796749115
1763690862835763200,2.93076318359375,0.04986155405640602,-0.04168630391359329,0.0794200673699379
1763690862845785300,2.940785400390625,0.08822757750749588,-0.29865002632141113,-0.041531648486852646
1763690862855807200,2.95080712890625,0.136398583650589,-0.5596858263015747,-0.14740481972694397
1763690862865829000,2.9608291015625,0.160038560628891,-0.7254423499107361,-0.24891050159931183
1763690862875851500,2.9708515625,0.15110577642917633,-0.7694804072380066,-0.3623504936695099
1763690862885873400,2.980873291015625,0.10845295339822769,-0.740878164768219,-0.4337814450263977
1763690862895896300,2.990896240234375,0.03201703354716301,-0.5687577724456787,-0.4403895437717438
1763690862905918500,3.00091845703125,-0.04893389716744423,-0.2835642993450165,-0.3756275177001953
1763690862915940400,3.0109404296875,-0.13089241087436676,-0.2658390998840332,-0.12270259857177734
1763690862925962500,3.02096240234375,-0.20151707530021667,-0.0055518848821520805,-0.05851693078875542
1763690862935984400,3.030984375,-0.24405840039253235,0.12167983502149582,-0.02646791562438011
1763690862946006300,3.04100634765625,-0.24803750216960907,0.14437472820281982,0.05332081764936447
1763690862956028200,3.051028076171875,-0.24923966825008392,0.19986861944198608,0.14524461328983307
1763690862966050300,3.06105029296875,-0.24836917221546173,0.27226829528808594,0.20709937810897827
1763690862976072200,3.071072265625,-0.28193962574005127,0.3132290542125702,0.24066665768623352
1763690862986095400,3.081095458984375,-0.33703094720840454,0.32186955213546753,0.2280796766281128
1763690862996117200,3.0911171875,-0.38665202260017395,0.2845091223716736,0.15496870875358582
1763690863006139400,3.101139404296875,-0.4072627127170563,0.21345336735248566,0.07138259708881378
1763690863016161500,3.11116162109375,-0.381838858127594,0.13436226546764374,0.010369044728577137
1763690863026183400,3.121183349609375,-0.3120326101779938,0.08373319357633591,-0.016133669763803482
1763690863036205300,3.131205322265625,-0.22280938923358917,0.08057613670825958,-0.027483472600579262
1763690863046227200,3.141227294921875,-0.1307843178510666,0.1303800344467163,-0.03648006170988083
1763690863056249300,3.151249267578125,-0.05479820445179939,0.18944202363491058,-0.03789287060499191
1763690863066271200,3.161271240234375,0.0028599598444998264,0.26526322960853577,-0.016930438578128815
1763690863076293000,3.171293212890625,0.05092468857765198,0.25445878505706787,0.044756364077329636
1763690863086315500,3.1813154296875,0.09550335258245468,0.13627153635025024,0.12545812129974365
1763690863096338200,3.191338134765625,0.1491500735282898,0.002471129409968853,0.14904627203941345
1763690863106360300,3.2013603515625,0.20077979564666748,-0.1374172419309616,0.12103071063756943
1763690863116382500,3.211382568359375,0.23326928913593292,-0.2725233733654022,0.08078928291797638
1763690863126404400,3.221404296875,0.23193928599357605,-0.3668522834777832,0.0382213294506073
1763690863136426500,3.231426513671875,0.2111320197582245,-0.4135076701641083,0.0009575823787599802
1763690863146448400,3.241448486328125,0.18724285066127777,-0.4230479300022125,-0.03853267431259155
1763690863156470300,3.25147021484375,0.17402052879333496,-0.4203464388847351,-0.03907595947384834
1763690863166492200,3.2614921875,0.1781284511089325,-0.5148556232452393,0.00935202743858099
1763690863176514300,3.271514404296875,0.21989960968494415,-0.6952371001243591,0.054117634892463684
1763690863186537200,3.281537109375,0.2855468988418579,-0.9049220681190491,0.07758654654026031
1763690863196559400,3.291559326171875,0.3394564688205719,-1.087704062461853,0.08760376274585724
1763690863206581200,3.301581298828125,0.3785521984100342,-1.1427900791168213,0.11087767034769058
1763690863216603400,3.311603271484375,0.40915006399154663,-1.089611530303955,0.1529412418603897
1763690863226625500,3.32162548828125,0.4206024408340454,-0.9715559482574463,0.21408076584339142
1763690863236647400,3.3316474609375,0.41336849331855774,-0.7919963002204895,0.2716979682445526
1763690863246669300,3.34166943359375,0.3923952281475067,-0.5830534100532532,0.3151761293411255
1763690863256691200,3.351691162109375,0.3726406991481781,-0.4046573042869568,0.3329772353172302
1763690863266713300,3.36171337890625,0.3535378873348236,-0.24085263907909393,0.3037158250808716
1763690863276735200,3.3717353515625,0.33721351623535156,-0.09706723690032959,0.24131105840206146
1763690863286757000,3.381757080078125,0.33082106709480286,-0.03308864310383797,0.1662561595439911
1763690863296780300,3.3917802734375,0.31856492161750793,-0.03587910532951355,0.10825145244598389
1763690863306802200,3.40180224609375,0.3028894066810608,-0.030579905956983566,0.07841745018959045
1763690863316824300,3.41182421875,0.2830224931240082,-0.04259209707379341,0.059721264988183975
1763690863326846500,3.421846435546875,0.26072239875793457,-0.0942891463637352,0.045621614903211594
1763690863336868400,3.431868408203125,0.2334737479686737,-0.14373499155044556,0.018443789333105087
1763690863346890500,3.441890380859375,0.20251217484474182,-0.2276773601770401,-0.024357911199331284
1763690863356912400,3.451912353515625,0.17061816155910492,-0.34921789169311523,-0.057344358414411545
1763690863366934300,3.461934326171875,0.14090368151664734,-0.43539583683013916,-0.07285194844007492
1763690863376956200,3.4719560546875,0.14140355587005615,-0.4337364137172699,-0.06947746127843857
1763690863386978300,3.481978271484375,0.18561719357967377,-0.3862992823123932,-0.05003390088677406
1763690863397001200,3.492001220703125,0.2270599752664566,-0.27845191955566406,-0.020184392109513283
1763690863407023400,3.5020234375,0.25530558824539185,-0.09411762654781342,0.01061877328902483
1763690863417045200,3.512045166015625,0.26537951827049255,0.074152871966362,0.044914960861206055
1763690863427067400,3.5220673828125,0.2206171602010727,0.14023390412330627,0.10179122537374496
1763690863437089500,3.532089599609375,0.14124058187007904,0.09120165556669235,0.1560100018978119
1763690863447111400,3.542111328125,0.059129077941179276,-0.0342477448284626,0.18066281080245972
1763690863457133300,3.55213330078125,-0.018383823335170746,-0.18995264172554016,0.16591821610927582
1763690863467155200,3.5621552734375,-0.09407803416252136,-0.36294156312942505,0.12529034912586212
1763690863477177300,3.57217724609375,-0.15656086802482605,-0.5477332472801208,0.09156780689954758
1763690863487199200,3.58219921875,-0.1879856139421463,-0.6538988947868347,0.07825759053230286
1763690863497221000,3.59222119140625,-0.18609502911567688,-0.6015709638595581,0.0852782130241394
1763690863507244300,3.602244384765625,-0.16578805446624756,-0.5361295342445374,0.08334510028362274
1763690863517266200,3.61226611328125,-0.1493166834115982,-0.482991486787796,0.07148551195859909
1763690863527288300,3.622288330078125,-0.1389348804950714,-0.41519248485565186,0.04506216570734978
1763690863537310500,3.632310546875,-0.13035151362419128,-0.4086562991142273,0.005171210039407015
1763690863547332400,3.642332275390625,-0.09143800288438797,-0.4275055229663849,-0.025763368234038353
1763690863557354500,3.6523544921875,-0.0282470490783453,-0.4276365637779236,-0.02881135605275631
1763690863567376400,3.66237646484375,0.035789888352155685,-0.33657026290893555,-0.006801213137805462
1763690863577398300,3.672398193359375,0.09386011213064194,-0.12829667329788208,0.05932587385177612
1763690863587420200,3.682420166015625,0.13671089708805084,0.061870601028203964,0.13916265964508057
1763690863597442300,3.6924423828125,0.14623995125293732,0.12209904938936234,0.2141045480966568
1763690863607465200,3.70246533203125,0.12085055559873581,0.03079465590417385,0.2928585410118103
1763690863617487400,3.7124873046875,0.0768897533416748,-0.16298893094062805,0.3624224364757538
1763690863627507700,3.7225078125,0.06297393888235092,-0.38656023144721985,0.4024186134338379
1763690863637529600,3.732529541015625,0.09082767367362976,-0.5855007767677307,0.39357316493988037
1763690863647551700,3.7425517578125,0.1299966275691986,-0.7553123235702515,0.3365565240383148
1763690863657573600,3.75257373046875,0.17115071415901184,-0.938689649105072,0.24474510550498962
1763690863667595500,3.762595458984375,0.21928760409355164,-1.1234612464904785,0.13311631977558136
1763690863677617700,3.77261767578125,0.2799930274486542,-1.296242356300354,0.02011200413107872
1763690863687639800,3.782639892578125,0.35614490509033203,-1.402919054031372,-0.04639771580696106
1763690863697661700,3.79266162109375,0.434787780046463,-1.3535029888153076,-0.02202579565346241
1763690863707684900,3.802684814453125,0.49689558148384094,-1.1476670503616333,0.06780798733234406
1763690863717706800,3.812706787109375,0.5285784602165222,-0.8581203818321228,0.17786018550395966
1763690863727728600,3.822728759765625,0.5135619044303894,-0.571727454662323,0.2667218744754791
1763690863737750800,3.832750732421875,0.45896658301353455,-0.3354761004447937,0.3110576272010803
1763690863747772700,3.842772705078125,0.372226357460022,-0.15054458379745483,0.3239436447620392
1763690863757794600,3.852794677734375,0.2840315103530884,0.0031570943538099527,0.3177086412906647
1763690863767816700,3.862816650390625,0.20842492580413818,0.06390833109617233,0.289186954498291
1763690863777838600,3.872838623046875,0.14911501109600067,-0.04214699938893318,0.24632872641086578
1763690863787860700,3.88286083984375,0.11492733657360077,-0.2674503028392792,0.18103526532649994
1763690863797883000,3.8928828125,0.12104887515306473,-0.5528591275215149,0.08064953237771988
1763690863807904800,3.90290478515625,0.15369121730327606,-0.8499139547348022,-0.06953222304582596
1763690863817927700,3.912927734375,0.21845263242721558,-1.156105399131775,-0.2537183165550232
1763690863827949800,3.92294970703125,0.32407528162002563,-1.385062336921692,-0.41268226504325867
1763690863837971700,3.9329716796875,0.42814308404922485,-1.4379011392593384,-0.5050050020217896
1763690863847993600,3.94299365234375,0.4930373728275299,-1.2973012924194336,-0.5227537751197815
1763690863858015700,3.953015625,0.5242857933044434,-1.0335564613342285,-0.46307501196861267
1763690863868037600,3.96303759765625,0.5199657082557678,-0.692437469959259,-0.34256184101104736
1763690863878059500,3.9730595703125,0.47741052508354187,-0.36184751987457275,-0.1957729160785675
1763690863888081700,3.98308154296875,0.3929430842399597,-0.07717353850603104,-0.06529773026704788
1763690863898103800,3.993103759765625,0.28705310821533203,0.1672644317150116,0.015147844329476357
1763690863908125700,4.003125732421875,0.19129566848278046,0.37949758768081665,0.0455814003944397
1763690863918148900,4.01314892578125,0.12296374887228012,0.5552936792373657,0.03688058629631996
1763690863928170800,4.023170654296875,0.07892661541700363,0.7155777812004089,0.006519032642245293
1763690863938192600,4.033192626953125,0.05622529610991478,0.8653497099876404,-0.0403672493994236
1763690863948214800,4.04321484375,0.0475299134850502,1.0204719305038452,-0.1000981405377388
1763690863958236700,4.053236572265625,0.05617267265915871,1.1646642684936523,-0.16769689321517944
1763690863968258600,4.063258544921875,0.06059235334396362,1.2287509441375732,-0.20696794986724854
1763690863978280700,4.07328076171875,0.06790672987699509,1.2199190855026245,-0.22422656416893005
1763690863988302600,4.083302490234375,0.08078796416521072,1.141869068145752,-0.24344010651111603
1763690863998324700,4.09332470703125,0.09504173696041107,0.9991666078567505,-0.2628958225250244
1763690864008347000,4.103346923828125,0.10784896463155746,0.8218834400177002,-0.2938706874847412
1763690864018369800,4.113369873046875,0.11963851004838943,0.6124264001846313,-0.34761276841163635
1763690864028391700,4.1233916015625,0.12859509885311127,0.3947049677371979,-0.4197329580783844
1763690864038413800,4.133413818359375,0.13515499234199524,0.21533817052841187,-0.49083590507507324
1763690864048435700,4.143435791015625,0.14719243347644806,0.08907324075698853,-0.5363817811012268
1763690864058457600,4.15345751953125,0.1625455617904663,-0.00003506112261675298,-0.5470474362373352
1763690864068479700,4.163479736328125,0.17419463396072388,-0.06004686653614044,-0.5293374061584473
1763690864078501600,4.173501708984375,0.17133785784244537,-0.08141234517097473,-0.5030237436294556
1763690864088523500,4.1835234375,0.15069346129894257,-0.07356607913970947,-0.48693621158599854
1763690864098545700,4.193545654296875,0.12070200592279434,-0.011027605272829533,-0.4793959856033325
1763690864108567800,4.20356787109375,0.0897175744175911,0.12384884059429169,-0.46326568722724915
1763690864118589700,4.213589599609375,0.07662466913461685,0.28448355197906494,-0.4253321588039398
1763690864128612900,4.22361279296875,0.07341650128364563,0.4432970881462097,-0.36045679450035095
1763690864138634800,4.233634765625,0.07387883216142654,0.6101319193840027,-0.28406989574432373
1763690864148656600,4.24365673828125,0.0700850784778595,0.7542051076889038,-0.2131340503692627
1763690864158678800,4.2536787109375,0.04769667983055115,0.8125370740890503,-0.17183907330036163
1763690864168700700,4.26370068359375,0.0012027190532535315,0.7587063312530518,-0.1745898723602295
1763690864178722600,4.27372265625,-0.06347721070051193,0.6002961993217468,-0.19865845143795013
1763690864188744700,4.28374462890625,-0.15383537113666534,0.4020062983036041,-0.26030609011650085
1763690864198766600,4.2937666015625,-0.24733522534370422,0.3277224600315094,-0.33646050095558167
1763690864208788700,4.303788818359375,-0.29725393652915955,0.3305061459541321,-0.3465825915336609
1763690864218811000,4.313810791015625,-0.2965378165245056,0.24790817499160767,-0.2791641354560852
1763690864228832800,4.323832763671875,-0.25413087010383606,0.16188207268714905,-0.1919364482164383
1763690864238855700,4.333855712890625,-0.17932400107383728,0.12137299031019211,-0.10638373345136642
1763690864248877800,4.3438779296875,-0.09477123618125916,0.14525093138217926,-0.032194361090660095
1763690864258899700,4.353899658203125,-0.027535470202565193,0.22637374699115753,0.026782138273119926
1763690864268921600,4.363921630859375,-0.0004682508297264576,0.34223300218582153,0.08312281966209412
1763690864278943700,4.37394384765625,-0.011582421138882637,0.46336448192596436,0.13724517822265625
1763690864288965600,4.383965576171875,-0.03700442984700203,0.5712389349937439,0.17459094524383545
1763690864298987500,4.393987548828125,-0.07193045318126678,0.6046680212020874,0.17668099701404572
1763690864309009700,4.404009765625,-0.10673495382070541,0.5471111536026001,0.13396477699279785
1763690864319031800,4.41403173828125,-0.13436871767044067,0.42004963755607605,0.06898073107004166
1763690864329053700,4.4240537109375,-0.15076933801174164,0.2799932658672333,0.0010537842754274607
1763690864339076900,4.434076904296875,-0.1461530178785324,0.15162277221679688,-0.06453454494476318
1763690864349098800,4.4440986328125,-0.12414049357175827,0.017186369746923447,-0.11094794422388077
1763690864359120600,4.45412060546875,-0.0928664579987526,-0.08907589316368103,-0.12256944179534912
1763690864369142800,4.464142822265625,-0.05105961859226227,-0.13848525285720825,-0.09572025388479233
1763690864379164700,4.47416455078125,-0.009179281070828438,-0.13064570724964142,-0.045333508402109146
1763690864389186600,4.4841865234375,0.02453848533332348,-0.08471681922674179,0.002510171150788665
1763690864399208700,4.494208740234375,0.04169190675020218,-0.039382897317409515,0.03545533865690231
1763690864409230600,4.504230712890625,0.04338547959923744,-0.012097010388970375,0.05022426322102547
1763690864419252700,4.514252685546875,0.022577667608857155,-0.009157679975032806,0.048519838601350784
1763690864429275000,4.52427490234375,-0.0010041636414825916,-0.012503966689109802,0.04800308868288994
1763690864439296800,4.534296875,-0.026577433571219444,0.009422104805707932,0.06497594714164734
1763690864449319700,4.544319580078125,-0.05394531786441803,0.01592557318508625,0.08437050879001617
1763690864459341800,4.554341796875,-0.08377086371183395,-0.010019740089774132,0.10132365673780441
1763690864469363700,4.56436376953125,-0.09687750786542892,-0.034772638231515884,0.1120980903506279
1763690864479385600,4.574385498046875,-0.08998897671699524,-0.06805389374494553,0.12323969602584839
1763690864489407700,4.58440771484375,-0.07374699413776398,-0.09831302613019943,0.1361708641052246
1763690864499429600,4.5944296875,-0.056352026760578156,-0.10492353141307831,0.15388301014900208
1763690864509451500,4.604451416015625,-0.03944210708141327,-0.0814032331109047,0.1783355325460434
1763690864519473700,4.6144736328125,-0.030135156586766243,-0.0335795134305954,0.1995750367641449
1763690864529495800,4.624495849609375,-0.028845055028796196,0.010266171768307686,0.20616459846496582
1763690864539517700,4.634517578125,-0.029739610850811005,0.010457918979227543,0.2030620127916336
1763690864549539800,4.644539794921875,-0.020254746079444885,-0.031026402488350868,0.19210202991962433
1763690864559562800,4.654562744140625,-0.005352494306862354,-0.08249731361865997,0.16374602913856506
1763690864569584600,4.664584716796875,0.010933898389339447,-0.13436491787433624,0.11981327086687088
1763690864579606800,4.674606689453125,0.015389366075396538,-0.17777977883815765,0.07419492304325104
1763690864589628700,4.684628662109375,0.0016030091792345047,-0.1688806414604187,0.054134927690029144
1763690864599650600,4.694650634765625,-0.03454620763659477,-0.11309859901666641,0.0842030793428421
1763690864609672700,4.704672607421875,-0.07812637835741043,-0.08807426691055298,0.13607248663902283
1763690864619694600,4.714694580078125,-0.1399196982383728,-0.11126907169818878,0.18313400447368622
1763690864629717000,4.724717041015625,-0.1999455690383911,-0.13929638266563416,0.22859062254428864
1763690864639739400,4.734739501953125,-0.25027796626091003,-0.15621517598628998,0.26733002066612244
1763690864649761300,4.74476123046875,-0.2796187400817871,-0.16217415034770966,0.27734652161598206
1763690864659784200,4.7547841796875,-0.2832092344760895,-0.1634727120399475,0.2664656341075897
1763690864669806300,4.764806396484375,-0.26214805245399475,-0.1445321887731552,0.25088411569595337
1763690864679828200,4.774828125,-0.22728538513183594,-0.09949839860200882,0.23704154789447784
1763690864689850000,4.78485009765625,-0.20766200125217438,-0.046762872487306595,0.21514494717121124
1763690864699872300,4.794872314453125,-0.22429104149341583,0.022152014076709747,0.19370409846305847
1763690864709894100,4.80489404296875,-0.2294943928718567,0.07571054995059967,0.18434245884418488
1763690864719916000,4.814916015625,-0.2420983463525772,0.10311953723430634,0.16891397535800934
1763690864729938200,4.824938232421875,-0.2800244390964508,0.09346424788236618,0.1476891189813614
1763690864739960300,4.834960205078125,-0.2995736300945282,0.05706815794110298,0.12365967780351639
1763690864749982200,4.844982177734375,-0.2995285391807556,0.009142828173935413,0.08803173154592514
1763690864760004400,4.85500439453125,-0.2964552640914917,-0.10929140448570251,0.039140887558460236
1763690864770027300,4.86502734375,-0.2871756851673126,-0.2678676247596741,-0.00357408937998116
1763690864780049400,4.87504931640625,-0.27702265977859497,-0.3983564078807831,-0.03559940308332443
1763690864790071300,4.8850712890625,-0.2698036730289459,-0.517423152923584,-0.042801376432180405
1763690864800093200,4.89509326171875,-0.27209264039993286,-0.572029173374176,-0.01864704117178917
1763690864810115000,4.905114990234375,-0.2711682617664337,-0.500556230545044,0.011631233617663383
1763690864820137200,4.91513720703125,-0.2666483521461487,-0.347504585981369,0.04367758333683014
1763690864830159000,4.9251591796875,-0.2738949954509735,-0.17264796793460846,0.07318069785833359
1763690864840181000,4.935180908203125,-0.2911381423473358,0.010512259788811207,0.10010791569948196
1763690864850203400,4.945203369140625,-0.3047372102737427,0.1415146142244339,0.13568171858787537
1763690864860225300,4.955225341796875,-0.32114654779434204,0.19417835772037506,0.1645442694425583
1763690864870247200,4.9652470703125,-0.3499760627746582,0.19123128056526184,0.1814500093460083
1763690864880270300,4.975270263671875,-0.37948867678642273,0.14596819877624512,0.18988583981990814
1763690864890292200,4.985292236328125,-0.4136105477809906,0.03338836133480072,0.17859794199466705
1763690864900314000,4.995314208984375,-0.4638553261756897,-0.11721152812242508,0.1442924290895462
1763690864910336300,5.005336181640625,-0.5072276592254639,-0.2131701409816742,0.09550269693136215
1763690864920358100,5.015358154296875,-0.5211054086685181,-0.27106407284736633,0.05761338025331497
1763690864930380000,5.025380126953125,-0.5265172719955444,-0.3394010663032532,0.047887690365314484
1763690864940402200,5.035402099609375,-0.5141516923904419,-0.3212713301181793,0.04968532547354698
1763690864950424300,5.04542431640625,-0.4675818979740143,-0.20871827006340027,0.06250381469726562
1763690864960446200,5.0554462890625,-0.3988611400127411,-0.035830121487379074,0.07051647454500198
1763690864970468400,5.06546826171875,-0.3293587863445282,0.1705627292394638,0.06715264171361923
1763690864980490200,5.075490234375,-0.27447983622550964,0.34663254022598267,0.049827978014945984
1763690864990513400,5.085513427734375,-0.25607672333717346,0.46963992714881897,0.022791650146245956
1763690865000535300,5.095535400390625,-0.25730258226394653,0.5326031446456909,-0.023720990866422653
1763690865010557200,5.10555712890625,-0.2778274118900299,0.4723310172557831,-0.07336799800395966
1763690865020579000,5.1155791015625,-0.31073155999183655,0.28808528184890747,-0.12568232417106628
1763690865030601200,5.125601318359375,-0.34690189361572266,0.07963306456804276,-0.1708536297082901
1763690865040623000,5.135623046875,-0.38342687487602234,-0.0753442645072937,-0.19796566665172577
1763690865050645000,5.14564501953125,-0.39850881695747375,-0.15286867320537567,-0.20751114189624786
1763690865060667400,5.15566748046875,-0.39847153425216675,-0.16248561441898346,-0.19703081250190735
1763690865070689300,5.165689208984375,-0.3950168788433075,-0.09090916812419891,-0.1828388273715973
1763690865080711200,5.175711181640625,-0.3670073449611664,0.04304570332169533,-0.17426611483097076
1763690865090733300,5.1857333984375,-0.32361456751823425,0.20346210896968842,-0.18380820751190186
1763690865100756200,5.195756103515625,-0.29325053095817566,0.35426437854766846,-0.19753946363925934
1763690865110778000,5.205778076171875,-0.3012218475341797,0.4569701850414276,-0.20659784972667694
1763690865120800300,5.21580029296875,-0.3419298827648163,0.483207643032074,-0.20623353123664856
1763690865130822100,5.225822265625,-0.4080013334751129,0.36303508281707764,-0.19659191370010376
1763690865140844000,5.235843994140625,-0.5045210123062134,0.15301765501499176,-0.19349412620067596
1763690865150866200,5.2458662109375,-0.5895009636878967,-0.03323543444275856,-0.19960883259773254
1763690865160888300,5.255888427734375,-0.6277900338172913,-0.1877879947423935,-0.20581746101379395
1763690865170910200,5.26591015625,-0.6449860334396362,-0.2873600125312805,-0.20267482101917267
1763690865180932400,5.275932373046875,-0.6213041543960571,-0.28608784079551697,-0.19524912536144257
1763690865190954200,5.285954345703125,-0.5931510329246521,-0.17643730342388153,-0.19656768441200256
1763690865200976100,5.29597607421875,-0.5584843754768372,0.03504485264420509,-0.21178606152534485
1763690865210998300,5.305998291015625,-0.5033998489379883,0.3178911805152893,-0.20645226538181305
1763690865221021200,5.316021240234375,-0.4534253478050232,0.5927832126617432,-0.16900315880775452
1763690865231043000,5.32604296875,-0.40902698040008545,0.7891018390655518,-0.11696846038103104
1763690865241065200,5.336065185546875,-0.3713088929653168,0.8858963251113892,-0.08625555783510208
1763690865251087000,5.346087158203125,-0.36497852206230164,0.8580043315887451,-0.08884724229574203
1763690865261109000,5.35610888671875,-0.37971749901771545,0.7315787672996521,-0.13479448854923248
1763690865271131400,5.36613134765625,-0.40143340826034546,0.495964914560318,-0.22129425406455994
1763690865281153300,5.3761533203125,-0.4340374171733856,0.18962736427783966,-0.3056464195251465
1763690865291175200,5.386175048828125,-0.4708581268787384,-0.12939637899398804,-0.36167487502098083
1763690865301197300,5.396197265625,-0.47956159710884094,-0.38098761439323425,-0.3817335367202759
1763690865311219200,5.40621923828125,-0.42590463161468506,-0.593726396560669,-0.3687196671962738
1763690865321241000,5.416240966796875,-0.3535420298576355,-0.7115145325660706,-0.317491352558136
1763690865331264300,5.42626416015625,-0.2564835250377655,-0.7128868103027344,-0.2437027096748352
1763690865341286100,5.4362861328125,-0.13908474147319794,-0.6509571075439453,-0.13888335227966309
1763690865351308000,5.44630810546875,-0.026638971641659737,-0.5744445323944092,-0.022889714688062668
1763690865361330200,5.456330078125,0.05366705358028412,-0.42235592007637024,0.06436822563409805
1763690865371352300,5.466352294921875,0.14134012162685394,-0.24261486530303955,0.10070961713790894
1763690865381374200,5.476374267578125,0.18950152397155762,-0.04602351412177086,0.08033430576324463
1763690865391396400,5.486396240234375,0.18884141743183136,0.12403009086847305,0.024070855230093002
1763690865401418200,5.496418212890625,0.14901703596115112,0.26130619645118713,-0.046735141426324844
1763690865411440000,5.506440185546875,0.08754362910985947,0.3792459964752197,-0.11084133386611938
1763690865421462300,5.516462158203125,-0.0015028829220682383,0.4781254529953003,-0.1290176808834076
1763690865431484200,5.526484130859375,-0.0923626720905304,0.478036493062973,-0.09473336488008499
1763690865441507000,5.536507080078125,-0.1543610692024231,0.43358567357063293,-0.041809968650341034
1763690865451529200,5.546529296875,-0.153513565659523,0.4460662603378296,0.0036912951618433
1763690865461551000,5.556551025390625,-0.09501510113477707,0.4471035599708557,0.04687871038913727
1763690865471573000,5.566572998046875,0.0017140572890639305,0.4445033073425293,0.07559521496295929
1763690865481595400,5.576595458984375,0.11124029010534286,0.46480220556259155,0.06809255480766296
1763690865491617300,5.5866171875,0.19987693428993225,0.4924708306789398,0.03050629422068596
1763690865501639200,5.59663916015625,0.24604123830795288,0.5394484996795654,-0.03488682582974434
1763690865511661300,5.606661376953125,0.2506655752658844,0.5880029797554016,-0.11729088425636292
1763690865521683200,5.61668310546875,0.21333417296409607,0.5264796614646912,-0.2272767722606659
1763690865531705000,5.626705078125,0.1398228406906128,0.39444199204444885,-0.3459923267364502
1763690865541727200,5.636727294921875,0.06736966967582703,0.25838083028793335,-0.4510881304740906
1763690865551749000,5.6467490234375,0.016180336475372314,0.13609977066516876,-0.523260235786438
1763690865561772000,5.65677197265625,-0.020295381546020508,0.0756169930100441,-0.5525161027908325
1763690865571794200,5.666794189453125,-0.04574890062212944,0.12098470330238342,-0.5472404360771179
1763690865581816300,5.67681640625,-0.04688021168112755,0.20947036147117615,-0.517566978931427
1763690865591838200,5.686838134765625,-0.01487993448972702,0.33833539485931396,-0.48513343930244446
1763690865601860400,5.6968603515625,0.04642922431230545,0.39035218954086304,-0.44526833295822144
1763690865611882200,5.70688232421875,0.1074267029762268,0.3311308026313782,-0.4265245497226715
1763690865621904100,5.716904052734375,0.18573108315467834,0.27913230657577515,-0.44924691319465637
1763690865631925500,5.726925537109375,0.25388601422309875,0.23326881229877472,-0.4710274934768677
1763690865641947400,5.736947509765625,0.27146074175834656,0.22212934494018555,-0.44833308458328247
1763690865651969500,5.746969482421875,0.2519453465938568,0.2655693292617798,-0.36493006348609924
1763690865661991700,5.75699169921875,0.21157397329807281,0.35094013810157776,-0.24288059771060944
1763690865672014600,5.7670146484375,0.1649399995803833,0.4443463683128357,-0.11139172315597534
1763690865682036500,5.777036376953125,0.11661534011363983,0.5001266002655029,0.012690812349319458
1763690865692058600,5.78705859375,0.06775341182947159,0.48802343010902405,0.10341450572013855
1763690865702080500,5.79708056640625,0.023132676258683205,0.371020644903183,0.14825628697872162
1763690865712102400,5.807102294921875,-0.003440332366153598,0.18354865908622742,0.13708564639091492
1763690865722124500,5.81712451171875,0.005035444162786007,-0.04773782566189766,0.09231418371200562
1763690865732146400,5.827146484375,0.03797449544072151,-0.28242871165275574,0.04137882590293884
1763690865742168300,5.837168212890625,0.09183799475431442,-0.46852535009384155,0.004841323010623455
1763690865752190500,5.8471904296875,0.17433227598667145,-0.5702597498893738,-0.0068641547113657
1763690865762212600,5.857212646484375,0.26000937819480896,-0.6367476582527161,0.0035610562190413475
1763690865772234500,5.867234375,0.3365992605686188,-0.7521629929542542,0.018339021131396294
1763690865782257700,5.877257568359375,0.40662682056427,-0.8311001658439636,0.02416575327515602
1763690865792279600,5.887279541015625,0.4533374607563019,-0.7893099784851074,0.0208725742995739
1763690865802301400,5.897301513671875,0.4579809308052063,-0.6271287798881531,0.027705982327461243
1763690865812323600,5.907323486328125,0.43489572405815125,-0.4086160361766815,0.05482007563114166
1763690865822345500,5.917345458984375,0.3906424939632416,-0.18057675659656525,0.09687565267086029
1763690865832367400,5.927367431640625,0.33861252665519714,0.04247743636369705,0.14419834315776825
1763690865842389500,5.937389404296875,0.2923848330974579,0.2097143679857254,0.18812371790409088
1763690865852411400,5.947411376953125,0.265487402677536,0.32676321268081665,0.22733095288276672
1763690865862433500,5.95743359375,0.25951632857322693,0.3623577058315277,0.2696842551231384
1763690865872455700,5.96745556640625,0.28111696243286133,0.3214322626590729,0.29311928153038025
1763690865882477600,5.9774775390625,0.31757110357284546,0.2319258153438568,0.2863580584526062
1763690865892499500,5.98749951171875,0.364840030670166,0.10256621986627579,0.2517276406288147
1763690865902522600,5.997522705078125,0.4154190421104431,-0.04356302693486214,0.20927338302135468
1763690865912544500,6.00754443359375,0.4562622308731079,-0.12618409097194672,0.16618646681308746
1763690865922566400,6.01756640625,0.4790729880332947,-0.13115648925304413,0.1253410279750824
1763690865932588500,6.027588623046875,0.4764607846736908,-0.10713616758584976,0.11451322585344315
1763690865942610400,6.0376103515625,0.4600016474723816,-0.065445177257061,0.13534793257713318
1763690865952632300,6.04763232421875,0.46658188104629517,-0.03889867290854454,0.1799623668193817
1763690865962654500,6.057654541015625,0.49574747681617737,-0.06258216500282288,0.23018984496593475
1763690865972676600,6.067676513671875,0.5409438610076904,-0.10399692505598068,0.25840088725090027
1763690865982698500,6.077698486328125,0.5837147831916809,-0.14037863910198212,0.24467948079109192
1763690865992720600,6.087720703125,0.6097195148468018,-0.18720152974128723,0.1990094780921936
1763690866002742500,6.097742431640625,0.6180813312530518,-0.2098434567451477,0.14420640468597412
1763690866012764400,6.107764404296875,0.6166113615036011,-0.17028039693832397,0.10493019223213196
1763690866022787600,6.11778759765625,0.5973923802375793,-0.11159524321556091,0.08563878387212753
1763690866032809500,6.1278095703125,0.5466307401657104,-0.028220338746905327,0.07643099874258041
1763690866042831400,6.137831298828125,0.4863828420639038,0.06457804143428802,0.07579690217971802
1763690866052853500,6.147853515625,0.42667174339294434,0.14729979634284973,0.07751242071390152
1763690866062875400,6.15787548828125,0.379393994808197,0.18488499522209167,0.07080498337745667
1763690866072897500,6.1678974609375,0.34956204891204834,0.1944032907485962,0.047942012548446655
1763690866082919700,6.177919677734375,0.3428319990634918,0.2020987570285797,0.008574363775551319
1763690866092941600,6.187941650390625,0.35515114665031433,0.2079457938671112,-0.031658366322517395
1763690866102963500,6.19796337890625,0.3706243932247162,0.2186993658542633,-0.0618990957736969
1763690866112985600,6.207985595703125,0.3813755214214325,0.20699256658554077,-0.06978631019592285
1763690866123007500,6.218007568359375,0.38308075070381165,0.19109243154525757,-0.07159433513879776
1763690866133030400,6.228030517578125,0.367397665977478,0.15301765501499176,-0.07796461135149002
1763690866143052500,6.238052490234375,0.3341608941555023,0.1121988520026207,-0.08924096822738647
1763690866153074400,6.248074462890625,0.2939318120479584,0.079193614423275,-0.1076025739312172
1763690866163096300,6.258096435546875,0.25751227140426636,0.054156702011823654,-0.1331540048122406
1763690866173118500,6.268118408203125,0.22958016395568848,0.04713907092809677,-0.1545555144548416
1763690866183140600,6.278140625,0.21561294794082642,0.04254405200481415,-0.1779380738735199
1763690866193162500,6.28816259765625,0.21411877870559692,0.040936779230833054,-0.20912332832813263
1763690866203184600,6.2981845703125,0.21383647620677948,0.07411044836044312,-0.2464698851108551
1763690866213206500,6.30820654296875,0.19916322827339172,0.13262195885181427,-0.26540231704711914
1763690866223228400,6.318228515625,0.16841863095760345,0.2002505362033844,-0.26078253984451294
1763690866233250600,6.32825048828125,0.11129222065210342,0.27266350388526917,-0.23385104537010193
1763690866243272400,6.3382724609375,0.036386556923389435,0.33789682388305664,-0.18149517476558685
1763690866253295400,6.34829541015625,-0.03855309262871742,0.3781856596469879,-0.10457393527030945
1763690866263317500,6.3583173828125,-0.08988925069570541,0.38954564929008484,-0.012086879462003708
1763690866273339400,6.36833935546875,-0.10439116507768631,0.3542298376560211,0.07124005258083344
1763690866283361500,6.378361572265625,-0.09631247073411942,0.265586256980896,0.12496933341026306
1763690866293383700,6.3883837890625,-0.08153297752141953,0.15339280664920807,0.13932962715625763
1763690866303405600,6.398405517578125,-0.06539581716060638,0.025206606835126877,0.1151004508137703
1763690866313427500,6.408427490234375,-0.058539215475320816,-0.11983801424503326,0.06838355213403702
1763690866323449600,6.41844970703125,-0.06726159900426865,-0.2579226493835449,0.01845434680581093
1763690866333471500,6.428471435546875,-0.08278188854455948,-0.37870436906814575,-0.004509208258241415
1763690866343493400,6.438493408203125,-0.10230658948421478,-0.47574836015701294,0.005862472578883171
1763690866353515300,6.448515380859375,-0.1220698282122612,-0.5480611324310303,0.04763743281364441
1763690866363537700,6.45853759765625,-0.13333766162395477,-0.5799106359481812,0.11022038757801056
1763690866373560300,6.468560302734375,-0.13612690567970276,-0.5650767683982849,0.17769494652748108
1763690866383582700,6.478582763671875,-0.14477844536304474,-0.5239810347557068,0.2357870191335678
1763690866393604600,6.4886044921875,-0.15380547940731049,-0.4653681218624115,0.2738180160522461
1763690866403626500,6.49862646484375,-0.1669148951768875,-0.3804852068424225,0.2885759174823761
1763690866413648600,6.508648681640625,-0.18308225274085999,-0.29059165716171265,0.2925138473510742
1763690866423670500,6.51867041015625,-0.2037060409784317,-0.2086792141199112,0.3005131781101227
1763690866433692400,6.5286923828125,-0.23557136952877045,-0.12451136857271194,0.30422183871269226
1763690866443714600,6.538714599609375,-0.2701333463191986,-0.030643191188573837,0.2996459901332855
1763690866453736400,6.548736328125,-0.3036348819732666,0.04086710885167122,0.2913779318332672
1763690866463758600,6.558758544921875,-0.34664013981819153,0.08798135817050934,0.2682555615901947
1763690866473780500,6.568780517578125,-0.374385803937912,0.14000308513641357,0.24054023623466492
1763690866483802600,6.578802734375,-0.3811701834201813,0.17229391634464264,0.22287441790103912
1763690866493824500,6.588824462890625,-0.37379011511802673,0.17909745872020721,0.20109127461910248
1763690866503847700,6.59884765625,-0.359386146068573,0.16180182993412018,0.1726151555776596
1763690866513869600,6.60886962890625,-0.3484989106655121,0.12381599843502045,0.1425563097000122
1763690866523891500,6.618891357421875,-0.3513934910297394,0.08336391299962997,0.12357383221387863
1763690866533913600,6.62891357421875,-0.3783394396305084,0.05808960646390915,0.12825824320316315
1763690866543935500,6.638935546875,-0.4163515269756317,0.05852103605866432,0.15403792262077332
1763690866553957400,6.648957275390625,-0.4501396715641022,0.05611759424209595,0.18297386169433594
1763690866563979300,6.658979248046875,-0.4770607650279999,0.046108901500701904,0.21033331751823425
1763690866574001700,6.669001708984375,-0.49874237179756165,0.051978595554828644,0.2231769561767578
1763690866584023600,6.6790234375,-0.5259271264076233,0.054225239902734756,0.21670013666152954
1763690866594045400,6.68904541015625,-0.5699625611305237,0.04770694300532341,0.19874101877212524
1763690866604067600,6.699067626953125,-0.6181151866912842,0.06545718014240265,0.15050531923770905
1763690866614090500,6.709090576171875,-0.6634772419929504,0.12992709875106812,0.09053527563810349
1763690866624113400,6.719113525390625,-0.6933163404464722,0.19521263241767883,0.048177167773246765
1763690866634135300,6.72913525390625,-0.7027298212051392,0.25616538524627686,0.023220419883728027
1763690866644157200,6.7391572265625,-0.6840826869010925,0.2757982015609741,0.01583174616098404
1763690866654179000,6.749178955078125,-0.6550065279006958,0.22013404965400696,0.005803611595183611
1763690866664201200,6.759201171875,-0.6166412830352783,0.12728720903396606,-0.023174509406089783
1763690866674223000,6.76922314453125,-0.5536373257637024,0.02193271555006504,-0.0721479058265686
1763690866684245000,6.779244873046875,-0.4859413802623749,-0.08608243614435196,-0.11606263369321823
1763690866694267400,6.789267333984375,-0.4433636963367462,-0.1712390035390854,-0.15143118798732758
1763690866704289300,6.799289306640625,-0.4175880253314972,-0.1988282948732376,-0.18150334060192108
1763690866714311200,6.809311279296875,-0.4063551723957062,-0.16970603168010712,-0.20631662011146545
1763690866724333300,6.819333251953125,-0.4236585199832916,-0.15837109088897705,-0.2219453752040863
1763690866734356200,6.829356201171875,-0.4719497561454773,-0.1527930498123169,-0.24695494771003723
1763690866744378000,6.839378173828125,-0.5149432420730591,-0.1362401694059372,-0.2751530408859253
1763690866754400300,6.849400146484375,-0.5314209461212158,-0.12518589198589325,-0.276697039604187
1763690866764422100,6.859422119140625,-0.5182095170021057,-0.109134741127491,-0.2512185871601105
1763690866774444000,6.869444091796875,-0.4836241900920868,-0.07148158550262451,-0.1961498260498047
1763690866784466200,6.879466064453125,-0.451625257730484,-0.027567921206355095,-0.12770631909370422
1763690866794488000,6.889488037109375,-0.4394465386867523,0.038576506078243256,-0.07967933267354965
1763690866804510200,6.89951025390625,-0.4669804275035858,0.1510266214609146,-0.07793602347373962
1763690866814532400,6.909532470703125,-0.5138919949531555,0.30107393860816956,-0.09742920845746994
1763690866824554200,6.91955419921875,-0.555634081363678,0.4207310974597931,-0.10303463041782379
1763690866834576100,6.929576171875,-0.560556173324585,0.4989214837551117,-0.09900020062923431
1763690866844598300,6.939598388671875,-0.5443924069404602,0.5199143886566162,-0.07340322434902191
1763690866854620200,6.9496201171875,-0.5221526622772217,0.4362049996852875,-0.030416442081332207
1763690866864643000,6.95964306640625,-0.4688800871372223,0.25351083278656006,0.005430503748357296
1763690866874665200,6.969665283203125,-0.44346749782562256,0.19294092059135437,0.017860982567071915
1763690866884687000,6.97968701171875,-0.4426616430282593,0.19722089171409607,0.040309302508831024
1763690866894709000,6.989708984375,-0.45716413855552673,0.21008342504501343,0.07368803024291992
1763690866904731400,6.9997314453125,-0.4910605847835541,0.32406964898109436,0.12004806846380234
1763690866914753300,7.009753173828125,-0.513018786907196,0.39516693353652954,0.19206909835338593
1763690866924775200,7.019775146484375,-0.4906066656112671,0.3958452343940735,0.2610929012298584
1763690866934797300,7.02979736328125,-0.42109259963035583,0.39032503962516785,0.27954861521720886
1763690866944819200,7.039819091796875,-0.34031200408935547,0.40092626214027405,0.2385316640138626
1763690866954841000,7.049841064453125,-0.2665666341781616,0.4516698122024536,0.161708801984787
1763690866964863200,7.05986328125,-0.195326030254364,0.5491838455200195,0.07628417015075684
1763690866974885000,7.069885009765625,-0.1326872557401657,0.6763501167297363,-0.00124639761634171
1763690866984908000,7.079907958984375,-0.10374987870454788,0.7930263876914978,-0.06981240957975388
1763690866994930200,7.08993017578125,-0.06769828498363495,0.9365125894546509,-0.13791492581367493
1763690867004952300,7.099952392578125,0.0012672003358602524,0.9580625891685486,-0.1433294117450714
1763690867014974200,7.10997412109375,0.08917857706546783,0.8143451809883118,-0.11735143512487411
1763690867024996400,7.119996337890625,0.1993708610534668,0.6464470028877258,-0.10539890080690384
1763690867035018200,7.130018310546875,0.2880415618419647,0.4683517813682556,-0.12085487693548203
1763690867045040000,7.1400400390625,0.3298955261707306,0.3184483051300049,-0.15898309648036957
1763690867055062300,7.150062255859375,0.33858317136764526,0.21104885637760162,-0.2136496603488922
1763690867065084200,7.160084228515625,0.3531551957130432,0.1548769176006317,-0.22062340378761292
1763690867075106000,7.17010595703125,0.3338492512702942,0.05430002138018608,-0.17059928178787231
1763690867085128200,7.180128173828125,0.29788297414779663,-0.0842360258102417,-0.14598341286182404
1763690867095150300,7.190150390625,0.25067898631095886,-0.19580143690109253,-0.18221040070056915
1763690867105172200,7.200172119140625,0.22357279062271118,-0.2650529444217682,-0.234543114900589
1763690867115195400,7.2101953125,0.20008887350559235,-0.2951882481575012,-0.2661680579185486
1763690867125217300,7.22021728515625,0.16493834555149078,-0.2559172809123993,-0.2745378315448761
1763690867135239200,7.2302392578125,0.15375058352947235,-0.14660769701004028,-0.26142826676368713
1763690867145261300,7.24026123046875,0.13850745558738708,-0.043115925043821335,-0.24677899479866028
1763690867155283200,7.250283203125,0.14262188971042633,0.1731880158185959,-0.22845469415187836
1763690867165305000,7.26030517578125,0.11349676549434662,0.36070170998573303,-0.17097967863082886
1763690867175327200,7.2703271484375,0.04259081929922104,0.47225362062454224,-0.11413326859474182
1763690867185349000,7.28034912109375,-0.02291841432452202,0.5240862369537354,-0.08741910010576248
1763690867195371300,7.290371337890625,-0.06284467875957489,0.5316196084022522,-0.06399837136268616
1763690867205393400,7.300393310546875,-0.09394480288028717,0.4875304102897644,-0.027402544394135475
1763690867215415300,7.310415283203125,-0.10576941817998886,0.44604364037513733,0.015160184353590012
1763690867225437200,7.320437255859375,-0.1033850908279419,0.4084150493144989,0.04693915322422981
1763690867235460400,7.33046044921875,-0.10416284203529358,0.36023521423339844,0.05294182896614075
1763690867245482200,7.340482177734375,-0.10502117872238159,0.32919207215309143,0.03773811087012291
1763690867255504100,7.350504150390625,-0.10231523215770721,0.2880234122276306,0.0002436409704387188
1763690867265526300,7.3605263671875,-0.09367567300796509,0.20143073797225952,-0.05949026718735695
1763690867275548200,7.370548095703125,-0.08480358123779297,0.041669830679893494,-0.12795133888721466
1763690867285570000,7.380570068359375,-0.07389979809522629,-0.12191510945558548,-0.19283898174762726
1763690867295592200,7.39059228515625,-0.04033171758055687,-0.26710256934165955,-0.2214040458202362
1763690867305614300,7.4006142578125,0.0045286985114216805,-0.36397585272789,-0.1959138661623001
1763690867315636200,7.41063623046875,0.059915605932474136,-0.35486799478530884,-0.13983453810214996
1763690867325658400,7.420658447265625,0.12140639871358871,-0.2664097845554352,-0.06853906065225601
1763690867335680300,7.43068017578125,0.18031665682792664,-0.12508812546730042,-0.004989558830857277
1763690867345702100,7.4407021484375,0.22169658541679382,0.05366351827979088,0.031725309789180756
1763690867355724000,7.45072412109375,0.2397093027830124,0.1714789867401123,0.0333593375980854
1763690867365747200,7.460747314453125,0.23671218752861023,0.24681715667247772,0.0016818367876112461
1763690867375769000,7.47076904296875,0.22260569036006927,0.30757394433021545,-0.034751005470752716
1763690867385791200,7.480791259765625,0.20933328568935394,0.3321879506111145,-0.06512568891048431
1763690867395813000,7.490813232421875,0.20602618157863617,0.3731653392314911,-0.10196679830551147
1763690867405835300,7.500835205078125,0.18480505049228668,0.407688170671463,-0.13832905888557434
1763690867415857400,7.510857421875,0.16666369140148163,0.38336703181266785,-0.18351402878761292
1763690867425879300,7.52087939453125,0.1328793615102768,0.3274161219596863,-0.2329590767621994
1763690867435901200,7.530901123046875,0.10024659335613251,0.2574937045574188,-0.2504142224788666
1763690867445923000,7.540923095703125,0.10921718180179596,-0.08078821003437042,-0.08605032414197922
1763690867455945200,7.5509453125,0.10260254144668579,-0.07590802013874054,-0.10130506753921509
1763690867465967000,7.560967041015625,0.08990432322025299,-0.2330068200826645,-0.12994816899299622
1763690867475989000,7.570989013671875,0.10276578366756439,-0.35146012902259827,-0.12472785264253616
1763690867486011400,7.581011474609375,0.07923116534948349,-0.3899742364883423,-0.11433885991573334
1763690867496034000,7.591033935546875,0.05169430375099182,-0.3938921391963959,-0.09953754395246506
1763690867506056200,7.60105615234375,0.03140421211719513,-0.3465650975704193,-0.09640353918075562
1763690867516078300,7.611078369140625,0.010294342413544655,-0.22421017289161682,-0.09505420178174973
1763690867526100200,7.621100341796875,-0.017853140830993652,-0.05704221874475479,-0.08570091426372528
1763690867536122400,7.631122314453125,-0.03683178871870041,0.12346038967370987,-0.07120469957590103
1763690867546144300,7.641144287109375,-0.04441860318183899,0.2691725790500641,-0.03857804462313652
1763690867556166100,7.651166259765625,-0.04869849979877472,0.3722051680088043,0.013801351189613342
1763690867566188000,7.66118798828125,-0.03854599595069885,0.4112638831138611,0.07678697258234024
1763690867576210200,7.671210205078125,-0.04447542876005173,0.4325285255908966,0.11566229164600372
1763690867586232000,7.681232177734375,-0.04637479782104492,0.42991331219673157,0.13977110385894775
1763690867596254200,7.691254150390625,-0.035752072930336,0.39874711632728577,0.14177504181861877
1763690867606276400,7.7012763671875,-0.025134844705462456,0.3405509293079376,0.12247563898563385
1763690867616298200,7.71129833984375,-0.023285185918211937,0.2590383291244507,0.08471529930830002
1763690867626321200,7.721321044921875,-0.026440497487783432,0.1873612254858017,0.04375481605529785
1763690867636343000,7.731343017578125,-0.03652970865368843,0.1521265059709549,0.019231807440519333
1763690867646365000,7.741364990234375,-0.04615730047225952,0.1422472447156906,0.017457077279686928
1763690867656387000,7.751386962890625,-0.041367415338754654,0.16198523342609406,0.03520270437002182
1763690867666409000,7.761408935546875,-0.018810974434018135,0.20806458592414856,0.06702028959989548
1763690867676430800,7.771430908203125,-0.0034956587478518486,0.25493744015693665,0.1127888485789299
1763690867686453000,7.781452880859375,-0.013444695621728897,0.3189238905906677,0.16400063037872314
1763690867696475100,7.79147509765625,-0.03885802626609802,0.4236237108707428,0.21567757427692413
1763690867706497000,7.8014970703125,-0.07471189647912979,0.5514661073684692,0.2750527560710907
1763690867716519200,7.811519287109375,-0.1048000305891037,0.7052995562553406,0.3461487591266632
1763690867726541000,7.821541015625,-0.10569298267364502,0.899538516998291,0.41384151577949524
1763690867736563000,7.83156298828125,-0.0631835013628006,1.1085186004638672,0.462695449590683
1763690867746584800,7.841584716796875,0.017944637686014175,1.2426013946533203,0.5155349373817444
1763690867756608000,7.85160791015625,0.06889721751213074,1.3858253955841064,0.5548761487007141
1763690867766630000,7.8616298828125,0.012956985272467136,0.28064101934432983,-0.020697401836514473
1763690867776652000,7.871652099609375,0.24707254767417908,0.3398101329803467,0.24993568658828735
1763690867786674000,7.881673828125,0.284288614988327,0.22968870401382446,0.22090697288513184
1763690867796696000,7.891696044921875,0.3013609051704407,0.2555087208747864,0.2830814719200134
1763690867806718200,7.90171826171875,0.3001411557197571,0.01452245470136404,0.2842998802661896
1763690867816740000,7.911739990234375,0.24802541732788086,-0.23043008148670197,0.2634187340736389
1763690867826762000,7.921761962890625,0.15441477298736572,-0.37788689136505127,0.2508925497531891
1763690867836783900,7.931783935546875,0.0726296603679657,-0.49627605080604553,0.23918506503105164
1763690867846806000,7.941805908203125,-0.012561398558318615,-0.48753926157951355,0.22447456419467926
1763690867856828000,7.951827880859375,-0.09338970482349396,-0.35850104689598083,0.2039271891117096
1763690867866849800,7.961849853515625,-0.13898807764053345,-0.2711573541164398,0.1846565455198288
1763690867876872000,7.971871826171875,-0.12639683485031128,-0.23765981197357178,0.17435233294963837
1763690867886894800,7.981894775390625,-0.0527641586959362,-0.22824127972126007,0.1554313749074936
1763690867896917000,7.9919169921875,0.02942979522049427,-0.2518371641635895,0.14167481660842896
1763690867906939100,8.001939208984375,0.10664628446102142,-0.3038468360900879,0.14097414910793304
1763690867916961000,8.0119609375,0.15903152525424957,-0.3031085729598999,0.14498788118362427
1763690867926983200,8.021983154296874,0.22307522594928741,-0.2640213668346405,0.14535698294639587
1763690867937005000,8.032005126953125,0.2570594549179077,-0.2129967212677002,0.14654147624969482
1763690867947027000,8.04202685546875,0.2749108672142029,-0.22629868984222412,0.14964191615581512
1763690867957048800,8.052048828125,0.27753946185112,-0.2673315107822418,0.1418665647506714
1763690867967071000,8.062071044921876,0.29129600524902344,-0.38092464208602905,0.12482766807079315
1763690867977092900,8.0720927734375,0.3260667622089386,-0.5248858332633972,0.10373782366514206
1763690867987115000,8.082114990234375,0.3505476117134094,-0.690690279006958,0.11117017269134521
1763690867997137200,8.09213720703125,0.3332796096801758,-0.8505116701126099,0.12972326576709747
1763690868007159000,8.102158935546875,0.26904603838920593,-1.029877781867981,0.16378189623355865
1763690868017182200,8.11218212890625,0.21706783771514893,-1.0827330350875854,0.1941574662923813
1763690868027204000,8.1222041015625,0.1587909460067749,-1.0972293615341187,0.21513305604457855
1763690868037226000,8.13222607421875,0.08729195594787598,-1.195338487625122,0.2327229082584381
1763690868047248000,8.142247802734374,0.035585880279541016,-1.3866047859191895,0.21951016783714294
1763690868057270000,8.15227001953125,-0.03567766770720482,-1.295289158821106,-0.008581621572375298
1763690868067292000,8.1622919921875,-0.0848018079996109,-1.200600266456604,0.03064833953976631
1763690868077313800,8.172313720703125,-0.024842390790581703,-1.0985294580459595,0.12079921364784241
1763690868087336000,8.1823359375,-0.003372517414391041,-1.2186002731323242,0.12928856909275055
1763690868097358000,8.192358154296874,-0.05742655321955681,-1.1204394102096558,0.12000653147697449
1763690868107380000,8.2023798828125,-0.1538790613412857,-0.7127424478530884,0.09269395470619202
1763690868117402000,8.212402099609376,-0.18793059885501862,-0.2213655561208725,0.0009498235303908587
1763690868127424000,8.222424072265625,-0.1085289865732193,0.17495222389698029,-0.1706421673297882
1763690868137446000,8.23244580078125,0.028734881430864334,0.5281195044517517,-0.4031939208507538
1763690868147468000,8.242468017578124,0.05697184428572655,0.7899303436279297,-0.668916642665863
1763690868157491000,8.252490966796875,0.012033401057124138,0.8005334138870239,-0.9356306195259094
1763690868167512800,8.262512939453124,0.04226870834827423,0.32278552651405334,-1.0984140634536743
1763690868177535000,8.272534912109375,-0.006438907701522112,-0.13562732934951782,-1.1545665264129639
1763690868187556900,8.282556884765626,0.1018550768494606,-0.442483127117157,-1.2155500650405884
1763690868197579000,8.2925791015625,0.15274329483509064,-0.7512074112892151,-1.2515231370925903
1763690868207601200,8.30260107421875,0.1841515600681305,-0.8132518529891968,-1.2725272178649902
1763690868217623000,8.312623046875,0.21083950996398926,-0.6699880361557007,-1.3024704456329346
1763690868227645000,8.32264501953125,0.18835176527500153,-0.4571716785430908,-1.3341468572616577
1763690868237667000,8.3326669921875,0.13401958346366882,-0.36793214082717896,-1.2918906211853027
1763690868247689000,8.34268896484375,0.09574596583843231,-0.03041963092982769,-1.1640706062316895
1763690868257710800,8.3527109375,0.023952454328536987,0.4023134112358093,-0.9589681029319763
1763690868267733000,8.36273291015625,-0.0367250069975853,0.5422228574752808,-0.7385483980178833
1763690868277755100,8.372755126953125,-0.08642729371786118,0.6252431869506836,-0.61709064245224
1763690868287777000,8.382777099609376,-0.10182808339595795,0.7620021104812622,-0.6257480382919312
1763690868297800200,8.39280029296875,-0.05584719777107239,0.9080807566642761,-0.7310123443603516
1763690868307822000,8.402822021484376,-0.043852586299180984,1.4812811613082886,-0.9540637731552124
1763690868317844000,8.412843994140625,-0.0031516687013208866,1.6351640224456787,-1.1200939416885376
1763690868327866000,8.4228662109375,0.055237073451280594,1.6185858249664307,-1.1466187238693237
1763690868337888000,8.432887939453124,0.04303641989827156,1.5499961376190186,-1.0544302463531494
1763690868347910000,8.442909912109375,-0.037691712379455566,1.3490362167358398,-0.9496526122093201
1763690868357932000,8.45293212890625,-0.15202611684799194,0.943622350692749,-0.9086406230926514
1763690868367954000,8.462953857421875,-0.26538729667663574,0.7914698123931885,-0.7983924150466919
1763690868377976000,8.47297607421875,-0.3453004062175751,0.8644581437110901,-0.5567764639854431
1763690868387998200,8.482998291015624,-0.4045698642730713,1.1651062965393066,-0.2108912169933319
1763690868398020000,8.49302001953125,-0.43196603655815125,1.6458054780960083,0.10375407338142395
1763690868408042000,8.5030419921875,-0.4416426420211792,1.7941880226135254,0.3308042585849762
1763690868418064100,8.513064208984375,-0.377197802066803,1.7731655836105347,0.5952714085578918
1763690868428087000,8.523087158203126,-0.2446083277463913,1.8452190160751343,0.8454631567001343
1763690868438109000,8.53310888671875,-0.08289345353841782,2.091770887374878,1.0518019199371338
1763690868448131000,8.543131103515625,0.04464825615286827,2.389468193054199,1.2329498529434204
1763690868458153000,8.553153076171874,0.15613509714603424,2.4710190296173096,1.390573263168335
1763690868468174800,8.5631748046875,0.2464418262243271,2.3549983501434326,1.4809532165527344
1763690868478197000,8.573197021484376,0.2607255280017853,1.6873419284820557,1.3587675094604492
1763690868488219100,8.58321923828125,0.11624529957771301,0.5228984951972961,0.7870547771453857
1763690868498241000,8.593240966796875,-0.029164811596274376,-0.15406353771686554,-0.12248945236206055
1763690868508263200,8.60326318359375,-0.10865164548158646,-0.2422432005405426,-1.0671592950820923
1763690868518285000,8.61328515625,-0.12075313925743103,0.13891957700252533,-1.782731294631958
1763690868528307000,8.623306884765626,-0.25965484976768494,0.6739739179611206,-2.1772122383117676
1763690868538328800,8.633328857421875,-0.4250166118144989,1.3727654218673706,-2.214108943939209
1763690868548351000,8.64335107421875,-0.4463123083114624,2.043958902359009,-2.06671404838562
1763690868558372900,8.653372802734374,-0.4158773720264435,2.755831480026245,-1.7313932180404663
1763690868568396000,8.66339599609375,-0.4290941059589386,2.155228614807129,-1.2326643466949463
1763690868578418000,8.67341796875,-0.4450383484363556,1.5397799015045166,-0.7254369854927063
1763690868588440000,8.683440185546875,-0.4746052920818329,0.9153574109077454,-0.31333547830581665
1763690868598462200,8.693462158203126,-0.4510312080383301,0.29406681656837463,0.03581780567765236
1763690868608484000,8.703484130859374,-0.31233564019203186,-0.21448136866092682,0.3533795177936554
1763690868618506000,8.713506103515625,-0.1403127908706665,-0.5178003907203674,0.5835562348365784
1763690868628528400,8.7235283203125,0.07818067073822021,-0.5330807566642761,0.7527910470962524
1763690868638550300,8.73355029296875,0.31533506512641907,-0.4478572607040405,0.878084123134613
1763690868648572200,8.743572265625,0.46425262093544006,-0.2514725625514984,0.9427462220191956
1763690868658594000,8.753593994140624,0.511185348033905,0.02201644517481327,0.9485970139503479
1763690868668616200,8.7636162109375,0.4976777732372284,0.31342434883117676,0.9189879894256592
1763690868678638300,8.773638427734374,0.4588239789009094,0.6614611744880676,0.8925727605819702
1763690868688660200,8.78366015625,0.5228011012077332,0.9182258248329163,0.9222744703292847
1763690868698682400,8.793682373046876,0.750401496887207,1.0582298040390015,1.0073161125183105
1763690868708704300,8.803704345703125,0.8487773537635803,1.0848957300186157,1.0805411338806152
1763690868718727400,8.8137275390625,0.5202460885047913,0.9329896569252014,1.1371653079986572
1763690868728749300,8.823749267578124,0.016188306733965874,1.0283057689666748,0.9643045663833618
1763690868738771200,8.833771240234375,-0.27963271737098694,0.8193497657775879,0.8283514380455017
1763690868748793300,8.84379345703125,-0.3760407567024231,0.6057347059249878,0.5290720462799072
1763690868758815200,8.853815185546875,-0.3978879451751709,0.5157644748687744,0.1958765685558319
1763690868768837000,8.863837158203125,-0.4082700312137604,0.3922446370124817,-0.06577768921852112
1763690868778859300,8.873859375,-0.45765337347984314,0.2962341904640198,-0.20708347856998444
1763690868788881400,8.88388134765625,-0.5504264235496521,0.2861194908618927,-0.24024276435375214
1763690868798903300,8.8939033203125,-0.578742504119873,0.29996731877326965,-0.24282923340797424
1763690868808925200,8.90392529296875,-0.5711551308631897,0.2375316321849823,-0.2561820447444916
1763690868818947300,8.913947265625,-0.5595747828483582,0.18111661076545715,-0.2916392385959625
1763690868828969200,8.92396923828125,-0.5633705854415894,0.16614538431167603,-0.35780441761016846
1763690868838991000,8.9339912109375,-0.5651558041572571,-0.01048045139759779,-0.49959543347358704
1763690868849013200,8.94401318359375,-0.5957083702087402,-0.15594790875911713,-0.6465502381324768
1763690868859036200,8.9540361328125,-0.6247721910476685,-0.12417609244585037,-0.7038686275482178
1763690868869058000,8.96405810546875,-0.5350691676139832,0.07569387555122375,-0.6211510896682739
1763690868879080200,8.974080078125,-0.36179566383361816,0.1770225316286087,-0.46258702874183655
1763690868889102300,8.984102294921875,-0.2710380554199219,0.07662908732891083,-0.29995042085647583
1763690868899124200,8.994124267578124,-0.27065524458885193,-0.11360011249780655,-0.23697718977928162
1763690868909146400,9.004146484375,-0.32046300172805786,-0.23649567365646362,-0.26995059847831726
1763690868919168300,9.014168212890626,-0.3565295934677124,-0.36243361234664917,-0.3898995518684387
1763690868929190100,9.024190185546875,-0.345235675573349,-0.44189512729644775,-0.5385761260986328
1763690868939212300,9.03421240234375,-0.25262442231178284,-0.32647138833999634,-0.6241891980171204
1763690868949234200,9.044234130859374,-0.15702520310878754,-0.08369365334510803,-0.5605833530426025
1763690868959256000,9.054256103515625,0.024172106757760048,0.17267575860023499,-0.3838516175746918
1763690868969278200,9.0642783203125,0.26642975211143494,0.42678287625312805,-0.22178947925567627
1763690868979300400,9.07430029296875,0.45479822158813477,0.6142162084579468,-0.178818941116333
1763690868989322200,9.084322265625,0.4609922170639038,0.6125560402870178,-0.3114504814147949
1763690868999344400,9.094344482421874,0.24590079486370087,0.44442176818847656,-0.6228119730949402
1763690869009367300,9.1043671875,-0.09503017365932465,0.2570686638355255,-0.9755032062530518
1763690869019389200,9.11438916015625,-0.33148708939552307,0.06757937371730804,-1.2323026657104492
1763690869029411300,9.124411376953125,-0.4033988416194916,-0.03613343834877014,-1.3328338861465454
1763690869039433200,9.13443310546875,-0.3659241497516632,-0.04295556992292404,-1.306657314300537
1763690869049455000,9.144455078125,-0.27802547812461853,0.11113332957029343,-1.1940582990646362
1763690869059477200,9.154477294921875,-0.17817825078964233,0.29395487904548645,-1.0386762619018555
1763690869069499100,9.1644990234375,-0.06227055937051773,0.49830856919288635,-0.9096454977989197
1763690869079521300,9.174521240234375,0.07656440138816833,0.6694944500923157,-0.839043378829956
1763690869089543400,9.18454345703125,0.16691240668296814,0.6019130349159241,-0.7779363393783569
1763690869099565300,9.1945654296875,0.014345833100378513,0.47406044602394104,-0.8597784638404846
1763690869109587200,9.204587158203125,-0.2749190032482147,0.2257385402917862,-0.9926244020462036
1763690869119609300,9.214609375,-0.4823717772960663,-0.015530280768871307,-1.1553200483322144
1763690869129631200,9.22463134765625,-0.5371607542037964,-0.14425548911094666,-1.3114537000656128
1763690869139653000,9.234653076171876,-0.4369358718395233,-0.1605006903409958,-1.415968418121338
1763690869149675000,9.244675048828125,-0.20468291640281677,-0.06140660122036934,-1.4661717414855957
1763690869159698200,9.2546982421875,0.11551739275455475,0.08730011433362961,-1.4202053546905518
1763690869169720000,9.264719970703124,0.5179940462112427,0.22386327385902405,-1.3080178499221802
1763690869179742500,9.274742431640625,0.856884777545929,0.3318190574645996,-1.1942715644836426
1763690869189764400,9.284764404296874,1.0258722305297852,0.3984313905239105,-1.1011881828308105
1763690869199786200,9.2947861328125,1.070728063583374,0.41033226251602173,-1.0525004863739014
1763690869209808400,9.304808349609376,1.0003290176391602,0.39909425377845764,-1.0657457113265991
1763690869219830300,9.314830322265625,0.8482649922370911,0.3315858244895935,-1.123764157295227
1763690869229852200,9.32485205078125,0.700245201587677,0.25106409192085266,-1.1857514381408691
1763690869239874300,9.334874267578124,0.6037131547927856,0.2574162781238556,-1.219792127609253
1763690869249896200,9.344896240234375,0.5909198522567749,0.3030990660190582,-1.226892352104187
1763690869259918300,9.35491845703125,0.6274131536483765,0.4127209186553955,-1.1694008111953735
1763690869269940200,9.364940185546875,0.6877979040145874,0.5408754348754883,-1.0122679471969604
1763690869279962400,9.37496240234375,0.7445365786552429,0.6412450075149536,-0.7761353254318237
1763690869289984300,9.384984375,0.7432284355163574,0.718700110912323,-0.5417332053184509
1763690869300006100,9.395006103515625,0.6346117258071899,0.7955798506736755,-0.39977601170539856
1763690869310029300,9.405029296875,0.48613762855529785,0.871915876865387,-0.3538082540035248
1763690869320051200,9.41505126953125,0.39068976044654846,0.9302141070365906,-0.36793649196624756
1763690869330073300,9.4250732421875,0.37774306535720825,0.987055242061615,-0.4218077063560486
1763690869340095200,9.43509521484375,0.4133217930793762,0.9575837850570679,-0.5168426632881165
1763690869350117000,9.4451171875,0.45264947414398193,0.930828869342804,-0.6303542852401733
1763690869360139000,9.455138916015626,0.5096938014030457,0.869129478931427,-0.7163456678390503
1763690869370161400,9.465161376953125,0.5891427993774414,0.8047670125961304,-0.7404611110687256
1763690869380183300,9.475183349609376,0.7116254568099976,0.8105176091194153,-0.6992805004119873
1763690869390205200,9.485205078125,0.8586927056312561,0.793879508972168,-0.6247846484184265
1763690869400227300,9.495227294921875,0.9451470971107483,0.767774224281311,-0.5606018304824829
1763690869410249200,9.505249267578124,0.9389634728431702,0.6581092476844788,-0.5176447629928589
1763690869420271000,9.51527099609375,0.8457639813423157,0.5165790915489197,-0.5131278038024902
1763690869430293200,9.525293212890626,0.7020949721336365,0.34175026416778564,-0.5222116112709045
1763690869440315100,9.535315185546875,0.5558833479881287,0.13930684328079224,-0.5384963750839233
1763690869450337300,9.545337158203125,0.4485182464122772,-0.09256552159786224,-0.542705774307251
1763690869460360200,9.555360107421874,0.39594078063964844,-0.3257102072238922,-0.507571816444397
1763690869470382300,9.56538232421875,0.3513386845588684,-0.5477908849716187,-0.41319602727890015
1763690869480404200,9.575404296875,0.2645193934440613,-0.7116680145263672,-0.27260851860046387
1763690869490426400,9.58542626953125,0.16229155659675598,-0.7588049173355103,-0.09674479812383652
1763690869500448300,9.5954482421875,0.06646017730236053,-0.6851112842559814,0.08716730773448944
1763690869510470100,9.60547021484375,-0.03748379647731781,-0.5897197723388672,0.25355762243270874
1763690869520492300,9.6154921875,-0.13842806220054626,-0.5149102807044983,0.3957780599594116
1763690869530514200,9.62551416015625,-0.22525084018707275,-0.4524591863155365,0.532402515411377
1763690869540536000,9.6355361328125,-0.2949576675891876,-0.3992999494075775,0.6755128502845764
1763690869550558200,9.64555810546875,-0.36881324648857117,-0.36479416489601135,0.815275251865387
1763690869560580400,9.655580322265624,-0.4563111662864685,-0.32965704798698425,0.9358173608779907
1763690869570602200,9.665602294921875,-0.5365263819694519,-0.28192681074142456,1.023412823677063
1763690869580624400,9.675624267578126,-0.6069152355194092,-0.2916126847267151,1.0833579301834106
1763690869590646300,9.685646240234375,-0.6240244507789612,-0.3403370976448059,1.1244654655456543
1763690869600668200,9.695668212890626,-0.5763518214225769,-0.42511120438575745,1.1433011293411255
1763690869610690300,9.705690185546874,-0.4564219117164612,-0.5701988935470581,1.1218655109405518
1763690869620713200,9.715713134765625,-0.27568426728248596,-0.8005682826042175,1.050015926361084
1763690869630735400,9.7257353515625,-0.04788040742278099,-0.9601105451583862,0.9272911548614502
1763690869640757500,9.735757568359375,0.18065740168094635,-0.996720016002655,0.7723675966262817
1763690869650779400,9.745779296875,0.34343087673187256,-0.9575254321098328,0.6152357459068298
1763690869660801500,9.755801513671875,0.4312569797039032,-0.8332096934318542,0.46591290831565857
1763690869670823700,9.76582373046875,0.4474652409553528,-0.6460281014442444,0.33943355083465576
1763690869680845600,9.775845458984374,0.39922115206718445,-0.3976115882396698,0.2458539605140686
1763690869690867500,9.785867431640625,0.30547523498535156,-0.119772769510746,0.1552225947380066
1763690869700889300,9.795889404296876,0.18949280679225922,0.11568372696638107,0.05165718495845795
1763690869710911500,9.805911376953125,0.10095123946666718,0.32471153140068054,-0.03896379470825195
1763690869720933400,9.815933349609375,0.05818920582532883,0.5155311226844788,-0.08306699991226196
1763690869730955300,9.825955322265624,0.03414778783917427,0.6785644888877869,-0.06071535497903824
1763690869740977400,9.835977294921875,0.032272819429636,0.7962368130683899,-0.008602460846304893
1763690869750999600,9.84599951171875,0.04439419507980347,0.8611716032028198,0.016057612374424934
1763690869761021400,9.856021484375,0.09913616627454758,0.8689249753952026,-0.010908600874245167
1763690869771043600,9.866043701171876,0.2268592268228531,0.8771660923957825,-0.061773378401994705
1763690869781066500,9.87606640625,0.39972683787345886,0.9240643382072449,-0.12397633492946625
1763690869791088400,9.88608837890625,0.5614550113677979,0.9706931114196777,-0.1904323250055313
1763690869801110500,9.896110595703124,0.6571909785270691,0.9971413612365723,-0.2909729480743408
1763690869811132400,9.90613232421875,0.6465111374855042,1.0486443042755127,-0.4532950222492218
1763690869821154300,9.916154296875,0.5550193190574646,1.1813223361968994,-0.6929169297218323
1763690869831176400,9.926176513671875,0.44002801179885864,1.3842130899429321,-0.976406991481781
1763690869841198300,9.9361982421875,0.349626749753952,1.5811145305633545,-1.2267392873764038
1763690869851220500,9.946220458984374,0.30529284477233887,1.7124286890029907,-1.3755098581314087
1763690869861242600,9.95624267578125,0.307428777217865,1.7796568870544434,-1.393905758857727
1763690869871264500,9.966264404296876,0.311615526676178,1.7504804134368896,-1.325391411781311
1763690869881286400,9.976286376953125,0.31851524114608765,1.6431151628494263,-1.2225154638290405
1763690869891308500,9.98630859375,0.394245445728302,1.5018408298492432,-1.101505994796753
1763690869901330400,9.996330322265624,0.5255421996116638,1.3507051467895508,-0.978393018245697
1763690869911352300,10.006352294921875,0.6751402020454407,1.1843814849853516,-0.8566498160362244
1763690869921374500,10.01637451171875,-0.6811804175376892,1.532942295074463,0.30024024844169617
1763690869931396600,10.026396728515625,-1.1974093914031982,1.7007330656051636,0.7813717126846313
1763690869941419300,10.036419189453126,-1.4640178680419922,1.86631178855896,0.8618749380111694
1763690869951441400,10.04644140625,-1.7206674814224243,2.0781326293945312,0.7775845527648926
1763690869961463600,10.056463623046875,-1.6467739343643188,1.812102198600769,0.6644636392593384
1763690869971485400,10.0664853515625,-1.1346731185913086,1.590051293373108,0.4255395233631134
1763690869981507600,10.076507568359375,-0.46739158034324646,1.1473411321640015,0.08309579640626907
1763690869991529500,10.086529541015626,0.17762550711631775,0.531043291091919,-0.39231228828430176
1763690870001551400,10.09655126953125,0.7105434536933899,-0.03176724165678024,-0.8702053427696228
1763690870011573500,10.106573486328125,1.003318428993225,-0.4639415740966797,-1.1803817749023438
1763690870021595400,10.116595458984374,1.054182529449463,-0.7847396731376648,-1.3195652961730957
1763690870031617300,10.1266171875,0.9570804834365845,-0.9665289521217346,-1.3306976556777954
1763690870041639700,10.1366396484375,0.7754257917404175,-0.9768508076667786,-1.246752381324768
1763690870051661600,10.14666162109375,0.534416675567627,-0.9066749215126038,-1.106436848640442
1763690870061683500,10.156683349609375,0.30990898609161377,-0.83929443359375,-0.924814760684967
1763690870071705300,10.166705322265624,0.16879045963287354,-0.7352268695831299,-0.7016935348510742
1763690870081727500,10.1767275390625,0.11589405685663223,-0.5459615588188171,-0.45168018341064453
1763690870091749400,10.186749267578126,0.11397631466388702,-0.296832412481308,-0.1803186982870102
1763690870101771300,10.196771240234375,0.1365632861852646,-0.04135497659444809,0.05920484662055969
1763690870111794400,10.20679443359375,0.19894783198833466,0.15637966990470886,0.2562992572784424
1763690870121816300,10.21681640625,0.3033445477485657,0.2777335047721863,0.4106456935405731
1763690870131838500,10.22683837890625,0.39457938075065613,0.3489674925804138,0.5428245067596436
1763690870141860600,10.236860595703124,0.4282244145870209,0.36040255427360535,0.6274394989013672
1763690870151882500,10.246882568359375,0.43000102043151855,0.31519007682800293,0.6494569182395935
1763690870161904600,10.256904541015626,0.45738667249679565,0.2828161120414734,0.6227980256080627
1763690870171926500,10.266926513671875,0.5247942209243774,0.2798821032047272,0.5793501734733582
1763690870181948400,10.276948486328125,0.6316230297088623,0.2885899543762207,0.5487963557243347
1763690870191970300,10.28697021484375,0.7650750875473022,0.33302080631256104,0.52897709608078
1763690870201992400,10.296992431640625,0.8837563991546631,0.37892624735832214,0.5131170749664307
1763690870212014300,10.307014404296876,0.9760690331459045,0.41155850887298584,0.479568749666214
1763690870222036500,10.317036376953125,1.0329521894454956,0.4879515767097473,0.4177081286907196
1763690870232058600,10.32705859375,1.052272915840149,0.6044059991836548,0.32477501034736633
1763690870242080500,10.33708056640625,1.074525237083435,0.7477666735649109,0.21195293962955475
1763690870252102400,10.347102294921875,1.1130987405776978,0.8949068188667297,0.08945019543170929
1763690870262124500,10.35712451171875,1.1390007734298706,0.9943212866783142,-0.025220347568392754
1763690870272146400,10.367146484375,1.1395916938781738,1.059956431388855,-0.1336621344089508
1763690870282169300,10.37716943359375,1.1194024085998535,1.1025259494781494,-0.23771832883358002
1763690870292191500,10.38719140625,1.0438083410263062,1.1208170652389526,-0.3051040470600128
1763690870302213400,10.39721337890625,0.9576734900474548,1.0687050819396973,-0.38079002499580383
1763690870312235300,10.4072353515625,0.902752697467804,0.9890583753585815,-0.4647866487503052
1763690870322257400,10.41725732421875,0.8634910583496094,0.9770148396492004,-0.5528003573417664
1763690870332279600,10.427279541015626,0.811829686164856,0.935137152671814,-0.6367096304893494
1763690870342301400,10.437301513671875,0.7373063564300537,0.8512507081031799,-0.7205545902252197
1763690870352323600,10.447323486328125,0.6289577484130859,0.7720333337783813,-0.813854992389679
1763690870362345500,10.457345458984374,0.47498467564582825,0.7365374565124512,-0.9325406551361084
1763690870372367400,10.467367431640625,0.2986147105693817,0.7486186027526855,-1.0540860891342163
1763690870382389500,10.477389404296876,0.14848235249519348,0.7253587245941162,-1.1399174928665161
1763690870392411400,10.487411376953125,0.05732979625463486,0.6496405601501465,-1.1745574474334717
1763690870402433300,10.497433349609375,0.005360362585633993,0.5410826206207275,-1.162276029586792
1763690870412455700,10.50745556640625,-0.043963778764009476,0.4491085112094879,-1.1134027242660522
1763690870422477600,10.5174775390625,-0.11980340629816055,0.3755473792552948,-1.051649570465088
1763690870432499500,10.52749951171875,-0.2499518096446991,0.2351367473602295,-0.9563999772071838
1763690870442521600,10.537521484375,-0.4137590229511261,0.019072918221354485,-0.5400386452674866
1763690870452544500,10.54754443359375,-0.5435327887535095,0.3160760998725891,-0.32859674096107483
1763690870462566400,10.55756640625,-0.6314099431037903,0.364685595035553,-0.5706437230110168
1763690870472588500,10.567588623046875,-0.7444770932197571,0.42617425322532654,-0.7854753732681274
1763690870482610400,10.5776103515625,-0.837576687335968,0.41354572772979736,-0.7228615283966064
1763690870492632300,10.58763232421875,-0.9331146478652954,0.35672399401664734,-0.582949161529541
1763690870502654500,10.597654541015626,-1.0688681602478027,0.23938250541687012,-0.4867327809333801
1763690870512676400,10.60767626953125,-1.2369441986083984,0.1564420759677887,-0.49472466111183167
1763690870522698500,10.617698486328125,-1.3810070753097534,0.11337509751319885,-0.5893305540084839
1763690870532720600,10.627720703125,-1.4277231693267822,0.08130984008312225,-0.6980266571044922
1763690870542742500,10.637742431640625,-1.3750287294387817,0.017949920147657394,-0.7666189074516296
1763690870552764400,10.647764404296876,-1.2192939519882202,-0.15836837887763977,-0.7657395601272583
1763690870562786300,10.657786376953124,-0.9873799085617065,-0.361633837223053,-0.6878699064254761
1763690870572808400,10.667808349609375,-0.7344051599502563,-0.49408403038978577,-0.5422934889793396
1763690870582830300,10.677830322265624,-0.5357062816619873,-0.4828501343727112,-0.3711564242839813
1763690870592852500,10.6878525390625,-0.45691290497779846,-0.318742960691452,-0.23835869133472443
1763690870602874600,10.69787451171875,-0.5079611539840698,-0.16063423454761505,-0.08109263330698013
1763690870612896500,10.707896484375,-0.5934403538703918,0.010018994100391865,0.23003622889518738
1763690870622919700,10.717919677734375,-0.7727508544921875,0.1793583333492279,0.5403079390525818
1763690870632940500,10.7279404296875,-1.0780469179153442,0.21814382076263428,0.7633428573608398
1763690870642962700,10.737962646484375,-1.4713386297225952,0.2390085905790329,0.7754061222076416
1763690870652984600,10.747984619140626,-1.7524855136871338,0.20695903897285461,0.7253208756446838
1763690870663006500,10.75800634765625,-1.7517602443695068,0.18835966289043427,0.5866096615791321
1763690870673028400,10.7680283203125,-1.3569810390472412,0.13808423280715942,0.4335598945617676
1763690870683050800,10.77805078125,-0.9794401526451111,0.010589389130473137,0.18419699370861053
1763690870693072600,10.78807275390625,-0.5886784791946411,0.006840190850198269,0.04689158871769905
1763690870703094500,10.798094482421876,-0.5996922850608826,0.0397564172744751,-0.08671895414590836
1763690870713116700,10.80811669921875,-0.92939692735672,0.1606823056936264,-0.06913836300373077
1763690870723138600,10.818138671875,-1.2539241313934326,0.36300718784332275,0.06924162060022354
1763690870733160400,10.828160400390624,-1.4901968240737915,0.524060845375061,0.1284371316432953
1763690870743182600,10.8381826171875,-1.6698349714279175,0.47189855575561523,0.01942465268075466
1763690870753204500,10.84820458984375,-1.7946327924728394,0.3397926986217499,-0.1413213610649109
1763690870763226600,10.8582265625,-1.9296926259994507,0.5247841477394104,-0.3000577688217163
1763690870773248800,10.868248779296875,-2.072619915008545,0.7926028370857239,-0.36402156949043274
1763690870783270700,10.878270751953124,-2.15169095993042,1.110904574394226,-0.3894757926464081
1763690870793292500,10.88829248046875,-2.311958074569702,1.4027305841445923,-0.46533408761024475
1763690870803315700,10.898315673828124,-2.6520726680755615,1.6983319520950317,-0.6257646679878235
1763690870813337600,10.908337646484375,-3.019850254058838,1.9179247617721558,-0.8428308963775635
1763690870823359500,10.918359375,-3.2896201610565186,2.228273868560791,-1.0516973733901978
1763690870833381600,10.928381591796875,-3.4385745525360107,2.414341688156128,-1.2585903406143188
1763690870843403500,10.938403564453125,-3.4226014614105225,2.6442830562591553,-1.2900551557540894
1763690870853425400,10.94842529296875,-3.3502495288848877,2.5982506275177,-0.8574922680854797
1763690870863447600,10.958447509765625,-3.1861698627471924,2.29267954826355,-0.13622260093688965
1763690870873469700,10.9684697265625,-2.9595868587493896,2.0290439128875732,0.46485230326652527
1763690870883491600,10.97849169921875,-2.590989112854004,1.741188645362854,0.7204253673553467
1763690870893513700,10.988513671875,-2.291661262512207,1.389200210571289,0.6863097548484802
1763690870903535600,10.99853564453125,-1.969031810760498,1.1719841957092285,0.584870457649231
1763690870913557500,11.0085576171875,-1.9471237659454346,0.7335658669471741,0.5098146200180054
1763690870923579600,11.01857958984375,-2.1982128620147705,0.44491901993751526,0.489193856716156
1763690870933601500,11.0286015625,-2.3711960315704346,0.3579585552215576,0.5128856301307678
1763690870943623400,11.03862353515625,-2.542663097381592,0.33766621351242065,0.4767500162124634
1763690870953645600,11.0486455078125,-2.4670281410217285,0.2596505284309387,0.4395648241043091
1763690870963667700,11.058667724609375,-2.3224923610687256,0.0027347211726009846,0.3775096535682678
1763690870973689600,11.068689697265626,-2.107206106185913,-0.08798213303089142,0.3278869688510895
1763690870983711500,11.07871142578125,-1.963952898979187,0.0391077883541584,0.28818708658218384
1763690870993734700,11.088734619140626,-1.8929330110549927,0.35384950041770935,0.28056269884109497
1763690871003756500,11.098756591796874,-1.8654673099517822,0.5400025248527527,0.30249348282814026
1763690871013778700,11.10877880859375,-1.8666353225708008,0.4705432951450348,0.2914128601551056
1763690871023800600,11.118800537109376,-1.7930982112884521,0.35433053970336914,0.26220449805259705
1763690871033822500,11.128822509765625,-1.6341447830200195,0.11180151998996735,0.21119776368141174
1763690871043844600,11.1388447265625,-1.2374628782272339,-0.6234927177429199,0.15587051212787628
1763690871053866800,11.14886669921875,-0.681398868560791,-1.2549808025360107,0.13046900928020477
1763690871063888600,11.158888671875,-0.3287714719772339,-1.5664067268371582,0.20073048770427704
1763690871073910500,11.16891064453125,-0.20011281967163086,-1.6226569414138794,0.490278422832489
1763690871083932700,11.1789326171875,-0.22120681405067444,-1.2543938159942627,0.6249164938926697
1763690871093954600,11.18895458984375,-0.4555298388004303,-0.6252715587615967,0.5931209921836853
1763690871103976400,11.1989765625,-0.7069428563117981,-0.25672009587287903,0.49598655104637146
1763690871113998600,11.20899853515625,-0.8563075661659241,0.05399758368730545,0.4257560670375824
1763690871124020500,11.2190205078125,-0.8756118416786194,0.17167553305625916,0.4162101447582245
1763690871134042600,11.229042724609375,-0.6452729105949402,0.2893049716949463,0.3669581711292267
1763690871144064800,11.239064697265626,-0.4101029634475708,0.4889122545719147,0.25562426447868347
1763690871154086700,11.249086669921875,-0.166905477643013,0.5987915992736816,0.09236238151788712
1763690871164108500,11.259108642578125,-0.07770559191703796,0.5554738640785217,-0.1279333531856537
1763690871174130700,11.269130615234374,-0.15578122437000275,0.4199509620666504,-0.3098680078983307
1763690871184153600,11.279153564453125,-0.2319229394197464,0.2837850749492645,-0.4228484034538269
1763690871194175500,11.289175537109376,-0.2496662586927414,0.24899780750274658,-0.49277421832084656
1763690871204197600,11.29919775390625,-0.2655697166919708,0.2985629141330719,-0.5461819171905518
1763690871214219500,11.309219482421875,-0.16074426472187042,0.5548045635223389,-0.5956602096557617
1763690871224241400,11.319241455078124,0.015317841432988644,0.7238510847091675,-0.5974006652832031
1763690871234263600,11.329263671875,0.16557686030864716,0.8282001614570618,-0.5377380847930908
1763690871244285700,11.33928564453125,0.2466457039117813,1.032347321510315,-0.43345773220062256
1763690871254307600,11.3493076171875,-0.13775230944156647,1.5273488759994507,-0.27382251620292664
1763690871264329700,11.359329833984376,-0.4984093904495239,1.9386422634124756,-0.03622180223464966
1763690871274351600,11.3693515625,-0.8019482493400574,1.0662903785705566,0.12167089432477951
1763690871284373500,11.37937353515625,-1.1572750806808472,0.8621568083763123,0.2618098258972168
1763690871294395600,11.389395751953124,-1.4258806705474854,0.7627213001251221,0.33963775634765625
1763690871304417500,11.39941748046875,-1.6453373432159424,0.03951853886246681,0.19997763633728027
1763690871314439400,11.409439453125,-1.8416469097137451,-0.36218228936195374,-0.02581154555082321
1763690871324461800,11.4194619140625,-1.8617873191833496,-0.5632412433624268,-0.2032395899295807
1763690871334483700,11.429483642578125,-1.7469373941421509,-0.5462034344673157,-0.5188055038452148
1763690871344505600,11.439505615234374,-1.6589943170547485,-0.24136167764663696,-0.6156337857246399
1763690871354527500,11.449527587890625,-1.6134623289108276,0.1587500423192978,-0.6487970352172852
1763690871364549600,11.459549560546876,-1.5901284217834473,0.3852033317089081,-0.5966647863388062
1763690871374571500,11.469571533203125,-1.5138837099075317,0.2904089093208313,-0.4847275912761688
1763690871384594700,11.4795947265625,-1.2773939371109009,-0.07823091000318527,-0.277261346578598
1763690871394616600,11.489616455078124,-0.6361225843429565,-0.5999246835708618,0.06046529486775398
1763690871404638500,11.499638427734375,0.04613408446311951,-0.6661235690116882,0.3199709951877594
1763690871414660600,11.50966064453125,0.3947943150997162,-0.7097291350364685,0.34751394391059875
1763690871424682500,11.5196826171875,0.41826939582824707,-0.8227542638778687,0.19106453657150269
1763690871434704600,11.52970458984375,0.3417309522628784,-0.8226290941238403,0.06325650960206985
1763690871444726500,11.5397265625,0.2761250138282776,-0.7259235978126526,-0.0038360110484063625
1763690871454748700,11.549748779296875,0.25535130500793457,-0.5918973684310913,0.00832265056669712
1763690871464770600,11.5597705078125,0.2655283808708191,-0.5104286670684814,0.024190645664930344
1763690871474792400,11.56979248046875,0.2710579037666321,-0.4376838803291321,0.025348586961627007
1763690871484814600,11.579814697265626,0.34810593724250793,-0.3023889660835266,-0.020041946321725845
1763690871494836500,11.58983642578125,0.2701394855976105,-0.2717945873737335,-0.042193055152893066
1763690871504858400,11.5998583984375,0.17827248573303223,-0.27765190601348877,-0.039651043713092804
1763690871514880800,11.609880859375,0.0940670594573021,-0.2399098426103592,-0.008410299196839333
1763690871524902700,11.619902587890625,0.060571081936359406,-0.1410168558359146,0.05309963971376419
1763690871534924500,11.629924560546876,0.19147929549217224,-0.07232540845870972,0.0917370468378067
1763690871544946700,11.63994677734375,0.24998947978019714,-0.4167662262916565,0.20186273753643036
1763690871554968600,11.649968505859375,0.24049663543701172,-0.3641600012779236,0.26976853609085083
1763690871564990500,11.659990478515626,0.18323290348052979,-0.39512935280799866,0.33926165103912354
1763690871575012600,11.6700126953125,-0.0007377370493486524,-0.7045904994010925,0.3588161766529083
1763690871585034500,11.680034423828126,-0.22702519595623016,-0.9750462174415588,0.3272175192832947
1763690871595057400,11.690057373046875,-0.41426435112953186,-1.1234204769134521,0.13401181995868683
1763690871605079600,11.70007958984375,-0.5297945737838745,-1.1298227310180664,0.08337752521038055
1763690871615101700,11.710101806640624,-0.5738549828529358,-1.2042863368988037,-0.0043147774413228035
1763690871625123600,11.72012353515625,-0.5529333353042603,-1.2374329566955566,-0.16039827466011047
1763690871635145500,11.7301455078125,-0.7154780030250549,-1.0541212558746338,-0.41385477781295776
1763690871645167600,11.740167724609375,-0.8006146550178528,-0.7084139585494995,-0.36272698640823364
1763690871655189500,11.750189453125,-0.8960745930671692,-0.36399245262145996,-0.1525268852710724
1763690871665211400,11.76021142578125,-0.9501516222953796,-0.07815483212471008,-0.027845103293657303
1763690871675233500,11.770233642578125,-0.9079266786575317,0.0583508163690567,-0.0027778316289186478
1763690871685255400,11.78025537109375,-0.8138031363487244,0.1180613711476326,0.03491169959306717
1763690871695277600,11.790277587890625,-0.736718475818634,0.09079033136367798,-0.01166166178882122
1763690871705299700,11.8002998046875,-0.6933526992797852,0.011940497905015945,-0.1549544781446457
1763690871715321600,11.810321533203124,-0.6505639553070068,0.06433872878551483,-0.015508422628045082
1763690871725343500,11.820343505859375,-0.8570556640625,0.15086790919303894,0.007775063626468182
1763690871735365400,11.830365478515626,-1.1832276582717896,0.05302230641245842,-0.4071800708770752
1763690871745387500,11.840387451171875,-1.323155403137207,0.4070652723312378,-0.8767107129096985
1763690871755409400,11.850409423828125,-1.2378677129745483,0.6870079636573792,-1.3480746746063232
1763690871765431300,11.860431396484374,-1.1764456033706665,0.668718695640564,-1.6366245746612549
1763690871775453400,11.870453369140625,-1.0630927085876465,-0.05167410150170326,-1.0965133905410767
1763690871785475600,11.8804755859375,-1.03609299659729,-0.16377075016498566,-0.6780526638031006
1763690871795498500,11.89049853515625,-0.9150604605674744,0.2754673361778259,-0.4667209982872009
1763690871805520600,11.900520751953126,-0.829646110534668,0.5098033547401428,-0.3762262761592865
1763690871815542500,11.91054248046875,-0.8507987856864929,0.18897876143455505,-0.45574960112571716
1763690871825564400,11.920564453125,-0.6608361005783081,-0.6301160454750061,-0.737890362739563
1763690871835586600,11.930586669921874,-0.09234895557165146,-0.7806123495101929,-0.5913547277450562
1763690871845608400,11.9406083984375,0.40857911109924316,-0.6731433272361755,-0.17172418534755707
1763690871855630300,11.95063037109375,0.06687238067388535,-0.5389948487281799,0.30746665596961975
1763690871865652500,11.960652587890625,-1.1194727420806885,-0.11925287544727325,0.5029884576797485
1763690871875674400,11.97067431640625,-1.8112940788269043,0.3548510670661926,0.3803613781929016
1763690871885696500,11.980696533203124,-1.5186001062393188,0.19309480488300323,0.007213606499135494
1763690871895718700,11.99071875,-1.3095475435256958,-0.07192140817642212,-0.3147982358932495
1763690871905740500,12.000740478515626,-1.1039085388183594,-0.1791975349187851,-0.4816436767578125
1763690871915762400,12.010762451171875,-0.8880171179771423,-0.02877766452729702,-0.5233466625213623
1763690871925784600,12.02078466796875,-0.7385042905807495,0.16993260383605957,-0.5143498778343201
1763690871935806500,12.030806396484374,-0.6238389611244202,0.2852541208267212,-0.509208619594574
1763690871945828400,12.040828369140625,-0.5546107888221741,0.25299376249313354,-0.5243915319442749
1763690871955850500,12.0508505859375,-0.2990802228450775,0.1058938056230545,-0.550832211971283
1763690871965872600,12.06087255859375,-0.03822864592075348,0.021259788423776627,-0.5100646018981934
1763690871975894500,12.07089453125,-0.06870586425065994,-0.03508630767464638,-0.4026243984699249
1763690871985916700,12.080916748046874,-0.17324833571910858,-0.13028094172477722,-0.30032604932785034
1763690871995938600,12.0909384765625,-0.49905574321746826,-0.19638459384441376,-0.2917799651622772
1763690872005960400,12.10096044921875,-0.5592916011810303,-0.31935790181159973,-0.40019404888153076
1763690872015983600,12.110983642578125,-0.44426482915878296,-0.43201974034309387,-0.399920791387558
1763690872026005500,12.121005615234376,-0.38002538681030273,-0.41580650210380554,-0.26128339767456055
1763690872036027400,12.13102734375,-0.3185686767101288,-0.3552483320236206,-0.044236570596694946
1763690872046049500,12.141049560546875,-0.22568464279174805,-0.32532864809036255,0.15626224875450134
1763690872056071400,12.151071533203124,-0.05149073898792267,-0.34782302379608154,0.18709684908390045
1763690872066093600,12.161093505859375,0.07115411758422852,-0.26598748564720154,0.11787638813257217
1763690872076115700,12.17111572265625,0.14950032532215118,-0.07796965539455414,-0.03107554093003273
1763690872086137600,12.1811376953125,0.23378829658031464,0.12354438006877899,-0.1570580154657364
1763690872096159500,12.191159423828125,0.3330965042114258,0.27564096450805664,-0.1794019341468811
1763690872106181400,12.201181396484374,0.3779347538948059,0.45357710123062134,-0.15055803954601288
1763690872116203500,12.21120361328125,0.24649550020694733,0.6967010498046875,-0.2029229700565338
1763690872126225400,12.221225341796876,0.05886436253786087,0.8314238786697388,-0.30400243401527405
1763690872136247300,12.231247314453125,0.07893926650285721,0.8290390372276306,-0.2742612957954407
1763690872146269400,12.24126953125,0.10827699303627014,0.8463886976242065,-0.21258938312530518
1763690872156291600,12.25129150390625,0.09355370700359344,0.8848900198936462,-0.18785980343818665
1763690872166313500,12.2613134765625,0.07145239412784576,0.9053525328636169,-0.19375713169574738
1763690872176335600,12.271335693359376,0.06316224485635757,0.888396680355072,-0.22370891273021698
1763690872186357500,12.281357421875,0.04406800866127014,0.8562105298042297,-0.24694830179214478
1763690872196379400,12.29137939453125,0.005870289169251919,0.8482477068901062,-0.2421514242887497
1763690872206401500,12.301401611328124,-0.015180488117039204,0.8699378967285156,-0.23196066915988922
1763690872216423400,12.31142333984375,-0.0006449549691751599,0.903767466545105,-0.23515166342258453
1763690872226445300,12.3214453125,0.03196961432695389,0.9584474563598633,-0.26221564412117004
1763690872236468500,12.331468505859375,0.08965101838111877,1.027503252029419,-0.3082616925239563
1763690872246490400,12.341490478515626,0.13359372317790985,1.110088586807251,-0.3456169664859772
1763690872256512500,12.351512451171875,0.16366533935070038,1.2100425958633423,-0.3636718690395355
1763690872266534700,12.36153466796875,0.17963683605194092,1.3248794078826904,-0.3595219552516937
1763690872276556500,12.371556640625,0.17701709270477295,1.4330286979675293,-0.33408021926879883
1763690872286578400,12.381578369140625,0.17270952463150024,1.5178970098495483,-0.2965599298477173
