time,seconds_elapsed,z,y,x
1763696715506641000,0.173640869140625,-0.13701559603214264,-0.12090394645929337,0.19973118603229523
1763696715546667000,0.2136669921875,-0.2904091477394104,-0.5788210034370422,0.3689700961112976
1763696715566675500,0.233675537109375,-0.2818872928619385,-1.475614070892334,0.5138418078422546
1763696715576688400,0.2436884765625,-0.22223423421382904,-1.766289472579956,0.8270202875137329
1763696715586642200,0.25364208984375,-0.17749445140361786,-2.1762709617614746,1.1347395181655884
1763696715596699100,0.26369921875,-0.2477998286485672,-2.6268646717071533,1.3243509531021118
1763696715606696400,0.273696533203125,-0.44260433316230774,-2.669473886489868,1.3797430992126465
1763696715616733200,0.283733154296875,-0.6066502332687378,-2.2902510166168213,1.3893301486968994
1763696715626747100,0.2937470703125,-0.6332810521125793,-1.7790722846984863,1.2955896854400635
1763696715636754700,0.303754638671875,-0.5427362322807312,-1.286002516746521,1.0260857343673706
1763696715646766000,0.31376611328125,-0.4053211510181427,-0.8504554033279419,0.6587134599685669
1763696715656732400,0.323732421875,-0.27336543798446655,-0.435014545917511,0.27216702699661255
1763696715666724600,0.333724609375,-0.17749445140361786,-0.10812114924192429,-0.0750989317893982
1763696715676743400,0.343743408203125,-0.11571093648672104,0.0633813664317131,-0.36257869005203247
1763696715686747000,0.353746826171875,-0.07629731297492981,0.10492545366287231,-0.5777557492256165
1763696715696762000,0.36376220703125,-0.0560578890144825,0.07722939550876617,-0.7375407218933105
1763696715706770400,0.3737705078125,-0.04327509179711342,-0.017576344311237335,-0.8919994831085205
1763696715716786700,0.38378662109375,-0.02303566411137581,-0.1390129029750824,-1.0665645599365234
1763696715726798000,0.393798095703125,0.008921326138079166,-0.16777420043945312,-1.2188929319381714
1763696715736802000,0.403802001953125,0.04194355010986328,-0.018641578033566475,-1.270024061203003
1763696715746810000,0.41381005859375,0.07070484012365341,0.29347169399261475,-1.2199580669403076
1763696715756807400,0.423807373046875,0.07922670245170593,0.4999937415122986,-1.0931954383850098
1763696715766811000,0.433810791015625,0.0717700719833374,0.35405683517456055,-0.8877385854721069
1763696715776827100,0.4438271484375,0.05472634732723236,0.14114338159561157,-0.6459306478500366
1763696715786836000,0.4538359375,0.03874785080552101,-0.5489944815635681,-0.0953383520245552
1763696715796833800,0.463833740234375,-0.04434032365679741,-1.2753502130508423,0.6097127795219421
1763696715806838000,0.473838134765625,0.01744319126009941,-0.9101084470748901,0.6139736771583557
1763696715816845300,0.48384521484375,0.19107617437839508,-1.010107159614563,0.7588453888893127
1763696715826850800,0.493850830078125,0.07496577501296997,-1.2657631635665894,0.8525858521461487
1763696715836856000,0.50385595703125,-0.1519288569688797,-1.512897253036499,1.00052011013031
1763696715846861300,0.513861328125,-0.23927797377109528,-1.7162235975265503,1.3286118507385254
1763696715856893200,0.52389306640625,-0.3861469626426697,-2.15177059173584,0.566038191318512
1763696715866909700,0.53390966796875,-0.2595174014568329,0.052729032933712006,-0.2135792225599289
1763696715876883500,0.543883544921875,-0.06990591436624527,0.3721657991409302,-0.8067808747291565
1763696715886881800,0.5538818359375,-0.08908011019229889,-0.24873191118240356,-0.5564510822296143
1763696715896894200,0.563894287109375,-0.18708154559135437,-0.4328840672969818,-0.4786891043186188
1763696715906894000,0.57389404296875,-0.28508299589157104,-0.4201012849807739,-0.26151469349861145
1763696715916932600,0.5839326171875,-0.35845091938972473,-0.2348838746547699,-0.21038351953029633
1763696715926936300,0.593936279296875,-0.40106022357940674,-0.047402869910001755,-0.24766667187213898
1763696715936955400,0.603955322265625,-0.43940863013267517,0.08894696086645126,-0.35512205958366394
1763696715946960600,0.613960693359375,-0.4170387387275696,0.2444709837436676,-0.4552539587020874
1763696715956949000,0.623948974609375,-0.3073197305202484,0.4264926612377167,-0.5330159664154053
1763696715966952400,0.633952392578125,-0.3083849549293518,0.5319507122039795,-0.5585815906524658
1763696715976952800,0.643952880859375,-0.4287562966346741,0.49040666222572327,-0.5607120394706726
1763696715986956000,0.6539560546875,-0.48521363735198975,0.4371449947357178,-0.5766905546188354
1763696715996987600,0.663987548828125,-0.5043878555297852,0.4126446545124054,-0.627821683883667
1763696716006993700,0.67399365234375,-0.5704323053359985,0.3583177626132965,-0.6842790842056274
1763696716017006600,0.684006591796875,-0.6130415797233582,0.39560091495513916,-0.8525858521461487
1763696716027013400,0.694013427734375,-0.6151720881462097,0.41797080636024475,-0.9557803273200989
1763696716036995800,0.703995849609375,-0.6098458766937256,0.25086238980293274,-0.9653674364089966
1763696716047000000,0.714,-0.6215634942054749,0.047402869910001755,-0.9206276535987854
1763696716057013200,0.72401318359375,-0.5619103908538818,-0.16244803369045258,-0.8909342885017395
1763696716067018200,0.734018310546875,-0.4074516296386719,-0.2764279842376709,-0.8536511063575745
1763696716077034200,0.7440341796875,-0.24460414052009583,-0.2146444469690323,-0.8280855417251587
1763696716087040500,0.75404052734375,-0.15618979930877686,-0.0953383520245552,-0.9270190596580505
1763696716097020400,0.7640205078125,-0.11677616834640503,0.036750540137290955,-0.9664326906204224
1763696716107024100,0.774024169921875,-0.0347532257437706,0.3284912407398224,-1.0654993057250977
1763696716117064400,0.784064453125,-0.11890663951635361,0.5820167064666748,-1.1475223302841187
1763696716127071700,0.79407177734375,-0.004926702938973904,0.6448654532432556,-1.1943925619125366
1763696716137077200,0.8040771484375,0.15272778272628784,0.5745600461959839,-1.199718713760376
1763696716147084500,0.81408447265625,0.2613815665245056,0.5244941115379333,-1.2050448656082153
1763696716157074700,0.82407470703125,0.262446790933609,0.5468640327453613,-1.1773488521575928
1763696716167080000,0.834079833984375,0.21664176881313324,0.6214303374290466,-1.1059781312942505
1763696716177087000,0.8440869140625,0.21557652950286865,0.7876066565513611,-1.054847002029419
1763696716187092500,0.854092529296875,0.2741643488407135,0.9101084470748901,-1.0633689165115356
1763696716197108200,0.864108154296875,0.1676410436630249,0.7641715407371521,-0.9334104657173157
1763696716207115000,0.874114990234375,0.0025299284607172012,1.1496527194976807,-1.3264814615249634
1763696716237129200,0.904129150390625,-0.36910325288772583,0.7844109535217285,-1.0303466320037842
1763696716247135200,0.91413525390625,-0.4809527099132538,0.9951939582824707,-0.8046503663063049
1763696716257134600,0.924134521484375,-0.04327509179711342,0.9579107761383057,-0.5255593657493591
1763696716267139800,0.934139892578125,0.2752295732498169,0.7034532427787781,-0.3274259865283966
1763696716277145600,0.9441455078125,0.27736005187034607,0.29240646958351135,-0.1177082508802414
1763696716287150800,0.95415087890625,0.4732297658920288,0.038881003856658936,0.16777420043945312
1763696716297176300,0.96417626953125,0.7725602388381958,-0.14540430903434753,0.43927547335624695
1763696716307183600,0.97418359375,0.9322120547294617,-0.023967742919921875,0.6672353148460388
1763696716317187800,0.984187744140625,0.8492570519447327,0.21038351953029633,0.8131722807884216
1763696716327195000,0.99419482421875,0.6266233325004578,0.27323228120803833,0.8504554033279419
1763696716337190700,1.004190673828125,0.3656412363052368,0.2881455421447754,0.8344769477844238
1763696716347196700,1.01419677734375,0.10053136944770813,0.2881455421447754,0.8014547228813171
1763696716357198000,1.024197998046875,-0.12636326253414154,0.22423155605793,0.7364754676818848
1763696716367203600,1.03420361328125,-0.270169734954834,0.14433906972408295,0.6171693801879883
1763696716377217500,1.044217529296875,-0.34566810727119446,0.08149032294750214,0.45205825567245483
1763696716387223800,1.054223876953125,-0.33501577377319336,0.09214265644550323,0.2796236574649811
1763696716397225000,1.064224853515625,-0.23288656771183014,0.17736129462718964,0.14007814228534698
1763696716407230700,1.074230712890625,-0.08162347972393036,0.31038227677345276,0.041011471301317215
1763696716417240600,1.084240478515625,0.0504654161632061,0.40838369727134705,-0.039946239441633224
1763696716427246600,1.09424658203125,0.11544463038444519,0.3082517981529236,-0.07616416364908218
1763696716437265200,1.10426513671875,0.13248835504055023,0.13262151181697845,-0.01118494663387537
1763696716447272700,1.114272705078125,0.06963960826396942,0.18375270068645477,0.027163442224264145
1763696716457251600,1.12425146484375,0.0025299284607172012,0.20079642534255981,0.034620072692632675
1763696716467256000,1.134256103515625,-0.04114462435245514,0.38814428448677063,-0.046337638050317764
1763696716477282800,1.14428271484375,-0.13595037162303925,0.42968836426734924,-0.14646953344345093
1763696716487289600,1.15428955078125,-0.19773387908935547,0.40838369727134705,-0.24873191118240356
1763696716497301500,1.164301513671875,-0.21264714002609253,0.477623850107193,-0.3721657991409302
1763696716507308800,1.174308837890625,-0.205190509557724,0.5734948515892029,-0.534081220626831
1763696716517300200,1.18430029296875,-0.1519288569688797,0.46910199522972107,-0.688539981842041
1763696716527306000,1.194305908203125,-0.015579032711684704,0.40838369727134705,-0.7908023595809937
1763696716537325000,1.204324951171875,0.2102503627538681,0.4211665093898773,-0.9047822952270508
1763696716547332000,1.21433203125,0.43807709217071533,0.3359478712081909,-0.9579107761383057
1763696716557323800,1.22432373046875,0.5925358533859253,0.3178389072418213,-0.9366061091423035
1763696716567329300,1.234329345703125,0.6777545213699341,0.25831902027130127,-0.8557815551757812
1763696716577328400,1.244328369140625,0.7224943041801453,0.21890538930892944,-0.68747478723526
1763696716587333400,1.25433349609375,0.6820154190063477,0.2551233172416687,-0.45099303126335144
1763696716597359400,1.264359375,0.4604469835758209,0.1805569976568222,-0.2231663167476654
1763696716607366400,1.274366455078125,0.4210333526134491,0.07616416364908218,0.01438064593821764
1763696716617369300,1.284369384765625,0.45938172936439514,0.062316130846738815,0.24766667187213898
1763696716627376000,1.294376220703125,0.39653298258781433,-0.026098208501935005,0.39560091495513916
1763696716637374700,1.304374755859375,0.33155378699302673,-0.1709699034690857,0.4467321038246155
1763696716647380500,1.31438037109375,0.32196667790412903,-0.16457849740982056,0.44034069776535034
1763696716657389600,1.3243896484375,0.27949050068855286,-0.15392617881298065,0.3828181326389313
1763696716667395600,1.3343955078125,0.2422073632478714,-0.1912093311548233,0.2774932086467743
1763696716677410600,1.34441064453125,0.23688119649887085,-0.18801362812519073,0.137947678565979
1763696716687417300,1.354417236328125,0.24007689952850342,-0.15286093950271606,-0.022902509197592735
1763696716697434400,1.364434326171875,0.2539249360561371,-0.0964035913348198,-0.19440503418445587
1763696716707442400,1.3744423828125,0.26990342140197754,-0.030359141528606415,-0.370035320520401
1763696716717430300,1.38443017578125,0.2848166823387146,0.032489608973264694,-0.5468640327453613
1763696716727436000,1.39443603515625,0.28055575489997864,0.0740336924791336,-0.7098446488380432
1763696716737450000,1.404449951171875,0.2539249360561371,0.08362079411745071,-0.8387378454208374
1763696716747456500,1.41445654296875,0.20811989903450012,0.0750989317893982,-0.915301501750946
1763696716757445400,1.4244453125,0.14314068853855133,0.041011471301317215,-0.9429975152015686
1763696716767450000,1.4344501953125,0.09413997083902359,0.010119713842868805,-0.923823356628418
1763696716777466000,1.444466064453125,0.07709623873233795,0.022902509197592735,-0.8472597002983093
1763696716787472000,1.454471923828125,0.10905323177576065,0.09107742458581924,-0.725823163986206
1763696716797491200,1.4644912109375,0.1569887101650238,0.17949175834655762,-0.5873428583145142
1763696716807498800,1.474498779296875,0.2091851383447647,0.25192761421203613,-0.4659062922000885
1763696716817495800,1.484495849609375,0.2304897904396057,0.305056095123291,-0.370035320520401
1763696716827502000,1.494502197265625,0.2528596818447113,0.33381739258766174,-0.29240646958351135
1763696716837517800,1.504517822265625,0.2720338702201843,0.32103461027145386,-0.22423155605793
1763696716847524900,1.51452490234375,0.30079516768455505,0.2764279842376709,-0.16777420043945312
1763696716857515000,1.524514892578125,0.32196667790412903,0.20612259209156036,-0.11877348273992538
1763696716867520500,1.5345205078125,0.3464670479297638,0.12409964948892593,-0.059120431542396545
1763696716877522700,1.544522705078125,0.3539236783981323,0.053794268518686295,0.012250179424881935
1763696716887527700,1.554527587890625,0.35072797536849976,0.016511112451553345,0.09001219272613525
1763696716897555200,1.56455517578125,0.3326190114021301,0.0037283156998455524,0.17629607021808624
1763696716907562500,1.5745625,0.31770575046539307,0.016511112451553345,0.24979715049266815
1763696716917565200,1.584565185546875,0.29972994327545166,0.037815771996974945,0.30199354887008667
1763696716927572200,1.594572265625,0.3038577139377594,0.044207170605659485,0.3306216895580292
1763696716937566000,1.60456591796875,0.31770575046539307,0.030359141528606415,0.3583177626132965
1763696716947571500,1.614571533203125,0.33901041746139526,0.0079892473295331,0.3902747631072998
1763696716957597000,1.624596923828125,0.3336842358112335,-0.012250179424881935,0.4254274368286133
1763696716967604500,1.6346044921875,0.29972994327545166,-0.046337638050317764,0.4552539587020874
1763696716977578800,1.644578857421875,0.24007689952850342,-0.09427312016487122,0.4754934012889862
1763696716987583000,1.6545830078125,0.178293377161026,-0.13368675112724304,0.48295003175735474
1763696716997599200,1.66459912109375,0.12822742760181427,-0.1486000120639801,0.4850804805755615
1763696717007604500,1.6746044921875,0.0824224054813385,-0.1294258087873459,0.48188477754592896
1763696717017602300,1.684602294921875,0.0504654161632061,-0.07083799690008163,0.47016721963882446
1763696717027606800,1.694606689453125,0.02596505545079708,-0.012250179424881935,0.4435364007949829
1763696717037651500,1.7046513671875,0.005725627299398184,0.034620072692632675,0.40731847286224365
1763696717047660300,1.714660400390625,-0.008122402243316174,0.059120431542396545,0.36683961749076843
1763696717057649000,1.72464892578125,-0.02303566411137581,0.062316130846738815,0.33381739258766174
1763696717067655400,1.734655517578125,-0.04327509179711342,0.06977276504039764,0.32103461027145386
1763696717077671200,1.744671142578125,-0.07629731297492981,0.06870753318071365,0.3263607621192932
1763696717087678700,1.7546787109375,-0.11890663951635361,0.08149032294750214,0.34446972608566284
1763696717097681200,1.76468115234375,-0.16790735721588135,0.07722939550876617,0.35405683517456055
1763696717107688200,1.774688232421875,-0.22329947352409363,0.037815771996974945,0.34446972608566284
1763696717117697800,1.78469775390625,-0.26484355330467224,0.0015978495357558131,0.32209983468055725
1763696717127705000,1.794705078125,-0.270169734954834,-0.021837277337908745,0.29453691840171814
1763696717137707500,1.80470751953125,-0.2477998286485672,-0.033554840832948685,0.2657756507396698
1763696717147714300,1.81471435546875,-0.22436471283435822,-0.041011471301317215,0.24127528071403503
1763696717157705000,1.824705078125,-0.21158191561698914,-0.026098208501935005,0.22636201977729797
1763696717167710000,1.8347099609375,-0.2254299372434616,-0.01118494663387537,0.2231663167476654
1763696717177728500,1.844728515625,-0.24993029236793518,-0.0047935484908521175,0.22849248349666595
1763696717187734800,1.85473486328125,-0.270169734954834,-0.0079892473295331,0.23062294721603394
1763696717197749000,1.8647490234375,-0.2797568142414093,-0.026098208501935005,0.22955772280693054
1763696717207756000,1.874756103515625,-0.27336543798446655,-0.050598569214344025,0.23062294721603394
1763696717217728500,1.884728515625,-0.2488650679588318,-0.07296846061944962,0.2444709837436676
1763696717227732200,1.894732177734375,-0.21903854608535767,-0.09320788830518723,0.2892107665538788
1763696717237745000,1.904744873046875,-0.19134248793125153,-0.1070559173822403,0.3583177626132965
1763696717247749400,1.914749267578125,-0.17110306024551392,-0.1177082508802414,0.4328840672969818
1763696717257778400,1.9247783203125,-0.15832026302814484,-0.13155627250671387,0.49253711104393005
1763696717267785700,1.93478564453125,-0.1529940962791443,-0.1699046641588211,0.5351464152336121
1763696717277798400,1.94479833984375,-0.14979839324951172,-0.19547025859355927,0.5553858876228333
1763696717287806000,1.954805908203125,-0.13808083534240723,-0.20718781650066376,0.5500596761703491
1763696717297785600,1.96478564453125,-0.12316756695508957,-0.20931829512119293,0.5170374512672424
1763696717307790300,1.974790283203125,-0.11251524090766907,-0.20079642534255981,0.4637758135795593
1763696717317821700,1.98482177734375,-0.09440627694129944,-0.17736129462718964,0.38707906007766724
1763696717327829200,1.994829345703125,-0.06564498692750931,-0.14433906972408295,0.29134124517440796
1763696717337827600,2.00482763671875,-0.03368799388408661,-0.10386022180318832,0.1912093311548233
1763696717347834000,2.014834228515625,0.0003994623839389533,-0.056989967823028564,0.10172975063323975
1763696717357830000,2.024829833984375,0.02809552103281021,-0.018641578033566475,0.029293907806277275
1763696717367835400,2.03483544921875,0.04087831825017929,0.00905448105186224,-0.021837277337908745
1763696717377852400,2.044852294921875,0.03661738336086273,0.033554840832948685,-0.062316130846738815
1763696717387859200,2.054859130859375,0.015312724746763706,0.026098208501935005,-0.10172975063323975
1763696717397871000,2.06487109375,-0.013448567129671574,0.0015978495357558131,-0.13581721484661102
1763696717407878100,2.074878173828125,-0.02836182899773121,-0.022902509197592735,-0.15286093950271606
1763696717417855200,2.084855224609375,-0.02729659713804722,-0.021837277337908745,-0.1486000120639801
1763696717427859500,2.094859375,-0.015579032711684704,-0.0079892473295331,-0.13262151181697845
1763696717437901600,2.104901611328125,0.007856093347072601,-0.0005326165119186044,-0.11238208413124084
1763696717447909600,2.11490966796875,0.03661738336086273,-0.013315413147211075,-0.09746882319450378
1763696717457896200,2.124896240234375,0.06857437640428543,-0.029293907806277275,-0.08042509108781815
1763696717467902000,2.13490185546875,0.10053136944770813,-0.048468101769685745,-0.051663801074028015
1763696717477927000,2.144927001953125,0.11544463038444519,-0.06657706201076508,-0.01438064593821764
1763696717487934500,2.1549345703125,0.1037270650267601,-0.09107742458581924,0.017576344311237335
1763696717497929000,2.164928955078125,0.07390054315328598,-0.10279498994350433,0.032489608973264694
1763696717507935500,2.174935546875,0.03768261894583702,-0.10492545366287231,0.037815771996974945
1763696717517941800,2.184941650390625,0.008921326138079166,-0.08788172155618668,0.036750540137290955
1763696717527948000,2.194947998046875,-0.010252867825329304,-0.058055199682712555,0.028228675946593285
1763696717537966800,2.204966796875,-0.01983996480703354,-0.015445878729224205,0.020772043615579605
1763696717547974400,2.214974365234375,-0.02623136341571808,0.041011471301317215,0.01438064593821764
1763696717557956600,2.22495654296875,-0.03049229457974434,0.1166430190205574,0.018641578033566475
1763696717567961900,2.2349619140625,-0.02729659713804722,0.19014409184455872,0.037815771996974945
1763696717577989600,2.24498974609375,-0.02623136341571808,0.24234052002429962,0.062316130846738815
1763696717587997000,2.254996826171875,-0.03368799388408661,0.25938424468040466,0.09001219272613525
1763696717597973500,2.264973388671875,-0.05286218971014023,0.2444709837436676,0.10812114924192429
1763696717607977500,2.2749775390625,-0.07097115367650986,0.22103585302829742,0.11557777971029282
1763696717617998600,2.28499853515625,-0.07416684925556183,0.19973118603229523,0.11131685227155685
1763696717628004600,2.295004638671875,-0.06244928762316704,0.1912093311548233,0.09746882319450378
1763696717638024400,2.3050244140625,-0.03688369318842888,0.1805569976568222,0.0740336924791336
1763696717648031700,2.31503173828125,-0.007057168986648321,0.17629607021808624,0.052729032933712006
1763696717658042000,2.3250419921875,0.01957365684211254,0.17523083090782166,0.030359141528606415
1763696717668049700,2.335049560546875,0.039813082665205,0.16777420043945312,0.0047935484908521175
1763696717678046200,2.345046142578125,0.05579157918691635,0.1581871062517166,-0.020772043615579605
1763696717688052700,2.355052734375,0.06963960826396942,0.14753477275371552,-0.048468101769685745
1763696717698060000,2.36506005859375,0.07283531129360199,0.11557777971029282,-0.0846860259771347
1763696717708066600,2.375066650390625,0.06857437640428543,0.06764229387044907,-0.12303441762924194
1763696717718068000,2.38506787109375,0.06218297779560089,0.019706811755895615,-0.15179570019245148
1763696717728074000,2.395073974609375,0.0611177459359169,-0.019706811755895615,-0.15392617881298065
1763696717738086000,2.4050859375,0.06750914454460144,-0.047402869910001755,-0.1283605843782425
1763696717748092700,2.4150927734375,0.0717700719833374,-0.0644465982913971,-0.09001219272613525
1763696717758094300,2.42509423828125,0.07283531129360199,-0.07829462736845016,-0.050598569214344025
1763696717768100400,2.435100341796875,0.06963960826396942,-0.09214265644550323,-0.022902509197592735
1763696717778115800,2.44511572265625,0.0611177459359169,-0.11557777971029282,-0.0005326165119186044
1763696717788123000,2.455122802734375,0.05259587988257408,-0.15392617881298065,0.018641578033566475
1763696717798128400,2.46512841796875,0.03661738336086273,-0.20399212837219238,0.033554840832948685
1763696717808135200,2.47513525390625,0.01637795753777027,-0.25086238980293274,0.045272402465343475
1763696717818141400,2.485141357421875,-0.0038614696823060513,-0.27216702699661255,0.053794268518686295
1763696717828148200,2.495148193359375,-0.012383334338665009,-0.24979715049266815,0.06977276504039764
1763696717838149600,2.505149658203125,-0.005991935729980469,-0.18268746137619019,0.10066451877355576
1763696717848156000,2.515156005859375,0.005725627299398184,-0.09214265644550323,0.15499140322208405
1763696717858150700,2.525150634765625,0.012117025442421436,-0.01118494663387537,0.22423155605793
1763696717868155600,2.53515576171875,0.007856093347072601,0.036750540137290955,0.306254506111145
1763696717878176300,2.54517626953125,-0.009187635034322739,0.048468101769685745,0.389209508895874
1763696717888183000,2.55518310546875,-0.03794892504811287,0.021837277337908745,0.46271058917045593
1763696717898173200,2.565173095703125,-0.0667102187871933,-0.022902509197592735,0.5287550687789917
1763696717908178000,2.575177978515625,-0.09014534205198288,-0.055924732238054276,0.5820167064666748
1763696717918214700,2.585214599609375,-0.11038476973772049,-0.0633813664317131,0.6107779741287231
1763696717928222700,2.59522265625,-0.12316756695508957,-0.043141938745975494,0.603321373462677
1763696717938205200,2.605205078125,-0.12316756695508957,-0.0079892473295331,0.5617772936820984
1763696717948210700,2.615210693359375,-0.11358047276735306,0.034620072692632675,0.49147188663482666
1763696717958208800,2.625208740234375,-0.10186290740966797,0.07190322875976562,0.4030575454235077
1763696717968213500,2.635213623046875,-0.09227581322193146,0.09427312016487122,0.30199354887008667
1763696717978235400,2.6452353515625,-0.07949301600456238,0.09853405505418777,0.19547025859355927
1763696717988242000,2.655241943359375,-0.06990591436624527,0.06657706201076508,0.08894696086645126
1763696717998247700,2.66524755859375,-0.06990591436624527,0.00905448105186224,-0.015445878729224205
1763696718008254000,2.67525390625,-0.0773625448346138,-0.052729032933712006,-0.11451254785060883
1763696718018251800,2.685251708984375,-0.08055824786424637,-0.1070559173822403,-0.20399212837219238
1763696718028257000,2.695257080078125,-0.07523208111524582,-0.1294258087873459,-0.28175413608551025
1763696718038270700,2.705270751953125,-0.06564498692750931,-0.10492545366287231,-0.34340450167655945
1763696718048277200,2.71527734375,-0.05286218971014023,-0.049533337354660034,-0.39666613936424255
1763696718058272000,2.72527197265625,-0.03794892504811287,0.01118494663387537,-0.4456668794155121
1763696718068277200,2.73527734375,-0.013448567129671574,0.0633813664317131,-0.47336292266845703
1763696718078301700,2.7453017578125,0.0185084231197834,0.09427312016487122,-0.47336292266845703
1763696718088309000,2.75530908203125,0.04726971685886383,0.09746882319450378,-0.44992780685424805
1763696718098283500,2.765283447265625,0.07070484012365341,0.07829462736845016,-0.4137098789215088
1763696718108287500,2.77528759765625,0.08987903594970703,0.058055199682712555,-0.3785571753978729
1763696718118331600,2.78533154296875,0.11118369549512863,0.045272402465343475,-0.350861132144928
1763696718128339700,2.795339599609375,0.14420592784881592,0.039946239441633224,-0.3274259865283966
1763696718138348300,2.805348388671875,0.1793586164712906,0.031424373388290405,-0.3071865737438202
1763696718148356400,2.8153564453125,0.21344606578350067,0.0079892473295331,-0.29134124517440796
1763696718158353000,2.825352783203125,0.23901166021823883,-0.035685304552316666,-0.28281936049461365
1763696718168359700,2.835359619140625,0.25712060928344727,-0.08255556225776672,-0.2796236574649811
1763696718178337800,2.845337890625,0.2656424939632416,-0.11557777971029282,-0.26897132396698
1763696718188341800,2.855341796875,0.26670771837234497,-0.13262151181697845,-0.24979715049266815
1763696718198387000,2.865386962890625,0.25712060928344727,-0.14646953344345093,-0.22742724418640137
1763696718208395000,2.87539501953125,0.23901166021823883,-0.1603175699710846,-0.21038351953029633
1763696718218372900,2.885372802734375,0.22303315997123718,-0.1581871062517166,-0.19973118603229523
1763696718228377900,2.8953779296875,0.21238084137439728,-0.14327384531497955,-0.19440503418445587
1763696718238395600,2.905395751953125,0.21770699322223663,-0.10918638855218887,-0.1805569976568222
1763696718248402000,2.91540185546875,0.24646829068660736,-0.046337638050317764,-0.1390129029750824
1763696718258398000,2.92539794921875,0.29014283418655396,0.037815771996974945,-0.047402869910001755
1763696718268403200,2.9354033203125,0.32196667790412903,0.1262301206588745,0.09107742458581924
1763696718278424300,2.94542431640625,0.33155378699302673,0.17523083090782166,0.24660144746303558
1763696718288431000,2.95543115234375,0.31877097487449646,0.1720351278781891,0.39560091495513916
1763696718298440200,2.965440185546875,0.2944037914276123,0.1294258087873459,0.5287550687789917
1763696718308447200,2.975447265625,0.262446790933609,0.06551183015108109,0.6352783441543579
1763696718318438700,2.985438720703125,0.22835932672023773,-0.0037283156998455524,0.7066489458084106
1763696718328444200,2.995444091796875,0.20279373228549957,-0.056989967823028564,0.7449973225593567
1763696718338460200,3.005460205078125,0.19320663809776306,-0.07296846061944962,0.7641715407371521
1763696718348466700,3.015466796875,0.1878804713487625,-0.052729032933712006,0.7652367949485779
1763696718358463700,3.025463623046875,0.178293377161026,-0.021837277337908745,0.7524539828300476
1763696718368469500,3.035469482421875,0.15379302203655243,0.01438064593821764,0.7236927151679993
1763696718378476800,3.045476806640625,0.12396649271249771,0.039946239441633224,0.6789528727531433
1763696718388482600,3.055482666015625,0.09200949966907501,0.050598569214344025,0.6214303374290466
1763696718398501600,3.065501708984375,0.0611177459359169,0.044207170605659485,0.5639077425003052
1763696718408508700,3.0755087890625,0.02489982172846794,0.016511112451553345,0.4978632926940918
1763696718418504700,3.085504638671875,-0.015579032711684704,-0.030359141528606415,0.4254274368286133
1763696718428510500,3.095510498046875,-0.05392742156982422,-0.06870753318071365,0.34233927726745605
1763696718438515000,3.105514892578125,-0.08588441461324692,-0.09107742458581924,0.2636451721191406
1763696718448520700,3.115520751953125,-0.10718907415866852,-0.09001219272613525,0.18801362812519073
1763696718458526200,3.125526123046875,-0.1199718713760376,-0.06977276504039764,0.10172975063323975
1763696718468531700,3.13553173828125,-0.1295589655637741,-0.045272402465343475,0.013315413147211075
1763696718478550500,3.145550537109375,-0.13381989300251007,-0.00905448105186224,-0.058055199682712555
1763696718488557600,3.1555576171875,-0.13701559603214264,0.030359141528606415,-0.11344731599092484
1763696718498552800,3.165552734375,-0.14447222650051117,0.0644465982913971,-0.15392617881298065
1763696718508558600,3.17555859375,-0.15725502371788025,0.08362079411745071,-0.1922745555639267
1763696718518578000,3.185577880859375,-0.1721682846546173,0.07829462736845016,-0.23594911396503448
1763696718528585000,3.1955849609375,-0.17855969071388245,0.055924732238054276,-0.2753627300262451
1763696718538587600,3.205587646484375,-0.1721682846546173,0.033554840832948685,-0.3082517981529236
1763696718548594400,3.215594482421875,-0.14979839324951172,0.028228675946593285,-0.33488261699676514
1763696718558593000,3.225593017578125,-0.11358047276735306,0.028228675946593285,-0.35618728399276733
1763696718568599000,3.23559912109375,-0.07629731297492981,0.019706811755895615,-0.36577439308166504
1763696718578615800,3.24561572265625,-0.04647079110145569,0.010119713842868805,-0.3615134656429291
1763696718588622800,3.255622802734375,-0.01877473294734955,-0.0037283156998455524,-0.3380783200263977
1763696718598623200,3.265623291015625,0.009986559860408306,-0.017576344311237335,-0.29240646958351135
1763696718608629500,3.27562939453125,0.03874785080552101,-0.036750540137290955,-0.23062294721603394
1763696718618626600,3.28562646484375,0.06324820965528488,-0.06764229387044907,-0.1709699034690857
1763696718628632000,3.295632080078125,0.08029194176197052,-0.11557777971029282,-0.12196917831897736
1763696718638646000,3.30564599609375,0.0930747389793396,-0.16564373672008514,-0.08255556225776672
1763696718648652300,3.31565234375,0.09840089827775955,-0.2135792225599289,-0.061250898987054825
1763696718658652200,3.325652099609375,0.09627043455839157,-0.27323228120803833,-0.0633813664317131
1763696718668658000,3.335657958984375,0.08987903594970703,-0.34340450167655945,-0.08362079411745071
1763696718678679300,3.34567919921875,0.08668334037065506,-0.3828181326389313,-0.10492545366287231
1763696718688686600,3.3556865234375,0.09200949966907501,-0.37536147236824036,-0.1059906855225563
1763696718698678800,3.3656787109375,0.09946613013744354,-0.33381739258766174,-0.0857512578368187
1763696718708684300,3.375684326171875,0.10905323177576065,-0.2902759909629822,-0.049533337354660034
1763696718718695400,3.3856953125,0.10905323177576065,-0.2657756507396698,-0.0047935484908521175
1763696718728701700,3.39570166015625,0.08987903594970703,-0.27110180258750916,0.037815771996974945
1763696718738703600,3.40570361328125,0.05153064802289009,-0.29453691840171814,0.0644465982913971
1763696718748709400,3.41570947265625,0.0003994623839389533,-0.3157084286212921,0.06870753318071365
1763696718758716000,3.4257158203125,-0.04753602296113968,-0.3274259865283966,0.050598569214344025
1763696718768721700,3.4357216796875,-0.08694964647293091,-0.3146432042121887,0.0037283156998455524
1763696718778741800,3.44574169921875,-0.11784140020608902,-0.26897132396698,-0.059120431542396545
1763696718788749000,3.4557490234375,-0.13595037162303925,-0.18375270068645477,-0.12409964948892593
1763696718798740500,3.465740478515625,-0.14873315393924713,-0.07829462736845016,-0.17310036718845367
1763696718808746200,3.475746337890625,-0.15832026302814484,0.016511112451553345,-0.19866596162319183
1763696718818755800,3.485755859375,-0.17749445140361786,0.08894696086645126,-0.19973118603229523
1763696718828761900,3.495761962890625,-0.20838621258735657,0.1177082508802414,-0.1816222369670868
1763696718838780400,3.505780517578125,-0.25312599539756775,0.09427312016487122,-0.1486000120639801
1763696718848787700,3.51578759765625,-0.31371113657951355,0.031424373388290405,-0.11025162041187286
1763696718858780200,3.5257802734375,-0.38934266567230225,-0.050598569214344025,-0.08681648969650269
1763696718868786200,3.5357861328125,-0.47349607944488525,-0.137947678565979,-0.08042509108781815
1763696718878794800,3.545794677734375,-0.5416709780693054,-0.18481792509555817,-0.07722939550876617
1763696718888801000,3.555801025390625,-0.5896064639091492,-0.17949175834655762,-0.08681648969650269
1763696718898805200,3.56580517578125,-0.6215634942054749,-0.14646953344345093,-0.1177082508802414
1763696718908811000,3.57581103515625,-0.6481943130493164,-0.1070559173822403,-0.17416560649871826
1763696718918818000,3.585818115234375,-0.6716294288635254,-0.06977276504039764,-0.23807957768440247
1763696718928824000,3.595823974609375,-0.6812165379524231,-0.030359141528606415,-0.29240646958351135
1763696718938840000,3.605840087890625,-0.6833469867706299,0.0037283156998455524,-0.33168694376945496
1763696718948847000,3.61584716796875,-0.675890326499939,0.017576344311237335,-0.34340450167655945
1763696718958844700,3.6258447265625,-0.6705641746520996,0.016511112451553345,-0.3284912407398224
1763696718968850700,3.6358505859375,-0.6769555807113647,0.00905448105186224,-0.3039908707141876
1763696718978856700,3.645856689453125,-0.6790860295295715,-0.012250179424881935,-0.27110180258750916
1763696718988862700,3.65586279296875,-0.6641727685928345,-0.059120431542396545,-0.24021004140377045
1763696718998882300,3.66588232421875,-0.6258243918418884,-0.10492545366287231,-0.2114487588405609
1763696719008889600,3.6758896484375,-0.5725627541542053,-0.1486000120639801,-0.17842653393745422
1763696719018884600,3.685884521484375,-0.521431565284729,-0.17416560649871826,-0.14540430903434753
1763696719028890600,3.695890625,-0.4798874855041504,-0.18694838881492615,-0.1070559173822403
1763696719038890200,3.70589013671875,-0.44366955757141113,-0.19547025859355927,-0.06551183015108109
1763696719048895700,3.715895751953125,-0.413843035697937,-0.21677492558956146,-0.029293907806277275
1763696719058912500,3.72591259765625,-0.38934266567230225,-0.2572537660598755,-0.0015978495357558131
1763696719068919300,3.735919189453125,-0.35418999195098877,-0.31144750118255615,0.017576344311237335
1763696719078919400,3.74591943359375,-0.3094501793384552,-0.3689700961112976,0.021837277337908745
1763696719088925400,3.755925537109375,-0.2616478502750397,-0.42755791544914246,0.01118494663387537
1763696719098930400,3.765930419921875,-0.22223423421382904,-0.5085155963897705,-0.010119713842868805
1763696719108936200,3.775936279296875,-0.205190509557724,-0.6150389313697815,-0.041011471301317215
1763696719118948000,3.785947998046875,-0.21797330677509308,-0.7183665037155151,-0.06551183015108109
1763696719128954400,3.795954345703125,-0.24566936492919922,-0.7748238444328308,-0.060185667127370834
1763696719138964500,3.805964599609375,-0.26484355330467224,-0.7652367949485779,-0.010119713842868805
1763696719148971300,3.81597119140625,-0.2669740319252014,-0.6896052360534668,0.08788172155618668
1763696719158968800,3.82596875,-0.2488650679588318,-0.5724295973777771,0.22636201977729797
1763696719168974800,3.835974853515625,-0.22223423421382904,-0.46164536476135254,0.389209508895874
1763696719178989600,3.845989501953125,-0.21903854608535767,-0.40731847286224365,0.5372769236564636
1763696719188996000,3.85599609375,-0.2552564740180969,-0.4318188428878784,0.6395393013954163
1763696719199000300,3.866000244140625,-0.31371113657951355,-0.5149070024490356,0.6938661336898804
1763696719209006800,3.8760068359375,-0.3754946291446686,-0.6214303374290466,0.7162360548973083
1763696719218992600,3.88599267578125,-0.418103963136673,-0.68747478723526,0.7141056060791016
1763696719228996900,3.895996826171875,-0.4351477026939392,-0.6864095330238342,0.6981270909309387
1763696719239038000,3.906037841796875,-0.4340824484825134,-0.626756489276886,0.6757571697235107
1763696719249046000,3.9160458984375,-0.4266258180141449,-0.5095808506011963,0.6491263508796692
1763696719259047400,3.92604736328125,-0.4063864052295685,-0.37642672657966614,0.6203650832176208
1763696719269054700,3.9360546875,-0.38721221685409546,-0.2540580630302429,0.589473307132721
1763696719279030300,3.9460302734375,-0.3829512596130371,-0.17310036718845367,0.5447335243225098
1763696719289034500,3.956034423828125,-0.3925383687019348,-0.14646953344345093,0.48188477754592896
1763696719299074800,3.96607470703125,-0.41064733266830444,-0.15179570019245148,0.4115794003009796
1763696719309082600,3.97608251953125,-0.4340824484825134,-0.19014409184455872,0.33275216817855835
1763696719319086600,3.986086669921875,-0.45432189106941223,-0.23701435327529907,0.245536208152771
1763696719329094000,3.996093994140625,-0.4660394489765167,-0.27216702699661255,0.14646953344345093
1763696719339096800,4.006096923828125,-0.4596480429172516,-0.2774932086467743,0.033554840832948685
1763696719349103600,4.016103515625,-0.4276910722255707,-0.23701435327529907,-0.06551183015108109
1763696719359098600,4.0260986328125,-0.3850817382335663,-0.15392617881298065,-0.13688243925571442
1763696719369104100,4.036104248046875,-0.35738566517829895,-0.0644465982913971,-0.19653549790382385
1763696719379108900,4.04610888671875,-0.34566810727119446,0.0047935484908521175,-0.2561885416507721
1763696719389114400,4.0561142578125,-0.3424724042415619,0.026098208501935005,-0.3135779798030853
1763696719399118300,4.066118408203125,-0.34460288286209106,0.010119713842868805,-0.35299158096313477
1763696719409123800,4.076123779296875,-0.33714625239372253,-0.015445878729224205,-0.37749195098876953
1763696719419133000,4.0861328125,-0.3211677670478821,-0.050598569214344025,-0.39453569054603577
1763696719429138700,4.096138671875,-0.29360485076904297,-0.07616416364908218,-0.4126446545124054
1763696719439145500,4.1061455078125,-0.24140843749046326,-0.09427312016487122,-0.42968836426734924
1763696719449151500,4.1161513671875,-0.16790735721588135,-0.11344731599092484,-0.43927547335624695
1763696719459160000,4.12616015625,-0.09760197252035141,-0.1272953450679779,-0.44992780685424805
1763696719469166300,4.136166259765625,-0.03901416063308716,-0.11877348273992538,-0.4573844373226166
1763696719479172900,4.1461728515625,0.004660394508391619,-0.12303441762924194,-0.454188734292984
1763696719489179100,4.15617919921875,0.03129122033715248,-0.14540430903434753,-0.4424711763858795
1763696719499193300,4.166193359375,0.04726971685886383,-0.19547025859355927,-0.42755791544914246
1763696719509200400,4.176200439453125,0.04407401755452156,-0.2252967804670334,-0.42755791544914246
1763696719519195400,4.1861953125,0.04194355010986328,-0.23807957768440247,-0.41903603076934814
1763696719529201000,4.196200927734375,0.04833494871854782,-0.21570968627929688,-0.37429624795913696
1763696719539218000,4.206218017578125,0.05579157918691635,-0.1805569976568222,-0.2742975056171417
1763696719549224700,4.216224609375,0.04620448127388954,-0.12516488134860992,-0.13049104809761047
1763696719559226000,4.22622607421875,0.02596505545079708,-0.062316130846738815,0.036750540137290955
1763696719569232600,4.236232666015625,0.013182258233428001,0.034620072692632675,0.18801362812519073
1763696719579231700,4.246231689453125,0.007856093347072601,0.07722939550876617,0.3370130956172943
1763696719589237500,4.256237548828125,0.02596505545079708,0.11557777971029282,0.46910199522972107
1763696719599244000,4.266244140625,0.04726971685886383,0.16564373672008514,0.5788210034370422
1763696719609249500,4.27624951171875,0.0717700719833374,0.29453691840171814,0.6374087929725647
1763696719619255800,4.286255859375,0.0824224054813385,0.37642672657966614,0.6640396118164062
1763696719629261600,4.296261474609375,0.08455286920070648,0.4147751033306122,0.6555177569389343
1763696719639269600,4.30626953125,0.07283531129360199,0.37323102355003357,0.6075822710990906
1763696719649275600,4.316275634765625,0.05579157918691635,0.2785584330558777,0.5447335243225098
1763696719659285000,4.326284912109375,0.04726971685886383,0.18588316440582275,0.4786891043186188
1763696719669291500,4.33629150390625,0.05259587988257408,0.0846860259771347,0.41797080636024475
1763696719679299800,4.3462998046875,0.05792204663157463,-0.010119713842868805,0.36683961749076843
1763696719689306400,4.356306396484375,0.04940018057823181,-0.09001219272613525,0.3178389072418213
1763696719699317200,4.366317138671875,0.02916075475513935,-0.1486000120639801,0.26257994771003723
1763696719709324000,4.376323974609375,-0.0017310036346316338,-0.16138280928134918,0.19440503418445587
1763696719719321600,4.386321533203125,-0.0347532257437706,-0.13368675112724304,0.11451254785060883
1763696719729327600,4.39632763671875,-0.04647079110145569,-0.060185667127370834,0.036750540137290955
1763696719739335700,4.406335693359375,-0.03049229457974434,0.042076703161001205,-0.033554840832948685
1763696719749341700,4.416341796875,0.0014646954368799925,0.13581721484661102,-0.09214265644550323
1763696719759347500,4.426347412109375,0.039813082665205,0.20931829512119293,-0.1390129029750824
1763696719769353700,4.436353759765625,0.06218297779560089,0.24873191118240356,-0.17416560649871826
1763696719779362600,4.446362548828125,0.06644391268491745,0.2860150635242462,-0.20505735278129578
1763696719789369000,4.456369140625,0.06750914454460144,0.3295564651489258,-0.23914481699466705
1763696719799373300,4.466373291015625,0.07922670245170593,0.34233927726745605,-0.26897132396698
1763696719809379300,4.47637939453125,0.10585752874612808,0.3370130956172943,-0.2764279842376709
1763696719819382300,4.48638232421875,0.1367492824792862,0.31038227677345276,-0.2529928386211395
1763696719829388000,4.496387939453125,0.15166255831718445,0.2551233172416687,-0.2029268890619278
1763696719839410200,4.50641015625,0.1367492824792862,0.17949175834655762,-0.13049104809761047
1763696719849417700,4.516417724609375,0.10585752874612808,0.1177082508802414,-0.032489608973264694
1763696719859409200,4.5264091796875,0.06750914454460144,0.049533337354660034,0.08149032294750214
1763696719869415200,4.536415283203125,0.008921326138079166,-0.01438064593821764,0.20612259209156036
1763696719879426000,4.546426025390625,-0.05818835273385048,-0.06764229387044907,0.3274259865283966
1763696719889432300,4.556432373046875,-0.11890663951635361,-0.11131685227155685,0.430753618478775
1763696719899441400,4.56644140625,-0.1295589655637741,-0.13688243925571442,0.4882761836051941
1763696719909448200,4.5764482421875,-0.07629731297492981,-0.14540430903434753,0.5021241903305054
1763696719919452400,4.586452392578125,0.008921326138079166,-0.1390129029750824,0.48081955313682556
1763696719929459000,4.596458984375,0.0717700719833374,-0.13581721484661102,0.42755791544914246
1763696719939459800,4.6064599609375,0.07922670245170593,-0.11983871459960938,0.3497959077358246
1763696719949465600,4.616465576171875,0.04513924941420555,-0.0740336924791336,0.2679060995578766
1763696719959477200,4.626477294921875,-0.01877473294734955,0.0079892473295331,0.20825305581092834
1763696719969483800,4.63648388671875,-0.09121058136224747,0.06977276504039764,0.17842653393745422
1763696719979492000,4.6464921875,-0.12423279881477356,0.1581871062517166,0.17416560649871826
1763696719989499000,4.656498779296875,-0.10612384229898453,0.2785584330558777,0.16777420043945312
1763696719999518000,4.66651806640625,-0.05286218971014023,0.3998618423938751,0.1603175699710846
1763696720009526000,4.676526123046875,0.00359516148455441,0.4573844373226166,0.16670896112918854
1763696720019511300,4.68651123046875,0.03342168778181076,0.44886255264282227,0.20505735278129578
1763696720029517000,4.69651708984375,0.05685681104660034,0.43927547335624695,0.26897132396698
1763696720039526100,4.706526123046875,0.06005251035094261,0.4105141758918762,0.33275216817855835
1763696720049532200,4.7165322265625,0.03555215150117874,0.3359478712081909,0.3721657991409302
1763696720059558000,4.726557861328125,0.0025299284607172012,0.23275341093540192,0.37749195098876953
1763696720069566000,4.73656591796875,-0.008122402243316174,0.13262151181697845,0.34233927726745605
1763696720079558700,4.74655859375,0.014247491955757141,0.0633813664317131,0.26257994771003723
1763696720089565000,4.75656494140625,0.04407401755452156,0.038881003856658936,0.14433906972408295
1763696720099579000,4.766578857421875,0.07070484012365341,0.060185667127370834,-0.0037283156998455524
1763696720109586000,4.7765859375,0.10053136944770813,0.12516488134860992,-0.16244803369045258
1763696720119573800,4.78657373046875,0.14846685528755188,0.22742724418640137,-0.305056095123291
1763696720129578800,4.796578857421875,0.2219679355621338,0.37749195098876953,-0.3998618423938751
1763696720139587800,4.806587890625,0.28801238536834717,0.47336292266845703,-0.4456668794155121
1763696720149593300,4.81659326171875,0.31770575046539307,0.5457987785339355,-0.4456668794155121
1763696720159616300,4.8266162109375,0.3155752718448639,0.5479292273521423,-0.435014545917511
1763696720169623300,4.836623291015625,0.2965342402458191,0.4882761836051941,-0.4371449947357178
1763696720179613200,4.84661328125,0.2720338702201843,0.38814428448677063,-0.4531235098838806
1763696720189618700,4.85661865234375,0.25818586349487305,0.27216702699661255,-0.47336292266845703
1763696720199644000,4.866643798828125,0.26031631231307983,0.18268746137619019,-0.48401525616645813
1763696720209651500,4.8766513671875,0.27842527627944946,0.16138280928134918,-0.47336292266845703
1763696720219638500,4.886638427734375,0.29972994327545166,0.1709699034690857,-0.4531235098838806
1763696720229644000,4.89664404296875,0.31024911999702454,0.19760072231292725,-0.42755791544914246
1763696720239656000,4.906656005859375,0.31024911999702454,0.23807957768440247,-0.4030575454235077
1763696720249662000,4.916661865234375,0.2944037914276123,0.29134124517440796,-0.37536147236824036
1763696720259672600,4.926672607421875,0.26777294278144836,0.3370130956172943,-0.3593829870223999
1763696720269679000,4.93667919921875,0.25712060928344727,0.3380783200263977,-0.346600204706192
1763696720279675100,4.946675048828125,0.262446790933609,0.28175413608551025,-0.32209983468055725
1763696720289680400,4.956680419921875,0.2720338702201843,0.20079642534255981,-0.2753627300262451
1763696720299688000,4.96668798828125,0.2635120153427124,0.13049104809761047,-0.20931829512119293
1763696720309693400,4.976693359375,0.2198374718427658,0.06977276504039764,-0.1294258087873459
1763696720319700700,4.98670068359375,0.16444534063339233,-0.033554840832948685,-0.023967742919921875
1763696720329706500,4.99670654296875,0.1260969638824463,-0.1294258087873459,0.09959928691387177
1763696720339712300,5.006712158203125,0.12077079713344574,-0.1581871062517166,0.21038351953029633
1763696720349718000,5.016718017578125,0.13248835504055023,-0.1816222369670868,0.2902759909629822
1763696720359728000,5.02672802734375,0.12183602899312973,-0.20931829512119293,0.3391435742378235
1763696720369734100,5.036734130859375,0.07709623873233795,-0.24660144746303558,0.36577439308166504
1763696720379757000,5.046757080078125,0.0185084231197834,-0.3242303133010864,0.3679048418998718
1763696720389764900,5.056764892578125,0.02276935614645481,-0.5628424882888794,0.3359478712081909
1763696720399737300,5.0667373046875,0.03874785080552101,-0.5617772936820984,0.29347169399261475
1763696720409741600,5.076741455078125,0.008921326138079166,-0.43927547335624695,0.306254506111145
1763696720419778600,5.086778564453125,-0.0017310036346316338,-0.49147188663482666,0.29134124517440796
1763696720429786000,5.0967861328125,-0.02090519852936268,-0.49466758966445923,0.24234052002429962
1763696720439795700,5.106795654296875,-0.03262276202440262,-0.38814428448677063,0.20825305581092834
1763696720449803300,5.11680322265625,-0.03794892504811287,-0.37323102355003357,0.19014409184455872
1763696720459793700,5.126793701171875,-0.05818835273385048,-0.3593829870223999,0.19014409184455872
1763696720469799700,5.136799560546875,-0.09227581322193146,-0.30518925189971924,0.20505735278129578
1763696720479789800,5.146789794921875,-0.13275466859340668,-0.2668408751487732,0.22423155605793
1763696720489794000,5.1567939453125,-0.17749445140361786,-0.2881455421447754,0.23807957768440247
1763696720499814400,5.166814453125,-0.2264951765537262,-0.3583177626132965,0.2348838746547699
1763696720509820400,5.1768203125,-0.2797568142414093,-0.4254274368286133,0.2125139832496643
1763696720519831600,5.18683154296875,-0.310515433549881,-0.4232969582080841,0.1720351278781891
1763696720529838000,5.196838134765625,-0.2999962568283081,-0.3370130956172943,0.11238208413124084
1763696720539838500,5.20683837890625,-0.2467346042394638,-0.17842653393745422,0.031424373388290405
1763696720549844500,5.216844482421875,-0.14447222650051117,0.01438064593821764,-0.054859500378370285
1763696720559884500,5.226884521484375,-0.007057168986648321,0.222101092338562,-0.11983871459960938
1763696720569894000,5.236893798828125,0.1356840580701828,0.4158403277397156,-0.15392617881298065
1763696720579870200,5.2468701171875,0.23688119649887085,0.5234288573265076,-0.17629607021808624
1763696720589876200,5.256876220703125,0.27736005187034607,0.534081220626831,-0.19760072231292725
1763696720599876400,5.26687646484375,0.2869471311569214,0.46271058917045593,-0.20612259209156036
1763696720609881600,5.276881591796875,0.2720338702201843,0.3487306535243988,-0.1816222369670868
1763696720619889200,5.28688916015625,0.24859875440597534,0.24873191118240356,-0.12196917831897736
1763696720629895000,5.29689501953125,0.2411421239376068,0.19440503418445587,-0.035685304552316666
1763696720639902000,5.30690185546875,0.2539249360561371,0.18907886743545532,0.053794268518686295
1763696720649907700,5.31690771484375,0.2837514579296112,0.20505735278129578,0.1390129029750824
1763696720659954700,5.32695458984375,0.32729285955429077,0.2135792225599289,0.19440503418445587
1763696720669964500,5.336964599609375,0.3667064607143402,0.17949175834655762,0.21038351953029633
1763696720679943000,5.34694287109375,0.386945903301239,0.06870753318071365,0.17736129462718964
1763696720689949400,5.356949462890625,0.38268497586250305,-0.13475197553634644,0.07296846061944962
1763696720699944200,5.366944091796875,0.3549889028072357,-0.4030575454235077,-0.10492545366287231
1763696720709949700,5.37694970703125,0.31770575046539307,-0.580951452255249,-0.2892107665538788
1763696720719957200,5.386957275390625,0.302792489528656,-0.5607120394706726,-0.39347043633461
1763696720729963000,5.396962890625,0.3059881925582886,-0.35512205958366394,-0.40731847286224365
1763696720739965000,5.40696484375,0.3123795986175537,-0.038881003856658936,-0.3380783200263977
1763696720749970200,5.41697021484375,0.31770575046539307,0.27110180258750916,-0.2029268890619278
1763696720759965400,5.42696533203125,0.31024911999702454,0.5053198933601379,-0.0047935484908521175
1763696720769969700,5.4369697265625,0.2741643488407135,0.5724295973777771,0.22636201977729797
1763696720780004600,5.447004638671875,0.23581595718860626,0.4243622124195099,0.4680367708206177
1763696720790012000,5.457011962890625,0.2006632685661316,0.10279498994350433,0.6640396118164062
1763696720800005000,5.467005126953125,0.1569887101650238,-0.264710396528244,0.8110417723655701
1763696720810011100,5.47701123046875,0.12929265201091766,-0.5532553791999817,0.8994561433792114
1763696720820022800,5.487022705078125,0.10266183316707611,-0.6203650832176208,0.9376713633537292
1763696720830029000,5.497029052734375,0.08987903594970703,-0.4648410677909851,0.8834776282310486
1763696720840032000,5.507031982421875,0.11011846363544464,-0.2668408751487732,0.7524539828300476
1763696720850038000,5.5170380859375,0.16124965250492096,-0.09214265644550323,0.5788210034370422
1763696720860004400,5.52700439453125,0.22622886300086975,0.032489608973264694,0.3902747631072998
1763696720870006300,5.53700634765625,0.2837514579296112,0.06764229387044907,0.25192761421203613
1763696720880065500,5.5470654296875,0.30811864137649536,0.18694838881492615,0.10386022180318832
1763696720890073300,5.5570732421875,0.3059881925582886,0.23062294721603394,-0.00585878174751997
1763696720900064500,5.567064453125,0.302792489528656,0.17736129462718964,-0.055924732238054276
1763696720910070800,5.57707080078125,0.30079516768455505,0.050598569214344025,-0.06977276504039764
1763696720920076500,5.58707666015625,0.3038577139377594,-0.09746882319450378,-0.08362079411745071
1763696720930082600,5.59708251953125,0.302792489528656,-0.18694838881492615,-0.09214265644550323
1763696720940092400,5.607092529296875,0.30186042189598083,-0.21784014999866486,-0.06657706201076508
1763696720950098700,5.6170986328125,0.3230319023132324,-0.2146444469690323,-0.022902509197592735
1763696720960068000,5.627068115234375,0.3592498302459717,-0.21784014999866486,-0.0026630824431777
1763696720970070800,5.63707080078125,0.38161972165107727,-0.245536208152771,-0.023967742919921875
1763696720980125400,5.64712548828125,0.3762935698032379,-0.28388461470603943,-0.07296846061944962
1763696720990133200,5.65713330078125,0.35179319977760315,-0.3263607621192932,-0.13688243925571442
1763696721000128000,5.6671279296875,0.33048853278160095,-0.3593829870223999,-0.2018616646528244
1763696721010134500,5.677134521484375,0.32729285955429077,-0.3476654291152954,-0.26151469349861145
1763696721020141300,5.687141357421875,0.34114086627960205,-0.29240646958351135,-0.305056095123291
1763696721030147800,5.69714794921875,0.35285845398902893,-0.22742724418640137,-0.33168694376945496
1763696721040150800,5.70715087890625,0.36031508445739746,-0.14220860600471497,-0.35512205958366394
1763696721050156800,5.71715673828125,0.3688369393348694,-0.044207170605659485,-0.3679048418998718
1763696721060135000,5.727135009765625,0.36351075768470764,0.017576344311237335,-0.3593829870223999
1763696721070138000,5.73713818359375,0.3645760118961334,0.0047935484908521175,-0.3252955377101898
1763696721080192300,5.747192138671875,0.367771714925766,0.022902509197592735,-0.2998631000518799
1763696721090200800,5.757200927734375,0.3464670479297638,-0.006924014538526535,-0.28281936049461365
1763696721100195600,5.767195556640625,0.30811864137649536,-0.052729032933712006,-0.2860150635242462
1763696721110202600,5.77720263671875,0.28162097930908203,-0.1486000120639801,-0.3306216895580292
1763696721120205000,5.787205078125,0.2975994646549225,-0.3157084286212921,-0.42755791544914246
1763696721130211800,5.7972119140625,0.36351075768470764,-0.45099303126335144,-0.542603075504303
1763696721140222500,5.807222412109375,0.4625774323940277,-0.3817528784275055,-0.6118432283401489
1763696721150229500,5.8172294921875,0.5818835496902466,-0.3487306535243988,-0.5958647131919861
1763696721160233000,5.82723291015625,0.6788197159767151,-0.2849498391151428,-0.5106461048126221
1763696721170239500,5.837239501953125,0.723559558391571,-0.2252967804670334,-0.3817528784275055
1763696721180259000,5.847259033203125,0.708646297454834,-0.22742724418640137,-0.22636201977729797
1763696721190267100,5.85726708984375,0.6788197159767151,-0.2540580630302429,-0.06977276504039764
1763696721200257300,5.86725732421875,0.6468627452850342,-0.2881455421447754,0.062316130846738815
1763696721210263300,5.87726318359375,0.6319494843482971,-0.28281936049461365,0.17629607021808624
1763696721220269300,5.887269287109375,0.64792799949646,-0.24340574443340302,0.2753627300262451
1763696721230275600,5.897275634765625,0.6916025280952454,-0.22423155605793,0.350861132144928
1763696721240277000,5.907277099609375,0.7256900072097778,-0.2572537660598755,0.3913399875164032
1763696721250282800,5.91728271484375,0.7448641657829285,-0.2774932086467743,0.39347043633461
1763696721260287500,5.92728759765625,0.7629731297492981,-0.22742724418640137,0.35299158096313477
1763696721270293000,5.93729296875,0.7842777967453003,-0.12090394645929337,0.27323228120803833
1763696721280316700,5.947316650390625,0.8119738698005676,-0.0005326165119186044,0.18268746137619019
1763696721290324000,5.957323974609375,0.8247566819190979,0.0964035913348198,0.10492545366287231
1763696721300320500,5.967320556640625,0.8215609788894653,0.1688394397497177,0.048468101769685745
1763696721310326800,5.977326904296875,0.8034520149230957,0.22103585302829742,0.0079892473295331
1763696721320329700,5.987329833984375,0.7746906876564026,0.2529928386211395,-0.01438064593821764
1763696721330335700,5.997335693359375,0.7384728193283081,0.2636451721191406,-0.022902509197592735
1763696721340342300,6.00734228515625,0.6830806732177734,0.2338186502456665,-0.0079892473295331
1763696721350348300,6.017348388671875,0.6074491143226624,0.1805569976568222,0.036750540137290955
1763696721360353000,6.02735302734375,0.5158390998840332,0.137947678565979,0.0953383520245552
1763696721370359000,6.037359130859375,0.3975982367992401,0.043141938745975494,0.10492545366287231
1763696721380382200,6.04738232421875,0.3166405260562897,0.12409964948892593,0.06551183015108109
1763696721390390000,6.05739013671875,0.3145100474357605,0.16138280928134918,0.060185667127370834
1763696721400385000,6.067385009765625,0.3379451632499695,0.15286093950271606,0.044207170605659485
1763696721410391600,6.0773916015625,0.367771714925766,0.2018616646528244,0.013315413147211075
1763696721420397000,6.08739697265625,0.41570720076560974,0.25938424468040466,-0.030359141528606415
1763696721430403000,6.097403076171875,0.45831650495529175,0.27323228120803833,-0.06551183015108109
1763696721440404700,6.10740478515625,0.4647079110145569,0.30292564630508423,-0.08894696086645126
1763696721450410500,6.117410400390625,0.41677242517471313,0.17949175834655762,-0.12409964948892593
1763696721460393000,6.12739306640625,0.3667064607143402,-0.052729032933712006,-0.14220860600471497
1763696721470396200,6.137396240234375,0.3251623809337616,-0.23914481699466705,-0.1581871062517166
1763696721480416800,6.147416748046875,0.27949050068855286,-0.39560091495513916,-0.16351327300071716
1763696721490422000,6.157422119140625,0.2091851383447647,-0.4893414080142975,-0.13368675112724304
1763696721500463900,6.1674638671875,0.17296721041202545,-0.5212984085083008,-0.06551183015108109
1763696721510472700,6.17747265625,0.16551057994365692,-0.4360797703266144,0.012250179424881935
1763696721520443600,6.187443603515625,0.18681524693965912,-0.3359478712081909,0.06657706201076508
1763696721530448600,6.19744873046875,0.2517944574356079,-0.23701435327529907,0.09001219272613525
1763696721540489700,6.20748974609375,0.34114086627960205,-0.20079642534255981,0.062316130846738815
1763696721550498300,6.217498291015625,0.4199681282043457,-0.2338186502456665,-0.016511112451553345
1763696721560446000,6.227446044921875,0.46683835983276367,-0.31251272559165955,-0.11451254785060883
1763696721570448400,6.237448486328125,0.4742949903011322,-0.38707906007766724,-0.20505735278129578
1763696721580480000,6.24747998046875,0.45938172936439514,-0.4318188428878784,-0.2774932086467743
1763696721590485500,6.257485595703125,0.4497946500778198,-0.4446016252040863,-0.3263607621192932
1763696721600495600,6.26749560546875,0.45831650495529175,-0.40625324845314026,-0.350861132144928
1763696721610501600,6.277501708984375,0.48920828104019165,-0.3252955377101898,-0.3615134656429291
1763696721620537600,6.28753759765625,0.5115781426429749,-0.2657756507396698,-0.3679048418998718
1763696721630546700,6.297546630859375,0.494534432888031,-0.2636451721191406,-0.37323102355003357
1763696721640533200,6.307533203125,0.43488138914108276,-0.30305880308151245,-0.37749195098876953
1763696721650540000,6.3175400390625,0.3699021637439728,-0.3679048418998718,-0.3785571753978729
1763696721660512000,6.327511962890625,0.31770575046539307,-0.44886255264282227,-0.37536147236824036
1763696721670515200,6.33751513671875,0.25925108790397644,-0.5330159664154053,-0.36257869005203247
1763696721680560000,6.34756005859375,0.18361954391002655,-0.5713643431663513,-0.3412740230560303
1763696721690567400,6.3575673828125,0.08987903594970703,-0.5021241903305054,-0.3252955377101898
1763696721700574700,6.36757470703125,-0.005991935729980469,-0.33168694376945496,-0.3306216895580292
1763696721710582000,6.37758203125,-0.06564498692750931,-0.1166430190205574,-0.36470916867256165
1763696721720584000,6.387583984375,-0.05179695412516594,0.1294258087873459,-0.4211665093898773
1763696721730590500,6.397590576171875,0.03555215150117874,0.3295564651489258,-0.48188477754592896
1763696721740594200,6.40759423828125,0.11864032596349716,0.4467321038246155,-0.5255593657493591
1763696721750600700,6.4176005859375,0.16231487691402435,0.48295003175735474,-0.5479292273521423
1763696721760603000,6.427602783203125,0.15272778272628784,0.4467321038246155,-0.5511249303817749
1763696721770609000,6.43760888671875,0.09840089827775955,0.3679048418998718,-0.5298202633857727
1763696721780621800,6.447621826171875,0.02916075475513935,0.3189041316509247,-0.48401525616645813
1763696721790628600,6.457628662109375,-0.02410089783370495,0.3082517981529236,-0.41797080636024475
1763696721800632000,6.467632080078125,-0.04753602296113968,0.3189041316509247,-0.350861132144928
1763696721810638300,6.477638427734375,-0.06138405203819275,0.3487306535243988,-0.305056095123291
1763696721820643300,6.487643310546875,-0.05392742156982422,0.3593829870223999,-0.28388461470603943
1763696721830649600,6.497649658203125,-0.009187635034322739,0.3370130956172943,-0.2892107665538788
1763696721840662300,6.507662353515625,0.05366111174225807,0.3082517981529236,-0.30199354887008667
1763696721850669000,6.5176689453125,0.11757509410381317,0.27323228120803833,-0.3009283244609833
1763696721860658200,6.527658203125,0.16231487691402435,0.2252967804670334,-0.28281936049461365
1763696721870663400,6.537663330078125,0.1878804713487625,0.16351327300071716,-0.24979715049266815
1763696721880687400,6.547687255859375,0.19427187740802765,0.0846860259771347,-0.20931829512119293
1763696721890694400,6.5576943359375,0.178293377161026,0.060185667127370834,-0.1912093311548233
1763696721900700700,6.56770068359375,0.16231487691402435,0.11344731599092484,-0.24021004140377045
1763696721910707500,6.57770751953125,0.14420592784881592,0.19866596162319183,-0.3199693560600281
1763696721920712200,6.587712158203125,0.11650986224412918,0.2796236574649811,-0.37642672657966614
1763696721930719000,6.597718994140625,0.07816147059202194,0.3167736828327179,-0.34553495049476624
1763696721940719600,6.6077197265625,0.03768261894583702,0.2348838746547699,-0.27323228120803833
1763696721950725600,6.6177255859375,-0.0027962366584688425,0.0750989317893982,-0.2252967804670334
1763696721960721400,6.627721435546875,-0.04647079110145569,-0.11451254785060883,-0.21890538930892944
1763696721970726400,6.637726318359375,-0.03368799388408661,-0.1922745555639267,-0.2252967804670334
1763696721980746800,6.647746826171875,-0.14766792953014374,-0.3189041316509247,-0.1496652364730835
1763696721990753000,6.6577529296875,-0.03901416063308716,-0.2902759909629822,-0.16564373672008514
1763696722000764200,6.66776416015625,0.12077079713344574,-0.5223636627197266,-0.22103585302829742
1763696722010771200,6.677771240234375,0.15272778272628784,-0.4264926612377167,-0.20718781650066376
1763696722020781300,6.68778125,0.1889457106590271,-0.26151469349861145,-0.14220860600471497
1763696722030788600,6.69778857421875,0.37203264236450195,-0.21997061371803284,-0.12303441762924194
1763696722040788200,6.707788330078125,0.3358147144317627,-0.1272953450679779,-0.09959928691387177
1763696722050794800,6.717794677734375,0.2635120153427124,-0.08149032294750214,-0.0633813664317131
1763696722060788700,6.727788818359375,0.05153064802289009,-0.11877348273992538,-0.09001219272613525
1763696722070794000,6.7377939453125,-0.17642922699451447,-0.055924732238054276,-0.055924732238054276
1763696722080814800,6.74781494140625,-0.22969086468219757,-0.016511112451553345,0.033554840832948685
1763696722090821600,6.757821533203125,-0.18069015443325043,0.00585878174751997,0.10172975063323975
1763696722100824600,6.767824462890625,-0.07842778414487839,0.0047935484908521175,0.1177082508802414
1763696722110831000,6.7778310546875,-0.02090519852936268,0.07829462736845016,0.0846860259771347
1763696722120834600,6.78783447265625,-0.011318100616335869,0.15499140322208405,0.053794268518686295
1763696722130840600,6.797840576171875,-0.015579032711684704,0.23914481699466705,0.035685304552316666
1763696722140844000,6.807843994140625,-0.01664426550269127,0.3071865737438202,0.047402869910001755
1763696722150849800,6.817849853515625,-0.015579032711684704,0.37749195098876953,0.0644465982913971
1763696722160899600,6.827899658203125,-0.004926702938973904,0.42755791544914246,0.0857512578368187
1763696722170909700,6.83790966796875,0.03768261894583702,0.45099303126335144,0.11451254785060883
1763696722190880800,6.857880859375,0.1985328048467636,0.6310173869132996,0.21997061371803284
1763696722200886300,6.86788623046875,0.2869471311569214,0.7982590198516846,0.30518925189971924
1763696722210891800,6.877891845703125,0.3645760118961334,0.9877372980117798,0.3902747631072998
1763696722220897300,6.887897216796875,0.41783764958381653,1.1368699073791504,0.47975432872772217
1763696722230903000,6.897903076171875,0.4625774323940277,1.2646979093551636,0.5415378212928772
1763696722240908000,6.907907958984375,0.5115781426429749,1.3179595470428467,0.6150389313697815
1763696722250913500,6.91791357421875,0.5531222224235535,1.3829387426376343,0.6661701202392578
1763696722260940800,6.92794091796875,0.5627093315124512,1.3648297786712646,0.7407364249229431
1763696722270948400,6.9379482421875,0.5382089614868164,1.2785459756851196,0.7822805047035217
1763696722280934400,6.947934326171875,0.49879536032676697,1.2061101198196411,0.7982590198516846
1763696722290940000,6.95793994140625,0.4647079110145569,1.1986534595489502,0.771628201007843
1763696722300951000,6.967950927734375,0.42529428005218506,1.1379351615905762,0.7098446488380432
1763696722310957000,6.97795703125,0.3699021637439728,1.0069115161895752,0.6097127795219421
1763696722320961000,6.9879609375,0.29972994327545166,0.8557815551757812,0.4850804805755615
1763696722330966800,6.997966796875,0.24859875440597534,0.7609758377075195,0.37749195098876953
1763696722340974000,7.00797412109375,0.2315550297498703,0.8131722807884216,0.30412402749061584
1763696722350979800,7.017979736328125,0.22622886300086975,0.9142362475395203,0.24979715049266815
1763696722360967200,7.02796728515625,0.19214141368865967,0.9760197401046753,0.20505735278129578
1763696722370971100,7.03797119140625,0.10585752874612808,0.9069127440452576,0.18481792509555817
1763696722380998000,7.047997802734375,0.006790860556066036,0.7268883585929871,0.17310036718845367
1763696722391004200,7.058004150390625,-0.05499265342950821,0.5149070024490356,0.15392617881298065
1763696722401011500,7.068011474609375,-0.06564498692750931,0.44034069776535034,0.1166430190205574
1763696722411018000,7.07801806640625,-0.05286218971014023,0.6203650832176208,0.059120431542396545
1763696722421027800,7.08802783203125,-0.03368799388408661,0.902651846408844,-0.0026630824431777
1763696722431034600,7.09803466796875,-0.01983996480703354,0.9174319505691528,0.01438064593821764
1763696722441037600,7.10803759765625,-0.02516612969338894,0.8845428824424744,0.053794268518686295
1763696722451043800,7.1180439453125,-0.04220985993742943,0.8376725912094116,0.09959928691387177
1763696722461057000,7.12805712890625,-0.05073172226548195,0.7077142000198364,0.15392617881298065
1763696722471064000,7.13806396484375,0.005725627299398184,0.6320826411247253,0.18268746137619019
1763696722481074000,7.148073974609375,0.07283531129360199,0.6011908650398254,0.2029268890619278
1763696722491081200,7.158081298828125,0.11011846363544464,0.5223636627197266,0.23701435327529907
1763696722501093600,7.16809375,0.1250317245721817,0.430753618478775,0.29240646958351135
1763696722511101400,7.178101318359375,0.1346188187599182,0.3157084286212921,0.33488261699676514
1763696722521103400,7.188103271484375,0.14314068853855133,0.27003657817840576,0.3721657991409302
1763696722541108000,7.20810791015625,0.16124965250492096,0.3061213493347168,0.42968836426734924
1763696722551114200,7.2181142578125,0.1772281378507614,0.26257994771003723,0.435014545917511
1763696722561124000,7.2281240234375,0.20811989903450012,0.1816222369670868,0.4264926612377167
1763696722571130600,7.238130615234375,0.22835932672023773,0.11983871459960938,0.39773139357566833
1763696722581145900,7.248145751953125,0.22729410231113434,0.0953383520245552,0.3828181326389313
1763696722591153400,7.2581533203125,0.2219679355621338,0.062316130846738815,0.3817528784275055
1763696722601166300,7.268166259765625,0.21238084137439728,-0.034620072692632675,0.3796224296092987
1763696722611174100,7.278174072265625,0.1878804713487625,-0.20399212837219238,0.39666613936424255
1763696722621166300,7.288166259765625,0.14953207969665527,-0.3189041316509247,0.4041227698326111
1763696722631172900,7.2981728515625,0.11118369549512863,-0.45205825567245483,0.40838369727134705
1763696722641193200,7.308193115234375,0.08348763734102249,-0.6054518222808838,0.39347043633461
1763696722651201000,7.318200927734375,0.02596505545079708,-0.8291507363319397,0.36470916867256165
1763696722661172200,7.328172119140625,0.0003994623839389533,-0.916366696357727,0.31038227677345276
1763696722671176200,7.33817626953125,0.01957365684211254,-0.7790848016738892,0.2114487588405609
1763696722681211100,7.348211181640625,0.04407401755452156,-0.6629744172096252,0.1486000120639801
1763696722691218200,7.35821826171875,0.07603100687265396,-0.6331478953361511,0.09746882319450378
1763696722701224400,7.368224365234375,0.09840089827775955,-0.6949313879013062,0.052729032933712006
1763696722711231500,7.3782314453125,0.10692276805639267,-0.8270202875137329,0.034620072692632675
1763696722721241000,7.388240966796875,0.10479229688644409,-1.0015853643417358,0.054859500378370285
1763696722731248400,7.398248291015625,0.10053136944770813,-1.1720225811004639,0.09001219272613525
1763696722741222400,7.408222412109375,0.11970555782318115,-1.2710893154144287,0.16244803369045258
1763696722751226400,7.418226318359375,0.1356840580701828,-1.3083724975585938,0.2444709837436676
1763696722761251300,7.428251220703125,0.14953207969665527,-1.2359366416931152,0.306254506111145
1763696722771257300,7.43825732421875,0.1580539494752884,-1.1304785013198853,0.33168694376945496
1763696722781272600,7.4482724609375,0.18468476831912994,-0.9919982552528381,0.3295564651489258
1763696722791279600,7.458279541015625,0.22942456603050232,-0.8057156205177307,0.30518925189971924
1763696722801263900,7.468263916015625,0.24007689952850342,-0.6555177569389343,0.2764279842376709
1763696722811268400,7.478268310546875,0.17616291344165802,-0.6001256704330444,0.23594911396503448
1763696722821270000,7.48827001953125,0.15166255831718445,-0.6001256704330444,0.20825305581092834
1763696722831274500,7.4982744140625,0.10692276805639267,-0.5788210034370422,0.24340574443340302
1763696722841280500,7.508280517578125,0.04194355010986328,-0.6928009390830994,0.29134124517440796
1763696722851285000,7.518284912109375,-0.11145000159740448,-0.9653674364089966,0.36470916867256165
1763696722861280000,7.528280029296875,-0.3637770712375641,-1.1741530895233154,0.44034069776535034
1763696722871283500,7.538283447265625,-0.5938674211502075,-1.2753502130508423,0.5447335243225098
1763696722881307600,7.5483076171875,-0.7344781756401062,-1.2274147272109985,0.7130403518676758
1763696722891313400,7.5583134765625,-0.7621742486953735,-1.0484555959701538,0.8941299915313721
1763696722901321000,7.568321044921875,-0.674825131893158,-0.8376725912094116,0.9962592124938965
1763696722911326700,7.57832666015625,-0.5193011164665222,-0.626756489276886,0.9888025522232056
1763696722921340200,7.588340087890625,-0.35632044076919556,-0.44992780685424805,0.8845428824424744
1763696722931346700,7.5983466796875,-0.2275604009628296,-0.3252955377101898,0.7162360548973083
1763696722941347600,7.60834765625,-0.16045072674751282,-0.2540580630302429,0.5212984085083008
1763696722951353600,7.618353515625,-0.14979839324951172,-0.24766667187213898,0.33168694376945496
1763696722961407500,7.628407470703125,-0.183885857462883,-0.2892107665538788,0.1720351278781891
1763696722971418400,7.63841845703125,-0.2382127344608307,-0.3380783200263977,0.055924732238054276
1763696722981369000,7.648369140625,-0.28508299589157104,-0.370035320520401,-0.00905448105186224
1763696722991373800,7.658373779296875,-0.3190372884273529,-0.4041227698326111,-0.029293907806277275
1763696723001393400,7.668393310546875,-0.353124737739563,-0.4137098789215088,-0.021837277337908745
1763696723011399400,7.6783994140625,-0.39040789008140564,-0.4147751033306122,-0.006924014538526535
1763696723021418200,7.688418212890625,-0.4362129271030426,-0.43821024894714355,-0.0026630824431777
1763696723031425800,7.69842578125,-0.4873441159725189,-0.477623850107193,-0.019706811755895615
1763696723041457200,7.70845703125,-0.544866681098938,-0.4861457347869873,-0.058055199682712555
1763696723051467300,7.71846728515625,-0.5981283187866211,-0.4637758135795593,-0.11557777971029282
1763696723061417700,7.728417724609375,-0.6332810521125793,-0.4264926612377167,-0.1805569976568222
1763696723071421700,7.738421630859375,-0.6481943130493164,-0.3902747631072998,-0.245536208152771
1763696723081468700,7.74846875,-0.6236939430236816,-0.33488261699676514,-0.2902759909629822
1763696723091476700,7.758476806640625,-0.5640408992767334,-0.24127528071403503,-0.2987978756427765
1763696723101496000,7.76849609375,-0.4926702678203583,-0.13581721484661102,-0.28388461470603943
1763696723111505400,7.77850537109375,-0.4287562966346741,-0.052729032933712006,-0.25086238980293274
1763696723121489400,7.788489501953125,-0.36590754985809326,-0.012250179424881935,-0.2135792225599289
1763696723131496200,7.79849609375,-0.29680055379867554,-0.00585878174751997,-0.18375270068645477
1763696723141523700,7.808523681640625,-0.22436471283435822,-0.032489608973264694,-0.16244803369045258
1763696723151532500,7.818532470703125,-0.16790735721588135,-0.07935985922813416,-0.137947678565979
1763696723161483800,7.82848388671875,-0.12423279881477356,-0.1272953450679779,-0.11238208413124084
1763696723171486700,7.83848681640625,-0.08588441461324692,-0.15179570019245148,-0.0750989317893982
1763696723181497600,7.84849755859375,-0.05925358831882477,-0.14540430903434753,-0.019706811755895615
1763696723191501600,7.85850146484375,-0.03688369318842888,-0.15392617881298065,0.052729032933712006
1763696723201504500,7.86850439453125,-0.010252867825329304,-0.14007814228534698,0.14327384531497955
1763696723211508200,7.87850830078125,0.008921326138079166,-0.08362079411745071,0.264710396528244
1763696723221515500,7.888515625,0.03555215150117874,-0.060185667127370834,0.4158403277397156
1763696723231519500,7.89851953125,0.04940018057823181,-0.08042509108781815,0.5777557492256165
1763696723241548800,7.908548828125,0.02916075475513935,-0.14114338159561157,0.7396711707115173
1763696723251555300,7.918555419921875,-0.02410089783370495,-0.23594911396503448,0.8951951861381531
1763696723261553000,7.928552978515625,-0.1093195378780365,-0.3370130956172943,1.0186290740966797
1763696723271558700,7.93855859375,-0.19879911839962006,-0.4573844373226166,1.0899996757507324
1763696723281534200,7.9485341796875,-0.28508299589157104,-0.5862776041030884,1.1027824878692627
1763696723291536600,7.95853662109375,-0.36697277426719666,-0.6970618367195129,1.068695068359375
1763696723301548800,7.968548828125,-0.45112618803977966,-0.7705629467964172,0.9898678064346313
1763696723311552300,7.97855224609375,-0.5246272683143616,-0.795063316822052,0.8664339184761047
1763696723321565000,7.98856494140625,-0.5853455662727356,-0.7993242144584656,0.7077142000198364
1763696723331569400,7.9985693359375,-0.6236939430236816,-0.8067808747291565,0.5404726266860962
1763696723341606700,8.008606689453124,-0.6364767551422119,-0.8461945056915283,0.37642672657966614
1763696723351614500,8.018614501953126,-0.6268896460533142,-0.9184971451759338,0.22103585302829742
1763696723361632800,8.0286328125,-0.5991935729980469,-1.0069115161895752,0.07616416364908218
1763696723371641600,8.0386416015625,-0.5789541602134705,-1.0750864744186401,-0.054859500378370285
1763696723381628400,8.04862841796875,-0.5800193548202515,-1.1070433855056763,-0.18268746137619019
1763696723391635000,8.058635009765625,-0.5981283187866211,-1.1208914518356323,-0.29134124517440796
1763696723401630500,8.06863037109375,-0.5810846090316772,-1.0601731538772583,-0.40731847286224365
1763696723411636000,8.078635986328125,-0.5033226013183594,-0.9738892912864685,-0.4989285171031952
1763696723421657900,8.088657958984374,-0.40106022357940674,-0.84193354845047,-0.5766905546188354
1763696723431665000,8.098664794921875,-0.29467007517814636,-0.6714962720870972,-0.6565830111503601
1763696723441629400,8.10862939453125,-0.19027724862098694,-0.5085155963897705,-0.7513887286186218
1763696723451632000,8.118632080078125,-0.11145000159740448,-0.3998618423938751,-0.8632382154464722
1763696723461673700,8.128673828125,-0.0454055592417717,-0.36257869005203247,-0.9706935882568359
1763696723471680300,8.13868017578125,0.04620448127388954,-0.33168694376945496,-1.0793473720550537
1763696723481680000,8.148679931640626,0.15166255831718445,-0.30518925189971924,-1.1635007858276367
1763696723491685600,8.158685546875,0.27949050068855286,-0.27003657817840576,-1.2114362716674805
1763696723501691600,8.168691650390626,0.429555207490921,-0.28388461470603943,-1.1933273077011108
1763696723511697400,8.178697509765625,0.540339469909668,-0.3284912407398224,-1.1368699073791504
1763696723521716200,8.18871630859375,0.5467308759689331,-0.30931705236434937,-1.0857387781143188
1763696723531723500,8.1987236328125,0.48920828104019165,-0.30305880308151245,-0.9611064791679382
1763696723541718800,8.20871875,0.38268497586250305,-0.2753627300262451,-0.8472597002983093
1763696723551724800,8.218724853515624,0.36138030886650085,-0.2753627300262451,-0.7428668737411499
1763696723561731600,8.228731689453125,0.38375020027160645,-0.26151469349861145,-0.6480611562728882
1763696723571737600,8.238737548828125,0.40718531608581543,-0.2636451721191406,-0.5756253004074097
1763696723581746700,8.24874658203125,0.42422905564308167,-0.2572537660598755,-0.5223636627197266
1763696723591753000,8.2587529296875,0.429555207490921,-0.26151469349861145,-0.4872109591960907
1763696723601777700,8.268777587890625,0.4189028739929199,-0.2742975056171417,-0.47123244404792786
1763696723611786000,8.278785888671875,0.40505486726760864,-0.27216702699661255,-0.4669715166091919
1763696723621772000,8.28877197265625,0.40718531608581543,-0.24021004140377045,-0.45951488614082336
1763696723631778000,8.298778076171875,0.4284899830818176,-0.15605664253234863,-0.4446016252040863
1763696723641812200,8.308812255859374,0.47749069333076477,-0.049533337354660034,-0.4264926612377167
1763696723651821000,8.318821044921876,0.516904354095459,0.10172975063323975,-0.39347043633461
1763696723661823200,8.3288232421875,0.4742949903011322,0.20931829512119293,-0.3593829870223999
1763696723671831300,8.338831298828126,0.4018591642379761,0.28068891167640686,-0.31144750118255615
1763696723681821700,8.34882177734375,0.39440253376960754,0.3998618423938751,-0.28388461470603943
1763696723691828000,8.358827880859375,0.49027350544929504,0.454188734292984,-0.222101092338562
1763696723701841400,8.36884130859375,0.5382089614868164,0.47016721963882446,-0.14540430903434753
1763696723711848400,8.378848388671875,0.4284899830818176,0.34446972608566284,-0.11983871459960938
1763696723721849000,8.38884912109375,0.3038577139377594,0.12090394645929337,-0.09959928691387177
1763696723731855600,8.398855712890626,0.1900109350681305,-0.06551183015108109,-0.060185667127370834
1763696723741851600,8.4088515625,0.12290126085281372,-0.2252967804670334,0.0026630824431777
1763696723751857000,8.41885693359375,0.10585752874612808,-0.38707906007766724,0.07722939550876617
1763696723761847600,8.42884765625,0.0930747389793396,-0.5255593657493591,0.14433906972408295
1763696723771851300,8.438851318359376,0.0717700719833374,-0.5745600461959839,0.19973118603229523
1763696723781870000,8.4488701171875,0.04620448127388954,-0.5447335243225098,0.23701435327529907
1763696723791875300,8.458875244140625,0.02916075475513935,-0.519167959690094,0.24979715049266815
1763696723801892000,8.46889208984375,0.02916075475513935,-0.5319507122039795,0.23594911396503448
1763696723811898600,8.478898681640626,0.03129122033715248,-0.5841471552848816,0.20718781650066376
1763696723821914000,8.4889140625,0.02170412242412567,-0.6288869380950928,0.1688394397497177
1763696723831921400,8.49892138671875,-0.008122402243316174,-0.6480611562728882,0.12409964948892593
1763696723841933300,8.508933349609375,-0.04966649040579796,-0.6182346343994141,0.08149032294750214
1763696723851941000,8.518941162109375,-0.08055824786424637,-0.5521901845932007,0.046337638050317764
1763696723861953000,8.528953125,-0.10399337112903595,-0.46058014035224915,0.030359141528606415
1763696723871961000,8.538961181640625,-0.11784140020608902,-0.34553495049476624,0.035685304552316666
1763696723881978600,8.548978515625,-0.12316756695508957,-0.22742724418640137,0.0633813664317131
1763696723891987700,8.55898779296875,-0.13488513231277466,-0.11344731599092484,0.11131685227155685
1763696723901943000,8.568943115234376,-0.1615159511566162,-0.01118494663387537,0.17842653393745422
1763696723911946500,8.578946533203125,-0.2062557488679886,0.054859500378370285,0.25938424468040466
1763696723921977900,8.588977783203125,-0.27443066239356995,0.06551183015108109,0.34233927726745605
1763696723931984400,8.598984375,-0.36803799867630005,0.032489608973264694,0.4201012849807739
1763696723941988600,8.608988525390625,-0.4820179343223572,-0.018641578033566475,0.477623850107193
1763696723951995000,8.618994873046875,-0.6109111309051514,-0.060185667127370834,0.5138418078422546
1763696723961974300,8.628974365234376,-0.7398043274879456,-0.0740336924791336,0.520233154296875
1763696723971977700,8.638977783203124,-0.8644366264343262,-0.06764229387044907,0.4765586256980896
1763696723982008000,8.649008056640625,-0.9708267450332642,-0.028228675946593285,0.37749195098876953
1763696723992014300,8.659014404296874,-1.0464582443237305,0.056989967823028564,0.23168818652629852
1763696724002042000,8.6690419921875,-1.0635020732879639,0.17523083090782166,0.051663801074028015
1763696724012050400,8.679050537109376,-1.0166317224502563,0.3189041316509247,-0.14007814228534698
1763696724022037800,8.689037841796875,-0.9324783682823181,0.4861457347869873,-0.3157084286212921
1763696724032044000,8.6990439453125,-0.8378057479858398,0.6597787141799927,-0.47123244404792786
1763696724042040600,8.70904052734375,-0.750456690788269,0.8195636868476868,-0.6001256704330444
1763696724052045800,8.7190458984375,-0.6865426898002625,0.9664326906204224,-0.7034532427787781
1763696724062064600,8.729064697265626,-0.6407376527786255,1.101717233657837,-0.7876066565513611
1763696724072071200,8.7390712890625,-0.6045197248458862,1.2455236911773682,-0.8525858521461487
1763696724082083800,8.749083740234376,-0.5608451962471008,1.4106348752975464,-0.903717041015625
1763696724092091000,8.7590908203125,-0.5033226013183594,1.558569073677063,-0.9493889212608337
1763696724102085000,8.769085205078126,-0.4255605936050415,1.6682881116867065,-0.9941287040710449
1763696724112091100,8.779091064453125,-0.3392767310142517,1.7439196109771729,-1.0420641899108887
1763696724122111500,8.789111572265625,-0.25206077098846436,1.7950507402420044,-1.0857387781143188
1763696724132119000,8.799119140625,-0.15512455999851227,1.8163554668426514,-1.121956706047058
1763696724142107600,8.809107666015626,-0.06351451575756073,1.780137538909912,-1.1326090097427368
1763696724152113200,8.819113037109375,0.02276935614645481,1.6874622106552124,-1.0899996757507324
1763696724162130400,8.82913037109375,0.08029194176197052,1.558569073677063,-0.9674978852272034
1763696724172137000,8.839136962890626,0.09200949966907501,1.4095696210861206,-0.7780195474624634
1763696724182126300,8.849126220703125,0.05685681104660034,1.2401975393295288,-0.5372769236564636
1763696724192131300,8.85913134765625,-0.009187635034322739,1.045259952545166,-0.27323228120803833
1763696724202143700,8.869143798828125,-0.09014534205198288,0.8163679838180542,-0.0005326165119186044
1763696724212149200,8.879149169921876,-0.1732335239648819,0.5766905546188354,0.27110180258750916
1763696724222146300,8.889146240234375,-0.2467346042394638,0.3402087986469269,0.5266245603561401
1763696724232151000,8.899151123046876,-0.29786577820777893,0.11025162041187286,0.7513887286186218
1763696724242161400,8.909161376953126,-0.3222329914569855,-0.09959928691387177,0.939801812171936
1763696724252167000,8.9191669921875,-0.329689621925354,-0.2881455421447754,1.0868040323257446
1763696724262186000,8.92918603515625,-0.3222329914569855,-0.46164536476135254,1.1911967992782593
1763696724272192800,8.93919287109375,-0.3179720640182495,-0.5862776041030884,1.2540456056594849
1763696724282202600,8.94920263671875,-0.3318201005458832,-0.6597787141799927,1.2721545696258545
1763696724292209700,8.959209716796876,-0.3808208107948303,-0.6991923451423645,1.2455236911773682
1763696724302214100,8.969214111328125,-0.4170387387275696,-0.6970618367195129,1.1794792413711548
1763696724312221000,8.979220947265626,-0.39786452054977417,-0.6203650832176208,1.0931954383850098
1763696724322207700,8.989207763671875,-0.3861469626426697,-0.5447335243225098,1.0047810077667236
1763696724332212500,8.99921240234375,-0.38827744126319885,-0.4999937415122986,0.9270190596580505
1763696724342216400,9.009216552734374,-0.35738566517829895,-0.40838369727134705,0.864303469657898
1763696724352221200,9.01922119140625,-0.2680392563343048,-0.26897132396698,0.8206288814544678
1763696724362246400,9.029246337890624,-0.265908807516098,-0.11344731599092484,0.7449973225593567
1763696724372253200,9.039253173828126,-0.30425718426704407,-0.046337638050317764,0.6246260404586792
1763696724382246700,9.04924658203125,-0.35525521636009216,-0.042076703161001205,0.4861457347869873
1763696724392252200,9.059252197265625,-0.4255605936050415,-0.043141938745975494,0.3487306535243988
1763696724402260700,9.0692607421875,-0.4873441159725189,-0.051663801074028015,0.2338186502456665
1763696724412266500,9.0792666015625,-0.5065183043479919,-0.09214265644550323,0.13688243925571442
1763696724422281200,9.08928125,-0.5097140073776245,-0.17310036718845367,0.0750989317893982
1763696724432287700,9.099287841796874,-0.5086487531661987,-0.26897132396698,0.048468101769685745
1763696724442271200,9.109271240234374,-0.4916050434112549,-0.35405683517456055,0.043141938745975494
1763696724452275200,9.119275146484375,-0.45325663685798645,-0.389209508895874,0.044207170605659485
1763696724462318000,9.129318115234375,-0.3861469626426697,-0.3902747631072998,0.0857512578368187
1763696724472326400,9.139326416015624,-0.2904091477394104,-0.2998631000518799,0.11877348273992538
1763696724482294500,9.14929443359375,-0.18601632118225098,-0.19014409184455872,0.15392617881298065
1763696724492298800,9.159298828125,-0.09760197252035141,-0.137947678565979,0.1486000120639801
1763696724502334200,9.169334228515625,-0.04007939249277115,-0.16457849740982056,0.13475197553634644
1763696724512341500,9.179341552734375,-0.02197043038904667,-0.23807957768440247,0.11238208413124084
1763696724522338800,9.1893388671875,-0.0017310036346316338,-0.370035320520401,0.08255556225776672
1763696724532345000,9.199344970703125,0.02916075475513935,-0.5063851475715637,0.046337638050317764
1763696724542342000,9.209341796875,0.06857437640428543,-0.6352783441543579,-0.0026630824431777
1763696724552347100,9.21934716796875,0.13035789132118225,-0.7609758377075195,-0.06870753318071365
1763696724562367700,9.22936767578125,0.2517944574356079,-0.833411693572998,-0.16244803369045258
1763696724572374800,9.239374755859375,0.37203264236450195,-0.8451292514801025,-0.2796236574649811
1763696724582384400,9.24938427734375,0.4636426866054535,-0.8035851716995239,-0.40518802404403687
1763696724592391400,9.259391357421874,0.5307523608207703,-0.688539981842041,-0.5308855175971985
1763696724602394600,9.26939453125,0.5765573978424072,-0.5042546987533569,-0.6480611562728882
1763696724612401400,9.2794013671875,0.5946663618087769,-0.30518925189971924,-0.7567148804664612
1763696724622381300,9.28938134765625,0.5840139985084534,-0.1486000120639801,-0.8547163605690002
1763696724632385500,9.299385498046876,0.5477960705757141,-0.042076703161001205,-0.9355409145355225
1763696724642423300,9.30942333984375,0.48920828104019165,0.056989967823028564,-0.9941287040710449
1763696724652430600,9.3194306640625,0.42529428005218506,0.15179570019245148,-1.0271509885787964
1763696724662416400,9.32941650390625,0.3805544972419739,0.24340574443340302,-1.0367380380630493
1763696724672421400,9.33942138671875,0.36244553327560425,0.32316505908966064,-1.0303466320037842
1763696724682453800,9.349453857421874,0.3699021637439728,0.4126446545124054,-1.0111724138259888
1763696724692461600,9.359461669921876,0.39333727955818176,0.5181027054786682,-0.9600412845611572
1763696724702451500,9.369451416015625,0.4210333526134491,0.6395393013954163,-0.8557815551757812
1763696724712457700,9.379457763671875,0.43488138914108276,0.7513887286186218,-0.7023880481719971
1763696724722465500,9.389465576171874,0.40718531608581543,0.8003894686698914,-0.5117112994194031
1763696724732472000,9.39947216796875,0.32196667790412903,0.7865414619445801,-0.2966673970222473
1763696724742468600,9.409468505859374,0.19746756553649902,0.7460625767707825,-0.07722939550876617
1763696724752473900,9.419473876953125,0.04833494871854782,0.6544525623321533,0.1283605843782425
1763696724762520300,9.429520263671876,-0.09121058136224747,0.5628424882888794,0.30412402749061584
1763696724772530000,9.439530029296876,-0.1956034153699875,0.46910199522972107,0.44034069776535034
1763696724782494700,9.44949462890625,-0.25206077098846436,0.3476654291152954,0.5319507122039795
1763696724792499700,9.459499755859374,-0.2595174014568329,0.19333979487419128,0.5841471552848816
1763696724802525700,9.469525634765626,-0.21903854608535767,0.06551183015108109,0.5937342643737793
1763696724812532700,9.47953271484375,-0.13701559603214264,0.00585878174751997,0.566038191318512
1763696724822530000,9.489530029296875,-0.04860125854611397,-0.012250179424881935,0.5063851475715637
1763696724832536300,9.499536376953126,0.01957365684211254,0.01118494663387537,0.4201012849807739
1763696724842524200,9.509524169921875,0.05579157918691635,0.055924732238054276,0.3167736828327179
1763696724852528400,9.5195283203125,0.05366111174225807,0.10812114924192429,0.19866596162319183
1763696724862559200,9.529559326171874,0.02276935614645481,0.1603175699710846,0.07083799690008163
1763696724872566300,9.539566162109375,-0.01770949922502041,0.2135792225599289,-0.060185667127370834
1763696724882575000,9.5495751953125,-0.04753602296113968,0.26044946908950806,-0.18907886743545532
1763696724892582400,9.55958251953125,-0.05499265342950821,0.2956021726131439,-0.2998631000518799
1763696724902574800,9.569574951171875,-0.05073172226548195,0.31251272559165955,-0.39347043633461
1763696724912580600,9.57958056640625,-0.04860125854611397,0.3167736828327179,-0.48188477754592896
1763696724922589700,9.589589599609376,-0.0454055592417717,0.3157084286212921,-0.5702991485595703
1763696724932595700,9.599595703125,-0.03049229457974434,0.305056095123291,-0.6544525623321533
1763696724942608400,9.6096083984375,0.0014646954368799925,0.27003657817840576,-0.7215622067451477
1763696724952615200,9.619615234375,0.04407401755452156,0.21997061371803284,-0.7567148804664612
1763696724962619600,9.62961962890625,0.08668334037065506,0.18694838881492615,-0.749258279800415
1763696724972626200,9.639626220703125,0.1260969638824463,0.18268746137619019,-0.68747478723526
1763696724982630700,9.649630615234376,0.1463363915681839,0.19653549790382385,-0.5734948515892029
1763696724992637000,9.659636962890625,0.1474016159772873,0.21890538930892944,-0.4201012849807739
1763696725002627800,9.6696279296875,0.13035789132118225,0.23275341093540192,-0.23914481699466705
1763696725012632300,9.67963232421875,0.10585752874612808,0.21997061371803284,-0.049533337354660034
1763696725022645500,9.6896455078125,0.06644391268491745,0.16777420043945312,0.13688243925571442
1763696725032651000,9.699651123046875,0.005725627299398184,0.050598569214344025,0.306254506111145
1763696725042665200,9.709665283203124,-0.04966649040579796,-0.0846860259771347,0.43927547335624695
1763696725052671700,9.719671630859375,-0.07203638553619385,-0.23275341093540192,0.5287550687789917
1763696725062676700,9.7296767578125,-0.06351451575756073,-0.35405683517456055,0.5511249303817749
1763696725072683000,9.73968310546875,-0.03262276202440262,-0.40518802404403687,0.5149070024490356
1763696725082716700,9.749716552734375,0.0014646954368799925,-0.35618728399276733,0.43927547335624695
1763696725092725800,9.759725830078125,0.03022598661482334,-0.22849248349666595,0.34233927726745605
1763696725102726700,9.7697265625,0.05153064802289009,-0.061250898987054825,0.2338186502456665
1763696725112735000,9.77973486328125,0.07496577501296997,0.11877348273992538,0.12090394645929337
1763696725122696700,9.78969677734375,0.12822742760181427,0.2966673970222473,0.013315413147211075
1763696725132700200,9.7997001953125,0.21557652950286865,0.4424711763858795,-0.09107742458581924
1763696725142732500,9.809732666015625,0.3134448230266571,0.520233154296875,-0.19333979487419128
1763696725152738800,9.81973876953125,0.39333727955818176,0.5244941115379333,-0.28175413608551025
1763696725162749400,9.82974951171875,0.43488138914108276,0.47123244404792786,-0.3370130956172943
1763696725172756500,9.839756591796874,0.429555207490921,0.3817528784275055,-0.3487306535243988
1763696725182784500,9.849784423828124,0.38481542468070984,0.2785584330558777,-0.31144750118255615
1763696725192793300,9.85979345703125,0.3134448230266571,0.18375270068645477,-0.23168818652629852
1763696725202793700,9.869793701171876,0.24966399371623993,0.12409964948892593,-0.1166430190205574
1763696725212802000,9.879802001953125,0.19746756553649902,0.10066451877355576,0.0026630824431777
1763696725222802200,9.88980224609375,0.1452711522579193,0.07083799690008163,0.10066451877355576
1763696725232809500,9.8998095703125,0.07709623873233795,0.035685304552316666,0.18375270068645477
1763696725242813700,9.909813720703125,0.012117025442421436,0.029293907806277275,0.25831902027130127
1763696725252820500,9.919820556640625,-0.02729659713804722,0.034620072692632675,0.3252955377101898
1763696725262785500,9.92978564453125,-0.03155753016471863,0.022902509197592735,0.3806876540184021
1763696725272788000,9.9397880859375,-0.01664426550269127,-0.016511112451553345,0.4222317337989807
1763696725282822700,9.94982275390625,-0.0017310036346316338,-0.08149032294750214,0.44779732823371887
1763696725292828400,9.959828369140626,0.008921326138079166,-0.12409964948892593,0.46910199522972107
1763696725302822700,9.96982275390625,0.02703028731048107,-0.1294258087873459,0.4989285171031952
1763696725312827400,9.979827392578125,0.05685681104660034,-0.11983871459960938,0.5383421182632446
1763696725322849500,9.989849609375,0.09627043455839157,-0.08681648969650269,0.5841471552848816
1763696725332856000,9.99985595703125,0.13887976109981537,-0.031424373388290405,0.626756489276886
1763696725342861000,10.009861083984376,0.1772281378507614,0.015445878729224205,0.6565830111503601
1763696725352867300,10.019867431640625,0.20172850787639618,0.027163442224264145,0.6693658232688904
1763696725362847700,10.02984765625,0.21238084137439728,0.0005326165119186044,0.672561526298523
1763696725372851200,10.039851318359375,0.2091851383447647,-0.026098208501935005,0.6746919751167297
1763696725382908000,10.049907958984376,0.1995980441570282,-0.021837277337908745,0.6821485757827759
1763696725392917000,10.0599169921875,0.19214141368865967,0.010119713842868805,0.6821485757827759
1763696725402896100,10.069896240234375,0.19214141368865967,0.038881003856658936,0.6640396118164062
1763696725412902100,10.079902099609376,0.20598943531513214,0.059120431542396545,0.6310173869132996
1763696725422887200,10.08988720703125,0.23794642090797424,0.0750989317893982,0.589473307132721
1763696725432891000,10.099890869140625,0.27736005187034607,0.08149032294750214,0.5489944815635681
1763696725442911700,10.109911865234375,0.3251623809337616,0.07829462736845016,0.5063851475715637
1763696725452917200,10.119917236328124,0.3699021637439728,0.06977276504039764,0.4669715166091919
1763696725462914800,10.129914794921875,0.3997286856174469,0.059120431542396545,0.4328840672969818
1763696725472919600,10.13991943359375,0.40718531608581543,0.041011471301317215,0.4009270668029785
1763696725482936800,10.149936767578126,0.39333727955818176,0.030359141528606415,0.37642672657966614
1763696725492942800,10.15994287109375,0.367771714925766,0.028228675946593285,0.35512205958366394
1763696725502959000,10.169958984375,0.3347494900226593,0.026098208501935005,0.3402087986469269
1763696725512966100,10.179966064453126,0.30079516768455505,0.023967742919921875,0.32316505908966064
1763696725522968000,10.189968017578124,0.26990342140197754,0.039946239441633224,0.30199354887008667
1763696725532974600,10.199974609375,0.2549901604652405,0.058055199682712555,0.27216702699661255
1763696725543008800,10.2100087890625,0.2507292330265045,0.06657706201076508,0.23168818652629852
1763696725553018000,10.22001806640625,0.2422073632478714,0.06551183015108109,0.1816222369670868
1763696725562998300,10.229998291015624,0.22622886300086975,0.07083799690008163,0.12516488134860992
1763696725573004500,10.240004638671875,0.20385897159576416,0.0740336924791336,0.062316130846738815
1763696725593024300,10.260024169921875,0.1463363915681839,0.07616416364908218,-0.07296846061944962
1763696725603026700,10.270026611328126,0.12929265201091766,0.09107742458581924,-0.14327384531497955
1763696725613033200,10.280033203125,0.13142313063144684,0.12090394645929337,-0.2135792225599289
1763696725623058200,10.29005810546875,0.14101022481918335,0.13262151181697845,-0.2742975056171417
1763696725633066800,10.300066650390624,0.15485824644565582,0.13368675112724304,-0.3167736828327179
1763696725643057700,10.3100576171875,0.17083674669265747,0.13368675112724304,-0.33275216817855835
1763696725653064200,10.320064208984375,0.1793586164712906,0.137947678565979,-0.32316505908966064
1763696725663065300,10.3300654296875,0.1687062829732895,0.1720351278781891,-0.2881455421447754
1763696725673071400,10.3400712890625,0.13355359435081482,0.2231663167476654,-0.23168818652629852
1763696725683072300,10.350072265625,0.10159660130739212,0.21784014999866486,-0.17416560649871826
1763696725693077800,10.360077880859375,0.07283531129360199,0.16670896112918854,-0.12409964948892593
1763696725703087000,10.370087158203125,0.04513924941420555,0.1283605843782425,-0.08149032294750214
1763696725713093000,10.380093017578124,0.03235645219683647,0.09959928691387177,-0.052729032933712006
1763696725723102000,10.39010205078125,0.05153064802289009,0.047402869910001755,-0.041011471301317215
1763696725733108200,10.400108154296875,0.08561810106039047,-0.013315413147211075,-0.043141938745975494
1763696725743107300,10.410107421875,0.12929265201091766,-0.032489608973264694,-0.044207170605659485
1763696725753112600,10.420112548828126,0.17616291344165802,-0.048468101769685745,-0.044207170605659485
1763696725763116800,10.43011669921875,0.21451130509376526,-0.0846860259771347,-0.043141938745975494
1763696725773122000,10.4401220703125,0.22835932672023773,-0.11557777971029282,-0.036750540137290955
1763696725783143400,10.450143310546874,0.22622886300086975,-0.13581721484661102,-0.015445878729224205
1763696725793150200,10.460150146484375,0.2209026962518692,-0.16351327300071716,0.019706811755895615
1763696725803135200,10.47013525390625,0.21877223253250122,-0.20079642534255981,0.06657706201076508
1763696725813139700,10.4801396484375,0.22303315997123718,-0.24234052002429962,0.11557777971029282
1763696725823192300,10.4901923828125,0.22729410231113434,-0.2657756507396698,0.1688394397497177
1763696725833202000,10.500201904296874,0.22409839928150177,-0.2657756507396698,0.22103585302829742
1763696725843167700,10.510167724609374,0.2198374718427658,-0.24979715049266815,0.264710396528244
1763696725853172700,10.5201728515625,0.21770699322223663,-0.24127528071403503,0.29240646958351135
1763696725863206100,10.5302060546875,0.22622886300086975,-0.25192761421203613,0.2966673970222473
1763696725873214200,10.540214111328124,0.24007689952850342,-0.3189041316509247,0.27003657817840576
1763696725883197700,10.55019775390625,0.24859875440597534,-0.44886255264282227,0.20612259209156036
1763696725893203200,10.560203125,0.24007689952850342,-0.6203650832176208,0.1059906855225563
1763696725903213300,10.57021337890625,0.2102503627538681,-0.7908023595809937,-0.036750540137290955
1763696725913219300,10.58021923828125,0.15911918878555298,-0.923823356628418,-0.20505735278129578
1763696725923246600,10.59024658203125,0.10053136944770813,-0.9557803273200989,-0.37749195098876953
1763696725933254700,10.600254638671874,0.06005251035094261,-0.8824124336242676,-0.5170374512672424
1763696725943254300,10.610254150390626,0.05472634732723236,-0.7322145700454712,-0.603321373462677
1763696725953261300,10.62026123046875,0.08455286920070648,-0.5521901845932007,-0.6299521923065186
1763696725963266600,10.6302666015625,0.13035789132118225,-0.3721657991409302,-0.6118432283401489
1763696725973273600,10.640273681640625,0.1772281378507614,-0.245536208152771,-0.5713643431663513
1763696725983260000,10.650260009765624,0.20598943531513214,-0.17736129462718964,-0.519167959690094
1763696725993265000,10.660264892578125,0.20705467462539673,-0.1166430190205574,-0.4424711763858795
1763696726003261200,10.67026123046875,0.18468476831912994,-0.037815771996974945,-0.3284912407398224
1763696726013265200,10.68026513671875,0.1463363915681839,0.058055199682712555,-0.1816222369670868
1763696726023283700,10.69028369140625,0.10266183316707611,0.1283605843782425,-0.015445878729224205
1763696726033289200,10.700289306640625,0.05685681104660034,0.1581871062517166,0.14433906972408295
1763696726043286800,10.710286865234375,0.007856093347072601,0.15179570019245148,0.2679060995578766
1763696726053291500,10.72029150390625,-0.03794892504811287,0.10172975063323975,0.33381739258766174
1763696726063315000,10.73031494140625,-0.08588441461324692,0.013315413147211075,0.3391435742378235
1763696726073321500,10.740321533203126,-0.12849372625350952,-0.10066451877355576,0.29240646958351135
1763696726083322600,10.750322509765626,-0.15938548743724823,-0.20825305581092834,0.2125139832496643
1763696726093328600,10.76032861328125,-0.17642922699451447,-0.27110180258750916,0.1166430190205574
1763696726103335700,10.770335693359375,-0.1721682846546173,-0.28281936049461365,0.022902509197592735
1763696726113341700,10.780341796875,-0.14766792953014374,-0.23275341093540192,-0.055924732238054276
1763696726123360800,10.79036083984375,-0.10718907415866852,-0.12303441762924194,-0.11557777971029282
1763696726133368000,10.8003681640625,-0.05818835273385048,0.013315413147211075,-0.15392617881298065
1763696726143381200,10.81038134765625,-0.012383334338665009,0.14753477275371552,-0.17416560649871826
1763696726153389300,10.820389404296876,0.015312724746763706,0.24766667187213898,-0.17416560649871826
1763696726163384300,10.83038427734375,0.02596505545079708,0.3009283244609833,-0.16351327300071716
1763696726173390800,10.840390869140625,0.02916075475513935,0.3252955377101898,-0.14753477275371552
1763696726183376600,10.850376708984374,0.03129122033715248,0.3199693560600281,-0.12516488134860992
1763696726193381000,10.860381103515625,0.03235645219683647,0.31038227677345276,-0.10172975063323975
1763696726203392000,10.87039208984375,0.03235645219683647,0.29134124517440796,-0.0846860259771347
1763696726213397200,10.880397216796876,0.04087831825017929,0.2774932086467743,-0.08255556225776672
1763696726223411000,10.890410888671875,0.06431344151496887,0.26257994771003723,-0.0953383520245552
1763696726233417000,10.9004169921875,0.10159660130739212,0.28068891167640686,-0.11344731599092484
1763696726243440600,10.910440673828125,0.15166255831718445,0.33381739258766174,-0.1283605843782425
1763696726253448400,10.920448486328125,0.20811989903450012,0.4019923210144043,-0.137947678565979
1763696726263451000,10.930450927734375,0.262446790933609,0.45951488614082336,-0.1390129029750824
1763696726273458200,10.940458251953125,0.31131434440612793,0.5095808506011963,-0.13688243925571442
1763696726283450000,10.9504501953125,0.3485974967479706,0.5266245603561401,-0.13475197553634644
1763696726293455600,10.96045556640625,0.37309786677360535,0.5085155963897705,-0.13688243925571442
1763696726303473400,10.970473388671875,0.39333727955818176,0.47123244404792786,-0.14007814228534698
1763696726313480200,10.980480224609375,0.40398961305618286,0.4232969582080841,-0.14114338159561157
1763696726323472100,10.99047216796875,0.4007939398288727,0.3913399875164032,-0.14114338159561157
1763696726333477600,11.0004775390625,0.38375020027160645,0.3593829870223999,-0.14327384531497955
1763696726343502000,11.010502197265625,0.3560541272163391,0.3284912407398224,-0.14646953344345093
1763696726353509600,11.020509521484374,0.31877097487449646,0.29347169399261475,-0.14327384531497955
1763696726363495400,11.030495361328125,0.2837514579296112,0.24766667187213898,-0.1166430190205574
1763696726373500400,11.04050048828125,0.25818586349487305,0.18588316440582275,-0.07296846061944962
1763696726383512600,11.0505126953125,0.2411421239376068,0.11877348273992538,-0.042076703161001205
1763696726393518600,11.0605185546875,0.23794642090797424,0.051663801074028015,-0.033554840832948685
1763696726403541000,11.070541015625,0.2528596818447113,0.017576344311237335,-0.051663801074028015
1763696726413548500,11.080548583984376,0.2752295732498169,-0.035685304552316666,-0.10066451877355576
1763696726423519700,11.090519775390625,0.285881906747818,-0.11451254785060883,-0.17842653393745422
1763696726433523700,11.100523681640626,0.2848166823387146,-0.17736129462718964,-0.2870802879333496
1763696726443566300,11.11056640625,0.29972994327545166,-0.2636451721191406,-0.38814428448677063
1763696726453574100,11.12057421875,0.3230319023132324,-0.435014545917511,-0.45099303126335144
1763696726463579100,11.1305791015625,0.3549889028072357,-0.5649729371070862,-0.48081955313682556
1763696726473586700,11.140586669921875,0.3773587942123413,-0.6352783441543579,-0.4850804805755615
1763696726483593000,11.150593017578124,0.3667064607143402,-0.6821485757827759,-0.47229769825935364
1763696726493600500,11.1606005859375,0.34114086627960205,-0.725823163986206,-0.48295003175735474
1763696726503599600,11.170599609375,0.31983622908592224,-0.734345018863678,-0.5287550687789917
1763696726513606100,11.180606201171875,0.3038577139377594,-0.6938661336898804,-0.6182346343994141
1763696726523603700,11.190603759765626,0.27842527627944946,-0.603321373462677,-0.7023880481719971
1763696726533609200,11.200609130859375,0.01957365684211254,-0.0964035913348198,-0.4552539587020874
1763696726543614000,11.210614013671876,-0.23501703143119812,0.7758890986442566,-0.0750989317893982
1763696726553619500,11.220619384765625,-0.4266258180141449,1.0271509885787964,0.11238208413124084
1763696726563629000,11.230629150390625,-0.46497422456741333,0.6320826411247253,0.0644465982913971
1763696726573635000,11.240635009765626,-0.3520595133304596,0.29347169399261475,-0.07829462736845016
1763696726583651800,11.25065185546875,-0.20092958211898804,0.1603175699710846,-0.1496652364730835
1763696726593659000,11.260658935546875,-0.0347532257437706,0.053794268518686295,-0.18375270068645477
1763696726603658000,11.270657958984375,0.12290126085281372,-0.09746882319450378,-0.2018616646528244
1763696726613664000,11.2806640625,0.23368549346923828,-0.26257994771003723,-0.21038351953029633
1763696726623679500,11.290679443359375,0.2720338702201843,-0.3806876540184021,-0.21570968627929688
1763696726633686500,11.3006865234375,0.262446790933609,-0.3913399875164032,-0.20931829512119293
1763696726643691300,11.310691162109375,0.2326202541589737,-0.31144750118255615,-0.20825305581092834
1763696726653698000,11.320697998046874,0.17509767413139343,-0.23168818652629852,-0.1912093311548233
1763696726663698400,11.330698486328124,0.10053136944770813,-0.22103585302829742,-0.15605664253234863
1763696726673704700,11.34070458984375,0.03342168778181076,-0.15286093950271606,-0.13688243925571442
1763696726683686700,11.350686767578125,-0.009187635034322739,-0.028228675946593285,-0.14220860600471497
1763696726693690400,11.3606904296875,-0.09227581322193146,0.042076703161001205,-0.17736129462718964
1763696726703712300,11.370712158203125,-0.20732097327709198,0.07935985922813416,-0.23807957768440247
1763696726723723300,11.39072314453125,-0.1529940962791443,0.17949175834655762,-0.3306216895580292
1763696726733729000,11.40072900390625,-0.1306242048740387,0.1720351278781891,-0.389209508895874
1763696726743735600,11.410735595703125,-0.13595037162303925,-0.00585878174751997,-0.4680367708206177
1763696726753741000,11.420740966796876,-0.1402112990617752,-0.3391435742378235,-0.5511249303817749
1763696726763740700,11.43074072265625,-0.15405932068824768,-0.6459306478500366,-0.5766905546188354
1763696726773746000,11.440745849609375,-0.16045072674751282,-0.8600425124168396,-0.5788210034370422
1763696726793761000,11.460760986328125,-0.20732097327709198,-0.9547150731086731,-0.6714962720870972
1763696726803794200,11.470794189453125,-0.16364642977714539,-0.8696296215057373,-0.7620410919189453
1763696726813802500,11.480802490234375,-0.0773625448346138,-0.7758890986442566,-0.8717600703239441
1763696726823803400,11.490803466796875,-0.04966649040579796,-0.781215250492096,-0.9408670663833618
1763696726833811000,11.50081103515625,-0.0454055592417717,-0.8355421423912048,-0.902651846408844
1763696726853797400,11.52079736328125,-0.12423279881477356,-0.8046503663063049,-0.6203650832176208
1763696726863828200,11.530828125,-0.13595037162303925,-0.7034532427787781,-0.4744281470775604
1763696726873835800,11.540835693359375,-0.09227581322193146,-0.46164536476135254,-0.38707906007766724
1763696726883831800,11.550831787109376,0.02170412242412567,-0.11451254785060883,-0.37536147236824036
1763696726893838000,11.560838134765625,0.1463363915681839,0.2018616646528244,-0.44034069776535034
1763696726903849200,11.57084912109375,0.2645772397518158,0.43821024894714355,-0.5074504017829895
1763696726913856000,11.58085595703125,0.38375020027160645,0.5468640327453613,-0.5106461048126221
1763696726923850800,11.590850830078125,0.48814302682876587,0.4957328140735626,-0.44140592217445374
1763696726933856300,11.600856201171876,0.5456656217575073,0.305056095123291,-0.3252955377101898
1763696726943850200,11.610850341796874,0.5595136284828186,0.09320788830518723,-0.19760072231292725
1763696726953854700,11.620854736328125,0.6351451873779297,0.032489608973264694,-0.11557777971029282
1763696726963895600,11.6308955078125,0.7533860802650452,-0.046337638050317764,-0.0846860259771347
1763696726973903600,11.640903564453126,0.8354089856147766,-0.10386022180318832,-0.045272402465343475
1763696726983886300,11.65088623046875,0.9035838842391968,-0.06551183015108109,-0.050598569214344025
1763696726993891600,11.6608916015625,1.1473891735076904,-0.01118494663387537,-0.046337638050317764
1763696727003917800,11.670917724609374,1.237933874130249,0.2018616646528244,-0.14433906972408295
1763696727013925600,11.680925537109376,1.3891969919204712,0.6011908650398254,-0.2796236574649811
1763696727023927000,11.690927001953124,1.5541750192642212,1.1933273077011108,-0.4318188428878784
1763696727033934000,11.70093408203125,1.6266108751296997,1.6629619598388672,-0.5873428583145142
1763696727043916800,11.710916748046875,1.4957202672958374,1.4894620180130005,-0.7151708006858826
1763696727053921300,11.72092138671875,1.137802004814148,1.1539136171340942,-0.7524539828300476
1763696727063949000,11.730948974609374,0.7533860802650452,0.9504541754722595,-0.5969299674034119
1763696727073955800,11.740955810546875,0.6031882166862488,0.7982590198516846,-0.4009270668029785
1763696727083959000,11.750958984375,0.578687846660614,0.5884081125259399,-0.14433906972408295
1763696727093965600,11.760965576171875,0.4529903531074524,0.2668408751487732,0.07083799690008163
1763696727103958500,11.77095849609375,0.19320663809776306,0.10812114924192429,0.29134124517440796
1763696727113963800,11.7809638671875,0.02489982172846794,0.07083799690008163,0.5085155963897705
1763696727123983000,11.790983154296875,-0.07949301600456238,0.049533337354660034,0.6821485757827759
1763696727133989400,11.8009892578125,-0.13808083534240723,-0.0005326165119186044,0.771628201007843
1763696727143993600,11.81099365234375,-0.16790735721588135,-0.1720351278781891,0.7854762077331543
1763696727154000000,11.820999755859376,-0.19027724862098694,-0.2764279842376709,0.7663019895553589
1763696727163989500,11.830989501953125,-0.19134248793125153,-0.29347169399261475,0.7226274609565735
1763696727194017500,11.861017578125,-0.3094501793384552,-0.18588316440582275,0.5564510822296143
1763696727204044800,11.871044921875,-0.3605813682079315,-0.06870753318071365,0.38388335704803467
1763696727214052900,11.881052978515624,-0.4713656008243561,-0.042076703161001205,0.09320788830518723
1763696727224032300,11.8910322265625,-0.33395054936408997,0.16670896112918854,-0.15712186694145203
1763696727234037500,11.90103759765625,-0.20945143699645996,0.46271058917045593,-0.33275216817855835
1763696727244063700,11.911063720703124,-0.1742987483739853,0.5319507122039795,-0.264710396528244
1763696727254071000,11.921071044921876,-0.23075610399246216,0.9419323205947876,-0.3199693560600281
1763696727264100900,11.931100830078124,-0.3083849549293518,1.0058462619781494,-0.2348838746547699
1763696727274110500,11.9411103515625,-0.37655988335609436,1.0623036623001099,-0.015445878729224205
1763696727284091400,11.95109130859375,-0.42982152104377747,1.0431294441223145,0.1912093311548233
1763696727294098200,11.96109814453125,-0.3957340717315674,0.8525858521461487,0.36470916867256165
1763696727304094500,11.971094482421876,-0.33395054936408997,0.5394073724746704,0.5074504017829895
1763696727314100000,11.981099853515625,-0.289343923330307,0.26257994771003723,0.6310173869132996
1763696727324102100,11.99110205078125,-0.24247366189956665,0.15179570019245148,0.7226274609565735
1763696727334107400,12.001107421875,-0.19879911839962006,0.18907886743545532,0.7652367949485779
1763696727344115000,12.011114990234375,-0.14553746581077576,0.2860150635242462,0.7684324979782104
1763696727354120400,12.021120361328125,-0.0667102187871933,0.37323102355003357,0.7481930255889893
1763696727364161000,12.0311611328125,0.04087831825017929,0.45951488614082336,0.6938661336898804
1763696727374169900,12.041169921875,0.17403244972229004,0.5404726266860962,0.6224955320358276
1763696727384162600,12.05116259765625,0.3326190114021301,0.5947995185852051,0.5724295973777771
1763696727394169900,12.061169921875,0.4412727653980255,0.6118432283401489,0.5212984085083008
1763696727404157400,12.071157470703126,0.5041215419769287,0.6256912350654602,0.4648410677909851
1763696727414163000,12.081162841796875,0.5392742156982422,0.5958647131919861,0.44034069776535034
1763696727424176000,12.091176025390626,0.540339469909668,0.5479292273521423,0.45099303126335144
1763696727434182400,12.101182373046875,0.5350132584571838,0.5117112994194031,0.4786891043186188
1763696727444198400,12.111198486328124,0.5712311863899231,0.48295003175735474,0.5095808506011963
1763696727454205400,12.121205322265626,0.663906455039978,0.44034069776535034,0.5117112994194031
1763696727464175600,12.131175537109375,0.7736254930496216,0.4030575454235077,0.5074504017829895
1763696727474178800,12.1411787109375,0.8460613489151001,0.346600204706192,0.5031894445419312
1763696727484209700,12.151209716796876,0.878018319606781,0.2679060995578766,0.5063851475715637
1763696727494215700,12.161215576171875,0.9300816059112549,0.20399212837219238,0.5053198933601379
1763696727514213000,12.181213134765626,0.9577776193618774,0.031424373388290405,0.5873428583145142
1763696727524226300,12.191226318359375,0.8961272835731506,0.2561885416507721,0.534081220626831
1763696727534232000,12.201232177734376,1.0419310331344604,0.2636451721191406,0.46910199522972107
1763696727544234800,12.21123486328125,0.9247553944587708,0.24766667187213898,0.44992780685424805
1763696727554240000,12.221239990234375,0.831148087978363,0.1688394397497177,0.430753618478775
1763696727564242700,12.23124267578125,0.7661688327789307,0.13049104809761047,0.4254274368286133
1763696727574247700,12.24124755859375,0.7001243829727173,0.19440503418445587,0.3998618423938751
1763696727584258300,12.25125830078125,0.6660369634628296,0.3146432042121887,0.3497959077358246
1763696727594263800,12.261263916015626,0.6777545213699341,0.4531235098838806,0.2892107665538788
1763696727604273700,12.271273681640626,0.6564498543739319,0.5415378212928772,0.2338186502456665
1763696727614279700,12.28127978515625,0.6042534112930298,0.520233154296875,0.19760072231292725
1763696727624302000,12.291302001953126,0.5158390998840332,0.4115794003009796,0.19973118603229523
1763696727634309600,12.3013095703125,0.3688369393348694,0.2529928386211395,0.2231663167476654
1763696727644302300,12.31130224609375,0.1995980441570282,0.0750989317893982,0.22742724418640137
1763696727654308400,12.321308349609374,0.05579157918691635,-0.08149032294750214,0.19333979487419128
1763696727664304400,12.331304443359375,-0.0454055592417717,-0.15073047578334808,0.14114338159561157
1763696727674309400,12.341309326171874,-0.10825430601835251,-0.11983871459960938,0.060185667127370834
1763696727684330200,12.351330322265625,-0.15832026302814484,-0.027163442224264145,-0.043141938745975494
1763696727694336800,12.361336669921876,-0.2169080674648285,0.06870753318071365,-0.14007814228534698
1763696727704341000,12.371341064453125,-0.2818872928619385,0.13688243925571442,-0.2029268890619278
1763696727714347500,12.381347412109376,-0.33395054936408997,0.14007814228534698,-0.22423155605793
1763696727724342000,12.391342041015625,-0.3595161437988281,0.08042509108781815,-0.2125139832496643
1763696727734347300,12.40134716796875,-0.353124737739563,-0.015445878729224205,-0.1709699034690857
1763696727744363300,12.41136328125,-0.34460288286209106,-0.10172975063323975,-0.11557777971029282
1763696727754369500,12.42136962890625,-0.36910325288772583,-0.1390129029750824,-0.0633813664317131
1763696727764383200,12.43138330078125,-0.39040789008140564,-0.09107742458581924,-0.027163442224264145
1763696727774390300,12.441390380859374,-0.37869033217430115,0.015445878729224205,-0.016511112451553345
1763696727784384800,12.451384765625,-0.3403419554233551,0.1177082508802414,-0.021837277337908745
1763696727794390300,12.461390380859376,-0.2691044807434082,0.15925233066082,-0.01118494663387537
1763696727804422100,12.471422119140625,-0.2254299372434616,0.10066451877355576,0.019706811755895615
1763696727814430500,12.481430419921875,-0.205190509557724,-0.0037283156998455524,0.08681648969650269
1763696727824405000,12.491405029296875,-0.20306004583835602,-0.12303441762924194,0.1805569976568222
1763696727834410000,12.501409912109375,-0.2264951765537262,-0.24021004140377045,0.27216702699661255
1763696727844442600,12.511442626953125,-0.2680392563343048,-0.34340450167655945,0.3380783200263977
1763696727854450200,12.5214501953125,-0.30425718426704407,-0.41903603076934814,0.3796224296092987
1763696727864439600,12.531439453125,-0.34673336148262024,-0.47123244404792786,0.39453569054603577
1763696727874445300,12.5414453125,-0.3925383687019348,-0.5074504017829895,0.38814428448677063
1763696727884448800,12.55144873046875,-0.40958210825920105,-0.5223636627197266,0.3679048418998718
1763696727894454300,12.561454345703124,-0.4458000063896179,-0.5149070024490356,0.3295564651489258
1763696727904473000,12.57147314453125,-0.4809527099132538,-0.44886255264282227,0.2881455421447754
1763696727914479900,12.58147998046875,-0.45219141244888306,-0.3817528784275055,0.2348838746547699
1763696727924475100,12.59147509765625,-0.3925383687019348,-0.33488261699676514,0.15286093950271606
1763696727934481000,12.60148095703125,-0.3499290347099304,-0.3306216895580292,0.07190322875976562
1763696727944497400,12.611497314453125,-0.4340824484825134,-0.34233927726745605,0.062316130846738815
