time,seconds_elapsed,z,y,x
1763697768299032600,0.056032470703125,8.805520070311427,4.299221042487025,-0.3871671702558174
1763697768309054700,0.0660546875,8.808190750825405,4.296969756428897,-0.3495918746970594
1763697768319077600,0.07607763671875,8.807499261429905,4.3014238132283085,-0.30999680028110743
1763697768329100500,0.0861005859375,8.80448897369802,4.310266752636433,-0.27011258845916014
1763697768339122400,0.096122314453125,8.800372770550846,4.3209319390356535,-0.23102469638036563
1763697768349145600,0.1061455078125,8.79581700694263,4.332019442500174,-0.19389245014768092
1763697768359167500,0.11616748046875,8.790877796974778,4.343487761975824,-0.15802090803319588
1763697768369190700,0.126190673828125,8.78503608520925,4.3564904514119025,-0.12050996468123047
1763697768379212500,0.136212646484375,8.7777050116688,4.37218866354227,-0.07902699415944517
1763697768389235700,0.146235595703125,8.77022722313404,4.387764418336749,-0.03203055972909787
1763697768399257600,0.156257568359375,8.767651235166191,4.39296666315496,0.022793191343022042
1763697768409280500,0.166280517578125,8.770566245830059,4.386444275648891,0.08163253701534122
1763697768419302700,0.176302734375,8.781388084095717,4.363537739574909,0.13095796466581522
1763697768429325600,0.18632568359375,8.804911583024262,4.314860510167479,0.16090689353197812
1763697768439347500,0.196347412109375,8.839045323294402,4.24339218775928,0.18785249413000418
1763697768449370600,0.20637060546875,8.88071062811315,4.154029019959271,0.21773654106641188
1763697768459392500,0.216392578125,8.928004878729581,4.0502094567835325,0.23857611640691756
1763697768469415700,0.226415771484375,8.978592325672507,3.9361894021108745,0.24834915800569576
1763697768479438600,0.2364384765625,9.031450055634975,3.8133582644730804,0.24817301598750052
1763697768489460700,0.246460693359375,9.086281716018915,3.6814372269287703,0.23851333510270342
1763697768499483600,0.256483642578125,9.142453685095905,3.5408749100282786,0.21939145040027797
1763697768509505500,0.266505615234375,9.199045340889692,3.392900855566561,0.19019434454841538
1763697768519528700,0.27652880859375,9.254602392938732,3.2405180447518824,0.14750514004202558
1763697768529550600,0.286550537109375,9.306489816564321,3.090844785156846,0.07943865283341146
1763697768539573800,0.29657373046875,9.352096552485227,2.9510426389738917,-0.005232660506071988
1763697768549595600,0.306595703125,9.38948315707147,2.8289889154493806,-0.06938375751937273
1763697768559618800,0.316618896484375,9.417603920662403,2.733195422340929,-0.09364222422554157
1763697768569640700,0.326640625,9.438205979186296,2.6614772168248892,-0.0847959329497069
1763697768579663600,0.33666357421875,9.456244324702023,2.5975544874906538,-0.050325572003191335
1763697768589685800,0.346685791015625,9.475224919503926,2.5279344232976437,-0.006473534833328449
1763697768599708700,0.356708740234375,9.495748067572713,2.4495105826631187,0.03241341015039943
1763697768609730800,0.366730712890625,9.517486436650156,2.3631761150345203,0.05689053370908368
1763697768619753500,0.37675341796875,9.539762565866113,2.2715371112570164,0.05860027393614873
1763697768629776600,0.386776611328125,9.562144493544102,2.1758095229916274,0.0404357127914438
1763697768639798500,0.396798583984375,9.583569558888673,2.0796964425399898,0.021107473595649934
1763697768649821400,0.406821533203125,9.602586978569626,1.9899946904353796,0.025045443232241085
1763697768659843600,0.416843505859375,9.617553077033161,1.915243546964228,0.07002632517265156
1763697768669866500,0.426866455078125,9.627336804422736,1.8604966422542928,0.15272221710318698
1763697768679888600,0.436888671875,9.632362523630261,1.8216097161076963,0.26403715926930305
1763697768689911600,0.44691162109375,9.633248658815026,1.793358896396309,0.39341216559261083
1763697768699933400,0.456933349609375,9.631284665265678,1.7708404828570783,0.5223652932420373
1763697768709956600,0.46695654296875,9.628759530702233,1.7472322282545267,0.6360428911525756
1763697768719978500,0.476978515625,9.627768766099214,1.7164815545514225,0.728107280735299
1763697768730001700,0.487001708984375,9.629954877966641,1.6754620002903042,0.7919486153963953
1763697768740023600,0.4970234375,9.635541153666377,1.6241181820221244,0.8300449756871908
1763697768750046700,0.507046630859375,9.64187737095058,1.5689128660202025,0.8620311825346201
1763697768760068600,0.517068603515625,9.646292849305272,1.5183791950911283,0.9021884208779781
1763697768770091300,0.52709130859375,9.647236852157116,1.4771033279813826,0.9588383827302605
1763697768780114200,0.5371142578125,9.643309449580311,1.4489014619782565,1.0380983088627458
1763697768790136300,0.54713623046875,9.633559039938449,1.4378111820347605,1.1391340865388513
1763697768800159200,0.5571591796875,9.617550154423713,1.4436252751410006,1.2605790305152536
1763697768810181000,0.56718115234375,9.59717313682735,1.4600082546651363,1.3903325147621333
1763697768820204300,0.577204345703125,9.57697147579789,1.4753442093543707,1.5084294634848832
1763697768830226200,0.58722607421875,9.558599368283152,1.4812192388676106,1.6154120207361875
1763697768840249300,0.597249267578125,9.541814822220802,1.476509453741461,1.715829812644422
1763697768850271200,0.607271240234375,9.527078440859913,1.463777105679363,1.8062452659763395
1763697768860294400,0.61729443359375,9.51442237290442,1.4461132925644515,1.8854468129850923
1763697768870316300,0.62731640625,9.50255891663134,1.4231526882156729,1.9612235001116989
1763697768880339200,0.637339111328125,9.491748768803477,1.3955740686774254,2.0321075928911565
1763697768890361300,0.647361328125,9.481779747974873,1.368695998623967,2.0959277386337516
1763697768900384300,0.65738427734375,9.470895365867019,1.3487002354301512,2.1572049218952656
1763697768910406400,0.667406494140625,9.45828489061892,1.337173609896004,2.218829018898308
1763697768920429300,0.67742919921875,9.442578787443042,1.3332896080695091,2.287014081852138
1763697768930452200,0.6874521484375,9.421583345687388,1.335870418342948,2.3705688556343314
1763697768940474400,0.697474365234375,9.392442591398954,1.3426792215749621,2.4798431770846245
1763697768950497000,0.7074970703125,9.353052245774865,1.35333695532009,2.619022222933173
1763697768960519400,0.71751953125,9.304277401211857,1.3686001370340586,2.779880893409252
1763697768970542000,0.7275419921875,9.250445273259281,1.3881363198921084,2.9449492905348538
1763697768980564500,0.737564453125,9.196811882749198,1.4090835385918616,3.0989541495934128
1763697768990587100,0.747587158203125,9.144436383345722,1.4269137943148613,3.242466548471153
1763697769000609300,0.757609375,9.091257166343928,1.4389191432766615,3.383628292569518
1763697769010632200,0.767632080078125,9.035573857566714,1.4451412326619029,3.5270886689990757
1763697769020654000,0.777654052734375,8.990957886248827,1.4690420404702424,3.6297353890031574
1763697769030677200,0.78767724609375,8.950019142138958,1.486518806580454,3.7226065649241207
1763697769040699100,0.79769921875,8.922689236664771,1.4665318112149834,3.7954301013335585
1763697769050722300,0.807722412109375,8.918843667152524,1.4352661737270653,3.8163629992470143
1763697769060745200,0.8177451171875,8.918592907261848,1.402578832872957,3.8290801497399807
1763697769070767000,0.82776708984375,8.916597349530457,1.3741754529483616,3.8439980251476165
1763697769080790300,0.837790283203125,8.909632186692953,1.3515034562826156,3.8681098453581333
1763697769090812200,0.847812255859375,8.89656169271767,1.3381244808800519,3.9026919139176606
1763697769100835300,0.85783544921875,8.88647401394546,1.3376305598832665,3.9257749756023284
1763697769110857200,0.867857177734375,8.878740204823016,1.3451936886139213,3.9406615790888666
1763697769120880000,0.877880126953125,8.868170880013704,1.3533926310300826,3.961597691872716
1763697769130902300,0.88790234375,8.846306254208088,1.3647697650909423,4.006327352698147
1763697769140925200,0.89792529296875,8.799928533914684,1.3961521608263254,4.096633062045276
1763697769150947300,0.907947265625,8.721900706860422,1.4624467338584362,4.237933337831497
1763697769160970200,0.91797021484375,8.636530115827918,1.531849648169428,4.385677675190568
1763697769170992000,0.9279921875,8.597460672721267,1.5453386598177252,4.457126708376407
1763697769181015300,0.938015380859375,8.587669346547127,1.5254916574448347,4.4827670533284545
1763697769191037200,0.948037109375,8.575737501212954,1.4797922748044132,4.520765944594144
1763697769201060400,0.958060302734375,8.555221951928734,1.4216037052080035,4.577947090713679
1763697769211083300,0.968083251953125,8.537804953181743,1.3619889022007583,4.628310081250965
1763697769221105400,0.97810546875,8.52889625506103,1.3054741110354662,4.660906236690282
1763697769231128300,0.98812841796875,8.5253330096215,1.2497000552348791,4.682662725946307
1763697769241150200,0.998150146484375,8.524597096562385,1.1920590365186332,4.69900274311155
1763697769251173400,1.00817333984375,8.519876497781276,1.1344860415372997,4.721760810625553
1763697769261195300,1.0181953125,8.514538643884658,1.0816626522358506,4.74373474202454
1763697769271218200,1.02821826171875,8.518139298725128,1.0387963010642678,4.74685024369657
1763697769281240300,1.038240234375,8.53594442000687,1.007586558482051,4.721525540564954
1763697769291263200,1.04826318359375,8.56807909541428,0.9845182559750973,4.667883089965581
1763697769301285400,1.058285400390625,8.618033505150676,0.9652452540978789,4.5791035672724245
1763697769311308000,1.06830810546875,8.685560396456719,0.946437896971032,4.453726836805045
1763697769321330400,1.078330322265625,8.765512469571828,0.9263763750646263,4.298605540937185
1763697769331353000,1.08835302734375,8.854211328244208,0.904887450703606,4.117584956920147
1763697769341376300,1.098376220703125,8.942913109526037,0.8817256977595388,3.926480785784125
1763697769351398100,1.108398193359375,9.022472383931278,0.8566697285667061,3.7458632296100256
1763697769361421300,1.11842138671875,9.090238929212093,0.8292000492956488,3.584741524283588
1763697769371443200,1.128443115234375,9.150243608319759,0.7985103119995445,3.4359584915265438
1763697769381466000,1.138466064453125,9.20510800192952,0.7645509053830057,3.294211933277547
1763697769391488300,1.14848828125,9.258106017145513,0.728837202445045,3.1506600791722534
1763697769401511200,1.15851123046875,9.308346842607856,0.6998623793080448,3.005870792226493
1763697769411533300,1.168533203125,9.355669734796882,0.6834910171564668,2.859137969997525
1763697769421556200,1.17855615234375,9.402195923650265,0.6838293822653592,2.7021228232070804
1763697769431578000,1.188578125,9.45076793911755,0.6997419677987694,2.522642454369366
1763697769441601300,1.198601318359375,9.504026066574454,0.7270638360969722,2.305481612565368
1763697769451623200,1.208623046875,9.553871755239367,0.7628608334042132,2.0765273109845817
1763697769461646300,1.218646240234375,9.582503975483775,0.8006897018652409,1.9248124625593424
1763697769471669200,1.228669189453125,9.608757191637158,0.8518847593124955,1.7653494842253625
1763697769481691400,1.23869140625,9.631595630910992,0.9000951749257743,1.6101497162938117
1763697769491714300,1.24871435546875,9.65340238904953,0.9380719274248928,1.4499053783237934
1763697769501736200,1.258736083984375,9.67374608889818,0.9643417293868959,1.288046006372571
1763697769511759400,1.26875927734375,9.692180740255116,0.9785724993132054,1.1288981584023683
1763697769521781200,1.27878125,9.707425655660032,0.9835022108003496,0.9843772400692105
1763697769531804400,1.288804443359375,9.71966203689873,0.9811435188449918,0.8578511934362352
1763697769541826300,1.298826416015625,9.730543496397138,0.9718718326307833,0.7364602446693926
1763697769551849200,1.30884912109375,9.740700148752332,0.9597494331605732,0.6066488562228157
1763697769561871400,1.318871337890625,9.749235337385535,0.9502222378153353,0.4689070035705343
1763697769571894300,1.328894287109375,9.755535314312576,0.9465209721446036,0.3225063724379986
1763697769581916400,1.33891650390625,9.7592236474365,0.9480233395315706,0.17084424058068542
1763697769591939300,1.348939208984375,9.76018869307637,0.9531584373977035,0.024405684023979118
1763697769601961200,1.358961181640625,9.758616913715004,0.9616619887836277,-0.12242661195751278
1763697769611984100,1.368984130859375,9.754235337629913,0.9735431999091059,-0.2783731614020653
1763697769622007000,1.379007080078125,9.746211021128296,0.9898259339291602,-0.4494411460023373
1763697769632029200,1.389029296875,9.733676533725857,1.0117356409855187,-0.634288375635445
1763697769642052000,1.399052001953125,9.716034494051337,1.0382600022304802,-0.8313103194478899
1763697769652074200,1.40907421875,9.69228829228282,1.0678917549062519,-1.0438083570726215
1763697769662097200,1.41909716796875,9.661638302475213,1.102206843092665,-1.2681776689507067
1763697769672119000,1.429119140625,9.624366848701237,1.1439719550240783,-1.4944132130920886
1763697769682142200,1.43914208984375,9.58212052912414,1.197193769058585,-1.7088232948832214
1763697769692164000,1.4491640625,9.535148350068926,1.2638190353497862,-1.911568803974241
1763697769702187300,1.459187255859375,9.482453117191792,1.3415731600292027,-2.110366744483262
1763697769712209200,1.469209228515625,9.423795176517963,1.4263171435959636,-2.3082646674126384
1763697769722232300,1.479232421875,9.357789211168885,1.5115307905010877,-2.513451432175934
1763697769732254200,1.489254150390625,9.27810835621059,1.5918264163568614,-2.7483038518846032
1763697769742277000,1.499277099609375,9.19933058757186,1.6587174939773977,-2.9650229412704703
1763697769752300300,1.50930029296875,9.11939488106966,1.710655186485499,-3.175008630748093
1763697769762322200,1.519322265625,9.038553165638445,1.7497566321656106,-3.378357366429269
1763697769772345900,1.529345947265625,8.959458586135506,1.7742269104249775,-3.5707992159098385
1763697769782367700,1.53936767578125,8.881585657382011,1.7827476321414113,-3.756278532901406
1763697769792391000,1.549390869140625,8.804328814700245,1.774612841002643,-3.937630540829897
1763697769802412800,1.559412841796875,8.73419670933187,1.752154340957105,-4.100506104086339
1763697769812436000,1.56943603515625,8.681782631483674,1.7146110845044253,-4.225771483133733
1763697769822457900,1.579457763671875,8.646519594922662,1.6564425347827374,-4.320218237808347
1763697769832480800,1.589480712890625,8.623533271610736,1.5786787654921413,-4.394636642193794
1763697769842503000,1.5995029296875,8.60545284051895,1.4873226703092455,-4.46143901861757
1763697769852525800,1.60952587890625,8.586770936402678,1.3886236650176345,-4.52873940769136
1763697769862548000,1.6195478515625,8.565920456075668,1.2887697906024753,-4.5972231613308185
1763697769872571000,1.62957080078125,8.537440796044468,1.1881518730122596,-4.676621692216396
1763697769882592800,1.6395927734375,8.503488257560134,1.0895764210350811,-4.761712005002797
1763697769892615700,1.64961572265625,8.459729195332526,1.00062921362482,-4.858200494638085
1763697769902638600,1.659638671875,8.404103754222392,0.9216882903136312,-4.969096572071313
1763697769912660700,1.66966064453125,8.334998653814196,0.8552127346914261,-5.095761881044507
1763697769922683600,1.67968359375,8.255033136695623,0.8017231365662068,-5.232786671468615
1763697769932705800,1.689705810546875,8.158941245162486,0.7622079224534333,-5.387124415743351
1763697769942728700,1.699728759765625,8.046579186829923,0.7394202635187656,-5.55663576375246
1763697769952750600,1.70975048828125,7.925045980048179,0.7321303987715393,-5.729574163600802
1763697769962773800,1.719773681640625,7.798724369946122,0.737515672006458,-5.899690491765737
1763697769972795600,1.729795654296875,7.663912579396366,0.7478168473988771,-6.072527769327164
1763697769982818800,1.73981884765625,7.516041400787234,0.754324037335813,-6.253838860723376
1763697769992840700,1.7498408203125,7.357507373866438,0.7517800519414246,-6.439899192473292
1763697770002863900,1.75986376953125,7.208660043701529,0.7385225840266794,-6.60758624766469
1763697770012885800,1.7698857421875,7.104294829341769,0.7115631193000823,-6.7225786545008415
1763697770022908700,1.77990869140625,7.06057668364644,0.6674311321068555,-6.7729743782639495
1763697770032931800,1.789931884765625,7.056914654007554,0.6146331695076078,-6.781781954097747
1763697770042953700,1.79995361328125,7.083463053715229,0.5679488309504463,-6.758133367484808
1763697770052977000,1.809976806640625,7.132076570236682,0.5341739871205762,-6.709584148371219
1763697770062998800,1.819998779296875,7.182823007133603,0.5184568876266479,-6.656473320430517
1763697770073022000,1.83002197265625,7.228665889897942,0.5180949589790776,-6.606689006564021
1763697770083043800,1.8400439453125,7.274835520398616,0.5296503722162917,-6.554893352875113
1763697770093066800,1.850066650390625,7.310624042138457,0.5517936323001981,-6.513116404375434
1763697770103089000,1.8600888671875,7.330711136877536,0.5820271502614021,-6.487857459956407
1763697770113111800,1.87011181640625,7.334238726481795,0.6151738522555679,-6.4808087104886765
1763697770123134000,1.880134033203125,7.326283383563161,0.6413101640310138,-6.487270599979162
1763697770133156900,1.890156982421875,7.305894091007113,0.6623118893969804,-6.508121080306172
1763697770143178800,1.9001787109375,7.274502927443384,0.6728915894698351,-6.542110443669557
1763697770153202000,1.910201904296875,7.240481415376067,0.6771265966910869,-6.579308832207322
1763697770163224600,1.920224609375,7.205377953290939,0.677986501456052,-6.617646453908085
1763697770173247000,1.9302470703125,7.170702361229061,0.6788131615385413,-6.655120736777782
1763697770183269600,1.94026953125,7.126665066581964,0.6827402718544006,-6.701856768989563
1763697770193291800,1.950291748046875,7.068194757434726,0.6948748732190578,-6.762260092025995
1763697770203314700,1.960314697265625,6.994665995365381,0.7091855765137821,-6.8368187816649675
1763697770213336800,1.9703369140625,6.901319603148102,0.7223922640893607,-6.929669499319791
1763697770223359700,1.98035986328125,6.767072460743784,0.7309750912565738,-7.05994247739613
1763697770233381600,1.990381591796875,6.6053674025714395,0.7356615685723722,-7.210985271778703
1763697770243404800,2.00040478515625,6.440887618988752,0.739455773223564,-7.357890820226073
1763697770253426700,2.0104267578125,6.275007320958376,0.7463540083047002,-7.4991744371384375
1763697770263449600,2.02044970703125,6.0981380114018915,0.7571829338982701,-7.64262779930532
1763697770273471700,2.0304716796875,5.918330894827842,0.7716234010525047,-7.781281067714095
1763697770283494700,2.04049462890625,5.745817442393302,0.7951951230369508,-7.907188836318254
1763697770293517800,2.050517822265625,5.586652131831646,0.8303349716097116,-8.016872615352273
1763697770303539700,2.060539794921875,5.446665568992495,0.8762631945699453,-8.107798502424359
1763697770313563000,2.07056298828125,5.3312242493450634,0.9267064107365905,-8.17860865318477
1763697770323584800,2.080584716796875,5.244352021577954,0.9743262400455772,-8.229084456446767
1763697770333607700,2.090607666015625,5.189505163624882,1.0110102493204176,-8.259374965292215
1763697770343629800,2.1006298828125,5.167933967807889,1.0288245768219233,-8.270692478120326
1763697770353652700,2.11065283203125,5.174543741336465,1.0216053661581128,-8.267453642329572
1763697770363675000,2.1206748046875,5.205563733500242,0.9874995368082076,-8.25211111176908
1763697770373697800,2.13069775390625,5.259062683975697,0.9300826822366565,-8.224815693086386
1763697770383719700,2.1407197265625,5.3318175390630955,0.8557887810137123,-8.185947325509787
1763697770393742800,2.150742919921875,5.419024697872996,0.7745414073910564,-8.136623030370473
1763697770403764700,2.1607646484375,5.515463795408606,0.6938487450417131,-8.078899155676364
1763697770413788000,2.170787841796875,5.615971165296435,0.6128021912207826,-8.015967190945148
1763697770423810800,2.180810791015625,5.715546807292103,0.5235943601129577,-7.951651662901043
1763697770433833000,2.1908330078125,5.816146531638503,0.4169392812503502,-7.884731505316496
1763697770443856000,2.20085595703125,5.915922080120444,0.28678287875838576,-7.816009851267934
1763697770453877800,2.210877685546875,6.0062716286093,0.13336875213459135,-7.750954318511486
1763697770463901000,2.22090087890625,6.08445084683299,-0.041525782183627596,-7.69078129709959
1763697770473922800,2.2309228515625,6.155081549373269,-0.23311202404843642,-7.630925086551904
1763697770483945700,2.24094580078125,6.22279841029346,-0.43551553303506224,-7.566867917183041
1763697770493968000,2.2509677734375,6.290186185389757,-0.6457270306251943,-7.495796485137939
1763697770503990800,2.26099072265625,6.359065660348534,-0.8641883605685085,-7.41524469256401
1763697770514013000,2.271012939453125,6.429176722928881,-1.0923161481972783,-7.324132343009114
1763697770524035600,2.28103564453125,6.4997150710105895,-1.3306775258749723,-7.221729953154921
1763697770534057700,2.2910576171875,6.568759965664148,-1.5786043850816784,-7.108430321711301
1763697770544080600,2.30108056640625,6.630401306062937,-1.8368515627726911,-6.988143315598368
1763697770554102800,2.311102783203125,6.678086601823568,-2.108055106540024,-6.865103211385011
1763697770564125700,2.321125732421875,6.708180711314082,-2.3926797112859783,-6.7413488214224575
1763697770574148900,2.33114892578125,6.722502082133293,-2.6847736289992925,-6.615915684592723
1763697770584170800,2.341170654296875,6.724010733130574,-2.9747528926461935,-6.4891381474167105
1763697770594193700,2.351193603515625,6.719927847731113,-3.251029794155061,-6.359540876644849
1763697770604215800,2.3612158203125,6.719753075686096,-3.505541438579559,-6.223060860621929
1763697770614238700,2.37123876953125,6.73420011871159,-3.7324037363171576,-6.073721947547793
1763697770624260900,2.3812607421875,6.771422472646832,-3.9276062826827167,-5.9069560988545415
1763697770634283800,2.39128369140625,6.829613380330801,-4.091811048716306,-5.72571807269454
1763697770644305700,2.4013056640625,6.883085442799329,-4.244731035147607,-5.54759145655334
1763697770654328800,2.411328857421875,6.893731924498081,-4.428118348295986,-5.3887482175529
1763697770664350700,2.421350830078125,6.861837487587333,-4.648334339886904,-5.241999905493855
1763697770674374000,2.431373779296875,6.807307440498471,-4.877870825269818,-5.102679113087058
1763697770684395800,2.441395751953125,6.7569076250821345,-5.080457928928732,-4.970265031328797
1763697770694418700,2.451418701171875,6.736106244593858,-5.229993241357803,-4.841739481441676
1763697770704441900,2.46144189453125,6.759441527473927,-5.319010079938173,-4.710463171541691
1763697770714463700,2.471463623046875,6.811900028985739,-5.3648628995746375,-4.581117829704285
1763697770724487000,2.48148681640625,6.871732858657836,-5.393403934404254,-4.45655300014168
1763697770734508800,2.4915087890625,6.923712052220106,-5.426250557473302,-4.334559190110862
1763697770744532000,2.501531982421875,6.957879110237956,-5.4766760918527835,-4.21477428830117
1763697770754553900,2.511553955078125,6.969245722904801,-5.551639855161309,-4.09625312281698
1763697770764576800,2.52157666015625,6.956287457132339,-5.6542029885351655,-3.9762329509466885
1763697770774598700,2.5315986328125,6.92168960648179,-5.78422228411138,-3.847515093357861
1763697770784621800,2.541621826171875,6.867184109312295,-5.936298513194918,-3.7111359073609114
1763697770794643700,2.551643798828125,6.7970140100210905,-6.10386691044271,-3.56563993345052
1763697770804666600,2.56166650390625,6.715562638258934,-6.279853591945767,-3.4110166502326726
1763697770814688800,2.571688720703125,6.626576779338717,-6.457463490736484,-3.2496202196180817
1763697770824711700,2.581711669921875,6.534015984541178,-6.631285687682032,-3.0827041487991806
1763697770834734600,2.591734619140625,6.4410612219899885,-6.796962572094798,-2.9128026324287055
1763697770844756500,2.601756591796875,6.348895563989878,-6.95249975528717,-2.7431100826337933
1763697770854779600,2.611779541015625,6.2568818816810845,-7.097247833439708,-2.5789330813899634
1763697770864801500,2.621801513671875,6.1634928193658585,-7.2312810408324,-2.4269987449951467
1763697770874824400,2.631824462890625,6.067329616162181,-7.356424254804849,-2.2893071612253784
1763697770884846600,2.6418466796875,5.966783667829632,-7.475376212921738,-2.1648655196510256
1763697770894869500,2.651869384765625,5.861226613336801,-7.590009723317623,-2.05138030250743
1763697770904891600,2.6618916015625,5.750215969613194,-7.701940404495597,-1.9456408771850167
1763697770914914600,2.67191455078125,5.633855781555176,-7.812079526081681,-1.844305970431864
1763697770924936400,2.6819365234375,5.5129737321585415,-7.920500737833977,-1.74447050845623
1763697770934959600,2.691959716796875,5.387706599545479,-8.027556506451964,-1.643576623468846
1763697770944981500,2.7019814453125,5.2580836098104715,-8.133433294418454,-1.539546340151876
1763697770955004700,2.712004638671875,5.123848742365837,-8.238115319642423,-1.4317841768302022
1763697770965027600,2.722027587890625,4.986188576647639,-8.340461595395206,-1.3209852761611343
1763697770975049700,2.7320498046875,4.847958502086997,-8.438377779746055,-1.2089072954669593
1763697770985072600,2.74207275390625,4.71368125680536,-8.529133570948243,-1.0979379336018114
1763697770995094500,2.752094482421875,4.5886181223317974,-8.609973532813786,-0.9916201238695531
1763697771005117700,2.76211767578125,4.476365661853552,-8.679314195543528,-0.8955704640429466
1763697771015139600,2.7721396484375,4.379092159320414,-8.736633581089974,-0.81558573076725
1763697771025162800,2.782162841796875,4.298766576717794,-8.781739966273307,-0.7563403455942869
1763697771035184600,2.7921845703125,4.236210459561645,-8.814771298259496,-0.7243764236439019
1763697771045207600,2.80220751953125,4.193386340096593,-8.835070574444531,-0.7262287735123187
1763697771055229700,2.812229736328125,4.172245936912298,-8.841829985576867,-0.7647052191618829
1763697771065252600,2.822252685546875,4.173856879240274,-8.834183854737878,-0.8405318829100579
1763697771075274800,2.832274658203125,4.197956716752052,-8.811597928920389,-0.9504101616028696
1763697771085297700,2.842297607421875,4.244626697990298,-8.773426311436294,-1.0865149876378477
1763697771095319600,2.852319580078125,4.313620154717564,-8.719210737124085,-1.2403341148659586
1763697771105342700,2.8623427734375,4.403097596547007,-8.649647956076263,-1.4023977772176266
1763697771115365600,2.87236572265625,4.5113910902664065,-8.565903504940866,-1.5630156246751545
1763697771125387800,2.8823876953125,4.634827208060026,-8.470947923961281,-1.7122481547653674
1763697771135410400,2.892410400390625,4.769163782313465,-8.368005435881019,-1.8444335423342884
1763697771145432800,2.902432861328125,4.912447048610448,-8.258473048016429,-1.9585363068543373
1763697771155455500,2.91245556640625,5.064668823644519,-8.141798387181758,-2.056849381568283
1763697771165477600,2.9224775390625,5.23018438001573,-8.012676332706212,-2.147689782314002
1763697771175500500,2.93250048828125,5.404978052341938,-7.872509152603149,-2.231635893501341
1763697771185522400,2.9425224609375,5.590887577444315,-7.717045619168877,-2.315071863209456
1763697771195545600,2.952545654296875,5.784402316853404,-7.546183441072702,-2.4012888419382272
1763697771205567500,2.9625673828125,5.981458674392104,-7.361002230244875,-2.4916204163789746
1763697771215590700,2.972590576171875,6.177544725593924,-7.163149753892421,-2.5879741737186905
1763697771225612500,2.982612548828125,6.368871015048026,-6.953605086180567,-2.6935554858699438
1763697771235635500,2.992635498046875,6.556208527126908,-6.731207366636395,-2.8066631018728017
1763697771245658600,3.00265869140625,6.738150317642092,-6.497963843429088,-2.9230437481969593
1763697771255680500,3.012680419921875,6.907563465973735,-6.259802153041958,-3.044803457210958
1763697771265703700,3.02270361328125,7.055874205043912,-6.02546148224771,-3.174719292412698
1763697771275725600,3.0327255859375,7.176796001929044,-5.804899745959043,-3.3116657569035888
1763697771285748700,3.042748779296875,7.267661683246493,-5.60503242265284,-3.45471901383698
1763697771295770600,3.0527705078125,7.330069331842661,-5.428569355809688,-3.6015406833931802
1763697771305793500,3.06279345703125,7.370366270917653,-5.272583259806036,-3.748059570610523
1763697771315815700,3.072815673828125,7.397646492031217,-5.1305374263495205,-3.888804258340597
1763697771325838600,3.082838623046875,7.421602537158131,-4.9944922946125265,-4.018114821125566
1763697771335860700,3.09286083984375,7.451337165686487,-4.857167644459009,-4.129876575477421
1763697771345883600,3.102883544921875,7.493586992394924,-4.713806929011643,-4.21859706145972
1763697771355905500,3.112905517578125,7.550266326472163,-4.562364613917469,-4.283537443403899
1763697771365928700,3.1229287109375,7.618889196321367,-4.405853909517824,-4.325662766949832
1763697771375950600,3.13295068359375,7.694666029578447,-4.249569707350433,-4.347833389964699
1763697771385973800,3.142973876953125,7.772696194720268,-4.097775802339613,-4.354746822614968
1763697771395996700,3.15299658203125,7.849497110328078,-3.9526334641724823,-4.351145875513553
1763697771406018800,3.163018798828125,7.923247990715503,-3.814760240225494,-4.3405221901685
1763697771416041700,3.173041748046875,7.9929411201447245,-3.6864737597912547,-4.323561410756409
1763697771426063600,3.183063720703125,8.057168385383486,-3.570869066275656,-4.301315384417772
1763697771436086500,3.19308642578125,8.114839653107524,-3.4709874270707366,-4.274577015095949
1763697771446108700,3.203108642578125,8.165253497049212,-3.3890468104869127,-4.244217240406573
1763697771456131600,3.213131591796875,8.208179615584015,-3.3256165408447385,-4.211466771188378
1763697771466153700,3.22315380859375,8.244416465613245,-3.2809903403937817,-4.1755341648027295
1763697771476176400,3.23317626953125,8.274134143006801,-3.254640970389545,-4.137196835362911
1763697771486198800,3.24319873046875,8.297845857983827,-3.247268395794928,-4.095287784916162
1763697771496221400,3.253221435546875,8.314990469530224,-3.2599887611582874,-4.050160064683855
1763697771506243600,3.26324365234375,8.323720888474583,-3.2918235768362876,-4.006238505370915
1763697771516266500,3.2732666015625,8.309632741889358,-3.3564585460931062,-3.9817794791579244
1763697771526289700,3.28328955078125,8.273343869411946,-3.4626588669255374,-3.9663779118865725
1763697771536311600,3.2933115234375,8.242985556027293,-3.583140811088681,-3.9223309726282953
1763697771546334500,3.30333447265625,8.222899630331993,-3.695663612940907,-3.8595819632485506
1763697771556356600,3.313356689453125,8.194567854338883,-3.803806592273712,-3.8145106493785974
1763697771566379500,3.323379638671875,8.147691536873578,-3.919212840607762,-3.7980630801856514
1763697771576401700,3.333401611328125,8.084060483962297,-4.046157551044225,-3.8009146702244876
1763697771586424600,3.343424560546875,8.007835322415827,-4.180503185386955,-3.8168513672858473
1763697771596446500,3.353446533203125,7.934044694539904,-4.317544926945865,-3.818393336030841
1763697771606469600,3.3634697265625,7.872485771727561,-4.4503602829813955,-3.79323609842062
1763697771616491500,3.373491455078125,7.812673400321603,-4.5819376216545695,-3.760101598320901
1763697771626514700,3.3835146484375,7.7438056158006185,-4.724410448351502,-3.7260979141712185
1763697771636536600,3.39353662109375,7.664833201372623,-4.8848237131476395,-3.682284491407871
1763697771646559700,3.403559814453125,7.5751073377400635,-5.062624750596284,-3.627391456225514
1763697771656582700,3.413582763671875,7.476161225819587,-5.252469277060031,-3.562157936553657
1763697771666604500,3.4236044921875,7.3712944916784755,-5.447872606694698,-3.4864152978271243
1763697771676627700,3.433627685546875,7.263534958705305,-5.6435570913583035,-3.4002518028512596
1763697771686649600,3.443649658203125,7.154514612016081,-5.8357794528692954,-3.305599588732421
1763697771696672800,3.4536728515625,7.044920849353074,-6.02249561817944,-3.2045304933086034
1763697771706694700,3.463694580078125,6.934902723798156,-6.203240892386436,-3.0979516945526
1763697771716717800,3.4737177734375,6.823508633714914,-6.378681045922637,-2.987063215903938
1763697771726739700,3.48373974609375,6.710588356977701,-6.549227582198381,-2.8715874094650147
1763697771736762600,3.4937626953125,6.595573153787851,-6.715694740206003,-2.751044090503454
1763697771746784800,3.50378466796875,6.47733372785449,-6.878668795400857,-2.6264906591176986
1763697771756807700,3.5138076171875,6.355387264096737,-7.037886128410697,-2.4995196451961994
1763697771766829800,3.523829833984375,6.23070640693903,-7.191916998693347,-2.371710865276307
1763697771776852500,3.5338525390625,6.105645026031136,-7.338522687411308,-2.2444518281936645
1763697771786874600,3.54387451171875,5.9838353403955695,-7.474584185761213,-2.1200667391121386
1763697771796897500,3.5538974609375,5.870138818588853,-7.596550523263216,-2.001066119547933
1763697771806920400,3.56392041015625,5.77004821280837,-7.700800586810708,-1.890658410153538
1763697771816942300,3.5739423828125,5.687680310723185,-7.785370382854342,-1.791280190426111
1763697771826965500,3.583965576171875,5.623997819885611,-7.85105953733921,-1.7034966930329798
1763697771836987400,3.5939873046875,5.577029147961736,-7.900705319517851,-1.6266531073272228
1763697771847010600,3.604010498046875,5.541942052489519,-7.938916099968552,-1.5591241701945662
1763697771857032400,3.614032470703125,5.512852151605487,-7.970444041654467,-1.5002869274310766
1763697771867055400,3.624055419921875,5.484281890681386,-7.999602916121482,-1.4489277654632926
1763697771877077500,3.634077392578125,5.452107467785478,-8.029676567345858,-1.4032787978358565
1763697771887100400,3.644100341796875,5.414537907847762,-8.062211640247702,-1.3615871895320713
1763697771897122300,3.654122314453125,5.373265401738882,-8.096101634889841,-1.323462187668681
1763697771907145500,3.6641455078125,5.329038137477636,-8.13127640864551,-1.2861112389177083
1763697771917167400,3.67416748046875,5.288911878794432,-8.162351930388807,-1.254519438215345
1763697771927190500,3.6841904296875,5.25579169948101,-8.187616720026732,-1.228811727115512
1763697771937213400,3.69421337890625,5.237169416597485,-8.20171538800597,-1.214215923269093
1763697771947235600,3.704235595703125,5.23507273657918,-8.20352565229833,-1.2110193922501056
1763697771957258500,3.714258544921875,5.246816950386762,-8.195130748918652,-1.2170191441215574
1763697771967280400,3.7242802734375,5.269895043635368,-8.177951066058874,-1.2327638257421552
1763697771977303600,3.734303466796875,5.297162405267358,-8.156840473490952,-1.2555493657849728
1763697771987325400,3.744325439453125,5.326154690995812,-8.133466612166165,-1.2841998523384333
1763697771997348600,3.7543486328125,5.35551230290532,-8.109080358928441,-1.3159341302514076
1763697772007370500,3.76437060546875,5.387868512108922,-8.082090060672163,-1.3494693201065062
1763697772017393700,3.7743935546875,5.428467649000883,-8.048850638893246,-1.3849595895521343
1763697772027415600,3.78441552734375,5.480810999700426,-8.006651665589214,-1.4228908224090933
1763697772037438500,3.7944384765625,5.548622553166747,-7.951906514444946,-1.4664099384009837
1763697772047460600,3.804460693359375,5.633264829924702,-7.882564682671427,-1.517201091222465
1763697772057483500,3.8144833984375,5.735494201299548,-7.796801292929053,-1.5761932322867214
1763697772067506400,3.82450634765625,5.853929442065954,-7.694051112550497,-1.64422675794065
1763697772077528600,3.834528564453125,5.985360358005762,-7.574906262210011,-1.7223913631170986
1763697772087551500,3.844551513671875,6.126804718437791,-7.440172797593474,-1.8101025259263812
1763697772097573600,3.85457373046875,6.274505801177025,-7.291597270107268,-1.9061919332414865
1763697772107596300,3.86459619140625,6.425163395634293,-7.130664949873089,-2.0102936743594704
1763697772117618700,3.87461865234375,6.575310117959976,-6.95926910329163,-2.122321678432077
1763697772127641300,3.884641357421875,6.721647511130571,-6.779701640692353,-2.2417617123268543
1763697772137663500,3.89466357421875,6.861745717650652,-6.593744184795022,-2.368409193382412
1763697772147686400,3.904686279296875,6.993368356770277,-6.403430287253856,-2.5018507184922694
1763697772157708300,3.914708251953125,7.115629293304681,-6.209727331796288,-2.641495336025953
1763697772169072400,3.926072265625,7.241901219046116,-5.988064356267452,-2.805056251198053
1763697772179007500,3.936007568359375,7.341365801882743,-5.7935652819961305,-2.951158666568994
1763697772189029400,3.946029296875,7.431653391051292,-5.597607241088151,-3.0996313182026145
1763697772199052500,3.956052490234375,7.513212314841151,-5.401656214442849,-3.247173703248799
1763697772209074400,3.966074462890625,7.587091790044307,-5.206318935781717,-3.3912624407097693
1763697772219097300,3.976097412109375,7.653878092116117,-5.011888835093378,-3.5312189006716013
1763697772229120500,3.98612060546875,7.714069818228483,-4.819626726093888,-3.665338909564912
1763697772239142400,3.996142333984375,7.76853264530003,-4.631618767407536,-3.7905665869504213
1763697772249165600,4.00616552734375,7.817681583872437,-4.450149855101109,-3.9051778855144974
1763697772259187500,4.0161875,7.861832275766134,-4.276629563711583,-4.009041287831962
1763697772269210600,4.026210693359375,7.901869102600217,-4.111491608481109,-4.102010663430392
1763697772279232500,4.036232421875,7.938622085458039,-3.954282400423288,-4.184771071964502
1763697772289255400,4.04625537109375,7.972669316488504,-3.804326816755533,-4.2584068015396594
1763697772299277600,4.056277587890625,8.003589939931034,-3.661598261731863,-4.325000795909762
1763697772309300500,4.066300537109375,8.029632728204131,-3.526440726484358,-4.388575734719634
1763697772319322600,4.076322509765625,8.050054753986,-3.3980396797597407,-4.45200308175236
1763697772329345500,4.086345458984375,8.064355082017183,-3.2759213665664193,-4.517178441496193
1763697772339367400,4.096367431640625,8.071841638380288,-3.160959647129476,-4.585202760930359
1763697772349390600,4.106390625,8.071872033518552,-3.0533506285429,-4.657501104421914
1763697772359412500,4.11641259765625,8.063921951296924,-2.95269654366076,-4.735518702343106
1763697772369435600,4.126435546875,8.047857536202669,-2.8592770862072703,-4.819430326738953
1763697772379458300,4.136458251953125,8.023438549739122,-2.775569459950924,-4.908261871880293
1763697772389480700,4.146480712890625,7.990517107868194,-2.704750249101221,-5.000634450629353
1763697772399503400,4.15650341796875,7.9504639144212,-2.6503853294461965,-5.092736395743489
1763697772409525500,4.166525390625,7.905559773811698,-2.6141838429912925,-5.18059354289472
1763697772419548400,4.17654833984375,7.858214669790864,-2.594862764188647,-5.26170413839519
1763697772429570600,4.186570556640625,7.811077071040868,-2.590487910105288,-5.333557660728693
1763697772439593500,4.196593505859375,7.767303980287909,-2.59920283921957,-5.392914105060696
1763697772449615400,4.206615478515625,7.7282392133563755,-2.618904441772401,-5.439305269357562
1763697772459638500,4.216638427734375,7.693703322026133,-2.6512054136574266,-5.472516049563884
1763697772469660400,4.226660400390625,7.663356699079275,-2.699303089611232,-5.491548666813969
1763697772479683300,4.236683349609375,7.635857866778969,-2.7670152743563055,-5.496152361217141
1763697772489705500,4.24670556640625,7.609648489767313,-2.8574212292075156,-5.486235362836719
1763697772499728400,4.256728271484375,7.58287037295699,-2.971717178212106,-5.462541183516383
1763697772509751600,4.26675146484375,7.552809581214189,-3.108815033872425,-5.4277726524740455
1763697772519773400,4.2767734375,7.517974999198317,-3.266266526253521,-5.38348810506761
1763697772529796600,4.286796630859375,7.478322787767648,-3.441479300774634,-5.329286559280753
1763697772539818500,4.296818603515625,7.434151053085923,-3.6307632707461712,-5.265105471271276
1763697772549841400,4.30684130859375,7.386137840545177,-3.8287911036655307,-5.191888843891024
1763697772559863600,4.316863525390625,7.336456402531266,-4.028075074125826,-5.110910934859514
1763697772569886500,4.326886474609375,7.288273094120621,-4.221190292823314,-5.023247848975658
1763697772579908600,4.33690869140625,7.244701078897714,-4.402539085881412,-4.929740713238716
1763697772589931500,4.346931640625,7.208799744433164,-4.569854092890024,-4.8290807831376785
1763697772599953400,4.356953369140625,7.181575052899122,-4.723808975327015,-4.720274663721025
1763697772609976600,4.3669765625,7.161797754761576,-4.8663984141409395,-4.604042193695903
1763697772619998500,4.37699853515625,7.146970187985897,-5.000570737743377,-4.4816848110497
1763697772630021600,4.387021728515625,7.134870584869384,-5.1297389694482085,-4.353135295765101
1763697772640044500,4.39704443359375,7.123263733705878,-5.2568280567914245,-4.218441578637063
1763697772650066400,4.40706640625,7.110476732847094,-5.383200520297884,-4.078315899588167
1763697772660089600,4.417089599609375,7.094648464596271,-5.50889201580286,-3.9355364911600943
1763697772670111500,4.427111572265625,7.074763029909134,-5.633550661128759,-3.792257901038229
1763697772680134700,4.437134765625,7.049918511509895,-5.75746053391397,-3.649749418506026
1763697772690156500,4.447156494140625,7.018348484247922,-5.881415999406576,-3.51028629501909
1763697772700179500,4.457179443359375,6.978156759113073,-6.006216683551669,-3.376547394397855
1763697772710201600,4.46720166015625,6.928156172147393,-6.132637077853083,-3.2498928990796205
1763697772720224300,4.477224365234375,6.867926452112197,-6.2615340914011,-3.1297230896055694
1763697772730246700,4.48724658203125,6.797358877936005,-6.391811745652556,-3.0184511645972725
1763697772740269300,4.497269287109375,6.717957424440979,-6.521630550220609,-2.9168080686777826
1763697772750292500,4.50729248046875,6.6324149839729065,-6.649172642028331,-2.823111255587637
1763697772760314400,4.517314453125,6.543657088589668,-6.772948659300804,-2.7346120111405847
1763697772770337500,4.527337646484375,6.454178477716446,-6.89168083718717,-2.6492826289013025
1763697772780359400,4.537359375,6.36578766207993,-7.004692299339175,-2.56542741086781
1763697772790382300,4.54738232421875,6.280248728743195,-7.1114353487461806,-2.481200144651532
1763697772800404200,4.557404296875,6.1996057507544755,-7.211316695690154,-2.394199760460108
1763697772810427400,4.567427490234375,6.126194477584957,-7.3035279463976615,-2.301868828895688
1763697772820449300,4.57744921875,6.0620683346331115,-7.387488086110353,-2.2015276093550025
1763697772830472400,4.587472412109375,6.007573943379521,-7.46373604401052,-2.0909543341353536
1763697772840495400,4.597495361328125,5.961632276415824,-7.533157370761036,-1.969994251066446
1763697772850517500,4.607517578125,5.923418573355675,-7.595922162231802,-1.839965164748579
1763697772860540400,4.61754052734375,5.892234915062785,-7.651099859574437,-1.706638059798628
1763697772870562300,4.627562255859375,5.86882013720572,-7.697799651429056,-1.5720112704269587
1763697772880585500,4.63758544921875,5.854188385263085,-7.733418661820888,-1.4467561205126345
1763697772890607400,4.647607421875,5.851090419247746,-7.7561834513366215,-1.3329444478936492
1763697772900630500,4.657630615234375,5.860879407334328,-7.765991144123673,-1.2287665727995336
1763697772910652400,4.66765234375,5.881051257747411,-7.765776624590158,-1.1297499529261141
1763697772920675600,4.677675537109375,5.9047863536000245,-7.761177606362104,-1.0334404000543058
1763697772930698500,4.687698486328125,5.923581654962897,-7.758652471798658,-0.9406816715318709
1763697772940720400,4.697720458984375,5.928671671578288,-7.764902179843187,-0.8529557495448737
1763697772950743600,4.70774365234375,5.913664656582474,-7.784764233654737,-0.7722635255869478
1763697772960765400,4.717765380859375,5.876137182220816,-7.820001551252603,-0.6992663131110369
1763697772970788400,4.727788330078125,5.818160794070363,-7.868694562751054,-0.634848420671001
1763697772980810500,4.737810546875,5.745059902024269,-7.926379274478554,-0.580675845250301
1763697772990833400,4.74783349609375,5.6640948524743315,-7.987312758868932,-0.5396631225887686
1763697773000855600,4.75785546875,5.582654586628079,-8.04608234322369,-0.5147022478008643
1763697773010878200,4.767878173828125,5.5066421910494565,-8.098865838906168,-0.5056190333634615
1763697773020901400,4.7779013671875,5.4410991670370095,-8.142778045868873,-0.5098889292350038
1763697773030923300,4.78792333984375,5.389744827374815,-8.176007530775665,-0.523380644297041
1763697773040946400,4.797946533203125,5.353385812270641,-8.198626774340868,-0.5423628465341404
1763697773050968300,4.80796826171875,5.330384875911474,-8.212061425453424,-0.5651765897581353
1763697773060991500,4.817991455078125,5.318067246130108,-8.21824332895875,-0.5907809866139665
1763697773071013400,4.828013427734375,5.313852258783578,-8.2190055455029,-0.6174927236571908
1763697773081036300,4.838036376953125,5.315672459948063,-8.215753265708685,-0.6445173625744879
1763697773091058400,4.848058349609375,5.3221203209131955,-8.209237600204348,-0.6736787212595343
1763697773101081300,4.858081298828125,5.333577534472942,-8.198928387635945,-0.7077385925758629
1763697773111104500,4.8681044921875,5.3513633665323255,-8.183637295001745,-0.7492458572886884
1763697773121126400,4.87812646484375,5.378601502069831,-8.160854385307431,-0.8009338128194212
1763697773131149300,4.8881494140625,5.420903351226449,-8.12642721504867,-0.8633569512456655
1763697773141171500,4.89817138671875,5.484605715808272,-8.075591346302629,-0.9350396470569073
1763697773151194400,4.9081943359375,5.575984607344865,-8.002725432056188,-1.0174343640837817
1763697773161216500,4.918216552734375,5.691486717268824,-7.909068074193597,-1.10634942279011
1763697773171239400,4.928239501953125,5.832159508806467,-7.791015110743046,-1.2068087888177483
1763697773181262600,4.9382626953125,5.987003449037671,-7.654797545048594,-1.3153918400682507
1763697773191284500,4.948284423828125,6.147797237583995,-7.505314839589595,-1.4301134671390057
1763697773201307400,4.958307373046875,6.307092896527052,-7.348145086759328,-1.5478149868033826
1763697773211329500,4.96832958984375,6.459563677886128,-7.187965046197175,-1.6666086856186388
1763697773221352400,4.9783525390625,6.603320406913757,-7.027234386014938,-1.7845257477298377
1763697773231374600,4.98837451171875,6.739586487925052,-6.8662477052450175,-1.8981565108239649
1763697773241397500,4.9983974609375,6.871095145276189,-6.703452513748407,-2.005533620350808
1763697773251419400,5.00841943359375,7.0010752778857945,-6.535712267065048,-2.1070833388984203
1763697773261442300,5.0184423828125,7.131976616993546,-6.359835475677252,-2.204037546349317
1763697773271465200,5.02846533203125,7.264023034483194,-6.174226979348063,-2.298537930907309
1763697773281487400,5.0384873046875,7.396112706592678,-5.978403962996602,-2.3930301321588456
1763697773291510300,5.04851025390625,7.526424263113737,-5.773085388547182,-2.4889386299490925
1763697773301532400,5.058532470703125,7.652674561545252,-5.56040476089716,-2.5862828596308827
1763697773311555300,5.068555419921875,7.772732435077429,-5.34367105846405,-2.6833175849720834
1763697773321577200,5.0785771484375,7.884740273144841,-5.127165904089808,-2.7773060744851827
1763697773331600400,5.088600341796875,7.9872145591914645,-4.915118898168206,-2.8664252043962475
1763697773341623300,5.098623291015625,8.0796338996917,-4.709966620196401,-2.950613015384972
1763697773351645400,5.1086455078125,8.162658219859004,-4.512981866589188,-3.028926089121401
1763697773361668400,5.11866845703125,8.236918218812345,-4.324506582652032,-3.1019679444566366
1763697773371690500,5.1286904296875,8.302543075889348,-4.144217235518992,-3.172323044925928
1763697773381713400,5.13871337890625,8.36037333356738,-3.970935429060459,-3.241329653395712
1763697773391735300,5.1487353515625,8.411911213102936,-3.8031037047013636,-3.3085552236676214
1763697773401758500,5.158758544921875,8.458945351478457,-3.638984863385558,-3.372598072250187
1763697773411780400,5.1687802734375,8.50293705341816,-3.4777728494271636,-3.4315503196954724
1763697773421803500,5.178803466796875,8.544882344222069,-3.319175694142282,-3.4840263568639753
1763697773431826400,5.188826416015625,8.585398479005693,-3.1630750318482517,-3.5293452157542107
1763697773441848600,5.1988486328125,8.62470114634633,-3.010224311260879,-3.566995439712703
1763697773451871500,5.20887158203125,8.662388779705763,-2.861866518178582,-3.597655658653378
1763697773461893400,5.218893310546875,8.69801363531649,-2.719567879004776,-3.62200070309788
1763697773471916500,5.22891650390625,8.731118032538891,-2.585411045232415,-3.640551674310863
1763697773481938400,5.2389384765625,8.761160119581222,-2.460813774704933,-3.654702949260175
1763697773491961600,5.248961669921875,8.787439054697751,-2.3462007225751877,-3.6669665107667444
1763697773501984300,5.258984375,8.809548595175146,-2.2412457256287337,-3.6795451295718546
1763697773512006400,5.26900634765625,8.827323321318627,-2.1448663954563436,-3.694360421387851
1763697773522029300,5.279029296875,8.841337818145751,-2.055110428946465,-3.711825935451686
1763697773532051200,5.28905126953125,8.851818295627831,-1.9697788547500967,-3.733049925266206
1763697773542074400,5.299074462890625,8.858168541437387,-1.8879599648497998,-3.7601644344240426
1763697773552096300,5.30909619140625,8.859492483517528,-1.8102488025292753,-3.795098677422106
1763697773562119400,5.319119384765625,8.855441746821999,-1.7385177375316618,-3.837850316172838
1763697773572141300,5.329141357421875,8.84523891723752,-1.6752957038126886,-3.8891535101696846
1763697773582164500,5.33916455078125,8.827938238346576,-1.6233892832256853,-3.950000193059444
1763697773592187400,5.3491875,8.80367005853057,-1.5866493059799074,-4.018497682963312
1763697773602209300,5.359209228515625,8.773253877478837,-1.5675098673544823,-4.091859271772206
1763697773612232400,5.369232421875,8.738062152588366,-1.5690313778333365,-4.1659082583233715
1763697773622254300,5.37925439453125,8.699687706008554,-1.5928753408879042,-4.23657461669892
1763697773632277500,5.389277587890625,8.659653801783918,-1.638445982582122,-4.300730278006196
1763697773642299400,5.39929931640625,8.619993407046794,-1.702759610930085,-4.35507883104831
1763697773652322300,5.409322265625,8.582425016152857,-1.7822690548442304,-4.397259099651873
1763697773662345500,5.419345458984375,8.547594525790213,-1.8740536045722662,-4.42684350605458
1763697773672367400,5.429367431640625,8.515583184501528,-1.97645424086079,-4.443968243856728
1763697773682390500,5.439390625,8.486620124867558,-2.08860616357401,-4.448076848219335
1763697773692412400,5.449412353515625,8.46145879560411,-2.2101270953960714,-4.437278683090209
1763697773702435600,5.459435546875,8.44004834330678,-2.3409796269260346,-4.410870860897004
1763697773712457500,5.46945751953125,8.42053758715093,-2.482874799865484,-4.370384244468808
1763697773722480400,5.47948046875,8.400252339491248,-2.6391654317736624,-4.31751628537327
1763697773732503300,5.48950341796875,8.375544599214196,-2.8138883769512173,-4.254723144590854
1763697773742525400,5.499525390625,8.341824700441956,-3.009878858824074,-4.1862838146150105
1763697773752548400,5.50954833984375,8.29590232270062,-3.2278494095757604,-4.114531999090314
1763697773762570500,5.519570556640625,8.236646416133642,-3.465328670656681,-4.039744469131529
1763697773772593400,5.529593505859375,8.165304934975504,-3.716712830710411,-3.9603307406768202
1763697773782615800,5.53961572265625,8.085425927096605,-3.972926895138621,-3.874548061712086
1763697773792638700,5.549638671875,8.001814746952057,-4.224717297905683,-3.7806218237802383
1763697773802660600,5.55966064453125,7.918996763011813,-4.464821646793187,-3.677668814305961
1763697773812683800,5.569683837890625,7.840168725490569,-4.6892485340774055,-3.5655420260339974
1763697773822706700,5.579706787109375,7.766365238133073,-4.897294779925048,-3.4453546809032556
1763697773832728800,5.589728759765625,7.6961501306563616,-5.091351078864932,-3.319307796089351
1763697773842751700,5.599751708984375,7.625660297891497,-5.276297896414995,-3.1906700179994103
1763697773852773600,5.609773681640625,7.549547949069738,-5.458235010755062,-3.0630671359151598
1763697773862796800,5.619796875,7.46401427643001,-5.6414966516971585,-2.9380934332907196
1763697773872818700,5.629818603515625,7.367813079303502,-5.8267316385388375,-2.816897787900269
1763697773882841900,5.639841796875,7.262828856262564,-6.010758418634533,-2.7004604429528114
1763697773892864800,5.64986474609375,7.153247368559241,-6.188360718640685,-2.589524033509195
1763697773902887000,5.659886962890625,7.04399672024548,-6.354236925017833,-2.4851900910705327
1763697773912909800,5.669909912109375,6.9403890462547535,-6.504300060713291,-2.38651695087254
1763697773922931700,5.679931640625,6.846860283207893,-6.63615650858879,-2.291792986691743
1763697773932955000,5.689954833984375,6.766141901895404,-6.748873371708393,-2.20054868132025
1763697773942976800,5.699976806640625,6.699875824305415,-6.841969588556886,-2.1141173291884363
1763697773953000000,5.71,6.648215195173025,-6.91680300348401,-2.0321027705855665
1763697773963022600,5.720022705078125,6.608121669715643,-6.977310371416807,-1.9545465065658092
1763697773973045000,5.730044921875,6.574928425166011,-7.028734853705763,-1.8808472102351486
1763697773983067600,5.740067626953125,6.543617341101169,-7.076396184068918,-1.8099924896806479
1763697773993089800,5.75008984375,6.509501721009611,-7.125254030740261,-1.7399799190387129
1763697774003112700,5.76011279296875,6.468918366208672,-7.178572363951802,-1.6708002920895815
1763697774013134600,5.770134521484375,6.419542048621177,-7.238079030409454,-1.6031462672725318
1763697774023157800,5.78015771484375,6.360004987025261,-7.304693483045697,-1.5369363037839532
1763697774033180700,5.7901806640625,6.2895695147961375,-7.378609783127904,-1.4723543798886238
1763697774043202800,5.800202880859375,6.208136847734451,-7.459318812090158,-1.409961928861588
1763697774053225700,5.810225830078125,6.116021458616852,-7.545806424453854,-1.3511017436139285
1763697774063247600,5.82024755859375,6.0143403687745325,-7.6363336675971745,-1.2978842404283581
1763697774073270800,5.830270751953125,5.904830777263641,-7.729035332170128,-1.2511449933461845
1763697774083292700,5.840292724609375,5.788629579159617,-7.822960985580086,-1.2097238725468515
1763697774093315800,5.85031591796875,5.664739580118656,-7.918792764872312,-1.1721046282485126
1763697774103338800,5.8603388671875,5.5320712313383815,-8.017059662356973,-1.1372433774214237
1763697774113361000,5.87036083984375,5.392646978557109,-8.115879517549276,-1.1055459243874997
1763697774123383800,5.8803837890625,5.25148435767591,-8.211684993356466,-1.0772784458022564
1763697774133405700,5.89040576171875,5.114151524215936,-8.301074756902455,-1.0526158598411828
1763697774143428900,5.900428955078125,4.986061735397577,-8.380995850357413,-1.033674720266834
1763697774153451800,5.91045166015625,4.871222473296523,-8.450507193478941,-1.015134270447865
1763697774163474000,5.920473876953125,4.770115091688931,-8.51005945264399,-0.9976329544182866
1763697774173496800,5.930496826171875,4.68108071745187,-8.560949097403883,-0.9838704595908522
1763697774183519000,5.94051904296875,4.601325628213584,-8.605131938001513,-0.9746190855123102
1763697774193542000,5.9505419921875,4.527287747578322,-8.645023803406954,-0.9683049339294433
1763697774203563800,5.960563720703125,4.45590125823468,-8.682662921449541,-0.9626438394278287
1763697774213586700,5.970586669921875,4.386060829289257,-8.718698695948719,-0.9576781798444688
1763697774223609600,5.980609619140625,4.319425918386877,-8.752178356224299,-0.9551588904999196
1763697774233631700,5.9906318359375,4.259424161888659,-8.78132261764407,-0.9571183540046214
1763697774243654700,6.000654541015625,4.209966011236608,-8.804130661779642,-0.9663721392359584
1763697774253676800,6.0106767578125,4.174388794159889,-8.819010835525393,-0.9848436885371804
1763697774263699700,6.02069970703125,4.154775746673345,-8.825279248270393,-1.0112792024549095
1763697774273723000,6.030722900390625,4.1510602332815525,-8.823339804640412,-1.0429632114853709
1763697774283744800,6.040744873046875,4.160723841422796,-8.814404218512774,-1.0793653350789099
1763697774293767700,6.050767578125,4.180028261351585,-8.800110320222377,-1.1206327266212552
1763697774303789800,6.060789794921875,4.20519777392149,-8.7822391479671,-1.1657497062638402
1763697774313812700,6.070812744140625,4.232907910884917,-8.762530238890648,-1.2128265147373078
1763697774323836000,6.0808359375,4.261822455202043,-8.742090092930198,-1.2582244302131236
1763697774333857800,6.09085791015625,4.293183515888452,-8.72082284849584,-1.298544019511342
1763697774343881000,6.100880859375,4.330679133807123,-8.697087752643228,-1.3327682145439088
1763697774353902800,6.11090283203125,4.3795463328287,-8.667617328009008,-1.3646828174598513
1763697774363925800,6.12092578125,4.446095903535187,-8.628307646405696,-1.3981858586110174
1763697774373948000,6.130947998046875,4.536237946753204,-8.575001588153839,-1.4360580547571182
1763697774383970800,6.140970703125,4.653260105851293,-8.504002636823058,-1.4830672048218547
1763697774393993700,6.15099365234375,4.796738017937541,-8.41332224894464,-1.5419821889966725
1763697774404015900,6.161015869140625,4.964072021907568,-8.30188665780723,-1.6146395750589668
1763697774414038800,6.171038818359375,5.149088397562504,-8.170794764563441,-1.7015867677584289
1763697774424061000,6.18106103515625,5.341653288900852,-8.024455617827176,-1.8014513096980749
1763697774434083600,6.19108349609375,5.532657506793737,-7.867762834858894,-1.912694447003305
1763697774444106800,6.201106689453125,5.713700887164473,-7.7065528667271135,-2.0329912438578903
1763697774454128600,6.211128662109375,5.878785066381097,-7.546351783376932,-2.159362392190099
1763697774464151800,6.22115185546875,6.025583062800765,-7.391593183341622,-2.28628284496814
1763697774474173700,6.231173583984375,6.155427586331963,-7.243865797117352,-2.4098780988462267
1763697774484196900,6.24119677734375,6.27285511136055,-7.100932074910402,-2.5295140937045213
1763697774494219800,6.2512197265625,6.384065661570429,-6.958263141119479,-2.6451217098295685
1763697774504241700,6.26124169921875,6.495255168992281,-6.810645060488581,-2.756295435160398
1763697774514264800,6.271264892578125,6.611416619607806,-6.653399904334544,-2.862134813725948
1763697774524286700,6.28128662109375,6.7351943904459475,-6.483060873329639,-2.962677839449048
1763697774534310000,6.291309814453125,6.865929725337028,-6.297667481055855,-3.0608471217781306
1763697774544332800,6.301332763671875,7.000659682822227,-6.097398006689549,-3.1595716999024153
1763697774554354700,6.311354736328125,7.13592330879271,-5.883954577973484,-3.260071471005678
1763697774564377900,6.3213779296875,7.2688435865074394,-5.658982039505243,-3.363068611882627
1763697774574399700,6.331399658203125,7.396847450608014,-5.424674101936817,-3.4684216682359574
1763697774584423000,6.3414228515625,7.516255920320749,-5.184465415892005,-3.577372164559364
1763697774594445800,6.35144580078125,7.623651296156645,-4.94267618265748,-3.69056658206284
1763697774604468000,6.361468017578125,7.7166306086272,-4.703929093597829,-3.807499309311807
1763697774614490600,6.37149072265625,7.794290186890959,-4.471794408415258,-3.9271477252602573
1763697774624512800,6.3815126953125,7.85758630875945,-4.248622489628196,-4.046965652556717
1763697774634535700,6.39153564453125,7.9085893507659435,-4.035810636813938,-4.163753126116097
1763697774644558600,6.40155859375,7.949768917894363,-3.8338337740078567,-4.274726068177819
1763697774654580700,6.411580810546875,7.983734315860271,-3.642185705253482,-4.3777673404574395
1763697774664603600,6.421603759765625,8.013084328985213,-3.4602561896979807,-4.470737885099649
1763697774674625800,6.431625732421875,8.039860692229867,-3.28797742280215,-4.551947849321365
1763697774684648700,6.441648681640625,8.065409559506177,-3.1256703070834275,-4.6205777334332465
1763697774694672000,6.451671875,8.090054171419144,-2.974356002283096,-4.677029980756342
1763697774704693800,6.46169384765625,8.113561888256669,-2.8357164701387285,-4.72220475500077
1763697774714716700,6.471716552734375,8.135928618365526,-2.7112945561781525,-4.756672257269918
1763697774724738800,6.48173876953125,8.157049147805571,-2.6020354322969914,-4.781458908002079
1763697774734761700,6.49176171875,8.177274189710616,-2.5075647122249007,-4.797362287315726
1763697774744785000,6.501784912109375,8.197367129668592,-2.4266155908964575,-4.804694822160899
1763697774754806800,6.511806884765625,8.218011273768544,-2.357363044841587,-4.803906302131712
1763697774764830000,6.521829833984375,8.238950016900896,-2.298135195325315,-4.796734218545258
1763697774774852900,6.531852783203125,8.259734446254372,-2.2481151730068025,-4.784679039092362
1763697774784874500,6.54187451171875,8.279051141142844,-2.2078435145035384,-4.770023906274139
1763697774794897400,6.5518974609375,8.295231291571259,-2.178306454373896,-4.755470772525668
1763697774804919600,6.56191943359375,8.308363160344959,-2.1619030165836213,-4.7400060768902295
1763697774814942500,6.5719423828125,8.31800251082778,-2.1604741528242823,-4.723723927392065
1763697774824965400,6.58196533203125,8.323356731337308,-2.176166373605281,-4.70705979283899
1763697774834987500,6.591987548828125,8.3241166097939,-2.210453258610517,-4.689708260543644
1763697774845010200,6.60201025390625,8.32023947609961,-2.2623535417176783,-4.671804355062544
1763697774855033300,6.612033447265625,8.312541907334328,-2.328448792785406,-4.65299444065243
1763697774865055200,6.62205517578125,8.302191778233647,-2.4039093997001646,-4.633057275778055
1763697774875078400,6.632078369140625,8.29036222423017,-2.4842241686478257,-4.611822764569521
1763697774885100300,6.642100341796875,8.277499820047616,-2.5661630316659805,-4.590009284429252
1763697774895123500,6.65212353515625,8.262661731877923,-2.6488369309604165,-4.569733389119803
1763697774905146400,6.662146484375,8.243978074195981,-2.734917131567001,-4.552739584220945
1763697774915168300,6.672168212890625,8.219411203694342,-2.82952112262994,-4.539325391374528
1763697774925191400,6.68219140625,8.187069023016095,-2.937535799407959,-4.52914740397036
1763697774935214300,6.69221435546875,8.145273369815945,-3.0613480570375917,-4.522505481737852
1763697774945236500,6.702236572265625,8.094099647417664,-3.200384187284112,-4.518127120523155
1763697774955259400,6.71225927734375,8.034085031437874,-3.3520357612147924,-4.515275530484319
1763697774965281500,6.722281494140625,7.966632374411821,-3.513136131492257,-4.512319895549118
1763697774975304400,6.732304443359375,7.893845370620489,-3.6799247765392065,-4.507299144777655
1763697774985327400,6.742327392578125,7.818630262899398,-3.8480923087239263,-4.497954101066291
1763697774995349500,6.752349609375,7.74490276338756,-4.013121250621975,-4.481263955289125
1763697775005372200,6.7623720703125,7.67623430083096,-4.170978693455457,-4.455193402226269
1763697775015395300,6.772395263671875,7.615245871382951,-4.318036509855092,-4.419612385757267
1763697775025417200,6.782417236328125,7.564023633667826,-4.451621973480284,-4.374813166826963
1763697775035440400,6.7924404296875,7.523729617202282,-4.5710593770265575,-4.320798083522916
1763697775045463300,6.80246337890625,7.491942732319235,-4.679271622203291,-4.259765522672236
1763697775055485400,6.8124853515625,7.463257905104756,-4.782764729903638,-4.19467930251658
1763697775065508400,6.82250830078125,7.430864286500215,-4.889451957470178,-4.128668953253329
1763697775075530200,6.8325302734375,7.38892951709032,-5.006077518466115,-4.063655213811994
1763697775085553400,6.842553466796875,7.333521518123149,-5.13680467005074,-4.000385687689483
1763697775095576300,6.852576416015625,7.263035777011513,-5.281719336941838,-3.9398146068707107
1763697775105598500,6.862598388671875,7.178840074977279,-5.437366994771361,-3.881970028406381
1763697775115621400,6.872621337890625,7.08439185899794,-5.598725431463122,-3.8257097965240474
1763697775125644500,6.88264453125,6.983754725250601,-5.760605846202373,-3.7700092443510886
1763697775135666400,6.89266650390625,6.881717077055573,-5.918295238992571,-3.7129686757460236
1763697775145689600,6.902689697265625,6.782462922099232,-6.068232702481747,-3.6530981444120405
1763697775155712300,6.912712158203125,6.688939419749379,-6.207659293350577,-3.590742810525
1763697775165734400,6.922734375,6.602452976429462,-6.335176835238933,-3.527540796680748
1763697775175757300,6.93275732421875,6.522129147392511,-6.451534685209393,-3.465533545579016
1763697775185780200,6.9427802734375,6.445876513317227,-6.558819586408138,-3.4063109567597505
1763697775195802400,6.95280224609375,6.371448756581544,-6.659700465783477,-3.3501348960295316
1763697775205825300,6.9628251953125,6.297089388906955,-6.75609630869925,-3.297302592769265
1763697775215847200,6.97284716796875,6.222538298052549,-6.84932755010426,-3.2460914609700438
1763697775225870300,6.982870361328125,6.148705000078678,-6.9403826165139675,-3.1929452694550156
1763697775235893500,6.9928935546875,6.076582013154029,-7.029900390353799,-3.134650901396572
1763697775245915400,7.002915283203125,6.0059331904351705,-7.118523845702409,-3.070143357911706
1763697775255938300,7.012938232421875,5.935912728747725,-7.206647534835338,-2.9999267891302703
1763697775265961500,7.02296142578125,5.86616991495788,-7.294750765702128,-2.9231913399741054
1763697775275983400,7.0329833984375,5.795640919226408,-7.383587571540475,-2.8396444572374224
1763697775286006500,7.043006591796875,5.721162893608212,-7.474092602851987,-2.7525685235917567
1763697775296029400,7.053029541015625,5.640470815780758,-7.565917484590411,-2.666903041265905
1763697775306051300,7.06305126953125,5.55402411994934,-7.65743549233675,-2.5859008745759726
1763697775316074500,7.073074462890625,5.464719696599245,-7.746136104574799,-2.510895317952335
1763697775326097200,7.08309716796875,5.375049362546205,-7.830636342513561,-2.441383244178444
1763697775336119300,7.093119384765625,5.287461095464229,-7.910387340098619,-2.3746378586389123
1763697775346142200,7.10314208984375,5.2036277970016,-7.985280376258492,-2.3082351490572095
1763697775356165400,7.113165283203125,5.12401065492928,-8.055583746540545,-2.2410895121537147
1763697775366187300,7.123187255859375,5.047231951153278,-8.12247292446494,-2.172850673186034
1763697775376210400,7.13321044921875,4.971203188961744,-8.187122214508056,-2.104411635471135
1763697775386233300,7.1432333984375,4.894423316141963,-8.25029967843294,-2.0365550738193092
1763697775396255200,7.153255126953125,4.81573351804763,-8.312552428728342,-1.9699153406113386
1763697775406278400,7.1632783203125,4.734404311360419,-8.374012567341326,-1.9057078029863534
1763697775416301300,7.17330126953125,4.650977255611122,-8.433964054957032,-1.8458171056471764
1763697775426323500,7.183323486328125,4.56696158631891,-8.491133218377827,-1.7927341886267065
1763697775436346400,7.193346435546875,4.4847918371543285,-8.543911453363298,-1.748888617159426
1763697775446369500,7.20336962890625,4.408121854449808,-8.58967601019442,-1.7193895509526131
1763697775456391400,7.213391357421875,4.342346775247156,-8.626075357308983,-1.7044703603707252
1763697775466414300,7.223414306640625,4.291212215815484,-8.651873815432191,-1.703217437700182
1763697775476437200,7.233437255859375,4.257982438647747,-8.665424786400795,-1.7176669649437069
1763697775486459100,7.243459228515625,4.244785395683348,-8.666164791113138,-1.7463585141599178
1763697775496482300,7.253482421875,4.250741089217365,-8.654864813941717,-1.7874308215215802
1763697775506505200,7.263505126953125,4.272122023159265,-8.633325182306766,-1.8398557130247353
1763697775516527400,7.27352734375,4.303122141578793,-8.604544493502377,-1.9014076215744018
1763697775526550300,7.28355029296875,4.337959646204114,-8.572078394183515,-1.967733466527611
1763697775536573400,7.293573486328125,4.3722351330325,-8.538917882859707,-2.034901023001969
1763697775546595300,7.30359521484375,4.403130914294719,-8.507115215885639,-2.1004288494452834
1763697775556618500,7.313618408203125,4.429774883331358,-8.477565880796313,-2.162948872374743
1763697775566641400,7.323641357421875,4.454248230330646,-8.44927794394493,-2.22256016825065
1763697775576663300,7.333663330078125,4.480858004836738,-8.41964502222538,-2.280763058633357
1763697775586686500,7.3436865234375,4.514921602480113,-8.385369243136047,-2.339116317272186
1763697775596709400,7.35370947265625,4.561500690564513,-8.342986729958653,-2.3995136489592492
1763697775606732300,7.363732177734375,4.623953931868076,-8.289735032242536,-2.463681146834791
1763697775616754200,7.373754150390625,4.703085628511011,-8.224327617308496,-2.532157593950629
1763697775626777300,7.38377734375,4.796588088072836,-8.147206968227028,-2.6050211701095103
1763697775636800300,7.39380029296875,4.899053606291115,-8.06094848844409,-2.6815610966935752
1763697775646822400,7.403822509765625,5.004149180752039,-7.9687103497296565,-2.7619758188843724
1763697775656845300,7.41384521484375,5.107250658786296,-7.872868633565306,-2.846810403344035
1763697775666868500,7.423868408203125,5.20588405149579,-7.776192804664373,-2.932570870476961
1763697775676890400,7.433890380859375,5.300656092602014,-7.67897453944981,-3.0177412627622484
1763697775686913300,7.443913330078125,5.395159838160872,-7.578938294205069,-3.1019872336789964
1763697775696936400,7.4539365234375,5.492958533611893,-7.4734040360659355,-3.18528131069839
1763697775706958300,7.463958251953125,5.59706889642775,-7.359455000802874,-3.268277281554043
1763697775716981500,7.4739814453125,5.709009514477849,-7.234598202556371,-3.352340589380264
1763697775727004400,7.48400439453125,5.828911905187368,-7.097289334493875,-3.4384093918099996
1763697775737027300,7.49402734375,5.955923835641145,-6.946826970347762,-3.5268893470346927
1763697775747049200,7.50404931640625,6.088557697629928,-6.78310122000277,-3.617924831961095
1763697775757072400,7.514072265625,6.224618026936054,-6.606029665872454,-3.712800041180849
1763697775767095300,7.52409521484375,6.3607029061615465,-6.415406556251645,-3.8150235673367976
1763697775777117200,7.5341171875,6.493121664094924,-6.212516085731983,-3.92611721316874
1763697775787140600,7.544140625,6.61769380018115,-6.000125965461135,-4.046604125767946
1763697775797163800,7.554163818359375,6.730557378295064,-5.781709424507618,-4.176340805010497
1763697775807185700,7.564185546875,6.8289464408546685,-5.560349231317639,-4.314903764787316
1763697775817208600,7.57420849609375,6.912407983395457,-5.339451394942403,-4.458615485629439
1763697775827231700,7.584231689453125,6.981774365088343,-5.12318881715238,-4.6019729862064125
1763697775837254400,7.59425439453125,7.037242569810152,-4.911308399969339,-4.746225974318385
1763697775847276800,7.60427685546875,7.082450661802292,-4.7041126334711905,-4.886778354346752
1763697775857299500,7.614299560546875,7.121701306694746,-4.501448957444727,-5.018837046796083
1763697775867322600,7.624322509765625,7.156648701435327,-4.302888332822919,-5.141781289419532
1763697775877344500,7.634344482421875,7.188568857309222,-4.1076033688709135,-5.255708112850785
1763697775887367700,7.64436767578125,7.218093057957291,-3.914867212618887,-5.361280949434637
1763697775897390600,7.654390625,7.246360536542534,-3.72354004638195,-5.458561758491396
1763697775907412500,7.66441259765625,7.275310736694932,-3.5361993194326757,-5.543963329184055
1763697775917435600,7.674435546875,7.302983756518364,-3.3553710431173442,-5.619456669324636
1763697775927458600,7.68445849609375,7.327407419157028,-3.182960758796334,-5.687551715907454
1763697775937481700,7.694481689453125,7.348752989524603,-3.0211370426803827,-5.747950947290659
1763697775947503600,7.704503662109375,7.367826523306966,-2.872253179897368,-5.79962735851407
1763697775957526800,7.71452685546875,7.385733935919403,-2.7372379757300016,-5.841989997947215
1763697775967549400,7.724549560546875,7.404035316285491,-2.615788063317537,-5.874376602289081
1763697775977571800,7.73457177734375,7.424027133956551,-2.5057781210690737,-5.897056636130809
1763697775987594500,7.744594482421875,7.445936767947673,-2.4046983581207693,-5.911500756546855
1763697775997617700,7.75461767578125,7.469754281386733,-2.3112932214535773,-5.918706157881021
1763697776007640600,7.764640625,7.494835531151295,-2.225551166760176,-5.919860588613152
1763697776017662500,7.774662353515625,7.5195912022233005,-2.148899304234236,-5.916786587995291
1763697776027685600,7.784685546875,7.542413274884224,-2.0839855180360374,-5.910955397623777
1763697776037708500,7.79470849609375,7.561867332416773,-2.0341995967343447,-5.903438446122408
1763697776047730700,7.804730712890625,7.57710815616846,-2.0022247880637645,-5.894821424424648
1763697776057753600,7.814753662109375,7.588619145742058,-1.9902873897716402,-5.884046347910165
1763697776067776800,7.82477685546875,7.596476288983226,-1.9987514128647743,-5.871023784729838
1763697776077799700,7.834799560546875,7.600894689947366,-2.0260691895097493,-5.855922077187896
1763697776087821800,7.84482177734375,7.602605000996589,-2.069043969491869,-5.838650039869546
1763697776097844500,7.854844482421875,7.602691510236263,-2.1242324804894626,-5.818685110205411
1763697776107867600,7.86486767578125,7.602666375795006,-2.188281174290925,-5.794935401305556
1763697776117889500,7.8748896484375,7.603632005956769,-2.2578186747670173,-5.766924527829885
1763697776127912400,7.884912353515625,7.605656789782643,-2.3320872954182326,-5.734608650636672
1763697776137935600,7.894935546875,7.6075032944321626,-2.412935586720705,-5.698598010578751
1763697776147958500,7.90495849609375,7.607197589483857,-2.505088969761133,-5.659104204580188
1763697776157980700,7.914980712890625,7.602131538265943,-2.6138889516979456,-5.616544581270218
1763697776168003600,7.925003662109375,7.590471495610475,-2.7436367368564007,-5.570241095256805
1763697776178026800,7.93502685546875,7.57127287414372,-2.895416028819978,-5.519309949442744
1763697776188049700,7.945049560546875,7.544840794292092,-3.064866878813505,-5.463731270083785
1763697776198071800,7.95507177734375,7.512741774719953,-3.2435371003121136,-5.404495237261057
1763697776208094700,7.9650947265625,7.479899243304133,-3.42157662269175,-5.339878095921874
1763697776218117600,7.97511767578125,7.452524329644441,-3.5899160043120384,-5.2671401919692755
1763697776228139500,7.985139404296875,7.435394331145286,-3.7423131359130144,-5.184629666543007
1763697776238162400,7.995162353515625,7.432232067722082,-3.8763054267734285,-5.0898488576084375
1763697776248185600,8.005185546875,7.443453718960285,-3.9946053507223724,-4.980813897871971
1763697776258208500,8.01520849609375,7.464845466557144,-4.104603894793987,-4.857849196982383
1763697776268230700,8.025230712890625,7.488852949610352,-4.216314211219549,-4.7233635696470735
1763697776278253600,8.035253662109374,7.506767961007356,-4.338782068502903,-4.581898458687961
1763697776288276700,8.04527685546875,7.5119251976400605,-4.475813580928743,-4.439420663554966
1763697776298299600,8.055299560546874,7.500636326384544,-4.626033660751581,-4.302401133827865
1763697776308321800,8.06532177734375,7.472387552499771,-4.784680792658031,-4.176199642974138
1763697776318344700,8.0753447265625,7.429541513463854,-4.944792151898145,-4.064644517110288
1763697776328367600,8.08536767578125,7.375224816864728,-5.0997307846754785,-3.9710441501319407
1763697776338389800,8.0953896484375,7.312516139495372,-5.244225180327892,-3.8981525169223543
1763697776348412400,8.105412353515625,7.2452341628611086,-5.375083849337697,-3.8451843123227354
1763697776358435600,8.115435546875,7.178117021399736,-5.4906748065888875,-3.8075600995883345
1763697776368458500,8.12545849609375,7.115507712751627,-5.5913657163500785,-3.7784339583471414
1763697776378480600,8.135480712890624,7.060560317033529,-5.678641848742962,-3.751254274998605
1763697776388503600,8.145503662109375,7.014742568710446,-5.754990928930044,-3.7207320032238957
1763697776398526700,8.155526611328124,6.977940486013889,-5.823658806964755,-3.6828970703482624
1763697776408549600,8.165549560546875,6.946994143608212,-5.888540152198076,-3.637960196512937
1763697776418571800,8.17557177734375,6.916676162233948,-5.953212238594889,-3.5901594576790927
1763697776428594700,8.1855947265625,6.882389861750602,-6.020305999180674,-3.543869415669143
1763697776438617600,8.19561767578125,6.842160727214813,-6.09051233882904,-3.5015549992918964
1763697776448640500,8.205640625,6.795677208459377,-6.163568807211518,-3.4640409689337015
1763697776458662400,8.215662353515626,6.744581227472424,-6.238288824892043,-3.429978540334105
1763697776468685600,8.225685546875,6.691319592884183,-6.313668767786026,-3.3962060345917937
1763697776478708500,8.23570849609375,6.637565206342935,-6.389053386855125,-3.3605218500092624
1763697776488731600,8.245731689453125,6.5835384326010935,-6.465246984219551,-3.320841289266944
1763697776498753500,8.25575341796875,6.528403405356407,-6.544223490300774,-3.2746734123319388
1763697776508776700,8.265776611328125,6.470076304072141,-6.627864481061697,-3.221786748535931
1763697776518799600,8.275799560546876,6.405468515083194,-6.7178732532888645,-3.16394567720294
1763697776528822800,8.28582275390625,6.332525443947315,-6.814620978382229,-3.103294809146225
1763697776538844700,8.2958447265625,6.251031986609101,-6.916905879336595,-3.0416113831713796
1763697776548867600,8.30586767578125,6.16233312793672,-7.022278224912285,-2.980546089094877
1763697776558890500,8.315890380859376,6.06887918369174,-7.128147998616099,-2.920376867075264
1763697776568913700,8.32591357421875,5.974049859440326,-7.232330257624388,-2.8591096206858753
1763697776578935600,8.335935546875,5.879255021980405,-7.333723762696981,-2.796647319293022
1763697776588958500,8.34595849609375,5.784279567256569,-7.432320330527425,-2.733697234383225
1763697776598981600,8.355981689453126,5.688236191040277,-7.528705652049183,-2.670759424433112
1763697776609004800,8.3660048828125,5.590639740163088,-7.623487630027532,-2.6072157575443384
1763697776619026700,8.376026611328125,5.491297906923294,-7.716868509036302,-2.5428268720030784
1763697776629049600,8.386049560546875,5.389764116597175,-7.8088365986377,-2.4784879630833863
1763697776639072800,8.39607275390625,5.28617397826314,-7.8990476154386995,-2.414912878143042
1763697776649095400,8.406095458984375,5.181633407336474,-7.9865587256312365,-2.35285857302919
1763697776659117800,8.416117919921875,5.077941562193632,-8.070203223523498,-2.2927514564603566
1763697776669140500,8.426140380859374,4.9772909844428295,-8.148511036562919,-2.235782491786778
1763697776679163600,8.43616357421875,4.881802027238905,-8.219688267070055,-2.1852045433245597
1763697776689186600,8.4461865234375,4.7947874683916565,-8.281454110631346,-2.1442750054344533
1763697776699208700,8.456208740234375,4.720745203842222,-8.331417872717976,-2.1148114489324388
1763697776709231600,8.466231689453124,4.663632154522836,-8.367979716917873,-2.0971032121539115
1763697776719254800,8.4762548828125,4.625454107297957,-8.39073807669282,-2.0907110268987714
1763697776729277700,8.486277587890624,4.605535647124052,-8.400581425315142,-2.095151785825193
1763697776739299600,8.496299560546875,4.600644367951155,-8.399364450740814,-2.110721549270302
1763697776749322800,8.50632275390625,4.607342112024128,-8.389154022371768,-2.1365600471429524
1763697776759345400,8.516345458984375,4.623129463742673,-8.37158212532401,-2.1711017836920914
1763697776769368600,8.52636865234375,4.646116079315543,-8.347816049811243,-2.2131363602146505
1763697776779390500,8.536390380859375,4.674429150608182,-8.318929562544822,-2.2617503151275216
1763697776789413000,8.5464130859375,4.706666701868176,-8.285582004216312,-2.316638089612871
1763697776799436000,8.55643603515625,4.74384697022736,-8.247071364036202,-2.3774181370072065
1763697776809459200,8.566459228515624,4.789314297677576,-8.201320835730433,-2.4436031121850013
1763697776819481000,8.576481201171875,4.847428048472106,-8.145407809850573,-2.5149896015286446
1763697776829504300,8.586504150390626,4.922165309548378,-8.0766697891891,-2.590384741991758
1763697776839527200,8.596527099609375,5.015172679069638,-7.993302354672551,-2.669375568859279
1763697776849550300,8.60655029296875,5.125138782176375,-7.895462158167362,-2.7504592763528226
1763697776859573200,8.6165732421875,5.247780826982855,-7.7852505558669565,-2.832149425306916
1763697776869595100,8.62659521484375,5.376749736723304,-7.666372247508168,-2.9133643579646944
1763697776879618000,8.6366181640625,5.506098001170158,-7.542882645961642,-2.993021247525513
1763697776889641000,8.646640869140626,5.632153069290519,-7.417819511488079,-3.0700483731046315
1763697776899664100,8.6566640625,5.754157400715351,-7.293201782694458,-3.1415377383008596
1763697776909686000,8.66668603515625,5.873592173913121,-7.169526887708902,-3.2045553354889154
1763697776919709200,8.676709228515625,5.99328939743936,-7.045438735747337,-3.2577079567447305
1763697776929732000,8.686732177734376,6.1159571612089865,-6.918423882684111,-3.3016450058877465
1763697776939755300,8.69675537109375,6.243355460631847,-6.78559946655929,-3.3386414421126243
1763697776949777200,8.706777099609376,6.376010949930548,-6.6445660250157115,-3.371438673081994
1763697776959800300,8.71680029296875,6.512275861898064,-6.494221734291314,-3.4037820228040214
1763697776969823200,8.7268232421875,6.648191814297437,-6.335469680705666,-3.44002237996459
1763697776979846100,8.73684619140625,6.778723151049017,-6.170685945740342,-3.484528461167216
1763697776989869000,8.746869140625,6.900560309213399,-6.002434826925397,-3.5388460345491763
1763697776999891000,8.756890869140625,7.012638289907574,-5.832462291145324,-3.6021757664263245
1763697777009914000,8.7669140625,7.115002101317048,-5.661725785255432,-3.673144614879787
1763697777019937300,8.776937255859375,7.207522564104199,-5.491546913248301,-3.7503225471064447
1763697777029960200,8.786960205078126,7.290154085561633,-5.32343549516499,-3.8321114802598952
1763697777039983400,8.7969833984375,7.362982005885243,-5.158720733782649,-3.917204423394799
1763697777050005200,8.807005126953126,7.426216168433427,-4.998128020766377,-4.0050487110644575
1763697777060028200,8.817028076171875,7.480024915510415,-4.842387716217338,-4.095228163683414
1763697777070051000,8.827051025390626,7.525141822087765,-4.691400743675231,-4.187288607743382
1763697777080074000,8.837073974609375,7.56341982255578,-4.543563175074756,-4.280315266487002
1763697777090096000,8.84709619140625,7.596452323585749,-4.397261437739432,-4.373601452949643
1763697777100119000,8.857119140625,7.625792984360456,-4.252190118981898,-4.4650364585876465
1763697777110142200,8.86714208984375,7.652654103279113,-4.108866228413581,-4.552416635876893
1763697777120165000,8.8771650390625,7.678373650947213,-3.9674952254787086,-4.6337832519650455
1763697777130188300,8.887188232421876,7.704312394323945,-3.8289083003044126,-4.7067415206700565
1763697777140210200,8.897210205078125,7.731319059193134,-3.694250239011645,-4.769654780700803
1763697777150233300,8.9072333984375,7.759810409662127,-3.5647532137438653,-4.821645080178976
1763697777160256300,8.91725634765625,7.789535101318359,-3.441759871281683,-4.862902680979669
1763697777170279200,8.927279052734375,7.820203211304545,-3.325887759001553,-4.894209088869393
1763697777180302000,8.937302001953125,7.85128340922296,-3.2181963228285313,-4.916395493975282
1763697777190324000,8.947323974609375,7.881460520821809,-3.119524936196208,-4.931686002087593
1763697777200347100,8.95734716796875,7.909357997050881,-3.0305846699833867,-4.942468092864751
1763697777210370000,8.9673701171875,7.934050539758801,-2.9519898566961285,-4.95045324639976
1763697777220393200,8.977393310546875,7.9549828531503675,-2.883901824375987,-4.956989954692125
1763697777230416100,8.987416015625,7.972270672559738,-2.825196829690039,-4.963018128940463
1763697777240438300,8.997438232421874,7.985960759738087,-2.774117507576942,-4.969817287561297
1763697777250461200,9.007461181640625,7.99625185212791,-2.7291815105244517,-4.978143217357993
1763697777260484000,9.017484130859375,8.00326494576037,-2.6898332504764197,-4.988278826925158
1763697777270507000,9.027507080078125,8.006648158457875,-2.6562352245181797,-5.000837864246964
1763697777280530200,9.0375302734375,8.00591224539876,-2.629559691299498,-5.0160909629583355
1763697777290552000,9.047552001953125,8.0005597784549,-2.6124942824691533,-5.033517898577451
1763697777300575200,9.0575751953125,7.989397748449444,-2.6086782313123345,-5.053187060165405
1763697777310598100,9.06759814453125,7.9717346659868955,-2.6209680963039395,-5.074677591961622
1763697777320621300,9.077621337890625,7.9480527616262435,-2.650281869071722,-5.096552154639363
1763697777330644200,9.087644287109375,7.919754303380847,-2.696004048065841,-5.116585473364592
1763697777340666000,9.097666015625,7.887022831124066,-2.755355816222727,-5.135492418408393
1763697777350689300,9.107689208984375,7.852092972040176,-2.8239105892717835,-5.151752063813805
1763697777360712000,9.1177119140625,7.817692105266452,-2.898172926312685,-5.162815894141793
1763697777370735000,9.127735107421875,7.784213029512762,-2.9762299794614315,-5.168991367906331
1763697777380758000,9.137758056640624,7.749736759415269,-3.0600895814090965,-5.17182980620265
1763697777390780200,9.1477802734375,7.709511132010817,-3.1559029482617973,-5.174369553813338
1763697777400803000,9.157802978515624,7.657291115429997,-3.270353795567155,-5.18083670400083
1763697777410826200,9.167826171875,7.588978626704216,-3.4074504821836946,-5.192983068868518
1763697777420849200,9.17784912109375,7.503171982342004,-3.5678128935754296,-5.209942971497774
1763697777430872300,9.187872314453125,7.401118552055954,-3.747904672309756,-5.22943969912827
1763697777440895000,9.19789501953125,7.288751817548275,-3.941150531649589,-5.245170936745405
1763697777450917000,9.207917236328125,7.1750494505226605,-4.138937833811342,-5.249594598406553
1763697777460940000,9.21793994140625,7.069428098621964,-4.331187960112095,-5.237783749103546
1763697777470963200,9.227963134765625,6.980673710370064,-4.508882030054926,-5.206780123552679
1763697777480986000,9.237986083984374,6.915798794877529,-4.665848953789473,-5.154800929990411
1763697777491009300,9.24800927734375,6.876692526891827,-4.799401976449787,-5.084015913671255
1763697777501031200,9.25803125,6.8602879200577735,-4.9108308455854655,-4.999057410570979
1763697777511054300,9.268054443359375,6.860213685777783,-5.007144855436683,-4.902689332444965
1763697777521077200,9.2780771484375,6.867113382163644,-5.096683087542653,-4.799682546956837
1763697777531100200,9.28810009765625,6.872811301544308,-5.186223657736182,-4.694458085419237
1763697777541123000,9.298123046875,6.872554111912846,-5.280190227678418,-4.588896939273178
1763697777551146200,9.308146240234375,6.863387639638781,-5.38003884139657,-4.485472805155814
1763697777561168100,9.318168212890624,6.843895003661513,-5.486057668182253,-4.385733789291978
1763697777571191000,9.32819091796875,6.812578658899665,-5.597613670828938,-4.292536742417514
1763697777581214200,9.338214111328124,6.771209706678986,-5.716591347908973,-4.200200696286559
1763697777591237000,9.348237060546875,6.724453216201066,-5.8434401967555285,-4.099552164362371
1763697777601260300,9.35826025390625,6.67450056003034,-5.976947334447503,-3.987169647763669
1763697777611283000,9.368282958984375,6.622602030488848,-6.114678811836242,-3.86293098141551
1763697777621305300,9.378305419921874,6.570719867560267,-6.25312165236473,-3.727533499932289
1763697777631328000,9.388327880859375,6.519116521573066,-6.388457759049534,-3.5859617137283086
1763697777641351200,9.39835107421875,6.466873124116659,-6.517536558905244,-3.445527407121658
1763697777651374000,9.4083740234375,6.412910063260793,-6.639059244292974,-3.3117765238016843
1763697777661397200,9.418397216796874,6.356355816867947,-6.753985015633702,-3.186032421326637
1763697777671420200,9.428420166015625,6.295896964251995,-6.864618642738461,-3.0674209472104907
1763697777681442300,9.4384423828125,6.230325298666954,-6.972904245412349,-2.955002774776518
1763697777691465200,9.44846533203125,6.159284846282005,-7.080163427647948,-2.8469083107605573
1763697777701488400,9.45848828125,6.082811847454309,-7.186943301934003,-2.7418320255219935
1763697777711511000,9.468510986328125,6.001487316942215,-7.293191845822334,-2.638537947525084
1763697777721534200,9.4785341796875,5.916642211088538,-7.398326875510811,-2.5354466986238955
1763697777731557000,9.48855712890625,5.83047491672039,-7.5014265999794,-2.4299258844882248
1763697777741580300,9.498580322265624,5.74451571214497,-7.601874348634481,-2.3200046434365214
1763697777751602200,9.508602294921875,5.658294057241082,-7.699787025853991,-2.206211967778951
1763697777761625000,9.518625,5.571206725418567,-7.7951845053821796,-2.0897683392211794
1763697777771648300,9.528648193359375,5.483589232242107,-7.887378804954886,-1.9722813390903173
1763697777781671200,9.538671142578124,5.395838468074798,-7.975504832175374,-1.856514294619858
1763697777791694300,9.5486943359375,5.308040357634425,-8.058961698541045,-1.7459193920902907
1763697777801717200,9.55871728515625,5.219757094025612,-8.137968015238641,-1.6425602860331534
1763697777811739400,9.568739501953125,5.130118908676505,-8.213136361208557,-1.5481151387937366
1763697777821762300,9.57876220703125,5.038103472802042,-8.28493201587498,-1.4655378317415713
1763697777831785500,9.588785400390625,4.943542444097996,-8.353577097555995,-1.396253283113241
1763697777841808400,9.598808349609374,4.847672963143885,-8.418687575370074,-1.3402040636330843
1763697777851831600,9.60883154296875,4.752783725398778,-8.479388420048355,-1.2966961996875703
1763697777861854200,9.618854248046874,4.661713169158995,-8.534544490081071,-1.2650599753215908
1763697777871877400,9.62887744140625,4.577988884028792,-8.582921275237203,-1.243327597593516
1763697777881899300,9.638899169921874,4.504793299436569,-8.623374281656742,-1.2307083545170723
1763697777891922400,9.64892236328125,4.444406343013048,-8.654993408757448,-1.2283031930714845
1763697777901945300,9.6589453125,4.39887734850347,-8.67688199996054,-1.2377397144585847
1763697777911968500,9.668968505859375,4.369586372089386,-8.68831875525415,-1.261038756981492
1763697777921991400,9.678991455078124,4.357119396965206,-8.688962313854693,-1.2991617130182682
1763697777932014600,9.6890146484375,4.361098529729247,-8.679059343999624,-1.350970226188749
1763697777942037200,9.699037353515624,4.379436734974384,-8.659891117671132,-1.413224145527929
1763697777952059400,9.709059326171875,4.408599408833682,-8.633537948274611,-1.482107273748517
1763697777962082300,9.719082275390624,4.444138339726627,-8.602744166082143,-1.5533205984823404
1763697777972105200,9.729105224609375,4.482380684359371,-8.569874746659398,-1.6235452044397591
1763697777982128400,9.73912841796875,4.520948315423727,-8.536295717662572,-1.692058184173703
1763697777992151300,9.7491513671875,4.559045114105939,-8.50237474336028,-1.7592950064919888
1763697778002174500,9.759174560546874,4.596142088095844,-8.468034082341193,-1.8270881475187837
1763697778012197400,9.769197265625,4.63060579097271,-8.433415188902616,-1.898782826028764
1763697778022219500,9.779219482421874,4.661414478473365,-8.3984923440814,-1.9765952567666767
1763697778032242200,9.7892421875,4.689577327640355,-8.362213992998003,-2.061945535663515
1763697778042265300,9.799265380859374,4.718842585091292,-8.32244020101428,-2.154045142690092
1763697778052288300,9.809288330078125,4.754642505007982,-8.276423130726814,-2.2504669968299567
1763697778062311400,9.8193115234375,4.801739187225699,-8.22148917901218,-2.3496369806341826
1763697778072334300,9.829334228515625,4.862548752975464,-8.155899393248557,-2.4509796323023734
1763697778082357500,9.839357421875,4.936761990177631,-8.07930013769269,-2.5541505223110317
1763697778092379400,9.84937939453125,5.0217894668608904,-7.992475256198644,-2.6593907659396527
1763697778102402600,9.859402587890624,5.113626623558998,-7.897855775305628,-2.764973831656575
1763697778112425200,9.86942529296875,5.208838225126266,-7.798719109249115,-2.8667709490939974
1763697778122448400,9.879448486328124,5.307666263625025,-7.696262943381071,-2.9608441942811012
1763697778132471300,9.88947119140625,5.412268793871998,-7.590701212713122,-3.04285933740586
1763697778142494500,9.899494384765624,5.52545268998146,-7.481037891945243,-3.1102801379889247
1763697778152517400,9.909517333984375,5.649294758227467,-7.365325354140997,-3.163515761353075
1763697778162540500,9.91954052734375,5.7841533105283975,-7.241361120820045,-3.2057202876150606
1763697778172562400,9.9295625,5.927960308438539,-7.1076342028975485,-3.24209829968065
1763697778182585600,9.939585693359374,6.076943832203746,-6.9637348505288355,-3.2783436252772806
1763697778192608300,9.949608154296875,6.226531751602888,-6.8108765311568975,-3.3185292129322885
1763697778202631400,9.95963134765625,6.37240795700252,-6.6511623545408245,-3.3652404029637575
1763697778212654300,9.969654296875,6.511762067157029,-6.486102725243568,-3.4202062111213802
1763697778222677500,9.979677490234375,6.643533759358525,-6.316692499521374,-3.483281091454625
1763697778232700400,9.989700439453125,6.767465259453654,-6.143043321055173,-3.554548630593717
1763697778242723600,9.9997236328125,6.8842550711005925,-5.964433889833092,-3.6335850501686333
1763697778252745500,10.009745361328125,6.994801019921899,-5.780323523107171,-3.7190056178227064
1763697778262768400,10.019768310546874,7.099439206004142,-5.590600577196478,-3.8096632093474265
1763697778272791300,10.029791259765625,7.197664017912745,-5.39592731540203,-3.9048683811739084
1763697778282814200,10.039814208984374,7.288293552386761,-5.197800113761425,-4.004252884511649
1763697778292837400,10.04983740234375,7.369744339627027,-4.998677471342683,-4.1073689755931495
1763697778302860300,10.0598603515625,7.44116823837161,-4.80084311516881,-4.213229396946728
1763697778312883500,10.069883544921876,7.502398075360059,-4.606888230776787,-4.319836837275326
1763697778322906400,10.07990625,7.554324077430367,-4.4177147354424,-4.425648743312061
1763697778332929300,10.08992919921875,7.598281877100467,-4.2338042752027505,-4.52895188139826
1763697778342951400,10.099951416015625,7.635177483299374,-4.0556615847095845,-4.628829721210897
1763697778352974300,10.109974365234375,7.666044330728053,-3.8832960163131354,-4.724633735713362
1763697778362997200,10.119997314453125,7.691958524185418,-3.7162338150218126,-4.815990123157203
1763697778373020400,10.1300205078125,7.713594601932168,-3.5537624486520882,-4.903224754495919
1763697778383043300,10.140043212890625,7.732427897217869,-3.395629403747618,-4.984941791456937
1763697778393066500,10.15006640625,7.749334023833274,-3.2420714116737246,-5.0603538830548525
1763697778403089400,10.16008935546875,7.765159369474649,-3.0931542311429974,-5.128848158088326
1763697778413112300,10.1701123046875,7.779215367355942,-2.9486460992261767,-5.192271121206879
1763697778423135200,10.18013525390625,7.787965075522661,-2.805286260561645,-5.258170703572034
1763697778433157400,10.190157470703125,7.791810645034909,-2.6607620542928574,-5.327139610379934
1763697778443180300,10.20018017578125,7.789827946785092,-2.5165187107920644,-5.39963902940154
1763697778453203500,10.210203369140626,7.780197948652505,-2.3771241224966944,-5.476146515020727
1763697778463226400,10.220226318359375,7.761276975083351,-2.250644545353949,-5.5558589341610665
1763697778473249500,10.23024951171875,7.732778610351681,-2.146336321878433,-5.63628973070383
1763697778483272200,10.240272216796875,7.695948470604419,-2.0729545670643446,-5.713634251669049
1763697778493295400,10.25029541015625,7.652075426608324,-2.036584007652849,-5.78519259044826
1763697778503318300,10.260318359375,7.602602662909031,-2.04055466484949,-5.848671667668223
1763697778513341400,10.270341552734376,7.549848393321037,-2.0865566836982965,-5.900546816334128
1763697778523364400,10.2803642578125,7.494834362107515,-2.172427333207428,-5.939562483426928
1763697778533386500,10.290386474609376,7.437718974700569,-2.2924949974812567,-5.966169919845462
1763697778543409400,10.300409423828125,7.379852476665377,-2.4401341209001837,-5.979456686919927
1763697778553432600,10.3104326171875,7.323070266735553,-2.607882112498581,-5.9784589080542325
1763697778563455200,10.320455322265625,7.2688500162482255,-2.786736458392441,-5.963916587960719
1763697778573478400,10.330478515625,7.2217790529936545,-2.9677269395321604,-5.933707912179828
1763697778583501300,10.340501220703125,7.1864604868531226,-3.1432845819681883,-5.885994559368491
1763697778593524500,10.3505244140625,7.166058334815502,-3.3093151021242138,-5.819486489716172
1763697778603547400,10.36054736328125,7.160144726857543,-3.46699894195646,-5.734338017001748
1763697778613570600,10.370570556640626,7.163894434779882,-3.6221576472252606,-5.632848065817356
1763697778623593200,10.38059326171875,7.169376665583252,-3.783866212528944,-5.51840335599184
1763697778633615400,10.390615478515626,7.168648351308703,-3.962336235280335,-5.392658084473013
1763697778643638300,10.40063818359375,7.153557165160775,-4.164226004324854,-5.258919476112723
1763697778653661200,10.4106611328125,7.1195064269989725,-4.390947140026093,-5.118847573077678
1763697778663684400,10.420684326171875,7.066003384870291,-4.63835333635956,-4.972691966214776
1763697778673707500,10.43070751953125,6.99578593930602,-4.89769254707098,-4.820992461489141
1763697778683730400,10.44073046875,6.91391429630518,-5.157743413183093,-4.665389519584179
1763697778693753600,10.450753662109374,6.827294581994414,-5.4082548820555205,-4.506575214417278
1763697778703776300,10.4607763671875,6.742583916175365,-5.641330647480488,-4.345496471449732
1763697778713799400,10.47079931640625,6.663975658884644,-5.8525745203256605,-4.1843972702160475
1763697778723822300,10.480822265625,6.593889730745554,-6.040741468966007,-4.024977400371432
1763697778733845500,10.490845458984374,6.532506749022007,-6.2078790735811,-3.8676843134224415
1763697778743867400,10.500867431640625,6.476721733435988,-6.359227572911977,-3.7125031040608882
1763697778753890300,10.510890380859376,6.4207590231955045,-6.501268145671486,-3.560581188756227
1763697778763913500,10.52091357421875,6.359542045688629,-6.639663055405021,-3.411960068562627
1763697778773936400,10.530936279296874,6.289712138137221,-6.777904820403457,-3.266484845179319
1763697778783959300,10.540959228515625,6.20983546834588,-6.91708357399106,-3.1244658997297283
1763697778793983000,10.55098291015625,6.120647949373722,-7.05595136193335,-2.9869062717765567
1763697778804006100,10.561006103515625,6.024301206296682,-7.191731120732427,-2.8560785824269055
1763697778814029000,10.571029052734374,5.924535010164976,-7.321103350576758,-2.733443844144046
1763697778824052000,10.581052001953125,5.825549735277891,-7.440868963164091,-2.620465407478809
1763697778834075000,10.591074951171874,5.731372152933478,-7.5484303432166575,-2.518524497656524
1763697778844098000,10.60109814453125,5.644778742107748,-7.642411526206136,-2.4290732131816446
1763697778854121000,10.611120849609375,5.567006935641169,-7.723052166107297,-2.3522907100133597
1763697778864144100,10.62114404296875,5.497950350549817,-7.7919906777769326,-2.286439204573631
1763697778874166000,10.631166015625,5.435664867028594,-7.851837535974383,-2.229927628278732
1763697778884189200,10.641189208984375,5.377260024333,-7.905483201444149,-2.1814672564923763
1763697778894212000,10.651212158203125,5.3196384409695865,-7.956110980397463,-2.138254868362099
1763697778904235000,10.661235107421875,5.259979214298725,-8.006669785767793,-2.0967226884037253
1763697778914258000,10.6712578125,5.197178766992688,-8.058556624871493,-2.054115280429274
1763697778924281000,10.681281005859375,5.130826180163026,-8.112330885156988,-2.0087553588762876
1763697778934304000,10.691303955078125,5.061460382992029,-8.167519103893637,-1.9605169592775404
1763697778944327200,10.7013271484375,4.990330498757958,-8.223274893385172,-1.9091190727345644
1763697778954350000,10.71135009765625,4.91871195422411,-8.27887344648838,-1.853887891639024
1763697778964373000,10.721373046875,4.847376026023924,-8.333653668946027,-1.7954248890154063
1763697778974396000,10.73139599609375,4.776786824537814,-8.387102350538969,-1.734710308072716
1763697778984419000,10.741419189453126,4.707733162055909,-8.438660688340663,-1.6723194644808768
1763697778994442000,10.75144189453125,4.641104680894315,-8.487564127719402,-1.6099078703619538
1763697779004465200,10.761465087890626,4.578671605595946,-8.532797354152798,-1.5483882566466927
1763697779014487000,10.771487060546875,4.522505189476907,-8.573293030670285,-1.4886170940339565
1763697779024510200,10.78151025390625,4.4737709691852325,-8.608499368607998,-1.4316050208710134
1763697779034533000,10.791533203125,4.4325636372670525,-8.638601661404968,-1.377433724091947
1763697779044556000,10.80155615234375,4.397018861155211,-8.66465029489696,-1.3268179278373717
1763697779054579000,10.811578857421875,4.364324213777482,-8.688046952575444,-1.2809762141168117
1763697779064602000,10.82160205078125,4.33132707632184,-8.710618849867581,-1.2389949752166867
1763697779074625000,10.831625,4.294378570891917,-8.734190864112973,-1.2010836161039768
1763697779084648200,10.841648193359376,4.2508693917721505,-8.75968946250677,-1.16976434873268
1763697779094671000,10.851671142578125,4.199688362850249,-8.787396969121694,-1.146588786458969
1763697779104694000,10.861694091796876,4.1424174926206465,-8.816566364982723,-1.1308989037655293
1763697779114717000,10.871717041015625,4.082318413227796,-8.845591383937,-1.1227521299280225
1763697779124740000,10.881739990234376,4.02392847584039,-8.872323908039927,-1.1226097257826477
1763697779134763000,10.891762939453125,3.972615052710473,-8.894312452486156,-1.1313408753793686
1763697779144786200,10.9017861328125,3.933594417181611,-8.909185611969232,-1.1504982880529016
1763697779154809000,10.91180908203125,3.910370777982473,-8.915392065393924,-1.1811757503893225
1763697779164832000,10.92183203125,3.903397431838512,-8.912843549954891,-1.2227432208567857
1763697779174854100,10.931854248046875,3.9102521200388667,-8.902534337386488,-1.274832304534316
1763697779184876800,10.941876708984376,3.9274221582874653,-8.886083553323148,-1.3353902336105703
1763697779194900000,10.95189990234375,3.9515526831984515,-8.865105647224187,-1.4019720991514621
1763697779204923100,10.961923095703124,3.980032635490596,-8.840772000956536,-1.473254835859686
1763697779214946000,10.971946044921875,4.011906906396151,-8.813481258448958,-1.5483999470844865
1763697779224969200,10.98196923828125,4.048244878712296,-8.782717286872863,-1.6266488695435224
1763697779234992000,10.9919921875,4.091669009897113,-8.747098276481031,-1.707896827688068
1763697779245015000,11.00201513671875,4.145447654096782,-8.704395445308089,-1.7941975391775369
1763697779255038000,11.012037841796875,4.213016338717937,-8.652164322811364,-1.8870484029628336
1763697779265061000,11.02206103515625,4.296104371771216,-8.588121181967853,-1.9894814802162348
1763697779275084000,11.032083984375,4.395065096738934,-8.51032131845057,-2.104332140494138
1763697779285107200,11.042107177734374,4.5063820299327375,-8.419056408682465,-2.2321249921925364
1763697779295130000,11.052130126953125,4.623825921574235,-8.31626589629352,-2.372835193131119
1763697779305153000,11.062153076171874,4.741298162527382,-8.204702294862269,-2.52454653442502
1763697779315176000,11.072176025390625,4.856439037923515,-8.086139628323911,-2.6832301989495755
1763697779325199000,11.08219921875,4.96964426908195,-7.9612436671108,-2.8445769452035425
1763697779335222000,11.092221923828125,5.083338452801108,-7.829486587956548,-3.00486044614017
1763697779345245200,11.1022451171875,5.201439931568503,-7.689179707121848,-3.160998225574195
1763697779355268000,11.11226806640625,5.327533578133583,-7.538293564605713,-3.3108754833087324
1763697779365290000,11.1222900390625,5.46387155533731,-7.376067697429656,-3.4511046227321027
1763697779375313200,11.132313232421875,5.610154003450274,-7.203119945231079,-3.5793308974117037
1763697779385335800,11.142335693359374,5.764643723416328,-7.020383204945921,-3.6950627244383094
1763697779395359000,11.15235888671875,5.92443330335617,-6.82903645722568,-3.799439044713974
1763697779405382000,11.1623818359375,6.086154143619537,-6.6304322857230895,-3.8944185910910365
1763697779415405000,11.172405029296876,6.246390298283099,-6.425891125386953,-3.9825761824935673
1763697779425428200,11.18242822265625,6.402099915432929,-6.216339443412423,-4.06701796824336
1763697779435451100,11.192451171875,6.550456247210502,-6.002395079436898,-4.151284689687192
1763697779445474000,11.20247412109375,6.689204208165407,-5.784433881035447,-4.23854357868433
1763697779455497000,11.2124970703125,6.817445972675085,-5.562450002989173,-4.330353847375512
1763697779465520000,11.22252001953125,6.934490635865926,-5.336637506565451,-4.427587310159206
1763697779475543000,11.23254296875,7.039858305266499,-5.107378669080138,-4.530504079276323
1763697779485566200,11.242566162109375,7.133426815801858,-4.875590605378151,-4.638235555198788
1763697779495589000,11.252589111328126,7.215691257512569,-4.6425589713558555,-4.748771859408914
1763697779505612000,11.262612060546875,7.2876406414359804,-4.410146930536627,-4.859143620707094
1763697779515635000,11.272635009765626,7.350428229260444,-4.180270837935805,-4.9665802053362125
1763697779525658000,11.282658203125,7.40481974466145,-3.95402784114033,-5.069979205012321
1763697779535681000,11.292680908203126,7.451040813088417,-3.73183002808243,-5.169702146524191
1763697779545704200,11.3027041015625,7.48960289119482,-3.5142104827255007,-5.26560114583373
1763697779555727000,11.31272705078125,7.520835649326443,-3.303170023497939,-5.356910479265451
1763697779565750000,11.32275,7.544800462281703,-3.101508217990398,-5.443071343892813
1763697779575773000,11.33277294921875,7.561911756080389,-2.9122789008155463,-5.52326950072348
1763697779585796000,11.342796142578125,7.5741370314031835,-2.738512525710463,-5.59494299031496
1763697779595819000,11.352819091796874,7.583004812991619,-2.5816870562732217,-5.657147809815407
1763697779605842200,11.36284228515625,7.589359150454402,-2.441784226194769,-5.710490108424425
1763697779615865000,11.372864990234374,7.5943667494833464,-2.3174030826359986,-5.7554860189706085
1763697779625887000,11.382886962890625,7.599740843737125,-2.2066860150314866,-5.791792427104711
1763697779635910100,11.39291015625,7.606984823516011,-2.1071773007921872,-5.819275477313995
1763697779645933000,11.40293310546875,7.617161934137344,-2.0170278049200774,-5.83787905549705
1763697779655956000,11.4129560546875,7.630277436298131,-1.9354343943387269,-5.848362455588579
1763697779665979100,11.422979248046875,7.644288425993919,-1.862602820753306,-5.853713168966769
1763697779676002000,11.433001953125,7.657726584237814,-1.79926475943923,-5.855959486588835
1763697779686025200,11.443025146484375,7.670394342631101,-1.7474568307906388,-5.855068675228953
1763697779696048000,11.453048095703124,7.680700048068165,-1.709849423060566,-5.852661029565334
1763697779706071000,11.463071044921875,7.687318004903197,-1.6889961662545798,-5.850027173930406
1763697779716094000,11.473093994140624,7.689664275768399,-1.6869842419102787,-5.847523666676879
1763697779726117000,11.4831171875,7.6875775326222175,-1.705473984455317,-5.844902670523524
1763697779736140000,11.49314013671875,7.681542928633093,-1.7447104546919463,-5.841255253931879
1763697779746163200,11.5031630859375,7.672639491209387,-1.8038355744861065,-5.834995024493336
1763697779756186000,11.51318603515625,7.661618330979347,-1.8809937790989875,-5.825106083163619
1763697779766209000,11.523208984375,7.649421697229147,-1.9734454144336282,-5.810528691756725
1763697779776232000,11.53323193359375,7.636624759498238,-2.0792627272978423,-5.790424645882845
1763697779786255000,11.543255126953126,7.623700980517268,-2.1967158251591026,-5.764027637344598
1763697779796278000,11.553278076171875,7.610196771299838,-2.323563212700933,-5.732044937628507
1763697779806301000,11.563301025390626,7.596302101460099,-2.4577260378226637,-5.694396467235684
1763697779816324000,11.573323974609375,7.583409302139282,-2.598730545532703,-5.648794407489896
1763697779826347000,11.583346923828126,7.570774861493706,-2.748297129882872,-5.5946957375556226
1763697779836370000,11.593369873046875,7.555987042206525,-2.909709342588484,-5.532724142289162
1763697779846393000,11.60339306640625,7.535849678584933,-3.0866569780781865,-5.46387155533731
1763697779856416000,11.613416015625,7.507030995857715,-3.281958016382158,-5.38921349697709
1763697779866439200,11.623439208984376,7.46610452670753,-3.4965900703608987,-5.31051113166213
1763697779876462000,11.633462158203125,7.4120491113930935,-3.728018068578839,-5.228173624715208
1763697779886485000,11.643485107421874,7.346309688025713,-3.9701919172167774,-5.1419548924207685
1763697779896508000,11.6535078125,7.271608959567547,-4.216263942337036,-5.051456290850043
1763697779906531000,11.663531005859374,7.193244447904825,-4.458174463863671,-4.955027714708447
1763697779916554000,11.673553955078125,7.116457560822368,-4.6897553145557636,-4.851042147316038
1763697779926577200,11.6835771484375,7.04588063429594,-4.9068946751803155,-4.737967849060893
1763697779936600000,11.69360009765625,6.98372023845911,-5.108285847052931,-4.615567211794853
1763697779946623000,11.703623046875,6.929567207989097,-5.295193151021003,-4.484686623214185
1763697779956646000,11.71364599609375,6.8806029783338305,-5.471227178797125,-4.34664827183336
1763697779966669000,11.7236689453125,6.831749807837605,-5.641237708500027,-4.2040468503206965
1763697779976692000,11.73369189453125,6.776863786917924,-5.809657169619202,-4.061081856192648
1763697779986715100,11.743715087890624,6.7125821611434215,-5.978386427339911,-3.9205247999891637
1763697779996738000,11.753738037109375,6.638352557328343,-6.146818747940659,-3.784082193367183
1763697780006761000,11.763760986328125,6.554868802955746,-6.311773163297772,-3.6558997578293084
1763697780016784000,11.773783935546875,6.464793395233154,-6.46940702650845,-3.5388697076857087
1763697780026807000,11.78380712890625,6.371332436725496,-6.617298663383722,-3.4333465554624794
1763697780036830000,11.793829833984375,6.27677140802145,-6.7543339752018445,-3.3393852462172506
1763697780046853000,11.80385302734375,6.182976102992892,-6.88064038773477,-3.2554525790333746
1763697780056876000,11.8138759765625,6.091284492245316,-6.997215095326304,-3.1789319416716695
1763697780066899000,11.82389892578125,6.002365853342414,-7.105661441519856,-3.1066961420223116
1763697780076921900,11.833921875,5.9160179417103524,-7.207714287284016,-3.036440118013322
1763697780086945000,11.843945068359375,5.831527640643715,-7.304794605332613,-2.9670947791084648
1763697780096968000,11.853968017578126,5.747923474761843,-7.398209971132874,-2.8979756501749154
1763697780106991000,11.8639912109375,5.66396684218049,-7.489058701315522,-2.8291125418290495
1763697780117014000,11.874013916015626,5.5775593093156814,-7.578408717373013,-2.76205531386137
1763697780127037000,11.884036865234375,5.487732907918096,-7.666744003430009,-2.697444310002029
1763697780137059800,11.894059814453126,5.395124182325601,-7.754182632908225,-2.633568050158024
1763697780147083000,11.9040830078125,5.301380315223336,-7.840068772247434,-2.568866445405781
1763697780157105000,11.91410498046875,5.208436074066162,-7.923424516326189,-2.5023838024556637
1763697780167128000,11.924128173828125,5.117514278647303,-8.003558375748991,-2.4340271823272106
1763697780177151000,11.93415087890625,5.028603238528967,-8.080704743793607,-2.363417814835906
1763697780187174100,11.944174072265625,4.9414440105140205,-8.155283307176829,-2.2899501353040335
1763697780197197000,11.954197021484376,4.855202189604937,-8.227709660962223,-2.214090007677674
1763697780207220000,11.964219970703125,4.7691705043151975,-8.298087850046157,-2.1370836326256395
1763697780217243000,11.974242919921876,4.683345739774405,-8.366177635931969,-2.0600306419529018
1763697780227266000,11.98426611328125,4.598241690723598,-8.431486266666651,-1.9840859047830104
1763697780237289000,11.9942890625,4.514532895423471,-8.493325759986043,-1.9112271509297192
1763697780247312100,12.00431201171875,4.43274688487947,-8.551428989386558,-1.8423355471417306
1763697780257335000,12.0143349609375,4.352147161510587,-8.606084708681703,-1.7789049852386116
1763697780267358000,12.02435791015625,4.270933397896588,-8.658169700706004,-1.7220935492143035
1763697780277380900,12.034380859375,4.186657031841576,-8.708903862643242,-1.672505342441797
1763697780287404000,12.044404052734375,4.097646330741048,-8.759175083243846,-1.629887413073331
1763697780297427000,12.054427001953124,4.0039498099118465,-8.80892491031885,-1.5942423914574086
1763697780307450000,12.0644501953125,3.9083562232896685,-8.85665170713365,-1.5667919283434748
1763697780317473000,12.07447314453125,3.813526899038255,-8.900905274879932,-1.5496137067884206
1763697780327496000,12.084495849609375,3.7206317577198145,-8.94115369863808,-1.5437180728785693
1763697780337518800,12.094518798828124,3.6298116691097615,-8.977239742019773,-1.5504891744486986
1763697780347542000,12.1045419921875,3.5408477297604084,-9.009002661505342,-1.5718265615098177
1763697780357565000,12.11456494140625,3.4538705803140997,-9.03597367053926,-1.6100781123623251
1763697780367588000,12.124588134765625,3.371498294314742,-9.057116411811112,-1.6649356378398834
1763697780377611000,12.134611083984375,3.298731164267659,-9.071139676466583,-1.732965364101529
1763697780387634000,12.144634033203126,3.241031547231972,-9.077043932074307,-1.8092431326180696
1763697780397656800,12.15465673828125,3.201849875922501,-9.07476546574831,-1.8886948549956082
1763697780407680000,12.164679931640626,3.183801301273703,-9.064410660472511,-1.967296828676015
1763697780417703000,12.174702880859375,3.188477476391196,-9.04626768553853,-2.0418216160453855
1763697780427726000,12.18472607421875,3.2158713870123026,-9.021176498901843,-2.1087761142909525
1763697780437749000,12.1947490234375,3.2633228740170597,-8.990641075384616,-2.1655244219511744
1763697780447772000,12.20477197265625,3.3247020563483236,-8.95648512328267,-2.2131720160499215
1763697780457794800,12.214794921875,3.3929651529744267,-8.920171700885891,-2.2558169795557856
1763697780467818000,12.22481787109375,3.464226262372732,-8.882056782025098,-2.2975160405136643
1763697780477841000,12.2348408203125,3.539736845909059,-8.84065042040348,-2.3417000501550733
1763697780487864000,12.244864013671876,3.6243250543922185,-8.79301773161292,-2.3911288285821675
1763697780497887000,12.254886962890625,3.7241564247146246,-8.735885393071174,-2.446498687496036
1763697780507910000,12.264909912109376,3.8427836809217926,-8.666932268354296,-2.507526718302071
1763697780517932800,12.274932861328125,3.9790512232378124,-8.585878955999016,-2.5729800182044507
1763697780527956000,12.2849560546875,4.128328761513531,-8.494258656921982,-2.6409929394617677
1763697780537979000,12.294978759765625,4.284605949418246,-8.395016776925324,-2.708546426513791
1763697780548002000,12.305001953125,4.442073808412253,-8.291769168418645,-2.7721684193357823
1763697780558025000,12.31502490234375,4.596022261108458,-8.187205216616391,-2.831364704670012
1763697780568048000,12.325048095703124,4.742684063927829,-8.083637874636054,-2.8865432787954806
1763697780578072000,12.335072021484375,4.880798987676203,-7.9821666281521315,-2.9382299191519614
1763697780588095000,12.345094970703125,5.01110323767364,-7.882116354382037,-2.988556669332087
1763697780598118100,12.3551181640625,5.1371185583055015,-7.780697714868188,-3.039924452997744
1763697780608141000,12.36514111328125,5.263173626425862,-7.674395394966006,-3.0940315984994173
1763697780618164000,12.3751640625,5.3929445001989595,-7.559779420226812,-3.15218597356528
1763697780628187000,12.385186767578125,5.527937492534518,-7.434600550419092,-3.215433872377872
1763697780638210000,12.3952099609375,5.6680602489739655,-7.29733961315155,-3.2851664570346473
1763697780648233000,12.40523291015625,5.81257218028307,-7.1469041370123625,-3.3624610013782976
1763697780658256100,12.415256103515626,5.960323531904816,-6.983359003931284,-3.4463916227355598
1763697780668279000,12.425279052734375,6.109608084443211,-6.8076879642486565,-3.535317568162083
1763697780678302000,12.435302001953126,6.258432033732533,-6.622013416945934,-3.6264801865994927
1763697780688324900,12.445324951171875,6.406185138919949,-6.429238097727298,-3.7143078153952955
1763697780698348000,12.45534814453125,6.550492487567663,-6.23279315008521,-3.7965401084020733
1763697780708371000,12.465370849609375,6.687326723855733,-6.036087505680323,-3.8750077881783245
1763697780718394000,12.47539404296875,6.814336900743842,-5.8416486371636385,-3.950991249923408
1763697780728417000,12.4854169921875,6.9307619707316155,-5.6507735986083745,-4.0253789669096465
1763697780738440000,12.49543994140625,7.036842172315716,-5.463910133782028,-4.09864995482564
1763697780748462800,12.505462890625,7.1342527452319855,-5.280089689913392,-4.170548777605593
1763697780758486000,12.515486083984374,7.22542471601963,-5.097059519639611,-4.240708355502784
1763697780768509000,12.525509033203125,7.311912328383326,-4.912596686214209,-4.309607996466756
1763697780778532000,12.535531982421874,7.3944491572946305,-4.7259416034415365,-4.376982619820535
1763697780788555000,12.545554931640625,7.471671513184905,-4.53850180003196,-4.443704916745424
1763697780798578000,12.555577880859374,7.541157721865177,-4.35354972178489,-4.510867650914192
1763697780808600800,12.565600830078125,7.6006421764910215,-4.175511368449032,-4.578834687203169
1763697780818624000,12.5756240234375,7.6488067802011965,-4.007561278407276,-4.648181195151806
1763697780828647000,12.58564697265625,7.686347698566317,-3.8503877261847257,-4.718575166326761
1763697780838670000,12.595670166015625,7.715833320769667,-3.7020953995540737,-4.788610533322394
1763697780848693000,12.60569287109375,7.739782351633906,-3.5598534590035675,-4.857324296325445
1763697780858716000,12.6157158203125,7.759791120439767,-3.4212963444456457,-4.924505150672793
1763697780868738800,12.62573876953125,7.776609568771719,-3.2855428891316056,-4.989982708233595
1763697780878762000,12.635761962890625,7.789984014129638,-3.1545538717404007,-5.053249019485712
1763697780888785000,12.645784912109375,7.798906740775704,-3.0319042281493545,-5.114195363357663
1763697780898808000,12.65580810546875,7.802375878190994,-2.9208211037114262,-5.173212200471759
1763697780908831000,12.6658310546875,7.798808541098237,-2.823827879424393,-5.232109795120358
1763697780918854000,12.67585400390625,7.787657032486796,-2.743735228794813,-5.29100212907195
1763697780928876800,12.685876708984376,7.768241553398966,-2.6828809471204877,-5.350417025592923
1763697780938900000,12.69589990234375,7.740239447751641,-2.643625626052916,-5.410204847079515
1763697780948923000,12.7059228515625,7.7039359622269865,-2.627609141753614,-5.469499916613102
1763697780958946000,12.715946044921875,7.661447066065668,-2.633606920863688,-5.526005647689104
1763697780968969000,12.725968994140626,7.615233596423268,-2.6574215116932987,-5.578236185663938
1763697780978991900,12.735991943359375,7.568232775795459,-2.693434197577834,-5.624735486510396
1763697780989015800,12.746015869140624,7.524210094195604,-2.7374554178729653,-5.66241844369471
1763697780999039000,12.7560390625,7.486374576798081,-2.7874162573501464,-5.688136237797141
1763697781009062000,12.766061767578124,7.4548349446743725,-2.843576243728399,-5.7017450764328235
1763697781019085000,12.7760849609375,7.427744693174958,-2.9076912807643414,-5.704763547471165
1763697781029107700,12.786107666015624,7.4024424941360945,-2.9828207560285924,-5.698860460907221
1763697781039131000,12.796130859375,7.376165897107124,-3.072496350778639,-5.6852732495814555
1763697781049153800,12.80615380859375,7.345694186475873,-3.1797654698863624,-5.665709301933646
1763697781059177000,12.816177001953125,7.307687404164671,-3.3057997874796388,-5.642675047826766
1763697781069200000,12.826199951171875,7.260539868542551,-3.450169679969549,-5.617051946270466
1763697781079223000,12.83622314453125,7.203675241026282,-3.6120457107946273,-5.588431416463852
1763697781089245700,12.84624560546875,7.137393381345271,-3.788556416171789,-5.556513014155626
1763697781099268900,12.856268798828125,7.064499994570016,-3.975075305344164,-5.519239222294092
1763697781109291800,12.866291748046875,6.988437330108881,-4.166266277980804,-5.474883947739005
1763697781119315000,12.87631494140625,6.91331574589014,-4.356427030786872,-5.421992315506935
1763697781129338000,12.886338134765625,6.844169144427776,-4.540095206703246,-5.358663460412621
1763697781139361000,12.896361083984376,6.784417563298344,-4.713279690267146,-5.284606875076889
