time,seconds_elapsed,z,y,x
1763699237502462000,0.0434619140625,9.553163899230956,3.587561550140381,0.012719196319580078
1763699237512413000,0.053412841796875,9.565284545135498,3.5007717399597165,-0.22819734573364256
1763699237522364000,0.063364013671875,9.56318961868286,3.3246482803344724,-0.4830301849365234
1763699237532315100,0.073315185546875,9.42312882156372,3.207930949401855,-0.45459904022216796
1763699237542264800,0.083264892578125,9.216030377960205,3.1476269950866698,-0.19946692581176756
1763699237552216000,0.093216064453125,8.988132307434082,3.0078654731750487,0.06494272003173827
1763699237562167000,0.1031669921875,8.688108911895752,2.9103017555236814,0.15502455749511718
1763699237572118000,0.113117919921875,8.453926062011718,2.961028903198242,0.1788169364929199
1763699237582069000,0.123069091796875,8.362796761322022,3.0473698005676266,0.17702128524780272
1763699237592019200,0.133019287109375,8.520065882873535,3.0942063705444336,0.1039981346130371
1763699237601970000,0.142969970703125,8.671798413085938,3.0576947952270506,0.008230068206787108
1763699237611921200,0.152921142578125,8.787019367980957,3.0852281143188476,0.015263035583496093
1763699237621871900,0.162871826171875,9.030180474090576,3.0967502098083495,0.0028431144714355467
1763699237631823000,0.172822998046875,9.331550608062743,3.025073797607422,0.06943184814453125
1763699237641773800,0.18277392578125,9.49315922012329,2.9427731155395507,0.21068974609375
1763699237651724000,0.19272412109375,9.574412438964844,2.887407202148437,0.09127893829345703
1763699237661675000,0.202675048828125,9.40397520828247,2.8407202697753906,-0.14350246200561523
1763699237671626000,0.2126259765625,9.129090930175781,2.705148600769043,-0.20679916839599607
1763699237681577000,0.222576904296875,8.907178363800048,2.664896085357666,-0.20545242996215818
1763699237691528200,0.232528076171875,9.431209252166747,2.812289125061035,-0.34177228698730466
1763699237701478100,0.24247802734375,8.857498679351806,2.6966192573547363,-0.3716998077392578
1763699237711429000,0.25242919921875,8.528595226287841,2.625691033172607,-0.4186860153198242
1763699237721380400,0.26238037109375,9.108141665649413,2.703951499938965,-0.6676829879760742
1763699237731331000,0.2723310546875,9.770138424682617,2.986018383026123,-0.9876081848144531
1763699237741282300,0.2822822265625,9.96661259841919,3.2415994102478027,-1.3302782974243164
1763699237751232300,0.292232177734375,10.089614708709716,3.4017116462707517,-1.4425065002441406
1763699237761183000,0.302182861328125,9.789740950775146,3.408594976043701,-1.3220482292175293
1763699237771134200,0.31213427734375,8.66296979446411,3.2315736907958983,-1.1426327423095703
1763699237781085000,0.3220849609375,7.832032180786133,3.0265701736450192,-1.169717148590088
1763699237791036200,0.3320361328125,7.59066672592163,2.899228572845459,-1.3186065643310547
1763699237800986000,0.341986083984375,7.869441581726074,2.794931163024902,-1.2834417274475096
1763699237810937000,0.35193701171875,8.313117076873779,2.784606168365478,-1.5307926864624022
1763699237820888000,0.36188818359375,9.368960009002684,3.221697608947754,-2.044797855377197
1763699237830839000,0.371839111328125,10.263942517089843,4.104709108734131,-2.733879020690918
1763699237840790000,0.3817900390625,10.076596237182617,4.7685015190124505,-2.9851205574035644
1763699237850741200,0.3917412109375,8.711901290893554,4.99909306640625,-2.758569225311279
1763699237860691000,0.40169091796875,8.534131817626953,4.4662335594177245,-2.461837857055664
1763699237870642200,0.41164208984375,9.001300416564941,3.706822720336914,-2.4109610717773435
1763699237880593200,0.42159326171875,8.949226530456542,3.125031716918945,-2.6445453712463376
1763699237890544000,0.431544189453125,8.923189587402343,2.9396307258605954,-2.685246799468994
1763699237900495000,0.4414951171875,9.051129738616943,2.9755437507629394,-2.640654793548584
1763699237910445300,0.4514453125,9.342174877929686,2.9773394020080564,-2.6892870147705077
1763699237920396000,0.46139599609375,9.226953923034667,3.201945445251465,-2.8847137252807618
1763699237930347300,0.47134716796875,9.0527757522583,3.5658640975952145,-3.0448259613037107
1763699237940298000,0.481298095703125,9.129988755798339,3.6427778259277344,-3.0201357566833495
1763699237950249200,0.491249267578125,9.379285003662108,3.6124013923645015,-3.167828071594238
1763699237960199200,0.50119921875,9.565733457946777,3.580678220367431,-3.3825580329895018
1763699237970150100,0.511150146484375,9.675118546295165,3.3521815994262694,-3.331381972503662
1763699237980101000,0.52110107421875,9.743502931213378,3.1931168266296384,-3.2332197044372557
1763699237990052000,0.531052001953125,9.660304423522948,3.0693665283203124,-3.097199122619629
1763699238000003000,0.541003173828125,9.457096557617186,2.8502970764160156,-2.842366283416748
1763699238009953000,0.550953125,9.17323402328491,2.702455123901367,-2.7596166885375975
1763699238019904300,0.560904296875,8.786271179962158,2.699163096618652,-2.833238389587402
1763699238029855000,0.57085498046875,8.552836518096923,2.729389892578125,-2.8529905532836914
1763699238039806200,0.58080615234375,8.589497731018065,2.729389892578125,-2.751087345123291
1763699238049757200,0.590757080078125,8.75335090713501,2.82186593170166,-2.8163293403625485
1763699238059708200,0.600708251953125,9.006088819885253,2.9397803634643553,-2.9411271018981933
1763699238069658000,0.610658203125,9.144653240966797,2.9554923118591305,-2.995595189666748
1763699238079609000,0.620609130859375,9.140463388061523,2.9568390502929685,-2.9798832412719727
1763699238089560000,0.63056005859375,9.133879333496093,2.9267618919372556,-2.8968343711853026
1763699238099511000,0.640510986328125,9.17458076171875,2.8688521392822266,-2.8241104957580565
1763699238109462000,0.6504619140625,9.127893829345702,2.836081504058838,-2.8666075752258298
1763699238119412200,0.660412109375,9.228749574279785,2.8119898498535156,-2.9529484725952146
1763699238129363000,0.670363037109375,9.103053987121582,2.8082489097595214,-2.9487586196899414
1763699238139314200,0.680314208984375,9.01431888809204,2.7979239151000974,-2.965368393707275
1763699238149265200,0.69026513671875,9.107692752838135,2.7697920455932614,-2.8526912780761715
1763699238159216000,0.700216064453125,9.036016340637207,2.7425580017089843,-2.710834829711914
1763699238169166000,0.710166015625,9.158569538116454,2.7437551025390623,-2.6042928558349607
1763699238179117300,0.720117431640625,9.045443509674072,2.704550050354004,-2.512265729522705
1763699238189068000,0.730068115234375,9.036914166259765,2.592621122741699,-2.447173371887207
1763699238199019300,0.740019287109375,9.069984076690673,2.567631642913818,-2.3924060089111325
1763699238208970000,0.749969970703125,9.043797496032715,2.576011348724365,-2.3425766868591307
1763699238218921200,0.759921142578125,9.049483724975586,2.6083330711364745,-2.3766940605163573
1763699238228871200,0.76987109375,9.03317322616577,2.6541221778869626,-2.4733599525451657
1763699238238822100,0.779822265625,8.959850800323485,2.673126153564453,-2.4998458084106443
1763699238248773000,0.789773193359375,8.8482211479187,2.658461668395996,-2.5076269638061524
1763699238258724000,0.79972412109375,8.641421979522704,2.6152164009094236,-2.44507844543457
1763699238268675000,0.809675048828125,8.442852879333495,2.654421453094482,-2.3096564140319824
1763699238278625000,0.819625,8.219892849731444,2.7639561790466307,-2.210147407531738
1763699238288576000,0.829575927734375,8.026710703277587,2.830694550323486,-2.149544178009033
1763699238298527200,0.83952734375,7.886649906158447,2.8287492614746093,-2.1672014152526855
1763699238308478200,0.849478271484375,7.81422530593872,2.8788778587341306,-2.2278046447753903
1763699238318429200,0.85942919921875,7.6484268409729,2.9454665924072265,-2.35574479598999
1763699238328379100,0.869379150390625,7.448959915161132,2.870198877716064,-2.4253262817382812
1763699238338330000,0.879330078125,7.21417851486206,2.8384757057189938,-2.4301146850585935
1763699238348281000,0.889281005859375,6.8213798049926755,2.749142056274414,-2.439392216491699
1763699238358232000,0.899232177734375,6.601711802673339,2.4199393280029295,-2.29828395614624
1763699238368183000,0.90918310546875,6.554127044677734,2.384624853515625,-2.27927998046875
1763699238378134000,0.919134033203125,6.874950067138672,2.336142269897461,-2.4748563285827636
1763699238388084200,0.929084228515625,6.964283716583251,2.5200468849182127,-2.7157728706359863
1763699238398035000,0.939034912109375,7.216871991729736,2.48338567199707,-3.2046389221191403
1763699238407986200,0.948986083984375,7.640047135162353,2.564638890838623,-3.531297811126709
1763699238417937200,0.958937255859375,8.38299783782959,2.7555764732360837,-4.287266985321045
1763699238427888000,0.96888818359375,8.385990589904784,3.027916912078857,-5.354183100128173
1763699238437838000,0.978838134765625,8.736292220306396,3.377769629669189,-5.30570051651001
1763699238447789300,0.988789306640625,8.694094416046141,3.393930490875244,-5.078400996398925
1763699238457740000,0.998739990234375,8.78552299194336,2.9818285301208496,-5.007323134613037
1763699238467691300,1.008691162109375,8.706215061950683,2.325817275238037,-5.548562347412109
1763699238477642000,1.01864208984375,8.597877436828613,1.8148048583984373,-5.955875904846191
1763699238487592200,1.02859228515625,8.870068238067626,1.5634136840820312,-6.346729325866699
1763699238497543200,1.038543212890625,8.841188180541991,1.843086365509033,-6.969072119903564
1763699238507494100,1.048494140625,8.653542625427246,2.2105963203430172,-7.1960723648071285
1763699238517445000,1.058445068359375,8.361898935699463,2.293345915222168,-7.22674807357788
1763699238527396000,1.06839599609375,7.874379622650146,2.249651734924316,-7.228992637634277
1763699238537347000,1.07834716796875,7.55909319152832,2.0184616371154784,-7.1680901329040525
1763699238547297300,1.08829736328125,7.437587457275391,1.7054197700500486,-7.161356440734862
1763699238557248000,1.098248046875,7.01665687789917,1.5132850868225096,-7.151629996490478
1763699238567199200,1.10819921875,6.383689813995361,1.4021043472290038,-7.015759052276611
1763699238577150200,1.118150146484375,6.451625286102295,1.1646294700622557,-6.9530608963012694
1763699238587101200,1.12810107421875,7.265653850555419,1.0850222648620604,-7.134571309661865
1763699238597051100,1.138051025390625,7.481880187988281,1.325938806915283,-7.385214295959472
1763699238607002000,1.148002197265625,7.174973462677001,1.5075988578796387,-7.517493937683105
1763699238616953000,1.157953125,7.490559169006347,1.6439187149047851,-7.723844193267822
1763699238626904000,1.167904052734375,7.5248261802673335,1.9162591537475584,-7.872284696197509
1763699238636855000,1.17785498046875,7.349899821472167,2.231994497680664,-8.026112152862549
1763699238646805000,1.187804931640625,7.455843244934082,2.487874800109863,-8.17814395828247
1763699238656756200,1.197756103515625,6.662015756988525,2.5585037490844726,-8.046911779785155
1763699238666707000,1.20770703125,6.0148331207275385,2.242918042755127,-7.932738288116455
1763699238676658200,1.217658203125,5.835866546630859,1.7871219017028808,-7.721300354003906
1763699238686609200,1.227609130859375,5.634155056762695,1.6428712516784667,-7.62912359008789
1763699238696560000,1.23756005859375,5.3293432579040525,1.608155327606201,-7.740453967285156
1763699238706510000,1.247510009765625,5.292083494567871,1.6657658050537107,-7.97418790435791
1763699238716461000,1.2574609375,5.1231426399230955,1.9090765487670898,-8.354267417907714
1763699238726412000,1.267412109375,4.891952542114257,2.023100402832031,-8.423549628448486
1763699238736363300,1.27736328125,4.771643908691406,1.8740613494873046,-8.179789971923828
1763699238746314000,1.28731396484375,4.856638067626953,1.6105495292663574,-7.885752080535888
1763699238756264200,1.29726416015625,5.054907892608642,1.56416187210083,-7.818415158843994
1763699238766215200,1.307215087890625,5.293879145812988,1.7120038246154785,-7.934085026550292
1763699238776166100,1.317166259765625,5.513397510528564,1.9083283607482908,-8.040178087615967
1763699238786117000,1.3271171875,5.411494302368164,2.126649624633789,-8.091653423309326
1763699238796068000,1.337068115234375,5.361365705108642,2.4548048896789547,-8.015188607788085
1763699238806019000,1.34701904296875,5.341763179016113,2.7130793937683104,-8.116642903137206
1763699238815969300,1.35696923828125,5.160103128051757,2.727145328521728,-8.168716789245606
1763699238825920000,1.366919921875,4.656572591400146,2.5451860023498534,-8.237849362182617
1763699238835871200,1.376871337890625,4.426878869628906,2.3407810356140137,-7.912686849212646
1763699238845822200,1.386822265625,4.215740210723877,2.2596774543762206,-8.016684983825684
1763699238855773200,1.396773193359375,3.604620236968994,2.249651734924316,-8.31236888885498
1763699238865723100,1.40672314453125,3.037643356323242,2.176329309082031,-8.31251852645874
1763699238875674000,1.416674072265625,3.0879215911865234,2.0874445724487303,-8.284087381744385
1763699238885625000,1.426625,3.494187685394287,2.123357597351074,-8.358906183624267
1763699238895576300,1.436576416015625,3.850474819946289,2.282572007751465,-8.479514092254638
1763699238905527000,1.446527099609375,3.9649475868225097,2.4875755249023435,-8.735693669891356
1763699238915478300,1.456478271484375,4.216039485931396,2.625092482757568,-9.04020619354248
1763699238925428200,1.46642822265625,4.316895230865478,2.7250504020690918,-9.222764070129394
1763699238935379000,1.47637890625,4.406228880310058,2.7647043670654297,-9.46787046508789
1763699238945330200,1.486330078125,4.278438366699218,3.0015806938171385,-9.670779055786133
1763699238955281000,1.496281005859375,3.9929298187255857,2.9940988136291504,-10.267384181976318
1763699238965232000,1.506232177734375,3.4543840827941894,2.9492075325012204,-10.615890161132812
1763699238975182000,1.51618212890625,3.653102820587158,2.896984008789062,-10.04846436767578
1763699238985133000,1.526133056640625,3.949385276031494,2.699163096618652,-9.80724855041504
1763699238995084000,1.536083984375,6.14771131286621,1.3403040168762206,-5.256918657684325
1763699239005035300,1.54603515625,7.512855171966552,3.2269349250793455,-6.830657336425781
1763699239014986000,1.555986083984375,5.320365001678466,4.581005601501465,-9.76894132385254
1763699239024937200,1.565937255859375,5.449651891326904,4.378994836425781,-9.635913494110106
1763699239034887200,1.57588720703125,4.485536810302734,4.003703726196289,-9.824905787658691
1763699239044838100,1.585838134765625,4.098274691772461,2.9056629898071287,-8.622268366241455
1763699239054789000,1.5957890625,4.55841032333374,2.475155603790283,-8.58770207977295
1763699239064740000,1.605739990234375,4.50693498764038,2.7281927917480466,-8.6321444480896
1763699239074691000,1.615691162109375,3.9471407119750976,3.0725089179992673,-8.592490483093261
1763699239084641300,1.625641357421875,3.618536534118652,3.320458427429199,-8.565406076812744
1763699239094592000,1.635592041015625,3.960308821105957,3.4394203224182127,-8.673294789123535
1763699239104543200,1.645543212890625,3.947888899993896,3.6469676788330077,-8.747963953399658
1763699239114494200,1.655494140625,3.1670798835754392,3.6189854469299316,-8.666710734558105
1763699239124445200,1.665445068359375,2.903568063354492,3.289633081054687,-8.511237264251708
1763699239134396200,1.675396240234375,3.2933740211486815,3.1399954772949217,-8.502109370422362
1763699239144346000,1.68534619140625,3.0165444541931152,3.2525229553222657,-8.520215520477294
1763699239154297000,1.695297119140625,2.5483283920288082,3.449894954681396,-8.45856482772827
1763699239164248300,1.705248291015625,2.6008511909484864,3.797203833007812,-8.447491645050048
1763699239174199000,1.715198974609375,2.686743175506592,4.12446127243042,-8.47801771621704
1763699239184150300,1.725150390625,2.816179702758789,4.280682930755615,-8.364742050170898
1763699239194100200,1.735100341796875,2.989609685516357,4.106953672790527,-8.313865264892577
1763699239204051000,1.745051025390625,3.139097651672363,3.741688282012939,-8.415469197845459
1763699239214002200,1.755002197265625,3.014000614929199,3.912873700714111,-8.410231881713866
1763699239223953000,1.764952880859375,2.6569652923583984,4.381089762878418,-8.186074751281739
1763699239233904000,1.774904052734375,2.0554221252441405,4.0447044296264645,-8.11514652709961
1763699239243855400,1.78485546875,1.5327379753112793,3.55613765335083,-8.047959243011475
1763699239253805000,1.79480517578125,0.8964788841247558,4.135085542297363,-7.705588405609131
1763699239263756000,1.804756103515625,0.7158662963867187,4.326472037506103,-7.521534152984619
1763699239273707300,1.814707275390625,1.3253402565002441,3.875913212585449,-7.818714434051513
1763699239283658000,1.824657958984375,1.651550232696533,3.8174049095153806,-8.115296164703368
1763699239293609200,1.834609130859375,1.6002245346069335,3.962254109954834,-8.211812419128417
1763699239303560000,1.844559814453125,1.4939818359375,4.099920705413818,-7.997531370544433
1763699239313510100,1.85451025390625,1.9321207397460936,4.022857339477539,-7.599495344543457
1763699239323461000,1.864461181640625,2.505232762145996,3.9906852546691893,-7.299920861816406
1763699239333412000,1.874412109375,2.7436054649353028,4.141220684051514,-7.173177811431884
1763699239343363000,1.884363037109375,2.7247511268615723,4.286518797302246,-7.237821256256103
1763699239353314000,1.89431396484375,2.62374574432373,4.40473250427246,-7.490858444213867
1763699239363264000,1.904263916015625,2.570325119781494,4.52040237197876,-7.804049948883057
1763699239373215200,1.91421533203125,2.7555764732360837,4.562600176239013,-7.960271607208251
1763699239383166000,1.924166015625,3.027916912078857,4.421043003082275,-7.906850982666016
1763699239393117200,1.9341171875,3.214963916778564,4.215740210723877,-7.734917375946044
1763699239403068200,1.944068115234375,3.314024010467529,3.993977281951904,-7.587973249053954
1763699239413019100,1.95401904296875,3.4789246498107906,3.8893805969238278,-7.576451153564452
1763699239422969000,1.963968994140625,3.3605613052368164,3.820547299194336,-7.663240963745117
1763699239432920300,1.97392041015625,2.342127774047851,3.258508459472656,-7.681197476196289
1763699239442871000,1.98387109375,4.059368914794922,3.334673999786377,-8.221538863372801
1763699239452822300,1.993822265625,4.056974713134766,4.2329485351562495,-8.35770908279419
1763699239462773000,2.00377294921875,3.617339433288574,4.555567208862304,-8.136843979644775
1763699239472724200,2.01372412109375,4.802469255065918,4.4583027664184565,-8.263587030029296
1763699239482674200,2.023674072265625,5.387103372955322,4.46219334411621,-8.055141847991942
1763699239492625200,2.033625244140625,5.557690241241454,4.599710301971435,-7.570016736602783
1763699239502576000,2.043576171875,5.524620330810547,4.739172548675537,-7.201309680938721
1763699239512527000,2.053527099609375,5.255422281646728,4.680813883209228,-7.109432192230225
1763699239522478000,2.06347802734375,5.31812043762207,4.6903906898498535,-7.250241177368164
1763699239532429300,2.07342919921875,5.289988568115234,4.786308393859863,-7.336133161926269
1763699239542379300,2.083379150390625,5.268291115570068,4.847360536193848,-7.436390356445312
1763699239552330000,2.093330078125,5.276670821380615,4.7685015190124505,-7.596951505279541
1763699239562281200,2.10328125,5.306149429321289,4.641908106231689,-7.715614125061035
1763699239572232000,2.11323193359375,5.156960738372803,4.625747245025634,-7.686434792327881
1763699239582183200,2.12318310546875,5.1042883018493646,4.848258361816406,-7.43818600769043
1763699239592133000,2.133133056640625,5.3296425331115715,4.605995081329345,-7.307253104400634
1763699239602084000,2.143083984375,5.167734645843505,4.177732259368896,-7.145195579528808
1763699239612035000,2.15303515625,4.970811559295654,4.0349779853820795,-6.944681190490722
1763699239621986000,2.162986083984375,4.95420178527832,4.204966303253173,-6.818686328125
1763699239631937000,2.17293701171875,4.858732994079589,4.321085083770751,-6.808810246276855
1763699239641888300,2.18288818359375,4.524592224884033,4.087500784301757,-7.000346379089355
1763699239651838000,2.192837890625,4.096927953338623,3.743783208465576,-7.280168698120117
1763699239661789200,2.2027890625,3.647266954040527,3.437923946380615,-7.47604432144165
1763699239671740200,2.212740234375,3.4572271972656248,3.1639374938964844,-7.603086647033691
1763699239681691100,2.222691162109375,4.402487940216064,3.137900550842285,-7.872284696197509
1763699239691642000,2.23264208984375,5.325153404998779,3.712209674072265,-8.054094384765625
1763699239701592600,2.242592529296875,3.507355794525146,3.840898013305664,-7.702595653533935
1763699239711542800,2.252542724609375,4.859181906890869,3.699041564941406,-8.034940771484374
1763699239721493800,2.26249365234375,4.602104503631591,3.7300165489196777,-8.041225550842285
1763699239731444700,2.27244482421875,4.886116675567627,3.762338271331787,-8.327482286834716
1763699239741395700,2.282395751953125,5.346102669525147,4.430170896911621,-9.392902025604247
1763699239751347000,2.292346923828125,4.87145219039917,4.1481040138244625,-8.699331732177734
1763699239761296600,2.302296630859375,5.288492192077636,3.4015620086669918,-7.765443447113037
1763699239771247900,2.312247802734375,4.933252520751953,3.6077626266479492,-7.941117993927001
1763699239781198800,2.32219873046875,4.376450997161865,3.8959646514892574,-7.949048786926269
1763699239791149800,2.33214990234375,4.200327537536621,4.152293866729736,-8.036736422729492
1763699239801100800,2.342100830078125,4.3999441009521485,4.556913947296143,-8.10197841796875
1763699239811051800,2.3520517578125,4.698022207641602,4.659116430664063,-8.142679846191406
1763699239821001700,2.362001708984375,5.737405003356933,4.646247596740722,-7.343764679718017
1763699239830952700,2.37195263671875,4.725405889129639,3.8112697677612304,-7.591414913940429
1763699239840903700,2.381903564453125,4.721216036224365,3.7071219955444334,-7.304709265136719
1763699239850854700,2.391854736328125,4.642656294250488,3.8417958389282223,-7.2072951850891105
1763699239860805600,2.4018056640625,4.86486813583374,4.236539837646484,-7.405116097259521
1763699239870756900,2.4117568359375,5.130025969696044,4.799925415802002,-7.820510085296631
1763699239880706800,2.421706787109375,4.968716632843018,4.281580756378173,-8.007257814788819
1763699239890657500,2.431657470703125,4.575319372558593,3.5250130317687987,-7.95473501586914
1763699239900608800,2.44160888671875,4.367772016143799,3.636941959381103,-7.924657857513427
1763699239910559700,2.451559814453125,4.291307200622558,3.7222353935241697,-7.620444609069824
1763699239920510700,2.4615107421875,4.000561336517333,3.6755484611511227,-7.432350141143798
1763699239930461700,2.471461669921875,3.535038751220703,3.486406529998779,-7.317727736663818
1763699239940412000,2.481411865234375,3.718195178222656,3.526659045410156,-7.1398086257934565
1763699239950362600,2.491362548828125,3.060837184906006,3.6085108146667477,-6.870610576629638
1763699239960313900,2.50131396484375,3.8242882392883297,3.84314257736206,-7.062296347045898
1763699239970264600,2.5112646484375,4.774187747955322,4.1368811935424805,-7.372046186828613
1763699239980215800,2.5212158203125,3.909731311035156,4.012532344818115,-7.632714892578124
1763699239990166800,2.531166748046875,4.393958596801758,3.837456348419189,-8.117840003967284
1763699240000116700,2.54111669921875,4.43720386428833,3.759495156860351,-8.36968009109497
1763699240010067700,2.551067626953125,4.311508277130127,3.9208044937133786,-8.773701621246337
1763699240020018700,2.561018798828125,3.7310640121459957,4.071639198303222,-8.877699755859375
1763699240029969700,2.5709697265625,2.8860604637145992,3.91990666809082,-8.79719472503662
1763699240039921000,2.5809208984375,2.73268191986084,3.7078701835632324,-8.608202431488037
1763699240049870800,2.590870849609375,2.864213373565674,3.623923487854004,-8.403947102355957
1763699240059821800,2.60082177734375,2.9791350532531737,3.3918355644226073,-8.291419624328613
1763699240069772800,2.610772705078125,3.592499591064453,3.6501100685119625,-8.666112184143065
1763699240079723800,2.620723876953125,4.205415216064453,4.403984316253662,-8.856600853729248
1763699240089674800,2.6306748046875,4.007893579101562,4.0164229225158685,-9.02045402984619
1763699240099625700,2.640625732421875,4.302230745697021,3.7811926094055175,-9.46757118988037
1763699240109575700,2.65057568359375,3.9835026496887203,3.6228760246276854,-9.851990193939208
1763699240119527000,2.66052685546875,3.275716783905029,3.5330934623718258,-10.056694435882568
1763699240129477600,2.6704775390625,2.567033092498779,3.591901040649414,-10.10652375793457
1763699240139428900,2.680428955078125,2.005293527984619,3.790320503234863,-9.49974327468872
1763699240149379800,2.6903798828125,1.444152513885498,4.332307904052734,-8.904484886932373
1763699240159330800,2.700330810546875,1.291522158050537,4.7670051429748534,-8.455272800445556
1763699240169280800,2.71028076171875,1.169717148590088,4.367772016143799,-7.512555896759033
1763699240179231700,2.720231689453125,1.0021230323791503,4.208707243347168,-6.879738470458984
1763699240189182700,2.7301826171875,1.1791443176269532,4.377947373199462,-7.059752507781982
1763699240199133700,2.7401337890625,1.3048399047851562,4.246715194702148,-7.22106184463501
1763699240209084700,2.750084716796875,1.6066589515686034,3.9249943466186523,-7.510311332702636
1763699240219036000,2.760035888671875,1.8592472267150877,3.819050923156738,-7.88500389251709
1763699240228985900,2.76998583984375,1.7271172225952147,4.146607637786865,-8.142829483795165
1763699240238936600,2.7799365234375,1.9463363121032713,4.070442097473144,-8.706963249969482
1763699240248887800,2.7898876953125,2.293345915222168,3.882347629547119,-8.895955543518065
1763699240258838500,2.799838623046875,2.3683143547058103,3.843741127777099,-8.795099798583983
1763699240268789800,2.809789794921875,2.2746412147521973,3.752761464691162,-8.524854286193847
1763699240278740700,2.81974072265625,2.1953332847595215,3.61988327255249,-8.566303902435303
1763699240288690700,2.829690673828125,1.6511013198852538,3.981407723236084,-9.23757819290161
1763699240298641700,2.8396416015625,1.6961422386169434,4.190301818084716,-9.147496355438232
1763699240308593000,2.849593017578125,2.1402666465759275,4.1572319076538085,-8.934113132476806
1763699240318543600,2.859543701171875,2.3910592704772946,3.84329221496582,-8.895955543518065
1763699240328494800,2.869494873046875,2.514211018371582,3.5887586509704588,-8.91825154647827
1763699240338445600,2.879445556640625,2.5576059234619137,3.522918105316162,-8.643067993164061
1763699240348395800,2.889395751953125,2.720261998748779,3.5125931106567383,-8.476970252990721
1763699240358346800,2.8993466796875,3.327341757202148,3.721337567901611,-8.429086219787598
1763699240368297700,2.909297607421875,3.3336265365600584,3.5507506996154783,-8.813355586242675
1763699240378248700,2.919248779296875,2.4015339027404785,3.299958075714111,-8.8742580909729
1763699240388199700,2.92919970703125,1.767070462799072,3.7051767066955565,-8.965237754058837
1763699240398150700,2.939150634765625,1.5996259841918945,4.575618647766113,-9.042450757598877
1763699240408100900,2.949100830078125,1.1153986984252928,5.069572377777099,-8.883834897613525
1763699240418051800,2.9590517578125,0.6863876884460449,5.059995571136474,-8.70845962600708
1763699240428002800,2.9690029296875,0.8894459167480468,4.968267720031738,-8.48400322036743
1763699240437953800,2.978953857421875,1.442207225036621,4.471620513153076,-8.305335921478271
1763699240447904800,2.98890478515625,1.8846856193542478,4.048894282531738,-8.091503785705566
1763699240457855700,2.998855712890625,2.0808605178833006,3.697844464111328,-7.730577885437011
1763699240467806000,3.008805908203125,2.441337505340576,3.6490626052856445,-7.658153285217285
1763699240477756700,3.018756591796875,3.0169933670043942,3.6632781776428223,-7.635109094238281
1763699240487708000,3.0287080078125,3.6447231147766113,3.9757214942932126,-7.661894225311279
1763699240497658600,3.03865869140625,4.063109854888916,4.284274233245849,-7.938873429870605
1763699240507609900,3.04860986328125,4.151246403503418,4.650138174438476,-8.105420082855224
1763699240517560800,3.058560791015625,4.385429253387451,4.715230532073974,-7.750928599548339
1763699240527510500,3.068510498046875,4.388571643066406,4.46937594909668,-7.244854223632812
1763699240537461800,3.078461669921875,3.9495349136352536,3.55598801574707,-6.851008050537109
1763699240547412700,3.088412841796875,3.2959178604125974,2.261473105621338,-6.234650760650634
1763699240557363700,3.09836376953125,3.1859342216491697,1.5261539207458494,-5.8183589469909665
1763699240567315000,3.10831494140625,2.949057894897461,0.8143278396606445,-5.619640209197998
1763699240577265700,3.118265625,2.4389433036804196,-0.1249473991394043,-5.301510663604736
1763699240587215600,3.128215576171875,2.371007831573486,-0.07496843948364257,-5.102043737792968
1763699240597166800,3.138166748046875,2.721010186767578,-0.20919337005615232,-5.226841499328613
1763699240607117600,3.14811767578125,2.5116671791076657,-0.27129297561645505,-4.989815534973144
1763699240617068800,3.15806884765625,1.9815011489868164,0.044592005920410155,-4.983979668426513
1763699240627019500,3.16801953125,1.5949872184753418,-0.10803834991455077,-5.2934302330017085
1763699240636969700,3.1779697265625,1.3724761016845701,-0.7733271362304687,-5.606172824859619
1763699240646920700,3.187920654296875,0.9047089523315429,-1.3150152618408202,-5.7806502708435055
1763699240656871700,3.19787158203125,0.016460136413574217,-1.7826327735900878,-6.194996795654297
1763699240666822700,3.20782275390625,-1.3263877197265623,-2.0184616371154784,-6.473023463439941
1763699240676774000,3.21777392578125,-1.4468459907531737,-2.512265729522705,-6.354360843658447
1763699240686724600,3.227724609375,-0.9617208793640136,-2.909403929901123,-6.983437329864501
1763699240696674800,3.2376748046875,-0.5581482620239258,-2.6529250770568846,-7.508964594268798
1763699240706626300,3.247626220703125,-0.2428618309020996,-2.21523508605957,-7.950096250152588
1763699240716577500,3.25757763671875,0.23044190979003906,-1.8800468536376953,-8.488043435668946
1763699240726528500,3.267528564453125,0.7356184600830078,-1.1661258460998534,-9.086144937896728
1763699240736479500,3.2774794921875,0.9258078544616699,-0.21398177337646482,-9.501090013122559
1763699240746430500,3.287430419921875,1.1034276901245117,0.4969464820861816,-9.674370358276366
1763699240756380700,3.297380615234375,1.3016975151062011,0.6127659873962402,-9.846902515411376
1763699240766331400,3.307331298828125,1.5848118614196776,0.18300678939819334,-10.08018753967285
1763699240776282600,3.31728271484375,1.8598457771301269,-0.6489782875061034,-10.489596023559569
1763699240786233300,3.3272333984375,1.8550573738098144,-1.2229881355285643,-11.19887826538086
1763699240796184600,3.3371845703125,1.659181750488281,-1.2592004356384277,-12.172121240234373
1763699240806135300,3.34713525390625,1.424250712585449,-1.152359186553955,-13.220482292175292
1763699240816085500,3.35708544921875,1.2734160079956054,-1.3154641746520996,-14.296077388000487
1763699240826036500,3.367036376953125,1.933168202972412,-1.6192285102844237,-15.317354033660887
1763699240835987500,3.376987548828125,2.2547394134521483,-1.5101426971435545,-15.72511650390625
1763699240845938400,3.3869384765625,2.2043115409851075,-1.553387964630127,-15.872659181213377
1763699240855889700,3.3968896484375,2.976291938781738,-0.8506897773742675,-16.31783105239868
1763699240865840400,3.40684033203125,3.2740707702636715,0.09038111267089843,-15.974113476562499
1763699240875790600,3.41679052734375,3.836259247589111,0.7676409072875976,-15.521459725189208
1763699240885741600,3.426741455078125,3.8516719207763668,0.7579144630432129,-15.856199044799803
1763699240895692500,3.436692626953125,3.6893151206970214,0.4468178848266601,-15.499462997436522
1763699240905643500,3.4466435546875,3.5773861930847164,0.1596633232116699,-14.994136809539794
1763699240915594500,3.456594482421875,3.2492309280395504,-0.11896189498901366,-14.44780991821289
1763699240925545500,3.46654541015625,3.1573534393310547,-0.32082302246093747,-14.12130066680908
1763699240935495700,3.47649560546875,3.0410850212097165,-0.48123453369140623,-14.1346184135437
1763699240945446400,3.4864462890625,3.025073797607422,-0.7215525253295898,-14.383615386199951
1763699240955397600,3.496397705078125,3.0199861190795896,-0.9047089523315429,-14.629619606781006
1763699240965348600,3.5063486328125,2.890250316619873,-0.8943839576721191,-15.000122313690184
1763699240975299600,3.516299560546875,2.7479449554443356,-0.7223007133483886,-15.039477003479004
1763699240985250600,3.52625048828125,2.5215432609558106,-0.5551555099487304,-14.565574712371825
1763699240995200500,3.536200439453125,2.4066215812683103,-0.6389525680541992,-14.126238707733153
1763699241005151500,3.5461513671875,2.638709504699707,-1.2071265495300292,-13.989021025085448
1763699241015102500,3.5561025390625,2.7534815467834473,-1.9556138435363768,-13.814094666290282
1763699241025053400,3.566053466796875,2.45809691696167,-2.3837270278930665,-13.49596512069702
1763699241035004700,3.576004638671875,2.1862053909301755,-2.490568276977539,-13.186813831329346
1763699241044955400,3.585955322265625,1.7803882095336914,-2.310703877258301,-12.837709301757812
1763699241054905300,3.5959052734375,1.2897265068054198,-1.638831036376953,-12.814665110778808
1763699241064856600,3.605856689453125,1.0281599754333495,-0.932691184234619,-13.025354856872557
1763699241074807300,3.615807373046875,0.93852705078125,-0.7454945419311523,-12.954576270294188
1763699241084758500,3.625758544921875,1.5426140571594238,-1.3346177879333496,-12.363807010650634
1763699241094709500,3.63570947265625,4.823418519592285,-1.8900725730895995,-10.857255615997314
1763699241104660500,3.645660400390625,5.0942625823974605,-1.9981109230041503,-9.834183319091796
1763699241114610400,3.6556103515625,4.641159918212891,-1.6092027908325195,-9.374496600341796
1763699241124561700,3.665561767578125,2.685246799468994,-0.9979331794738769,-9.922768780517577
1763699241134512400,3.675512451171875,1.8798972160339353,-0.9075520668029785,-10.385148976135254
1763699241144463600,3.685463623046875,1.3263877197265623,-1.0013748443603514,-10.160842208099364
1763699241154414300,3.695414306640625,0.5916670852661132,-1.0580874961853026,-10.27890627746582
1763699241164365600,3.705365478515625,0.08948328704833984,-0.8364742050170898,-10.430788445281982
1763699241174315500,3.7153154296875,0.609025047302246,-0.7013514488220215,-9.780014506530762
1763699241184266500,3.7252666015625,0.6953659446716308,-0.44532150878906246,-8.493879302215575
1763699241194217500,3.735217529296875,-0.7106289802551269,0.20171148986816406,-8.654590088653563
1763699241204168400,3.74516845703125,-1.3320739486694335,0.3485059791564941,-8.336759818267822
1763699241214119400,3.755119384765625,-1.8737620742797851,0.2193687271118164,-7.620145333862304
1763699241224070700,3.765070556640625,-0.5793968017578125,-0.2657563842773437,-7.064241635894775
1763699241234020400,3.775020263671875,0.3093009269714355,-0.32187048568725585,-6.291812325286865
1763699241243971600,3.7849716796875,0.4682160621643066,-0.03202244720458984,-5.753865139770507
1763699241253922600,3.794922607421875,0.09142857589721679,0.1862988166809082,-5.877465800476074
1763699241263873500,3.80487353515625,-0.4725555526733398,0.3043628860473633,-6.158335582733154
1763699241273824500,3.814824462890625,-0.6057330200195312,-0.07511807708740234,-6.461501367950439
1763699241283775500,3.824775390625,-0.5319616813659668,-0.6338648895263671,-6.779630913543701
1763699241293725400,3.834725341796875,-0.3516483688354492,-0.9900023864746094,-6.955754373168945
1763699241303676700,3.8446767578125,-0.09217676391601562,-1.3199533027648924,-6.880935571289062
1763699241313627400,3.85462744140625,0.13871405868530273,-1.5270517463684081,-6.92088881149292
1763699241323578600,3.86457861328125,0.618601853942871,-1.5587749183654784,-7.191732874298095
1763699241333529600,3.874529541015625,0.6159083770751953,-1.2482768905639647,-7.7778633682250975
1763699241343480600,3.88448046875,0.5364508094787598,-0.9590274024963379,-8.607304605865478
1763699241353430500,3.894430419921875,0.6486790122985839,-0.7784148147583008,-9.17443112411499
1763699241363381500,3.904381591796875,0.4842272857666015,-0.8265981231689452,-9.414449840545654
1763699241373332500,3.91433251953125,0.049530046844482416,-0.8857049766540527,-9.662997900390625
1763699241383283700,3.92428369140625,-0.2193687271118164,-1.1531073745727538,-9.890746333312988
1763699241393234400,3.934234375,-0.18644845428466797,-0.6883329772949218,-10.178649082946777
1763699241403185700,3.944185546875,-0.4652233100891113,-0.6458358978271485,-9.897480025482178
1763699241413135600,3.954135498046875,-1.176600478363037,-0.7240963645935058,-9.918578927612304
1763699241423086300,3.96408642578125,-1.4808137268066406,-0.5559036979675293,-10.471639511108398
1763699241433037600,3.97403759765625,-1.3654431343078612,-0.505625463104248,-10.402207662963866
1763699241442988300,3.98398828125,-1.1085153686523437,-0.6319196006774902,-10.199149434661864
1763699241452939500,3.993939453125,-0.9778817405700683,-0.643591333770752,-10.20184291152954
1763699241462890500,4.003890380859375,-0.8394669570922851,-0.563086302947998,-9.737367789459228
1763699241472840400,4.01384033203125,-0.6676829879760742,-0.615459464263916,-9.029731561279297
1763699241482791400,4.02379150390625,-0.2916436897277832,-0.5374982727050781,-8.082226254272461
1763699241492742700,4.03374267578125,-0.6790554458618163,-1.8101660926818846,-7.692569934082031
1763699241502693400,4.043693359375,-0.9938929641723632,-1.5020622665405272,-8.775497272491455
1763699241512644600,4.05364453125,-0.1352723937988281,-2.2029648025512696,-10.22713166656494
1763699241522595300,4.06359521484375,0.5159504577636719,-2.589329095458984,-8.58680425415039
1763699241532545500,4.073545654296875,0.31004911499023435,-2.2641665824890134,-7.913883950042724
1763699241542496500,4.08349658203125,-0.04578910675048828,-2.3292589401245114,-7.235127779388427
1763699241552447500,4.093447509765625,-0.4516062881469726,-2.7911902229309082,-7.099556110382079
1763699241562398500,4.1033984375,-0.949300958251953,-3.612102117156982,-6.773196496582031
1763699241572349400,4.113349365234375,-1.0250175857543944,-4.218284049987793,-5.821650974273681
1763699241582300400,4.123300537109375,-1.3735235649108886,-4.406228880310058,-5.801300260162353
1763699241592250600,4.133250732421875,-1.4438532386779783,-4.424783943176269,-6.284330445098877
1763699241602201300,4.143201416015625,-0.553509496307373,-4.521150559997558,-8.591742295074463
1763699241612152600,4.153152587890625,-1.4603133750915527,-3.775656018066406,-12.376376569366455
1763699241622103600,4.163103515625,-3.8717233596801757,-3.547907585144043,-13.923180479431151
1763699241632054500,4.173054443359375,-5.430049365234375,-5.40715481185913,-15.785121183013915
1763699241642005500,4.183005615234375,-5.35627802658081,-6.1255649475097655,-14.408305590820312
1763699241651955700,4.192955810546875,-2.42592483215332,-5.689820245361328,-9.800963771057129
1763699241661906400,4.202906494140625,-1.57044665145874,-4.7466544288635255,-9.195380388641357
1763699241671857700,4.212857666015625,-1.9960159965515136,-4.579359587860107,-8.877550118255614
1763699241681808400,4.222808349609375,-1.9761141952514647,-5.416731618499756,-7.383568282318115
1763699241691759600,4.232759521484375,-1.9080290855407713,-4.841823944854736,-7.6187985954284665
1763699241701710300,4.24271044921875,-2.457348728942871,-6.171952604675292,-6.26338118057251
1763699241711659800,4.25265966796875,-1.5881038887023924,-6.3524155548095695,-7.177068389129638
1763699241721610500,4.262610595703125,-3.0927099945068357,-5.856666173553466,-7.842806088256835
1763699241731561700,4.272561767578125,-3.599981471252441,-6.132448277282714,-7.6285250396728514
1763699241741512400,4.282512451171875,-2.749590969085693,-6.876296805572509,-8.045265766143798
1763699241751463700,4.292463623046875,-3.3729812263488768,-7.193977438354492,-7.7395561416625975
1763699241761414400,4.302414306640625,-3.9070378341674803,-6.68386284713745,-7.031620638275146
1763699241771364600,4.312364501953125,-3.210624426269531,-6.091297936248779,-6.251110897064208
1763699241781315600,4.322315673828125,-2.2878093238830566,-5.374384176635742,-6.335506505584717
1763699241791266600,4.3322666015625,-2.5386019477844237,-4.396053523254395,-6.474220564270019
1763699241801217500,4.342217529296875,-2.596511700439453,-3.6092590026855467,-6.837241390991211
1763699241811168800,4.352168701171875,-1.8556559242248534,-3.5057097808837887,-7.784297785186767
1763699241821119500,4.362119384765625,-1.926733786010742,-3.4804210258483885,-7.9189716285705565
1763699241831069700,4.372069580078125,-2.1375731697082516,-4.512321941375732,-7.078906121063232
1763699241841020700,4.382020751953125,-1.4266449142456055,-4.648492160797119,-6.954856547546386
1763699241850971600,4.3919716796875,-1.3524246627807617,-5.5829789962768555,-6.011541093444824
1763699241860922600,4.401922607421875,-1.3376105400085447,-6.235997499084473,-5.908889697265625
1763699241870873600,4.41187353515625,-1.8403928886413574,-6.357203958129882,-5.496039548492432
1763699241880824600,4.421824462890625,-1.506102481842041,-5.425410599517822,-5.387253010559082
1763699241890774800,4.43177490234375,-1.2949638229370117,-4.867112699890137,-5.831676693725585
1763699241900725500,4.4417255859375,-0.2171241630554199,-5.574599290466308,-6.88856708908081
1763699241910676700,4.4516767578125,0.3574842353820801,-6.459406441497802,-7.338826638793945
1763699241920627700,4.461627685546875,0.42541970748901364,-7.048828962707519,-6.778433812713622
1763699241930578700,4.47157861328125,0.49545010604858397,-7.683142765045165,-6.234052210235595
1763699241940529700,4.48152978515625,-0.046537294769287106,-6.9168485961914055,-5.817311483764648
1763699241950479600,4.491479736328125,-0.3404255485534668,-6.63358461227417,-4.96108511505127
1763699241960430600,4.5014306640625,-0.6302735870361328,-6.666205609893798,-4.4002433761596675
1763699241970381800,4.5113818359375,-0.34865561676025386,-7.237970893859863,-4.41146619644165
1763699241980332500,4.52133251953125,-0.5776011505126952,-7.982417972564697,-4.367921653747558
1763699241990283800,4.53128369140625,-0.6242880828857421,-8.45332751159668,-4.149151477050781
1763699242000234500,4.541234375,-0.31393969268798827,-8.489390174102782,-4.061912754058838
1763699242010184400,4.551184326171875,1.4082394889831542,-9.405172309112547,-4.425532131195068
1763699242020135700,4.5611357421875,3.414131567382812,-8.59353794631958,-4.632181661987304
1763699242030086400,4.57108642578125,1.9358616798400878,-8.671349500274658,-3.5767876426696774
1763699242040037600,4.58103759765625,0.30047230834960936,-8.597727799224852,-3.271826206207275
1763699242049988600,4.590988525390625,-1.7953519699096678,-11.039813492584228,-5.32485412979126
1763699242059939600,4.600939697265625,-4.266317720794677,-14.866047020721435,-7.061548159027099
1763699242069889500,4.6108896484375,-3.0391397323608396,-17.51238804321289,-8.10123022994995
1763699242079840800,4.6208408203125,-0.9036614891052246,-16.844106504821777,-7.665784803009033
1763699242089791500,4.63079150390625,0.1375169578552246,-11.371859335327148,-3.678541213226318
1763699242099742700,4.64074267578125,-0.28057050704956055,-8.360701834869385,-4.064306955718994
1763699242109693400,4.650693359375,-0.4918588035583496,-7.650372129821777,-4.247313745117188
1763699242119644700,4.660644775390625,-0.7070376777648926,-7.866299192047118,-3.8009447731018065
1763699242129594600,4.6705947265625,-0.6718728408813476,-7.866149554443359,-4.22636448059082
1763699242139545600,4.680545654296875,0.843956085205078,-9.504681315612793,-4.033182334136963
1763699242149496600,4.69049658203125,-1.4483423667907713,-9.159018450927734,-5.870283195495605
1763699242159447600,4.700447509765625,-3.726574884033203,-7.912836486816405,-8.062025177764893
1763699242169398500,4.7103984375,-1.7016788299560546,-6.705111386871337,-4.5227965736389155
1763699242179349800,4.720349853515625,-0.7544727981567383,-6.424241604614258,-3.7442321212768555
1763699242189299500,4.730299560546875,-0.9513958847045898,-8.08925922164917,-3.010259674835205
1763699242199250700,4.740250732421875,2.7769746505737305,-8.58051947479248,-1.6738462356567383
1763699242209201700,4.75020166015625,3.208679137420654,-9.663596450805663,-0.9958382530212402
1763699242219152600,4.760152587890625,2.4437317070007323,-10.046219803619385,-1.8879776466369629
1763699242229103600,4.770103515625,1.3311761230468748,-10.186430238342284,-2.7398645248413085
1763699242239054600,4.7800546875,0.10384849700927734,-10.064774866485594,-3.0219314079284665
1763699242249004500,4.790004638671875,-1.0489596023559569,-9.576058452606201,-3.246986363983154
1763699242258955800,4.799955810546875,-1.454926421356201,-9.28306802444458,-3.1949124778747557
1763699242268906500,4.809906494140625,-1.4068927505493163,-9.428216500091553,-2.684648249053955
1763699242278857700,4.819857666015625,-0.8699930282592773,-9.661351886749268,-2.01756381149292
1763699242288808700,4.82980859375,-0.3736450965881347,-9.794379716491699,-1.5511434005737303
1763699242298759700,4.839759765625,0.07107786178588867,-9.743054018402098,-1.316362000274658
1763699242308709600,4.849709716796875,0.32890345306396485,-9.713874685668944,-1.3129203353881835
1763699242318660900,4.859660888671875,0.21398177337646482,-9.737517427062988,-1.597979970550537
1763699242328611600,4.869611572265625,-0.01810615005493164,-9.83852280960083,-2.0265420677185055
1763699242338562800,4.879562744140625,-0.32561142578124996,-9.794678991699218,-2.2732944763183593
1763699242348513500,4.889513427734375,-0.5904699844360352,-9.69846201248169,-2.4823382087707517
1763699242358464800,4.89946484375,-0.687584789276123,-9.49914472427368,-2.492812841033935
1763699242368414700,4.909414794921875,-0.5608417388916015,-9.441384609222412,-2.459144380187988
1763699242378365400,4.919365478515625,-0.5006874221801757,-9.290400267028808,-2.4161983879089353
1763699242388316700,4.929316650390625,-0.45489831542968745,-9.172485835266112,-2.393603109741211
1763699242398267400,4.939267333984375,-0.43664252777099605,-9.19343509979248,-2.6063877822875976
1763699242408218600,4.949218505859375,-0.5587468124389648,-8.45332751159668,-2.7054478759765623
1763699242418169900,4.959169921875,-0.5898714340209961,-8.069357420349121,-2.5392004981994627
1763699242428119600,4.96911962890625,-0.4495113616943359,-8.464699969482421,-2.8194717300415038
1763699242438070500,4.979070556640625,-0.5593453628540038,-8.373121755981446,-3.2529718681335447
1763699242448021800,4.989021728515625,-0.5864297691345215,-8.817395801544189,-4.2390836769104006
1763699242457972500,4.998972412109375,-0.4038718925476074,-9.822810861206055,-4.846911623382568
1763699242467923700,5.008923828125,0.054767362976074214,-8.855852665710449,-4.433014011383056
1763699242477874400,5.01887451171875,0.037708676147460936,-7.426214999389648,-3.264942876434326
1763699242487825700,5.02882568359375,0.06763619689941405,-8.593986859130858,-1.9066823471069334
1763699242497775600,5.038775634765625,0.28371289672851563,-8.810662109374999,-2.184559377288818
1763699242507726600,5.0487265625,-0.02798223190307617,-8.039878812408446,-2.239476377868652
1763699242517677600,5.058677490234375,-0.11671733093261719,-6.8314055244445795,-2.1015105072021485
1763699242527628500,5.068628662109375,-0.4129997863769531,-5.863549503326416,-2.379836450195312
1763699242537579500,5.07857958984375,-0.48722003784179685,-5.692364084625244,-2.8315923759460446
1763699242547530800,5.08853076171875,-0.33967736053466796,-7.154024198150634,-2.920926025390625
1763699242557480400,5.09848046875,-0.07721300354003906,-9.71058265838623,-2.512864279937744
1763699242567431700,5.108431640625,0.088735099029541,-11.865513790130615,-2.0868460220336913
1763699242577382700,5.118382568359375,0.009277531433105468,-13.102867135620116,-2.270750637054443
1763699242587333600,5.128333740234375,-0.1910872200012207,-12.177807469177246,-2.692878317260742
1763699242597284600,5.13828466796875,-0.3892074073791504,-10.731111116027831,-3.3316812477111815
1763699242607235600,5.148235595703125,-0.31109657821655273,-10.020781410980224,-3.726574884033203
1763699242617185500,5.158185546875,-0.21487959899902342,-9.874435834503172,-3.6605847007751464
1763699242627136800,5.16813671875,-0.25034371109008785,-10.510994200897215,-3.574692716217041
1763699242637087500,5.17808740234375,-0.3576338729858398,-10.455628287506103,-3.3455975448608397
1763699242647038700,5.188038818359375,-0.40611645660400386,-11.292252130126952,-3.7024832298278807
1763699242656989700,5.19798974609375,-0.40611645660400386,-11.901726090240478,-4.308216249847412
1763699242666940700,5.207940673828125,-0.46896425018310545,-10.22144543762207,-3.923049057769775
1763699242676890600,5.217890625,-0.9718962364196777,-9.311798444366454,-2.9336452217102047
1763699242686841600,5.227841552734375,-1.063624087524414,-7.299621586608886,-1.7088614349365234
1763699242696792600,5.23779248046875,-1.049558152770996,-10.01659155807495,-3.126378455352783
1763699242706744300,5.247744384765625,-0.4300584732055664,-10.134206714630126,-4.324676386260986
1763699242716695000,5.257695068359375,-0.5098153160095215,-9.016713089752196,-3.362656231689453
1763699242726646300,5.267646240234375,-0.5333084197998047,-9.090783703613281,-2.807949634552002
1763699242736596200,5.27759619140625,-0.5276221908569335,-9.185953219604492,-2.788197470855713
1763699242746547200,5.287547119140625,-0.6486790122985839,-8.58725316696167,-2.8459575859069823
1763699242756498200,5.297498291015625,-0.527322915649414,-8.40798731765747,-3.0992940490722654
1763699242766449200,5.30744921875,-0.143652099609375,-3.1344588859558105,-1.4287398406982421
1763699242776400100,5.317400146484375,-0.5635352157592773,-3.1667806083679197,-0.13991115951538086
1763699242786351000,5.32735107421875,-0.689530078125,-11.012280173492432,-3.693355335998535
1763699242796302000,5.337302001953125,-0.1514332550048828,-9.78629928588867,-2.870348515319824
1763699242806252300,5.347252197265625,-0.4408323806762695,-9.864260477447509,-2.8297967247009277
1763699242816203000,5.357203125,-0.23403321228027343,-11.442338646697998,-4.005050464630127
1763699242826154200,5.367154296875,-0.35194764404296874,-10.882544371032715,-3.9740754806518552
1763699242836105200,5.377105224609375,-0.27099370040893556,-11.652579479980469,-3.99023634185791
1763699242846056200,5.38705615234375,-0.2745850028991699,-10.798448037719726,-4.23279889755249
1763699242856007200,5.397007080078125,-0.538845011138916,-11.314997045898437,-4.350563691711425
1763699242865957000,5.40695703125,-0.4538508522033691,-9.96571477279663,-3.4358290199279784
1763699242875908000,5.416908203125,-0.261117618560791,-8.88667801208496,-3.215113554382324
1763699242885859000,5.426859130859375,-0.35613749694824215,-7.236474517822265,-3.0596400840759275
1763699242895810000,5.43681005859375,-0.4837783729553222,-6.314557241058349,-1.5487491989135742
1763699242905761300,5.44676123046875,-1.0166378799438476,-1.7344494651794433,1.4068927505493163
1763699242915712000,5.4567119140625,-0.8249521095275878,-6.945579016113281,-0.5972036766052246
1763699242925662000,5.466661865234375,-0.34401685104370117,-8.066514305877686,-1.4273931022644042
1763699242935613200,5.47661328125,-0.09053075027465819,-7.229142275238036,-1.4651017784118652
1763699242945564000,5.48656396484375,-0.423923331451416,-7.7633485206604,-1.30229606552124
1763699242955515100,5.49651513671875,0.01975216369628906,-8.037334973144532,-1.3865420364379881
1763699242965466000,5.506466064453125,-0.01571194839477539,-9.358036463928222,-2.245611519622803
1763699242975417000,5.5164169921875,0.2002151138305664,-11.289409015655517,-3.2755671463012694
1763699242985368000,5.5263681640625,0.5657797798156738,-10.77091471862793,-4.171297842407227
1763699242995318300,5.536318359375,0.635211627960205,-10.198401246643066,-4.384381790161132
1763699243005269000,5.54626904296875,0.1283890640258789,-10.410288093566894,-3.8509237327575683
1763699243015220200,5.55622021484375,-0.6534674156188964,-9.758317053985595,-2.640654793548584
1763699243025171000,5.5661708984375,-0.20814590682983397,-8.675090440368653,-1.7446248222351073
1763699243035122200,5.5761220703125,0.03890577697753906,-7.293187169647217,-1.0778396598815918
1763699243045073200,5.5860732421875,-0.42497079467773435,-6.216843885803223,-0.6202478675842285
1763699243055023000,5.596023193359375,-0.21697452545166016,-5.6817398147583,-0.8457517364501953
1763699243064974000,5.60597412109375,-0.34820670394897457,-9.46816974029541,-1.7169418655395507
1763699243074925300,5.61592529296875,-1.1746551895141601,-13.686154515075684,-1.9482816009521484
1763699243084876000,5.6258759765625,-0.7080851409912109,-11.390713673400878,-2.8076503593444824
1763699243094827300,5.6358271484375,1.9056348838806152,-6.283731894683838,-2.195632559967041
1763699243104778000,5.645778076171875,0.6286275733947754,-12.744185799407958,-0.8545803550720215
1763699243114728200,5.655728271484375,-0.6497264755249023,-14.09586227416992,-1.2936170845031738
1763699243124679200,5.66567919921875,-0.6685808135986328,-10.991779821777342,-1.6671125434875487
1763699243134630100,5.675630126953125,-0.5600935508728027,-6.337002881622314,-0.7739256866455078
1763699243144581000,5.6855810546875,0.366462491607666,-1.6301520553588866,2.6081834335327145
1763699243154532000,5.695531982421875,0.2588730545043945,1.343296768951416,1.2840402778625488
1763699243164483000,5.705483154296875,-0.22789807052612304,-8.699631007385253,0.7760206130981445
1763699243174434300,5.715434326171875,-1.6814777534484862,-6.30752427368164,2.288108599090576
1763699243184384000,5.725384033203125,2.0028993263244628,-12.73775138244629,-3.08358210067749
1763699243194335200,5.735335205078125,3.0597897216796874,-28.553398636627197,-10.82119295349121
1763699243204286200,5.7452861328125,-0.650624301147461,-21.626973233795166,-14.156465503692626
1763699243214237200,5.7552373046875,-1.5982792457580566,-11.994651042175292,-11.238532230377196
1763699243224188200,5.765188232421875,-0.4445733207702636,-11.79219136428833,-2.50253928527832
1763699243234139100,5.77513916015625,0.12165537185668944,-13.308768478393555,2.4244284561157223
1763699243244089000,5.785089111328125,0.11133037719726561,-12.266692205810546,2.529474053955078
1763699243254040300,5.795040283203125,0.19093758239746092,-10.220098699188231,0.34267011260986324
1763699243263991000,5.804990966796875,0.17178396911621094,-9.779116680908203,-0.6272808349609375
1763699243273942300,5.8149423828125,0.32441432495117184,-9.929652110290526,-0.6162076522827148
1763699243283893000,5.82489306640625,0.600794979095459,-9.99160207824707,-0.856824919128418
1763699243293844200,5.83484423828125,0.5331587821960448,-9.68499462814331,-1.2580033348083495
1763699243303794200,5.844794189453125,0.36810850524902344,-9.624690673828125,-1.2324153045654296
1763699243313745000,5.854744873046875,0.43364977569580077,-9.922768780517577,-0.7076362281799315
1763699243323696000,5.864696044921875,0.6106710609436035,-10.186729513549803,-0.21652561264038084
1763699243333647000,5.874647216796875,0.5059247383117675,-10.45143843460083,-0.16953940505981444
1763699243343598000,5.88459814453125,0.4203320289611816,-10.837054539489746,-0.8014590057373047
1763699243353549300,5.89454931640625,0.11791443176269531,-11.335796672821044,-1.227028350830078
1763699243363500000,5.9045,-0.2998737579345703,-11.732635597991942,-1.299153675842285
1763699243373450000,5.914449951171875,-0.18315642700195311,-12.053009707641602,-1.4110826034545898
1763699243383401200,5.924401123046875,-0.1589151351928711,-11.74774899597168,-1.3253402565002441
1763699243393352000,5.93435205078125,-0.51714755859375,-10.637886888885497,-1.1634323692321777
1763699243403303200,5.94430322265625,-0.16639701538085935,-10.001627797698974,-1.3997101455688477
1763699243413254100,5.954254150390625,-0.0017956512451171875,-9.6787098487854,-1.532887612915039
1763699243423205000,5.964205078125,0.04144961624145507,-8.702773397064208,-1.585859324645996
1763699243433155000,5.974155029296875,0.008080430603027343,-7.617751132202148,-1.5912462783813475
1763699243443106000,5.98410595703125,0.0326209976196289,-6.525246987152099,-1.4796166259765624
1763699243453057000,5.99405712890625,0.3043628860473633,-7.199364392089843,-1.5695488258361816
1763699243463008300,6.00400830078125,0.117465518951416,-7.490559169006347,-1.3193547523498534
1763699243472959000,6.013958984375,0.23448212509155272,-7.006032608032226,-0.9705494979858398
1763699243482910200,6.02391015625,0.7849988693237304,-6.685359223175048,-0.6075286712646484
1763699243492861000,6.03386083984375,0.6893804405212401,-8.782679877471923,-0.5096656784057617
1763699243502811100,6.04381103515625,-0.010025719451904296,-11.588684223175049,-0.9159317726135253
1763699243512762000,6.05376220703125,0.33788170928955075,-13.2528040145874,-2.7775732009887695
1763699243522713000,6.063713134765625,0.25438392639160157,-12.606219928741455,-3.807678465270996
1763699243532664000,6.0736640625,0.23208792343139648,-10.527903250122069,-4.0824131057739255
1763699243542615300,6.083615234375,0.4634276588439941,-9.256133255767821,-3.331232334899902
1763699243552566000,6.09356591796875,0.5027823486328125,-9.099013771820069,-1.8646341804504394
1763699243562516200,6.10351611328125,0.42931028518676756,-9.283666574859618,-1.082777700805664
1763699243572467200,6.11346728515625,0.3333925811767578,-9.33349589691162,-1.08532154006958
1763699243582418200,6.123418212890625,0.22834698333740233,-9.368660733795165,-1.4800655387878416
1763699243592369200,6.133369140625,0.1304839904785156,-9.626486325073241,-1.7833809616088867
1763699243602320100,6.143320068359375,0.061949967956542965,-9.703100778198241,-1.834257746887207
1763699243612271000,6.15327099609375,0.23567922592163085,-9.84405940093994,-1.7842787872314452
1763699243622222000,6.16322216796875,0.1671452033996582,-9.810989490509032,-1.5026608169555664
1763699243632172000,6.173172119140625,0.1131260284423828,-9.703400053405762,-1.2363058822631836
1763699243642123300,6.183123291015625,0.06599018325805664,-9.606135610961914,-1.1124059463500975
1763699243652074000,6.193073974609375,-0.03965396499633789,-9.57650736541748,-1.214309154510498
1763699243662025200,6.203025146484375,-0.10085574493408203,-9.612570027923583,-1.4305354919433593
1763699243671976200,6.21297607421875,-0.11611878051757812,-9.673472532653808,-1.6539444343566894
1763699243681927200,6.22292724609375,-0.08439560852050781,-9.711929396820068,-1.7962497955322265
1763699243691877000,6.232877197265625,-0.07616554031372069,-9.751284086608885,-1.8517653465270996
1763699243701828400,6.242828369140625,-0.15427636947631834,-9.618854807281494,-1.8950106140136718
1763699243711778600,6.252778564453125,-0.32142157287597656,-9.419687156677245,-1.9916765060424804
1763699243721729500,6.2627294921875,-0.4827309097290039,-9.324966553497314,-2.10674782333374
1763699243731680500,6.272680419921875,-0.601992079925537,-9.312546632385253,-2.2595278167724606
1763699243741631500,6.282631591796875,-0.7505822204589844,-9.338134662628173,-2.3184850326538085
1763699243751581700,6.292581787109375,-0.8855553390502929,-9.294590119934082,-2.2911013511657714
1763699243761532700,6.30253271484375,-0.9352350234985352,-9.247603912353515,-2.1576246086120605
1763699243771483600,6.312483642578125,-0.8667010009765624,-9.290400267028808,-1.8671780197143553
1763699243781434600,6.3224345703125,-0.6343138023376464,-9.543587092590332,-1.4540285957336425
1763699243791385600,6.332385498046875,-0.44113165588378905,-9.91483798751831,-0.8875006278991698
1763699243801336600,6.342336669921875,-0.38052842636108397,-10.319458068084716,-0.2931400657653808
1763699243811287600,6.35228759765625,-0.28012159423828126,-10.552144541931153,0.1140238540649414
1763699243821237500,6.362237548828125,-0.20844518203735352,-10.660781442260742,0.38456864166259763
1763699243831188700,6.372188720703125,-0.08693944778442382,-10.589853218078613,0.4537012145996093
1763699243841139500,6.382139404296875,-0.09247603912353515,-10.543764836120605,0.22086510314941404
1763699243851090700,6.392090576171875,-0.2877531120300293,-10.812214697265624,-0.17866729888916014
1763699243861041700,6.402041748046875,-0.024091654205322263,-9.45470235595703,-0.7927800247192383
1763699243870992600,6.41199267578125,-0.10040683212280273,-8.584260414886474,-1.0048165092468262
1763699243880942600,6.421942626953125,-0.5020341606140136,-9.075071755218506,-1.3992612327575682
1763699243890893800,6.431893798828125,-0.5705681831359863,-9.38512087020874,-1.905784521484375
1763699243900844500,6.441844482421875,-0.22161329116821288,-9.412654189300536,-2.227655007171631
1763699243910795800,6.451795654296875,-0.4649240348815918,-9.441085334014891,-2.2786814300537106
1763699243920746500,6.46174658203125,-0.7987655288696288,-9.999832146453857,-2.401683540344238
1763699243930697700,6.47169775390625,-0.6097732353210449,-10.139444030761718,-2.46408242111206
1763699243940648400,6.4816484375,-0.41270051116943357,-9.41025998764038,-2.185157927703857
1763699243950598700,6.4915986328125,-0.47554830474853516,-8.926331977081299,-1.608903515625
1763699243960549600,6.501549560546875,-0.4933551795959472,-8.63783067703247,-1.1180921752929687
1763699243970500600,6.51150048828125,-0.5981015022277831,-8.984092092132569,-0.8583212951660156
1763699243980451600,6.52145166015625,-0.6102221481323242,-9.457096557617186,-0.8053495834350586
1763699243990402800,6.53140283203125,-0.46627077331542965,-9.45485199356079,-0.8194155181884765
1763699244000353500,6.541353515625,-0.36391865234375,-9.469666116333007,-0.8804676605224608
1763699244010303700,6.5513037109375,-0.7894879974365234,-9.262866947937011,-0.9558850128173828
1763699244020254700,6.561254638671875,-0.7562684494018554,-9.286360051727295,-1.1026795021057127
1763699244030205700,6.571205810546875,-0.6468833610534668,-9.389310723114013,-1.3397054664611816
1763699244040156700,6.58115673828125,-0.7269394790649414,-9.458742571258544,-1.5457564468383789
1763699244050107600,6.591107666015625,-0.9283516937255859,-9.285911138916015,-1.904437783050537
1763699244060058600,6.60105859375,-0.7318775199890136,-9.337835387420654,-2.1986253120422363
1763699244070009600,6.611009521484375,-0.47809214401245115,-10.177751257324218,-2.118269918823242
1763699244079959600,6.62095947265625,-0.17806874847412107,-10.919804134368896,-2.0555717628479004
1763699244089910800,6.630910888671875,-0.04534019393920898,-11.005995394134521,-2.085948196411133
1763699244099861500,6.640861572265625,0.12853870162963865,-10.328585961914062,-2.27927998046875
1763699244109812700,6.650812744140625,0.2819172454833984,-9.437793306732177,-2.3509563926696777
1763699244119763700,6.660763671875,0.2893991256713867,-9.177573513793945,-2.1335329544067383
1763699244129714700,6.670714599609375,0.35224691925048823,-9.361627766418456,-1.9557634811401365
1763699244139664600,6.68066455078125,0.6192004043579101,-9.472808506011962,-1.9865888275146484
1763699244149615600,6.69061572265625,0.9181763366699218,-9.52563058013916,-2.099565218353271
1763699244159566600,6.700566650390625,0.9382277755737304,-10.237456661224364,-2.070236248016357
1763699244169517600,6.710517578125,0.9108440940856933,-9.961524919891357,-2.2168810997009274
1763699244179468500,6.720468505859375,0.7673416320800781,-9.812186591339112,-2.3505074798583983
1763699244189419500,6.73041943359375,0.5018845230102539,-9.659855510711669,-2.422333529663086
1763699244199370500,6.74037060546875,0.26336218261718747,-9.552864624023437,-2.3701100059509277
1763699244209320400,6.750320556640625,0.25034371109008785,-9.542988542175292,-2.2842180213928223
1763699244219271700,6.760271728515625,0.37454292221069335,-9.749638072967528,-2.199373500061035
1763699244229222700,6.77022265625,0.6192004043579101,-10.038588285827636,-2.101809782409668
1763699244239173600,6.780173583984375,1.0181342559814452,-10.20782841567993,-1.9116203880310056
1763699244249124600,6.79012451171875,1.5547347030639647,-10.295366413879394,-1.6365864723205565
1763699244259075600,6.80007568359375,2.13862063293457,-10.377667095947265,-1.4044985488891601
1763699244269025500,6.810025634765625,2.5770588119506836,-10.484957257843018,-1.1833341705322264
1763699244278976800,6.819976806640625,2.8802245971679685,-10.565312651062012,-0.9087491676330566
1763699244288927500,6.829927490234375,3.0898668800354003,-10.667215859222411,-0.5707178207397461
1763699244298878700,6.839878662109375,3.2396541213989254,-10.785429566192626,-0.06509235763549805
1763699244308829400,6.849829345703125,3.295020034790039,-10.87895306854248,0.6404489440917969
1763699244318780700,6.85978076171875,3.2965164108276364,-11.042955882263183,1.451784031677246
1763699244328731600,6.869731689453125,3.3215058906555175,-11.258134756469726,2.34946001663208
1763699244338681600,6.879681640625,4.153341329956055,-12.057648473358153,3.2849943153381345
1763699244348632600,6.889632568359375,4.876689506530761,-13.154941021728515,3.6159926948547363
1763699244358583800,6.899583740234375,4.9461213546752925,-13.971962338256835,2.2737433891296384
1763699244368534500,6.909534423828125,5.232378090667725,-14.588020352935791,-0.5951087501525879
1763699244378485800,6.91948583984375,5.416282705688476,-14.821455014801025,-3.0002339553833006
1763699244388436500,6.9294365234375,4.610783484649658,-14.06518656539917,-4.272752137756347
1763699244398386700,6.93938671875,2.7136779441833494,-12.866439721679686,-4.2800843803405755
1763699244408337700,6.949337646484375,0.013467384338378905,-12.030414429473876,-3.887584945678711
1763699244418288600,6.95928857421875,-1.5587749183654784,-11.138574311065673,-3.7892730400085446
1763699244428239600,6.969239501953125,-1.2808978881835937,-9.906607919311522,-3.7831378982543944
1763699244438190600,6.979190673828125,0.16445172653198242,-8.879794682312012,-3.387645711517334
1763699244448141600,6.9891416015625,1.7197849800109861,-8.380154723358153,-2.8196213676452637
1763699244458092800,6.9990927734375,2.2198738517761227,-8.24203921508789,-1.6762404373168944
1763699244468042500,7.00904248046875,2.610727272796631,-8.822034567260742,-0.43454760131835934
1763699244477993700,7.01899365234375,2.1184195564270016,-8.85525411529541,0.28490999755859375
1763699244487944700,7.02894482421875,1.124227317047119,-8.392125731658934,0.35927988662719723
1763699244497895700,7.038895751953125,0.8016086433410644,-8.022820125579834,0.031872809600830075
1763699244507846700,7.0488466796875,0.6313210502624511,-7.388057410430908,-0.4333505004882812
1763699244517797600,7.058797607421875,0.6643909606933593,-6.667552348327637,-0.8614636848449706
1763699244527747600,7.06874755859375,0.8988730857849121,-6.088305184173584,-1.0877157417297363
1763699244537698800,7.07869873046875,1.1674725845336913,-5.668272430419922,-1.1950059036254883
1763699244547649500,7.0886494140625,1.4668974296569823,-5.350442160034179,-1.046415763092041
1763699244557600800,7.098600830078125,1.7422306205749511,-5.26065959777832,-0.7299322311401367
1763699244567551500,7.108551513671875,1.903091044616699,-5.609614489746093,-0.2371756019592285
1763699244577502700,7.118502685546875,2.1134815155029294,-6.102670394134521,-0.04638765716552734
1763699244587453700,7.12845361328125,2.274790852355957,-6.592733546447754,-0.06344634399414062
1763699244597403600,7.138403564453125,2.7358243095397947,-6.969521032714844,-0.1406593475341797
1763699244607354600,7.148354736328125,3.427898226928711,-7.190685411071777,-0.31648353195190426
1763699244617305600,7.1583056640625,4.075080863189697,-7.307702017211914,-0.5928641860961914
1763699244627256600,7.168256591796875,4.6252983322143555,-7.444919699859619,-0.7640496047973633
1763699244637207600,7.17820751953125,5.168333196258545,-7.543680518341064,-0.9877578224182129
1763699244647158500,7.188158447265625,5.56038371810913,-7.630769603729248,-1.205929448699951
1763699244657108500,7.1981083984375,5.789927802276611,-7.726388032531738,-1.4731822090148925
1763699244667059700,7.208059814453125,5.858162549591064,-7.857021660614013,-1.7757494438171386
1763699244677010400,7.218010498046875,5.732766237640381,-7.981071234130859,-1.9704279663085937
1763699244686961700,7.227961669921875,5.59943913269043,-8.142979121398925,-2.04300220413208
1763699244696912600,7.23791259765625,5.686228942871093,-8.362497486114501,-1.9710265167236327
1763699244706864400,7.247864501953125,5.903951656341552,-8.516025667572022,-1.6901567344665527
1763699244716815400,7.2578154296875,6.290615224456786,-8.430283320617676,-1.4659996040344236
1763699244726765300,7.267765380859375,6.653336775970459,-8.244134141540528,-1.2369044326782226
1763699244736716300,7.27771630859375,6.85684391708374,-8.106916458892822,-0.9980828170776367
1763699244746667300,7.287667236328125,7.006780796051025,-7.968501675415038,-0.7517793212890624
1763699244756618200,7.2976181640625,6.959644950866699,-8.015487882995606,-0.3354875076293945
1763699244766569500,7.307569580078125,6.79938307723999,-8.166771500396727,-0.20709844360351562
1763699244776520200,7.317520263671875,6.389974593353271,-8.534431092834472,-0.09906009368896483
1763699244786470100,7.32747021484375,6.150105514526367,-8.961945726776122,0.09831190567016601
1763699244796421400,7.33742138671875,5.837063647460937,-9.234884716033935,-0.06703764648437499
1763699244806372400,7.347372314453125,5.570858350372314,-9.275137231445312,-0.10669161148071288
1763699244816323300,7.3573232421875,5.565770671844482,-8.965985942077635,-0.1714846939086914
1763699244826274300,7.3672744140625,5.802198085784911,-8.566004627227782,-0.31064766540527344
1763699244836225300,7.377225341796875,6.180781223297119,-8.306981935119628,-0.20994155807495116
1763699244846176500,7.387176513671875,6.487538311004638,-8.124573696136475,-0.0704793113708496
1763699244856126200,7.397126220703125,6.233304022216797,-8.093000161743163,0.07407061386108398
1763699244866077200,7.4070771484375,5.904550206756592,-8.575731071472168,1.0296563514709471
1763699244876028400,7.4170283203125,7.247547700500488,-9.247603912353515,2.0216040267944333
1763699244885979100,7.426979248046875,9.551517885589599,-9.764601833343505,2.440888592529297
1763699244895930400,7.436930419921875,9.844807588958739,-9.919177478027343,3.380014193725586
1763699244905881300,7.44688134765625,9.524433479309081,-9.787945299530028,3.191470812988281
1763699244915831300,7.456831298828125,7.69316848449707,-9.715221424102783,2.1110873138427735
1763699244925782300,7.4667822265625,4.176235883331299,-8.914061693572998,1.1459247695922852
1763699244935733200,7.476733154296875,1.4404115737915038,-7.743446719360351,2.0115783073425293
1763699244945684200,7.486684326171875,0.8479963005065917,-6.873453691101074,3.9428012214660644
1763699244955635200,7.49663525390625,0.5077203895568847,-6.452373474121093,4.509029914093017
1763699244965586200,7.506586181640625,-0.6851905876159667,-6.190507667541503,3.2511762168884277
1763699244975537400,7.516537353515625,-2.710086641693115,-6.407332555389404,2.463633508300781
1763699244985487000,7.526487060546875,-1.9437924728393554,-7.0640919982910155,1.9544167427062986
1763699244995438300,7.536438232421875,-0.5460276161193848,-8.132055576324463,0.3892074073791504
1763699245005389300,7.546389404296875,-1.4208090476989745,-9.83837317199707,-0.6934206558227539
1763699245015340300,7.55634033203125,-2.1377228073120116,-11.693729821014404,-1.6136919189453125
1763699245025291300,7.566291259765625,-1.4695909065246582,-13.59816760406494,-2.747645680236816
1763699245035242200,7.5762421875,-0.6548141540527344,-14.695310514831542,-4.295945966339111
1763699245045192200,7.586192138671875,-1.0277110626220702,-14.723592021942137,-6.074239249420166
1763699245055143400,7.596143310546875,-1.613243006134033,-13.937545689392088,-7.353640761566162
1763699245065094100,7.60609423828125,-2.015618522644043,-12.284499080657959,-8.067561769104003
1763699245075045400,7.61604541015625,-1.8972551780700682,-10.177900894927978,-8.247276531219482
1763699245084996000,7.62599609375,-1.33431851272583,-8.531587978363037,-7.651569230651855
1763699245094947300,7.635947265625,-0.9328408218383788,-7.4974424987792965,-6.33341157913208
1763699245104898300,7.645898193359375,-0.6730699417114258,-6.97834965133667,-4.495113616943359
1763699245114848300,7.65584814453125,-0.4939537300109863,-6.842478707122802,-2.5745149726867673
1763699245124799200,7.66579931640625,-0.06314706878662109,-6.848913124084472,-1.2961609237670897
1763699245134750500,7.67575048828125,0.5259761772155761,-6.9804445777893065,-0.7510311332702636
1763699245144701200,7.685701171875,1.1550526634216307,-7.2623618232727045,-0.3865139305114746
1763699245154652400,7.69565234375,0.9175777862548827,-7.64214206161499,0.032920272827148434
1763699245164603100,7.70560302734375,0.45893853073120117,-8.160037808227539,0.09846154327392577
1763699245174553300,7.71555322265625,0.3006219459533691,-8.769811043548584,-0.4079121078491211
1763699245184504300,7.72550439453125,0.5044283622741699,-9.065195673370361,-1.0791863983154297
1763699245194455300,7.735455322265625,1.0347440299987793,-9.095123194122314,-1.8656816436767576
1763699245204406300,7.74540625,1.2150573425292968,-9.081805447387694,-2.4389433036804196
1763699245214357500,7.755357421875,1.1640309196472167,-9.126247815704344,-2.626439221191406
1763699245224308200,7.76530810546875,1.3744213905334473,-9.169642720794677,-2.6677391998291013
1763699245234259500,7.775259521484375,2.229301020812988,-9.16859525756836,-2.612522924041748
1763699245244209400,7.78520947265625,3.132214321899414,-9.018359103393554,-2.1435586738586423
1763699245254160400,7.795160400390625,3.339612040710449,-8.993219985961913,-1.4332289688110351
1763699245264111400,7.805111328125,2.1621137367248533,-8.90553235015869,-1.0910077690124511
1763699245274062300,7.815062255859375,0.849791951751709,-8.700977745819092,-1.5925930168151854
1763699245284013300,7.825013427734375,-0.013617021942138671,-8.576778534698486,-3.0660745010375976
1763699245293964300,7.83496435546875,-0.29837738189697266,-7.84026224899292,-4.322731097412109
1763699245303914200,7.844914306640625,-0.29358897857666016,-7.1860466453552245,-4.964526779937744
1763699245313865200,7.854865234375,-0.9290998817443847,-7.36112264175415,-4.990414085388183
1763699245323816200,7.864816162109375,-1.4764742362976073,-8.277503327178955,-4.856488430023193
1763699245333767200,7.87476708984375,-1.2599486236572266,-9.313594095611572,-5.022436532592773
1763699245343718400,7.884718505859375,-1.374571028137207,-9.822960498809813,-4.900332247924805
1763699245353669400,7.89466943359375,-2.1378724449157716,-10.378116008758544,-3.923348332977295
1763699245363620400,7.904620361328125,-2.9141923332214352,-11.394753888702391,-2.9837738189697265
1763699245373570300,7.9145703125,-3.5390789665222164,-12.62746846847534,-2.3982418754577637
1763699245383521300,7.924521240234375,-2.714725407409668,-13.922881204223632,-1.7057190452575683
1763699245393472300,7.93447216796875,-0.5594950004577637,-14.942212561035156,-0.7633014167785644
1763699245403423200,7.94442333984375,0.8521861534118652,-15.209914234161376,0.6024409927368164
1763699245413374200,7.954374267578125,0.907851342010498,-15.12462080001831,1.3474866218566894
1763699245423325200,7.9643251953125,1.00870708694458,-14.877269841003416,-0.06075286712646484
1763699245433275100,7.974275146484375,1.7200842552185058,-15.307777227020262,-3.2344168052673337
1763699245443226400,7.984226318359375,2.1327847663879393,-15.184475841522216,-5.17746109008789
1763699245453177000,7.994177001953125,2.7964275390625,-14.018948545837402,-4.733336682128906
1763699245463128300,8.00412841796875,4.53267265548706,-12.99228494644165,-3.566313010406494
1763699245473079300,8.014079345703125,5.821351699066161,-12.46855333328247,-3.2505776664733883
1763699245483030300,8.0240302734375,5.997924071502685,-11.924171730804442,-3.826682440948486
1763699245492981200,8.033981201171875,5.7583542678833,-10.73215857925415,-5.023035083007812
1763699245502931500,8.043931396484375,6.416011536407471,-8.705616511535643,-5.77780715637207
1763699245512882200,8.053882080078125,7.094318794250488,-6.862230870819092,-6.829011322784424
1763699245522833400,8.06383349609375,6.0136360198974605,-6.144568923187255,-8.277652964782714
1763699245532784000,8.0737841796875,2.740762350463867,-6.576123772430419,-10.105326657104492
1763699245542735400,8.0837353515625,1.0148422286987304,-7.503577640533447,-11.755829426574707
1763699245552686300,8.093686279296875,1.6208745239257811,-9.061305095672607,-12.483517093658447
1763699245562636300,8.10363623046875,0.28909985046386716,-10.45802248916626,-11.058667830657958
1763699245572587300,8.113587158203124,0.4756979423522949,-11.757026527404784,-9.383774131774901
1763699245582538200,8.123538330078125,0.9714473236083984,-14.368501988220213,-7.359925540924072
1763699245592489200,8.1334892578125,-1.2575544219970702,-18.141314891815185,-4.055029424285888
1763699245602440400,8.1434404296875,-3.259855197906494,-23.019500774383545,-1.051503441619873
1763699245612391200,8.15339111328125,-4.075529776000976,-28.605771797943113,2.6505308753967283
1763699245622341400,8.16334130859375,-2.5080758766174314,-33.44669791717529,7.39269617614746
1763699245632292400,8.173292236328125,1.3178583763122558,-34.31968369750977,10.646715507507324
1763699245642243300,8.183243408203126,3.9003041419982907,-30.326903516387937,10.970082369232177
1763699245652194300,8.1931943359375,4.560355612182617,-25.759365299224854,10.22069724960327
1763699245662145300,8.203145263671875,4.3053731353759765,-23.140707233428955,9.421033895111083
1763699245672096300,8.21309619140625,3.3400609535217285,-21.240160028076172,7.378929516601562
1763699245682047500,8.223047607421876,2.0094833808898924,-19.4976301322937,2.807799996948242
1763699245691997200,8.2329970703125,1.1777975791931152,-18.602198711395264,-2.024297503662109
1763699245701948400,8.242948486328125,1.3753192161560057,-17.401656216430663,-5.4524950057983395
1763699245711899400,8.2528994140625,2.0259435173034666,-15.365537342071532,-7.491456994628906
1763699245721850600,8.2628505859375,1.6723498596191406,-12.664728231811523,-8.153304116058349
1763699245731801600,8.272801513671874,0.15861585998535155,-9.651625442504882,-7.6653358901977535
1763699245741752600,8.282752685546875,-1.4772224243164063,-6.226121417236328,-5.295525159454345
1763699245751702500,8.29270263671875,-2.0521300979614256,-1.3072341064453123,-0.19048866958618163
1763699245761653800,8.30265380859375,-1.8360533981323242,4.865616323852539,4.9275662918090815
1763699245771604500,8.3126044921875,-2.251148110961914,12.275071911621094,7.332242584228515
1763699245781555700,8.3225556640625,-1.5056535690307615,17.455825028991697,7.2726868179321285
1763699245791506400,8.33250634765625,-1.8655320060729979,10.584466264343261,6.491279251098632
1763699245801457700,8.342457763671876,-3.8340146835327147,4.743362401580811,5.153369435882568
1763699245811408600,8.35240869140625,-5.188384635162353,3.416376131439209,3.8310219314575193
1763699245821358300,8.3623583984375,-5.717952114868163,2.5737667846679684,1.8601450523376464
1763699245831309600,8.3723095703125,-5.891531735229492,1.7797896591186522,0.22655133209228515
1763699245841260500,8.382260498046875,-4.2149920227050774,0.35718496017456053,0.8735843307495117
1763699245851211500,8.39221142578125,-0.4537012145996093,-1.715445489501953,2.874837643432617
1763699245861162500,8.40216259765625,3.8687306076049803,-3.8275802665710446,3.9649475868225097
1763699245871113500,8.412113525390625,7.308749480438232,-5.703586904907226,3.580977495574951
1763699245881063400,8.4220634765625,8.511536539459229,-6.6258034568786615,2.633322550964355
1763699245891014700,8.4320146484375,8.154650854492187,-6.327575712585449,1.5975310577392576
1763699245900965400,8.44196533203125,6.214300046539306,-5.365405920410156,0.5711667335510253
1763699245910916600,8.45191650390625,3.9625533851623533,-4.203918840026855,-0.26171616897583005
1763699245920867300,8.461867431640625,-0.526125814819336,-2.1957821975708005,0.06688800888061523
1763699245930818600,8.471818603515626,-10.050708931732178,0.9554361000061035,1.7630302474975585
1763699245940769500,8.48176953125,-16.595259169769285,2.044199304962158,5.099649536132812
1763699245950719500,8.491719482421875,-5.5449710449218745,-1.7494132255554198,10.913220079803466
1763699245960670500,8.50167041015625,24.35696167678833,-13.325827165222167,14.150031086730957
1763699245970621700,8.51162158203125,20.056227307128903,-24.449587353515625,8.634688287353516
1763699245980572400,8.521572509765624,-19.38285809020996,-28.40540704650879,1.594837580871582
1763699245990523600,8.531523681640625,-20.145560956573487,-22.489933294677733,-9.091681529235839
1763699246000474400,8.541474365234375,-7.040299619293212,-11.668291428375243,-9.993547367095946
1763699246010424600,8.551424560546875,-4.831050037384033,-6.162226160430908,-9.160814102172852
1763699246020375600,8.56137548828125,-5.0206408813476555,-5.941510694885253,-8.590096281433105
1763699246030326500,8.571326416015625,-2.048089882659912,-11.4538607421875,-7.730278610229492
1763699246040277500,8.581277587890625,0.10250175857543944,-16.702399694061278,-7.362918292999267
1763699246050228500,8.591228515625,-3.489548919677734,-19.800047729492185,-5.447108052062988
1763699246060179500,8.601179443359374,-4.123563446807861,-20.654029534149167,-3.6535517333984373
1763699246070130700,8.611130615234375,-3.152565036010742,-19.885341163635253,-4.493766878509521
1763699246080080400,8.621080322265625,-2.2328923233032225,-18.803162013244627,-6.689249800872802
1763699246090031600,8.631031494140625,-2.5201965225219727,-17.838747657012938,-7.132027470397949
1763699246099982600,8.640982666015624,-0.7038952880859375,-19.66986301422119,-6.5589154479980465
1763699246109933600,8.65093359375,4.308066612243652,-22.129456307220458,-6.13514175415039
1763699246119884500,8.660884521484375,10.007164389038085,-24.839842224121092,-6.410624582672119
1763699246129835500,8.67083544921875,12.491148611450194,-26.85875277404785,-5.521777216339111
1763699246139785500,8.680785400390626,12.485911295318603,-24.843583164215087,-3.282749751281738
1763699246149736700,8.69073681640625,11.227010134887694,-20.74755303649902,-1.2988544006347655
1763699246159687400,8.7006875,10.602422776794432,-16.409708541107175,-0.7899369102478027
1763699246169638700,8.710638671875,10.074650948333739,-11.873294945526123,-1.740285331726074
1763699246179589600,8.720589599609376,7.580790644073486,-7.0388032432556145,-4.16261886138916
1763699246189540600,8.73054052734375,5.456684858703613,-2.123507234954834,-7.072770979309082
1763699246199490600,8.740490478515625,5.867290443420409,2.0439000297546386,-10.13824692993164
1763699246209441500,8.750441650390625,6.069600483703613,4.650886362457275,-13.319841661071777
1763699246219392500,8.760392578125,2.3644237770080565,4.244171355438232,-15.414768113708496
1763699246229343700,8.77034375,0.15532383270263672,2.919429649353027,-16.100108338928223
1763699246239294500,8.78029443359375,1.4870985061645507,2.3792378997802732,-16.36421870956421
1763699246249245700,8.79024560546875,3.8605005393981933,0.1858499038696289,-13.939341340637206
1763699246259196400,8.800196533203126,4.597166462707519,-2.320131046295166,-9.71686743774414
1763699246269146400,8.810146484375,3.8085762908935545,-3.662081076812744,-6.72291826171875
1763699246279097600,8.82009765625,2.3376386459350584,-4.470722687530517,-5.299415737152099
1763699246289048300,8.83004833984375,0.8689455650329589,-5.295375521850586,-5.041889421081542
1763699246298999600,8.83999951171875,-0.6407482192993164,-7.042544183349609,-5.023633633422851
1763699246308950500,8.849950439453124,-1.9979612854003905,-9.04035583114624,-4.28382532043457
1763699246318901500,8.859901611328125,-2.365920153045654,-11.674127294921874,-3.697096276092529
1763699246328851500,8.8698515625,-3.0864252151489255,-15.786767196655273,-2.565237441253662
1763699246338802700,8.879802734375,-3.386149335479736,-20.598214707946777,-0.30466216125488277
1763699246348753400,8.88975341796875,-2.248304996490478,-27.1222645942688,2.0726304496765136
1763699246358704600,8.89970458984375,-0.469862075805664,-35.449746881103515,4.504989698791504
1763699246368655400,8.9096552734375,1.2138602416992186,-41.4569484840393,6.130353350830077
1763699246378606600,8.919606689453126,3.7796962333679196,-40.946983530426024,3.381360932159424
1763699246388556500,8.929556640625,5.046079273986816,-35.3039998550415,-0.3389291725158691
1763699246398507500,8.939507568359375,4.412663297271728,-30.688128691864012,-2.625092482757568
1763699246408458500,8.94945849609375,3.1266777305603024,-27.03697116012573,-3.799897309875488
1763699246418409500,8.959409423828125,3.249081290435791,-23.757064523315428,-5.114164383697509
1763699246428360400,8.9693603515625,3.1808465431213375,-21.626524320983886,-6.075885263061523
1763699246438311700,8.979311767578125,2.145653600311279,-19.813365476226807,-6.347776789093017
1763699246448262400,8.989262451171875,1.7045219444274902,-16.536152316284177,-6.374861195373534
1763699246458212600,8.999212646484375,0.6000467910766601,-12.121693367767334,-6.120626906585693
1763699246468163600,9.00916357421875,-1.878400839996338,-7.378779878997802,-4.275146339416503
1763699246478114600,9.019114501953124,-3.7484219741821287,-1.6545429847717283,-0.601992079925537
1763699246488065500,9.0290654296875,-4.226065205383301,5.475090283966064,5.936572653961181
1763699246498016500,9.0390166015625,-5.104138664245605,10.678737954711913,10.165780249023436
1763699246507967500,9.048967529296876,-6.185868901824951,13.852551530456543,10.018686484527587
1763699246517918500,9.05891845703125,-6.89530078125,10.346392836761474,9.54448491821289
1763699246527868400,9.068868408203125,-7.791630027770996,5.822099887084961,8.536376381683349
1763699246537819600,9.078819580078125,-8.364143499755858,5.022885445404053,6.624755993652343
1763699246547770600,9.0887705078125,-7.243657122802734,4.818330841064453,4.145859449768066
1763699246557721600,9.0987216796875,-5.39488452835083,4.157980095672607,1.7311574378967285
1763699246567672600,9.108672607421875,-3.4989760887145995,2.3829788398742675,0.24136545486450195
1763699246577623600,9.11862353515625,-0.7116764434814453,-0.4674678741455078,1.322197866821289
1763699246587573500,9.128573486328126,1.627308940887451,-2.683451148223877,3.8654385803222655
1763699246597524700,9.138524658203124,3.883694367980957,-4.425532131195068,4.906467389678955
1763699246607475500,9.148475341796875,5.876867250061035,-6.075735625457764,4.219930063629151
1763699246617426700,9.1584267578125,7.507019305419921,-7.655609445953369,3.9395091941833495
1763699246627377400,9.16837744140625,8.385242401885986,-9.157970987701415,3.7400422683715817
1763699246637328600,9.17832861328125,7.4699091796875,-10.091709635162353,2.8886043029785156
1763699246647279600,9.188279541015625,5.6191912963867185,-9.930250660705566,1.044470474243164
1763699246657229600,9.1982294921875,4.049043920135498,-8.84178673095703,-0.8019079185485839
1763699246667180500,9.2081806640625,-2.3734020332336425,-8.795249436187744,0.47854105682373044
1763699246677131800,9.2181318359375,-12.67250938720703,-13.473519480133056,7.238719081878662
1763699246687082500,9.22808251953125,1.6819266662597656,-30.78988226242065,17.579874602508543
1763699246697033700,9.23803369140625,18.791041367340085,-39.60308821105957,13.603853833007811
1763699246706984400,9.247984375,-18.87229458618164,-20.128801544952392,-9.160365189361572
1763699246716934000,9.257933837890626,-36.23175299835205,-6.9910688476562495,-15.14407368850708
1763699246726884900,9.267884765625,-16.43290236968994,-1.5273510215759276,-9.917082551574707
1763699246736835800,9.2778359375,-5.676801773834228,5.588515587615967,-9.18086554107666
1763699246746786800,9.287786865234375,0.21398177337646482,5.522974317169189,-5.795314756011963
1763699246756738000,9.297738037109376,0.5310638557434082,-7.007080071258544,-0.04668693237304687
1763699246766688800,9.307688720703124,-0.7209539749145507,-20.485387954711914,2.041056915283203
1763699246776640000,9.317639892578125,-6.259041690063476,-29.36233952255249,-0.5448305152893066
1763699246786590000,9.32758984375,-8.517522043609619,-30.956428915405272,-5.102193375396729
1763699246796541000,9.337541015625,-5.811924530029296,-26.770915500640868,-10.627561894226073
1763699246806492000,9.347491943359374,-4.723011687469482,-18.924518109893796,-12.504615995788573
1763699246816443000,9.35744287109375,-1.4176666580200195,-16.502483855438232,-10.513388402557373
1763699246826393900,9.367393798828125,3.8610990898132322,-19.703232199859617,-7.030273899841308
1763699246836344800,9.3773447265625,10.341454795837402,-24.065766899871825,-3.837755623626709
1763699246846294800,9.387294677734374,15.39905616531372,-26.924294044494626,-2.139518458557129
1763699246856246000,9.39724609375,13.323432963562011,-25.547179177093504,-0.40237551651000975
1763699246866197000,9.407197021484375,10.010306778717041,-20.058172595977783,-0.6489782875061034
1763699246876148000,9.41714794921875,9.815029705810547,-14.123994143676757,-3.019088293457031
1763699246886099000,9.427098876953124,8.45242968597412,-8.068609232330322,-4.678718956756591
1763699246896050000,9.4370498046875,6.199635561370849,-2.2937948280334473,-6.040271513366699
1763699246906001000,9.4470009765625,8.61792887573242,1.108964281463623,-8.505551035308837
1763699246915950800,9.456950927734376,13.15868196182251,-0.718260498046875,-12.01515139389038
1763699246925901800,9.46690185546875,12.249932794189453,-2.9789854156494138,-15.05414148864746
1763699246935852800,9.476852783203125,6.421398490142822,-3.3152211112976073,-16.43918714904785
1763699246945803800,9.4868037109375,-0.2905962265014648,-3.1411925781249996,-14.117110813903809
1763699246955755000,9.496755126953126,-2.6069863327026366,-1.5729904907226562,-10.527903250122069
1763699246965706000,9.5067060546875,1.85790048828125,-1.1761515655517578,-6.9153522201538085
1763699246975655700,9.51665576171875,6.419153926086425,-1.4405612113952635,-5.185391883087158
1763699246985607000,9.52660693359375,6.19873773574829,-1.0006266563415527,-6.239439163970947
1763699246995558000,9.536557861328125,5.457582684326171,-1.4140753555297851,-7.378779878997802
1763699247005508900,9.5465087890625,5.091868380737305,-3.064877400207519,-6.5586161727905266
1763699247015459800,9.5564599609375,1.9041385078430175,-4.014477633666992,-5.037549930572509
1763699247025410800,9.566410888671875,-2.9435213035583496,-3.5972879943847653,-3.132812872314453
1763699247035361800,9.57636181640625,-4.879981533813476,-3.9125744255065915,-1.0238204849243164
1763699247045312000,9.58631201171875,-2.476502342224121,-6.976404362487792,0.0939724151611328
1763699247055262700,9.5962626953125,-0.32920272827148434,-13.242927932739256,-0.18809446792602538
1763699247065214000,9.6062138671875,0.6829460235595702,-23.76798806838989,-3.2225954345703123
1763699247075164700,9.61616455078125,-0.4408323806762695,-37.72917649917602,-9.923068055725096
1763699247085116000,9.626115966796876,1.0555436569213867,-49.736696375274654,-8.79734436264038
1763699247095067000,9.63606689453125,5.919663604736328,-48.84769937133789,-0.34536358947753903
1763699247105016800,9.646016845703125,9.203909732055664,-38.30812438812256,3.395875779724121
1763699247114967800,9.6559677734375,8.744372650909423,-33.923892235565184,3.562871345520019
1763699247124919000,9.6659189453125,6.482600270080566,-30.192528948211667,-0.5425859512329101
1763699247134869800,9.675869873046874,4.732588494110107,-26.042928558349608,-9.885060104370117
1763699247144821000,9.685821044921875,2.33659118270874,-22.73474041442871,-14.232481406402586
1763699247154771700,9.695771728515625,1.7579425689697266,-18.869002558898924,-13.443442321777344
1763699247164723000,9.705722900390626,0.8955810585021972,-13.66849727783203,-11.681160262298583
1763699247174673000,9.7156728515625,-1.6307506057739256,-7.3569327888488765,-7.8535799957275385
1763699247184623900,9.725623779296875,-4.130746051788329,0.42018239135742186,-1.258302610015869
1763699247194574800,9.735574951171875,-5.095609320831299,6.187963828277588,5.393088877105712
1763699247204525800,9.74552587890625,-7.249343351745605,10.792462533569335,11.081562384033202
1763699247214476800,9.755476806640624,-7.490858444213867,10.208127690887451,13.357550337219237
1763699247224428000,9.765427978515625,-8.639626328277588,5.228038600158691,13.156287760162353
1763699247234378800,9.775378662109375,-8.122628407287598,1.429338391113281,12.25786358718872
1763699247244329000,9.785328857421876,-8.119037104797362,1.5089455963134766,11.8239145362854
1763699247254280000,9.795280029296874,-9.808595288848876,2.9893104103088377,10.805929917907715
1763699247264231000,9.80523095703125,-11.65093346633911,4.823867432403564,8.402450726318358
1763699247274182000,9.815181884765625,-13.288417764282226,5.311087470245361,6.235249311065673
1763699247284132900,9.8251328125,-11.03801784133911,3.273023307037353,5.33098927154541
1763699247294083800,9.835083740234374,-5.82239916229248,-0.47016135101318357,6.7942953987121575
1763699247304034000,9.845033935546875,-0.3277063522338867,-3.254019331359863,7.795969518280029
1763699247313984800,9.85498486328125,5.216965417480468,-5.332485647583008,7.496544673156738
1763699247323936000,9.86493603515625,7.604433385467529,-7.569118910980224,7.149684707641601
1763699247333887000,9.874886962890624,7.517793212890624,-10.79021796951294,7.068431488800049
1763699247343838000,9.884837890625,7.293785720062256,-14.656255100250243,5.840355674743652
1763699247353789000,9.894788818359375,4.887463414001465,-18.555811054229736,2.7864018196105955
1763699247363740000,9.904739990234376,1.1375450637817381,-19.425205532073974,-2.3695114555358887
1763699247373689900,9.91468994140625,-1.2493243537902832,-16.078560523986816,-5.821950249481201
1763699247383640800,9.924640869140624,-8.237998999786376,-9.363722692871093,-5.5735518272399895
1763699247393591800,9.934591796875,-25.540595122528075,-3.56900648727417,-2.5041852989196776
1763699247403543000,9.94454296875,-23.757513436126708,-3.807678465270996,1.0088567245483397
1763699247413493800,9.95449365234375,9.689932669067382,-11.947066284179687,3.5320459991455078
1763699247423445000,9.964445068359375,17.59693328933716,-26.600927182769773,-2.679859845733642
1763699247433396000,9.97439599609375,-29.68675384750366,-31.613487633514403,-10.912771166992187
1763699247443345700,9.984345703125,-9.470563941955566,-20.134487773895263,-6.055684186553955
1763699247453297000,9.994296875,3.0783447845458984,-8.563311150360107,-3.1144074470520016
1763699247463248000,10.004247802734374,-6.8822823097229,-3.2321722412109373,1.512536898803711
1763699247473198800,10.01419873046875,1.1486182464599608,-4.75638087310791,4.072836299133301
1763699247483149800,10.02414990234375,6.452672749328613,-12.68463003311157,-0.7570166374206543
1763699247493100800,10.034100830078126,-7.342268303680419,-21.18823577957153,-7.646631189727783
1763699247503050800,10.04405078125,-15.209166046142577,-28.84354595031738,-16.359430306243894
1763699247513002000,10.054001953125,-11.732336322784423,-28.022634056091306,-23.209241255950925
1763699247522952700,10.06395263671875,-3.214365366363525,-20.16202109298706,-21.793669524383542
1763699247532904000,10.073904052734376,8.83654941482544,-20.09797619857788,-15.115792181396483
1763699247542855000,10.08385498046875,16.89438473968506,-25.576508147430417,-7.355436412811279
1763699247552806000,10.093805908203125,17.266084547424317,-30.890738007354734,1.5382745666503905
1763699247562756900,10.1037568359375,14.481927291870116,-31.690850274658203,8.807070806884765
1763699247572706800,10.113706787109376,10.468347483825683,-26.502764914703366,8.61882670135498
1763699247582657800,10.12365771484375,8.029404180145264,-17.30154865951538,3.0633810241699218
1763699247592609000,10.133609130859375,8.59323867111206,-9.63307037963867,-1.8915689491271972
1763699247602559700,10.143559814453125,11.055076528167724,-4.592228421783447,-8.441955053710936
1763699247612511000,10.153510986328126,9.108889853668213,-0.7849988693237304,-15.524153202056883
1763699247622461700,10.163461669921874,2.795679351043701,2.420837153625488,-20.776582731628416
1763699247632413000,10.173412841796875,-2.1353286056518552,3.6092590026855467,-21.25931364135742
1763699247642363000,10.18336279296875,-1.3724761016845701,3.0496143646240235,-18.553716127777097
1763699247652313900,10.19331396484375,3.902548706054687,1.3070844688415526,-14.841506453704833
1763699247662264800,10.203264892578124,7.353042211151123,-2.2584803535461426,-9.573963526153564
1763699247672216000,10.213216064453125,6.018723698425292,-3.227234200286865,-6.09683452758789
1763699247682166800,10.223166748046875,4.728249003601074,-2.511517541503906,-4.677821131134033
1763699247692118000,10.233117919921876,3.2065842109680176,-2.0464438690185545,-4.264372431945801
1763699247702068700,10.24306884765625,1.250671092224121,-2.1513398292541503,-3.9864954017639156
1763699247712019500,10.25301953125,-0.49724575729370113,-2.5809493896484375,-3.6795886764526364
1763699247721970400,10.262970458984375,-2.0629040054321286,-3.0137013397216794,-3.6721067962646483
1763699247731921400,10.27292138671875,-2.9349919601440426,-3.194164289855957,-3.2008979820251464
1763699247741872400,10.282872314453124,-0.6364087287902832,-4.212448183441162,-2.268356435394287
1763699247751823400,10.2928232421875,2.7136779441833494,-7.3754878517150875,-0.7010521736145019
1763699247761774300,10.3027744140625,2.3650223274230955,-12.028319503021239,1.06616792678833
1763699247771725300,10.312725341796876,0.06239888076782226,-19.613449637603757,1.746121198272705
1763699247781675300,10.32267529296875,0.7838017684936524,-32.26815214996338,-4.873696754455566
1763699247791626500,10.33262646484375,2.740313437652588,-44.01829534759521,-13.80302148361206
1763699247801577200,10.3425771484375,3.6638767280578612,-56.95701003189087,-9.195530026245116
1763699247811528400,10.352528564453126,7.770680763244629,-50.07128605728149,-0.8122329132080077
1763699247821479400,10.3624794921875,12.433238858795166,-38.399403326416014,0.5262754524230957
1763699247831430400,10.372430419921875,7.45733962097168,-33.76946622848511,-3.455281908416748
1763699247841380400,10.38238037109375,3.601926760101318,-28.72847463302612,-11.596914291381836
1763699247851331600,10.39233154296875,1.7507599639892577,-21.86684231262207,-14.95238791809082
1763699247861282300,10.4022822265625,-0.2397194412231445,-14.421324062347411,-14.506168583679198
1763699247871233500,10.412233642578125,-2.4072201316833493,-7.57151311264038,-12.731915515899658
1763699247881184300,10.422184326171875,-2.3439234252929686,1.3332710494995117,-4.818929391479492
1763699247891135500,10.432135498046875,-1.5741875915527344,7.58453158416748,4.345924925994873
1763699247901086200,10.442086181640626,-4.923974989318848,11.285069525146485,8.56794991607666
1763699247911036400,10.452036376953124,-8.122628407287598,12.335375865936278,12.619836950683593
1763699247920987400,10.4619873046875,-8.415319560241699,4.67976641998291,13.964630095672607
1763699247930938400,10.4719384765625,-9.087192401123046,-0.39115269622802734,12.676699240112304
1763699247940889300,10.481889404296876,-9.35938320236206,-1.4812626396179198,11.713481984710693
1763699247950840600,10.491840576171874,-9.823259774017334,0.023642741394042967,10.526855786895752
1763699247960791300,10.501791259765625,-13.097180906677245,3.132214321899414,8.332869240570068
1763699247970742500,10.511742431640625,-17.789516885375974,5.875071598815918,6.488136861419678
1763699247980692500,10.5216923828125,-17.405696431732178,6.350320628356934,5.792172366333007
1763699247990643500,10.5316435546875,-10.135852728271484,3.815160345458984,6.997802539825439
1763699248000594400,10.541594482421875,-3.5057097808837887,0.28161797027587887,8.904335249328613
1763699248010545400,10.55154541015625,2.0632032806396485,-2.133233679199219,8.106018633270264
1763699248020496400,10.561496337890626,8.410531156921387,-3.999214598083496,6.76122548828125
1763699248030447400,10.571447265625,11.099069983673095,-6.6802715446472165,6.707355950927734
1763699248040398300,10.5813984375,7.87856947555542,-10.2916254737854,7.566724709320068
1763699248050348500,10.5913486328125,5.421520021820068,-14.50557003326416,7.126341241455077
1763699248060299500,10.601299560546876,2.860771708679199,-18.88366704406738,4.091989912414551
1763699248070250500,10.61125048828125,-2.0943279022216794,-20.712238562011716,-0.968454571533203
1763699248080201500,10.621201416015625,-4.594472985839843,-18.02235299682617,-4.2408793281555175
1763699248090152400,10.63115234375,-11.675474033355712,-10.653000286865234,-4.1739913192749025
1763699248100103400,10.641103515625,-26.614693842315674,-4.759972175598144,-1.376516316986084
1763699248110054400,10.651054443359374,-26.122535763549802,-2.105550722503662,2.2635680320739744
1763699248120004400,10.66100439453125,9.412803826904296,-7.5840826713562,9.066991324615477
1763699248129955600,10.67095556640625,28.369344384002684,-21.466860997772216,1.6632219657897949
1763699248139906300,10.68090625,-30.737958013916014,-37.357027778625486,-14.902857871246336
1763699248149857500,10.690857421875,-13.2788409576416,-33.73220646514893,-11.00689321975708
1763699248159808500,10.70080859375,11.476007107543944,-18.033276541900634,-6.25021307144165
1763699248169759500,10.710759521484375,-7.585579047393798,-7.456142520141601,-3.330633784484863
1763699248179710500,10.72071044921875,-10.416273597717284,-4.380341574859619,-0.3651157531738281
1763699248189660400,10.730660400390626,0.9576806640625,-6.114491764831542,-11.870002918243408
1763699248199611400,10.740611328125,-5.406107348632812,-19.63215433807373,-21.480926932525634
1763699248209562400,10.750562255859375,-17.76123537826538,-29.319243892669675,-22.850559919738767
1763699248219513300,10.760513427734375,-14.787487278747557,-25.25059744644165,-17.39641890029907
1763699248229464600,10.770464599609374,5.565770671844482,-20.477606799316405,-9.433603453826903
1763699248239415300,10.780415283203125,26.482563838195798,-26.62935832748413,0.4809352584838867
1763699248249366500,10.790366455078125,26.298359947967526,-35.84613689346313,10.727819088745116
1763699248259316500,10.80031640625,15.038429540252684,-36.937443937683106,13.112144667053222
1763699248269267200,10.81026708984375,9.648034140014648,-29.790901619720458,6.761973676300048
1763699248279218400,10.820218505859375,8.062773365783691,-18.54608460998535,0.6648398735046386
1763699248289169400,10.83016943359375,7.730877160644531,-10.681730706787109,-3.625120588684082
1763699248299120400,10.840120361328125,7.82065972290039,-4.4111669212341305,-10.739490821838379
1763699248309071400,10.8500712890625,4.967818807220459,0.25468320159912106,-15.587749183654784
1763699248319022300,10.860022216796875,-0.08604162216186523,3.6357448585510252,-17.695694107818603
1763699248328972300,10.86997216796875,-1.5695488258361816,7.5718123878479,-17.87451104431152
1763699248338923500,10.879923583984375,3.073406743621826,9.852439106750488,-17.874810319519042
1763699248348874200,10.889874267578126,7.584681221771239,7.169885784149169,-16.801010874938964
1763699248358825500,10.899825439453124,5.795015480804443,0.5817910034179687,-11.559953803253173
1763699248368776400,10.9097763671875,1.2933178092956543,-2.3575404472351074,-5.765387235260009
1763699248378727400,10.9197275390625,1.8382979621887205,-2.901024224090576,-2.811540937042236
1763699248388678400,10.929678466796876,3.322553353881836,-2.479794369506836,-1.7354969284057615
1763699248398628400,10.93962841796875,1.7841291496276854,-2.2285528327941893,-0.7079355033874511
1763699248408579300,10.949579345703125,0.14484920043945312,-2.647687760925293,-0.4644751220703125
1763699248418530600,10.959530517578125,-0.6248866333007812,-3.571400688934326,-1.0953472595214844
1763699248428481300,10.969481201171876,0.3580827857971191,-4.176984071350097,-1.7977461715698242
1763699248438432500,10.9794326171875,1.6373346603393553,-4.840477206420898,-2.371756019592285
1763699248448383200,10.98938330078125,2.0670938583374023,-6.0884548217773435,-2.4247277313232423
1763699248458334500,10.99933447265625,0.8967781593322753,-8.49776987991333,-1.9675848518371581
1763699248468284400,11.009284423828126,-0.8379705810546875,-13.221230480194091,-2.7769746505737305
1763699248478235400,11.0192353515625,0.0809539436340332,-22.619070546722412,-7.547720733642578
1763699248488186400,11.029186279296875,-0.7990648040771484,-34.138023646545406,-16.7525282913208
1763699248498137600,11.0391376953125,-0.29867665710449215,-49.77245976257324,-20.414908643341064
1763699248508088300,11.04908837890625,9.78106196975708,-61.712343441772454,-7.813926030731201
1763699248518039600,11.05903955078125,18.152088799285888,-52.53851086807251,6.815394300842285
1763699248527990300,11.068990234375,13.407529296875,-43.96682001190185,9.772382988739013
1763699248537940500,11.0789404296875,4.3439796371459956,-35.35442772750854,1.165228020477295
1763699248547891500,11.088891357421875,1.3519757499694824,-27.49067237472534,-10.654646300506592
1763699248557842400,11.098842529296874,0.5463268913269043,-21.018097824096678,-14.253430670928955
1763699248567793400,11.10879345703125,-1.2550105827331541,-13.447332899475096,-12.038494860076904
1763699248577744400,11.118744384765625,-1.6641197914123533,-5.618892021179199,-9.103353262329101
1763699248587695400,11.1286953125,-2.902969512939453,2.656666017150879,-0.5898714340209961
1763699248597646600,11.138646484375,-4.142268147277832,9.304166926574707,7.309647306060791
1763699248607596300,11.14859619140625,-6.567594429016113,12.770671655273437,9.827150351715087
1763699248617547500,11.158547607421875,-9.047688073730468,10.20318964996338,10.630704283905029
1763699248627498500,11.16849853515625,-10.133907439422607,4.211849633026123,11.60619182281494
1763699248637449500,11.178449462890624,-11.28731408920288,1.6370353851318358,13.620613244628906
1763699248647400400,11.188400390625,-11.358691226196289,0.9232640151977538,13.474118030548095
1763699248657351400,11.198351318359375,-12.689119161224365,0.45459904022216796,13.073987078094481
1763699248667302400,11.208302490234376,-16.455348010253907,1.7076643341064452,12.177208918762206
1763699248677252600,11.218252685546876,-18.454506396484373,4.268711922454834,10.567407577514647
1763699248687203300,11.228203369140624,-13.499855698394775,5.491400782775878,7.849839055633544
1763699248697154600,11.238154541015625,-6.732046155548096,3.9194577552795407,7.038653605651855
1763699248707105300,11.248105224609375,-1.4381670097351074,0.5443816024780274,7.637054383087158
1763699248717055500,11.258055419921876,4.621258116912841,-2.0011036750793454,7.485172215270996
1763699248727006700,11.2680068359375,8.728959977722168,-4.681711708831787,7.739855416870117
1763699248736957400,11.27795751953125,7.052120989990234,-8.394220658111571,8.628852420806885
1763699248746908700,11.28790869140625,7.944858934020996,-13.185317455291747,8.75888749847412
1763699248756858600,11.297858642578126,7.339574826812743,-19.794960050964356,6.420201389312743
1763699248766809600,11.3078095703125,0.2258031440734863,-23.05182249679565,-2.2125416091918946
1763699248776760600,11.317760498046875,-6.121674369812012,-20.645799465942382,-9.612719665527344
1763699248786711800,11.3277119140625,-9.898078575897216,-12.732214791107177,-10.781239713287352
1763699248796662500,11.33766259765625,-22.82392442626953,-5.258415033721923,-6.796839237976074
1763699248806613800,11.34761376953125,-28.253075965881347,-3.0084640235900877,-0.07870937957763671
1763699248816564500,11.357564453125,2.297685405731201,-11.745205156707764,5.880308914947509
1763699248826514700,11.3675146484375,37.15247317428589,-33.921946946716304,-4.509778102111816
1763699248836465700,11.377465576171875,-17.95262187347412,-42.47493310241699,-14.317625202941894
1763699248846416600,11.387416748046874,-2.49011936416626,-18.896835153198243,-3.259855197906494
1763699248856367600,11.39736767578125,0.2754828285217285,-5.769876363372802,1.3319243110656738
1763699248866318600,11.407318603515625,-14.113070598602294,1.8906711235046385,4.57127915725708
1763699248876269600,11.41726953125,-0.8259995727539062,3.863044378662109,1.1713631622314453
1763699248886220800,11.427220703125,4.900032972717285,-5.461173986816406,-12.020388710021972
1763699248896170500,11.43717041015625,-6.694487117004394,-26.036045228576658,-19.179201311492918
1763699248906121700,11.447121826171875,-20.973056905364988,-36.501699235534666,-18.85254242248535
1763699248916072700,11.45707275390625,-22.38204458236694,-34.60878354797363,-18.851794234466553
1763699248926023700,11.467023681640624,-6.915501857757568,-32.227899634552,-15.730054544830322
1763699248935974700,11.476974609375,22.54904014816284,-28.459126946258543,-6.98403588027954
1763699248945925600,11.486925537109375,35.89446983947754,-29.390471392059325,5.397727642822265
1763699248955876600,11.496876708984376,23.582587077331542,-30.231584362792965,15.668254214477539
1763699248965826600,11.50682666015625,8.189217140960693,-28.622980122375488,17.095647316741942
1763699248975777500,11.516777587890624,8.492083650970459,-21.848885800170898,8.079083864593505
1763699248985728800,11.526728759765625,9.832537305450439,-13.269862701416015,-1.0857704528808594
1763699248995679700,11.5366796875,8.415918110656738,-5.824194813537598,-9.26930136489868
1763699249005630700,11.546630615234376,6.2413844528198235,-0.1910872200012207,-15.829713188934326
1763699249015581700,11.556581787109375,-0.4025251541137695,2.448220835113525,-17.558775700378416
1763699249025532700,11.56653271484375,-3.967790701293945,5.159205302429199,-16.493954512023926
1763699249035483600,11.576483642578125,0.6232406196594238,7.7227967300415035,-15.471929678344726
1763699249045433600,11.58643359375,8.138340355682372,9.32766003036499,-15.793051976013183
1763699249055384600,11.596384521484374,8.512135089874267,4.2500072219848635,-14.008025000762938
1763699249065335600,11.60633544921875,3.5818753211975096,0.12674305038452147,-8.707561800384521
1763699249075286500,11.61628662109375,0.854879630279541,-1.1369465133666992,-4.959588739013672
1763699249085237800,11.62623779296875,1.5936404800415038,-1.8724153358459472,-3.9873932273864745
1763699249095188700,11.636188720703124,2.220472402191162,-2.427870121002197,-3.4483985786437987
1763699249105139700,11.6461396484375,0.20066402664184568,-2.862866635131836,-3.208230224609375
1763699249115089700,11.656089599609375,-1.255758770751953,-3.2474352767944334,-3.8251860649108886
1763699249125040600,11.66604052734375,-0.5873275947570801,-3.7865795631408687,-4.263773881530762
1763699249134991600,11.67599169921875,0.5373486351013184,-3.960757733917236,-3.83685779800415
1763699249144942600,11.685942626953125,1.9174562545776366,-4.148403289031982,-2.748393868255615
1763699249154893600,11.6958935546875,2.586934893798828,-5.945101997375488,-0.7549217109680175
1763699249164844500,11.705844482421876,0.6168062026977539,-10.08018753967285,0.11926117019653319
1763699249174795500,11.71579541015625,-0.8037035697937012,-17.84263823471069,-2.705148600769043
1763699249184746800,11.725746826171875,-0.8547299926757812,-27.691934951782226,-8.269871809387206
1763699249194696700,11.73569677734375,-2.0081366424560545,-39.0726229057312,-14.819060813140869
1763699249204647400,11.7456474609375,2.4850316856384276,-54.05838000946044,-8.973467822265624
1763699249214598700,11.7555986328125,19.367146141815184,-61.81604230117797,7.167042669677734
1763699249224549600,11.765549560546875,23.74778699188232,-49.55518596191406,10.538078607177734
1763699249234500600,11.77550048828125,11.316942334747313,-38.43396961288452,4.332158266448975
1763699249244451600,11.78545166015625,3.2339678924560546,-29.32238628234863,-5.749824924468994
1763699249254402600,11.795402587890624,0.5668272430419922,-21.819706467437744,-12.729521314239502
1763699249264352500,11.8053525390625,-0.10369885940551757,-14.935628506469726,-11.821520334625243
1763699249274303700,11.8153037109375,1.3320739486694335,-7.851036156463622,-10.758195522308348
1763699249284254500,11.82525439453125,1.979705497741699,-1.9973627349853516,-5.044582897949218
1763699249294205700,11.835205810546874,-0.03277063522338867,3.630058629608154,4.663156645965576
1763699249304156400,11.845156494140625,-3.1637878562927244,9.477746546936034,8.23575443572998
1763699249314107600,11.855107666015625,-6.405387266540527,11.859378648376465,8.722974473571776
1763699249324058600,11.86505859375,-9.354894074249268,4.427028507232666,6.204124689483642
1763699249334009600,11.875009521484374,-10.598382561492919,-0.23044190979003906,6.0233624641418455
1763699249343959600,11.88495947265625,-11.017517489624023,0.4670189613342285,7.458237446594238
1763699249353910800,11.894910888671875,-11.909207970428467,2.9267618919372556,7.481131999969482
1763699249363861500,11.904861572265625,-16.454150909423827,4.669441425323486,8.589048818206786
1763699249373812700,11.914812744140624,-21.43154652328491,5.47808303604126,9.516502686309813
1763699249383763500,11.924763427734375,-18.76799717636108,4.8235681571960445,8.844629845428466
1763699249393714700,11.934714599609375,-9.311948081970215,3.3617584060668944,8.064269741821288
1763699249403665700,11.944665771484376,-2.048688433074951,0.33010055389404297,7.432948691558837
1763699249413615600,11.95461572265625,4.948515556335449,-2.10674782333374,6.543353137207031
1763699249423566600,11.964566650390625,11.933000349426269,-3.889829509735107,5.276371546173095
1763699249433517600,11.974517578125,16.353893714904785,-5.895123037719726,3.0291140129089356
1763699249443468500,11.984468505859375,9.979182157135009,-8.5417633354187,1.8456302047729491
1763699249453419800,11.994419677734374,5.582829358673095,-12.035502108001708,1.0583867713928221
1763699249463370500,12.00437060546875,1.6539444343566894,-15.576676000976562,-0.7772177139282226
1763699249473321700,12.01432177734375,-3.5525463508605957,-17.878850534820554,-3.9145197143554684
1763699249483272400,12.0242724609375,-4.165761251068115,-17.182437126922608,-5.040393045043945
1763699249493222700,12.03422265625,-10.326042122650145,-11.10954461593628,-2.438045478057861
1763699249503173600,12.044173583984374,-26.24613642425537,-3.374627239990234,1.1945569908142089
1763699249513124600,12.05412451171875,-30.28051585922241,2.0778677658081053,5.398625468444824
1763699249523075600,12.06407568359375,-16.525378408813477,6.472125637817382,10.948235279083251
1763699249533026800,12.07402685546875,20.913201863861083,11.793987015533446,11.491419780731201
1763699249542977500,12.0839775390625,35.2671890045166,2.9420249275207517,5.060294846343994
1763699249552928800,12.0939287109375,-19.24130091705322,-24.620922409820555,5.628169552612304
1763699249562879500,12.10387939453125,-25.552566130828858,-56.00426740875244,-4.546888227844238
1763699249572829700,12.11382958984375,18.223914849090576,-66.31145519332885,-14.35832663116455
1763699249582780700,12.12378076171875,21.02902136917114,-35.636045697784425,-13.66879655303955
1763699249592731600,12.133731689453125,-14.521581256866455,-16.262614776611326,-13.070844688415526
1763699249602682600,12.1436826171875,-15.524302839660644,-11.71557691116333,-22.78471937408447
1763699249612633600,12.153633544921876,-12.055703184509277,-15.771953073883056,-29.271509497070312
1763699249622584600,12.16358447265625,-17.3133700302124,-17.8251306350708,-24.68152563934326
1763699249632535800,12.173535888671875,-19.94414874191284,-16.507571533966065,-14.753220267486572
1763699249642486500,12.183486572265625,5.07555788192749,-20.18701057281494,-2.8330887519836425
1763699249652436700,12.193436767578126,47.45726675720215,-32.32950356750488,14.559439570617675
1763699249662387700,12.2033876953125,30.385262181854245,-43.01018681106567,28.293627756500243
1763699249672338700,12.213338623046875,6.325929698944091,-39.50208282852173,23.541736011505126
1763699249682289700,12.22328955078125,14.458134912872314,-27.089344321441647,4.273350688171386
1763699249692240600,12.23324072265625,8.10242733078003,-15.355511622619629,-7.44417151184082
1763699249702191600,12.243191650390624,1.7108067237854003,-6.226570330047607,-14.270489357757567
1763699249712142600,12.253142578125,-3.5227684677124023,-1.582118384552002,-18.063054425048826
1763699249722092800,12.2630927734375,-7.269843703460693,3.880851253509521,-18.338686891174316
1763699249732043800,12.273043701171876,-3.200598706817627,9.418340418243409,-17.784878119659425
1763699249741994800,12.282994873046874,9.182361917114257,13.383736917877197,-19.973776987457274
1763699249751945700,12.29294580078125,15.108310301208496,10.117447303009033,-20.034529854583738
1763699249761897000,12.30289697265625,3.699640115356445,2.951452096557617,-13.526940104675292
1763699249771847700,12.31284765625,-7.822305736541748,1.5465046348571776,-7.443423323822021
1763699249781799000,12.322798828125,-4.9337014335632325,0.3708019821166992,-4.980986916351318
1763699249791749600,12.33274951171875,0.2472013214111328,-0.1096843635559082,-3.1298201202392577
1763699249801699600,12.342699462890625,0.5383960983276367,-1.232714579772949,-1.0449193870544433
1763699249811650800,12.35265087890625,0.7435492530822754,-2.034023947906494,-0.5400421119689941
1763699249821601800,12.362601806640624,1.7555483673095702,-3.605368424987793,-0.7863456077575683
1763699249831552800,12.372552734375,2.7073931648254392,-4.658068967437744,-0.572663109588623
1763699249841503700,12.382503662109375,3.442413074493408,-4.7098435783386225,-0.32561142578124996
1763699249851454700,12.392454833984376,3.5965398063659664,-4.891503629302978,0.2645592834472656
1763699249861406000,12.402406005859374,3.073855656433105,-6.118980892944336,1.2847884658813475
1763699249871356700,12.412356689453125,1.4713865577697753,-8.98274535369873,1.65992993850708
1763699249881306600,12.422306640625,0.28206688308715816,-13.896245710754394,-0.8586205703735351
1763699249891257900,12.4322578125,1.8775030143737792,-21.078850691223142,-7.109432192230225
1763699249901208600,12.44220849609375,3.1592987281799316,-33.50415875701904,-16.723049683380125
1763699249911159800,12.452159912109375,3.3605613052368164,-52.487484445190425,-23.511658853149413
1763699249921110800,12.46211083984375,14.16664086074829,-66.66504885101318,-14.413243631744384
1763699249931061800,12.472061767578126,19.213019409942625,-55.05227297363281,-1.3519757499694824
1763699249941012700,12.4820126953125,9.06489639816284,-42.66003481826782,-0.6196493171691894
1763699249950963700,12.491963623046875,1.4740800346374512,-32.55545634918213,-8.059331700897216
1763699249960913700,12.50191357421875,0.7472901931762694,-22.18452294540405,-14.790480030822753
1763699249970865000,12.511864990234375,0.5969044013977051,-14.669273571777342,-14.451251583099364
1763699249980815600,12.521815673828126,-1.3679869735717773,-8.486098146820067,-11.761665293121338
1763699249990766800,12.531766845703125,-2.8057050704956055,-1.9502268898010253,-1.1041758781433104
1763699250000717600,12.541717529296875,-5.117157135772705,3.615693419647217,11.22955397415161
1763699250010668800,12.551668701171875,-8.314912728118896,10.937611009216308,14.200010046386717
1763699250020619800,12.561619873046874,-11.099518896484375,10.104428831481933,15.426140571594237
1763699250030570800,12.57157080078125,-12.00273147277832,1.6684592819213866,15.306430488586425
1763699250040520700,12.581520751953125,-12.682984019470213,-1.9352631294250486,14.42850666732788
1763699250050471700,12.5914716796875,-13.140725449371336,-0.9084498924255371,12.051662969207763
1763699250060422700,12.601422607421876,-14.956877046203612,1.8604443275451659,8.812757035827635
1763699250070374000,12.611373779296875,-18.848352569580076,4.261529317474365,8.083572992706298
1763699250080324600,12.62132470703125,-20.885967819976806,6.049848320007324,9.125798902893067
1763699250090275800,12.63127587890625,-14.870087236022949,7.016806515502929,9.221566969299316
1763699250100226600,12.6412265625,-3.575889817047119,6.975057624053955,8.579322373962402
1763699250110177800,12.651177734375,0.992097312927246,4.587140743255615,5.754912602996826
1763699250120127700,12.661127685546875,3.9839515624999997,1.847575493621826,4.229357232666016
1763699250130078700,12.67107861328125,9.371054935455321,-0.38142625198364255,3.79870020904541
