time,seconds_elapsed,z,y,x
1763699237508682000,0.049681884765625,0.08665450662374496,-1.0218441486358643,-0.11589285731315613
1763699237518632000,0.0596318359375,0.11203359812498093,-0.9291895031929016,-0.09969354420900345
1763699237528583200,0.069583251953125,0.14215075969696045,-0.7486221194267273,-0.05020429193973541
1763699237538534000,0.079533935546875,0.1533391773700714,-0.5200262069702148,0.016598880290985107
1763699237548485000,0.089485107421875,0.14572599530220032,-0.30300572514533997,0.07338093221187592
1763699237558435800,0.099435791015625,0.11858989298343658,-0.13381730020046234,0.07380597293376923
1763699237568386000,0.109385986328125,0.06674560904502869,-0.004953327588737011,0.011409975588321686
1763699237578337000,0.1193369140625,0.0048484643921256065,0.12931588292121887,-0.09342702478170395
1763699237588288000,0.1292880859375,-0.05432644486427307,0.2560085952281952,-0.18457265198230743
1763699237598239000,0.139239013671875,-0.09503498673439026,0.3763089179992676,-0.2358803153038025
1763699237608190000,0.14918994140625,-0.11784560233354568,0.4773963391780853,-0.2612013816833496
1763699237618140000,0.159139892578125,-0.11827722191810608,0.5331911444664001,-0.2723478078842163
1763699237628091100,0.169091064453125,-0.111324243247509,0.5666607022285461,-0.2640475332736969
1763699237638041900,0.179041748046875,-0.09691520035266876,0.6084921956062317,-0.22287052869796753
1763699237647993000,0.1889931640625,-0.0796094462275505,0.6493086218833923,-0.15702946484088898
1763699237657944000,0.198944091796875,-0.05726698040962219,0.7020171284675598,-0.10190991312265396
1763699237667895000,0.20889501953125,-0.04388033598661423,0.7566923499107361,-0.06452339142560959
1763699237677845000,0.218844970703125,-0.04123608395457268,0.8041064739227295,-0.05623963475227356
1763699237687796200,0.228796142578125,-0.044345058500766754,0.7398532032966614,-0.003728223266080022
1763699237697747200,0.238747314453125,-0.06104709580540657,0.8897910118103027,0.1132618635892868
1763699237707698200,0.2486982421875,-0.06197653338313103,1.1134382486343384,0.26640403270721436
1763699237717649200,0.258649169921875,-0.05922149494290352,1.2203614711761475,0.4300038814544678
1763699237727599000,0.26859912109375,-0.047585878521203995,1.1962531805038452,0.5860382318496704
1763699237737550000,0.278550048828125,-0.01395255234092474,1.151863932609558,0.7028945088386536
1763699237747501000,0.2885009765625,0.03824998810887337,1.0398070812225342,0.7769412398338318
1763699237757452000,0.2984521484375,0.07597153633832932,0.9189326763153076,0.8096597790718079
1763699237767403000,0.308403076171875,0.07220881432294846,1.0337812900543213,0.8009389638900757
1763699237777353000,0.31835302734375,0.05021974816918373,1.3234708309173584,0.7716159224510193
1763699237787304200,0.32830419921875,0.028144540265202522,1.6970641613006592,0.7300450205802917
1763699237797255000,0.3382548828125,-0.011819553561508656,1.9754693508148193,0.6696442365646362
1763699237807206100,0.3482060546875,-0.06251069158315659,2.0972900390625,0.5786895751953125
1763699237817157000,0.3581572265625,-0.0914653092622757,1.9059779644012451,0.4495755136013031
1763699237827107000,0.368107177734375,-0.07328923791646957,1.449912428855896,0.2501188814640045
1763699237837058000,0.37805810546875,-0.07996562123298645,0.9485024213790894,-0.07486019283533096
1763699237847009300,0.38800927734375,-0.09195490181446075,0.7613128423690796,-0.3964107930660248
1763699237856960000,0.3979599609375,-0.1211036965250969,0.6826232671737671,-0.6044338345527649
1763699237866911200,0.4079111328125,-0.18392767012119293,0.6150417923927307,-0.6743130683898926
1763699237876862000,0.417862060546875,-0.23678795993328094,0.6452694535255432,-0.631025493144989
1763699237886812200,0.427812255859375,-0.2527410089969635,0.726442813873291,-0.543444812297821
1763699237896763100,0.43776318359375,-0.2461615800857544,0.7992743849754333,-0.4339960813522339
1763699237906714000,0.447714111328125,-0.24380601942539215,0.7446007132530212,-0.37021416425704956
1763699237916665000,0.4576650390625,-0.24469409883022308,0.6421547532081604,-0.38106656074523926
1763699237926616000,0.467615966796875,-0.24652981758117676,0.5323720574378967,-0.42452162504196167
1763699237936566000,0.47756591796875,-0.27628961205482483,0.39206501841545105,-0.47575798630714417
1763699237946517200,0.487517333984375,-0.3031390607357025,0.2044147253036499,-0.4975684881210327
1763699237956468200,0.49746826171875,-0.30903491377830505,0.033919643610715866,-0.45016640424728394
1763699237966419200,0.507419189453125,-0.30108004808425903,-0.08471646159887314,-0.34802567958831787
1763699237976370200,0.5173701171875,-0.2818935811519623,-0.1831417828798294,-0.22081740200519562
1763699237986320100,0.527320068359375,-0.242348313331604,-0.2586868703365326,-0.1026926189661026
1763699237996271000,0.53727099609375,-0.21010516583919525,-0.30669966340065,-0.02754354290664196
1763699238006222000,0.54722216796875,-0.19564566016197205,-0.33652886748313904,-0.005938033107668161
1763699238016173000,0.557173095703125,-0.19212301075458527,-0.3243923485279083,-0.021847104653716087
1763699238026124300,0.567124267578125,-0.18961165845394135,-0.2646704316139221,-0.03443320468068123
1763699238036074200,0.57707421875,-0.20540384948253632,-0.202083557844162,-0.03798029571771622
1763699238046025000,0.58702490234375,-0.2277589589357376,-0.15188856422901154,-0.04114146903157234
1763699238055976200,0.59697607421875,-0.23373423516750336,-0.1261519193649292,-0.05647611990571022
1763699238065927000,0.606927001953125,-0.2202858030796051,-0.10125695914030075,-0.07467803359031677
1763699238075878100,0.616878173828125,-0.1921934187412262,-0.0894823670387268,-0.09786892682313919
1763699238085829000,0.6268291015625,-0.16631947457790375,-0.11709189414978027,-0.12444806843996048
1763699238095779000,0.636779052734375,-0.1565488576889038,-0.1872139573097229,-0.15064968168735504
1763699238105730000,0.64672998046875,-0.15072505176067352,-0.24712549149990082,-0.16225627064704895
1763699238115681300,0.656681396484375,-0.13961227238178253,-0.3524845838546753,-0.16738799214363098
1763699238125632000,0.666632080078125,-0.12335766851902008,-0.4207717776298523,-0.1576613336801529
1763699238135583200,0.676583251953125,-0.10830948501825333,-0.4439583420753479,-0.10510321706533432
1763699238145533200,0.686533203125,-0.0930919200181961,-0.46149125695228577,-0.037324171513319016
1763699238155484200,0.696484130859375,-0.0843903049826622,-0.41834619641304016,0.0406329445540905
1763699238165435100,0.70643505859375,-0.06991889327764511,-0.39873626828193665,0.08738339692354202
1763699238175386000,0.71638623046875,-0.05686473846435547,-0.3497033417224884,0.10237797349691391
1763699238185337000,0.726337158203125,-0.04533484950661659,-0.30528900027275085,0.09832117706537247
1763699238195287300,0.736287353515625,-0.04466340318322182,-0.27233996987342834,0.08481958508491516
1763699238205238000,0.746238037109375,-0.056136298924684525,-0.2599504292011261,0.05861114338040352
1763699238215189200,0.756189208984375,-0.06666098535060883,-0.25948280096054077,0.03783655911684036
1763699238225140000,0.766139892578125,-0.0759143978357315,-0.23295851051807404,0.026002535596489906
1763699238235091200,0.77609130859375,-0.08613893389701843,-0.16330216825008392,0.030906546860933304
1763699238245042200,0.786042236328125,-0.08884897083044052,-0.05094420909881592,0.0453248992562294
1763699238254992100,0.7959921875,-0.10001382231712341,0.11137533187866211,0.07363405078649521
1763699238264943000,0.805943115234375,-0.11255518347024918,0.2805723547935486,0.09676893055438995
1763699238274894300,0.815894287109375,-0.1291935294866562,0.45110756158828735,0.0978211760520935
1763699238284845000,0.825844970703125,-0.15040960907936096,0.6000269651412964,0.07601387798786163
1763699238294796300,0.83579638671875,-0.17257001996040344,0.7342016696929932,0.03924471512436867
1763699238304746200,0.845746337890625,-0.19739599525928497,0.8909968733787537,0.0024078707210719585
1763699238314697000,0.855697021484375,-0.21006447076797485,1.0985462665557861,-0.02211451716721058
1763699238324648200,0.865648193359375,-0.22422583401203156,1.3654924631118774,-0.016683531925082207
1763699238334599000,0.875598876953125,-0.24679934978485107,1.6464569568634033,-0.008499003946781158
1763699238344550100,0.885550048828125,-0.2704947888851166,1.9587829113006592,0.008291427977383137
1763699238354500000,0.8955,-0.31033775210380554,2.217073440551758,-0.011483747512102127
1763699238364451000,0.905451171875,-0.3788236081600189,2.4515130519866943,-0.020556870847940445
1763699238374402000,0.915402099609375,-0.4732404351234436,2.565610885620117,-0.05140022188425064
1763699238384353300,0.925353271484375,-0.5646592974662781,2.6844711303710938,-0.074553482234478
1763699238394304000,0.935303955078125,-0.6308324933052063,2.6941189765930176,-0.07699451595544815
1763699238404255200,0.945255126953125,-0.6862174272537231,2.6830101013183594,-0.0656430572271347
1763699238414205200,0.955205078125,-0.7091802358627319,2.4001331329345703,-0.11733539402484894
1763699238424156200,0.96515625,-0.6215705275535583,2.033822774887085,-0.25681179761886597
1763699238434107100,0.975107177734375,-0.5585833191871643,1.7102323770523071,-0.45371875166893005
1763699238444058000,0.98505810546875,-0.5746461749076843,1.6402032375335693,-0.6296835541725159
1763699238454009000,0.995009033203125,-0.6186017394065857,1.594097375869751,-0.7137464880943298
1763699238463959300,1.004959228515625,-0.5924960970878601,1.4266124963760376,-0.6880677938461304
1763699238473910000,1.014909912109375,-0.4989531934261322,1.3443191051483154,-0.5429051518440247
1763699238483861200,1.024861328125,-0.36133939027786255,1.3020819425582886,-0.343870609998703
1763699238493812000,1.03481201171875,-0.18159468472003937,1.1971511840820312,-0.18541359901428223
1763699238503763200,1.04476318359375,-0.026034919545054436,1.0659332275390625,-0.09068682789802551
1763699238513714200,1.054714111328125,0.020025718957185745,0.9622208476066589,-0.0646691620349884
1763699238523664100,1.0646640625,0.005595646798610687,0.9396782517433167,-0.08430545032024384
1763699238533615000,1.074614990234375,-0.02492254599928856,0.9540703892707825,-0.1261826902627945
1763699238543566300,1.08456640625,-0.07024554908275604,0.9947190284729004,-0.17280425131320953
1763699238553517000,1.09451708984375,-0.10651157051324844,1.0879623889923096,-0.21809443831443787
1763699238563468300,1.10446826171875,-0.09794498234987259,1.259701132774353,-0.2670803666114807
1763699238573418200,1.114418212890625,-0.07272510230541229,1.4024380445480347,-0.25957462191581726
1763699238583369000,1.124368896484375,-0.05832086503505707,1.4198309183120728,-0.18728606402873993
1763699238593320200,1.1343203125,-0.0807124525308609,1.389400839805603,-0.07375897467136383
1763699238603271000,1.14427099609375,-0.13045670092105865,1.4177621603012085,0.047601357102394104
1763699238613222100,1.15422216796875,-0.1652764081954956,1.3118702173233032,0.17855574190616608
1763699238623172000,1.164172119140625,-0.1132291778922081,1.2428985834121704,0.34384241700172424
1763699238633123000,1.174123046875,0.06750574707984924,1.2003443241119385,0.5003093481063843
1763699238643074000,1.184073974609375,0.22014614939689636,1.0198904275894165,0.4871586561203003
1763699238653025000,1.19402490234375,0.3192594051361084,0.9834230542182922,0.3798774182796478
1763699238662976000,1.20397607421875,0.3620063364505768,1.0232692956924438,0.24769540131092072
1763699238672927200,1.21392724609375,0.3420644998550415,1.1044753789901733,0.15435746312141418
1763699238682877200,1.223877197265625,0.29781287908554077,1.22443687915802,0.0865190327167511
1763699238692828200,1.233828125,0.24671395123004913,1.3571239709854126,0.03581731766462326
1763699238702779100,1.243779052734375,0.18277572095394135,1.4389586448669434,0.0008638610597699881
1763699238712730000,1.253730224609375,0.15703020989894867,1.4660961627960205,-0.03198585286736488
1763699238722681000,1.26368115234375,0.1600523740053177,1.5617893934249878,-0.06092189997434616
1763699238732631300,1.27363134765625,0.19919706881046295,1.6691107749938965,-0.10733471810817719
1763699238742582000,1.28358203125,0.25635436177253723,1.7529648542404175,-0.17148147523403168
1763699238752533200,1.293533203125,0.32472318410873413,1.7923916578292847,-0.23830093443393707
1763699238762484000,1.30348388671875,0.3904494643211365,1.7832854986190796,-0.2931109070777893
1763699238772435200,1.313435302734375,0.40817636251449585,1.7426162958145142,-0.3159334063529968
1763699238782385200,1.32338525390625,0.3618762493133545,1.6832191944122314,-0.28497016429901123
1763699238792336100,1.333336181640625,0.2678891122341156,1.6507596969604492,-0.17548426985740662
1763699238802287000,1.343287109375,0.17230506241321564,1.5297033786773682,-0.016127903014421463
1763699238812238300,1.35323828125,0.060871466994285583,1.3700820207595825,0.1784885674715042
1763699238822189000,1.36318896484375,-0.04813491180539131,1.1764410734176636,0.33851152658462524
1763699238832140300,1.373140380859375,-0.13667449355125427,1.0336674451828003,0.4723994731903076
1763699238842090200,1.38309033203125,-0.18891693651676178,0.9656111001968384,0.5261868238449097
1763699238852041200,1.393041259765625,-0.18234217166900635,0.9498943090438843,0.40833190083503723
1763699238861992200,1.4029921875,-0.1324630081653595,1.007906436920166,0.17998366057872772
1763699238871943200,1.412943115234375,-0.08289866149425507,1.0295387506484985,-0.046973053365945816
1763699238881894100,1.42289404296875,-0.07546035945415497,1.0156784057617188,-0.19667677581310272
1763699238891845000,1.43284521484375,-0.10841929912567139,0.9727543592453003,-0.24311622977256775
1763699238901795000,1.442795166015625,-0.16406846046447754,0.8840579986572266,-0.22791624069213867
1763699238911746000,1.45274609375,-0.19374381005764008,0.7122467756271362,-0.15236765146255493
1763699238921697000,1.462697021484375,-0.1788972169160843,0.5591192841529846,-0.06247479468584061
1763699238931648000,1.47264794921875,-0.1010531634092331,0.3485051393508911,-0.02448531799018383
1763699238941599200,1.48259912109375,0.025249380618333817,0.14774619042873383,-0.06360343098640442
1763699238951549000,1.492548828125,0.23076912760734558,-0.17147284746170044,-0.21557343006134033
1763699238961500200,1.502500244140625,0.5335752964019775,-0.4599304795265198,-0.4844224452972412
1763699238971451100,1.512451171875,0.8322973847389221,-0.5871220827102661,-0.7435983419418335
1763699238981402000,1.522402099609375,1.0807043313980103,-0.6981383562088013,-0.9567252993583679
1763699238991353000,1.53235302734375,0.773923933506012,-0.24132953584194183,-0.6740147471427917
1763699239001304000,1.542303955078125,0.41830724477767944,-0.3698984384536743,-0.17855414748191833
1763699239011254000,1.55225390625,0.4317317008972168,-0.2534392178058624,0.10346977412700653
1763699239021205200,1.562205322265625,0.6499518752098083,-0.3804000914096832,0.26645392179489136
1763699239031156000,1.572156005859375,0.8439966440200806,-0.4631844460964203,0.4409988224506378
1763699239041107200,1.582107177734375,0.9366376399993896,-0.460551917552948,0.6068629026412964
1763699239051058200,1.59205810546875,0.9580909609794617,-0.6842635869979858,0.7885907888412476
1763699239061008100,1.602008056640625,0.9329150319099426,-1.014640212059021,0.9916868805885315
1763699239070959000,1.611958984375,0.9006702899932861,-1.2002863883972168,1.1922420263290405
1763699239080910000,1.62191015625,0.8851890563964844,-1.2718250751495361,1.3708889484405518
1763699239090861000,1.631861083984375,0.8940585851669312,-1.409088134765625,1.5337697267532349
1763699239100812300,1.641812255859375,0.925381064414978,-1.3883814811706543,1.6446727514266968
1763699239110763000,1.651762939453125,0.9422755241394043,-0.9796943664550781,1.6998337507247925
1763699239120713200,1.661713134765625,0.8694801330566406,-0.4753318727016449,1.7295171022415161
1763699239130664200,1.671664306640625,0.7083418965339661,-0.2532438337802887,1.7700035572052002
1763699239140615200,1.681615234375,0.5313090682029724,-0.1645379364490509,1.7941830158233643
1763699239150566100,1.691566162109375,0.4060238003730774,0.0011028305161744356,1.7866003513336182
1763699239160517000,1.70151708984375,0.34497031569480896,0.20201382040977478,1.7593218088150024
1763699239170467000,1.711467041015625,0.3300723731517792,0.3805914521217346,1.7263821363449097
1763699239180418000,1.72141796875,0.3395705223083496,0.47701147198677063,1.6993886232376099
1763699239190369000,1.731369140625,0.33385565876960754,0.46111056208610535,1.6729388236999512
1763699239200320300,1.7413203125,0.29851898550987244,0.34384411573410034,1.641960859298706
1763699239210271200,1.751271240234375,0.2663439214229584,0.21085157990455627,1.599658727645874
1763699239220222200,1.76122216796875,0.2533612847328186,0.0863349512219429,1.5433465242385864
1763699239230172200,1.771172119140625,0.12395258247852325,0.10475596785545349,1.5093940496444702
1763699239240123100,1.781123046875,-0.21483957767486572,0.12383192777633667,1.294503927230835
1763699239250074000,1.79107421875,-0.4524945914745331,0.09698287397623062,0.8951233625411987
1763699239260025000,1.801025146484375,-0.5310298204421997,0.17277216911315918,0.48719075322151184
1763699239269976000,1.81097607421875,-0.5296943783760071,0.1631847321987152,0.21218831837177277
1763699239279927000,1.820927001953125,-0.45587074756622314,0.09215102344751358,0.051886267960071564
1763699239289877200,1.830877197265625,-0.33345267176628113,-0.009156201034784317,-0.06385467946529388
1763699239299828000,1.840827880859375,-0.18567387759685516,-0.061370402574539185,-0.1694604605436325
1763699239309779200,1.850779296875,-0.07257915288209915,-0.17945200204849243,-0.2377791404724121
1763699239319730000,1.86072998046875,0.0023294405546039343,-0.3521875739097595,-0.26673489809036255
1763699239329681200,1.87068115234375,0.048908647149801254,-0.48673495650291443,-0.2860042452812195
1763699239339631000,1.880631103515625,0.07921967655420303,-0.6105093359947205,-0.32821935415267944
1763699239349582000,1.89058203125,0.11005765944719315,-0.7154715061187744,-0.39942800998687744
1763699239359533000,1.900532958984375,0.16285936534404755,-0.7357432246208191,-0.4689178764820099
1763699239369484300,1.910484375,0.2193007469177246,-0.6784372925758362,-0.4875129461288452
1763699239379435000,1.92043505859375,0.24255253374576569,-0.6139243245124817,-0.4911465644836426
1763699239389386200,1.93038623046875,0.20908868312835693,-0.579868495464325,-0.5202913880348206
1763699239399336200,1.940336181640625,0.12256497144699097,-0.5304985642433167,-0.5738837718963623
1763699239409287200,1.950287109375,0.016630124300718307,-0.4711345136165619,-0.6104080677032471
1763699239419238100,1.960238037109375,-0.07297512888908386,-0.3970123529434204,-0.6232889890670776
1763699239429189000,1.970189208984375,-0.193002387881279,-0.09100281447172165,-0.6870110630989075
1763699239439140000,1.98014013671875,-0.28356289863586426,-0.2594459056854248,-0.8394400477409363
1763699239449090300,1.99009033203125,-0.22346514463424683,-0.310002863407135,-0.9837289452552795
1763699239459041000,2.000041015625,-0.08794698119163513,-0.12763574719429016,-1.0429558753967285
1763699239468992300,2.0099921875,0.013542364351451397,-0.0925356075167656,-0.9757831692695618
1763699239478943200,2.019943115234375,0.06323295831680298,-0.15590818226337433,-0.8396947979927063
1763699239488894200,2.029894287109375,0.07529748976230621,-0.2539421021938324,-0.7149149775505066
1763699239498845200,2.03984521484375,0.07568444311618805,-0.30805671215057373,-0.6400881409645081
1763699239508795100,2.049795166015625,0.04605761542916298,-0.25697341561317444,-0.5793790221214294
1763699239518746000,2.05974609375,-0.020390117540955544,-0.22726184129714966,-0.5163031220436096
1763699239528697000,2.069697021484375,-0.09762019664049149,-0.17315226793289185,-0.44500473141670227
1763699239538648000,2.07964794921875,-0.16957689821720123,-0.1213003620505333,-0.3637876808643341
1763699239548599300,2.089599365234375,-0.23122656345367432,-0.04582049697637558,-0.26112931966781616
1763699239558550000,2.099550048828125,-0.286762535572052,0.019037863239645958,-0.15208591520786285
1763699239568500000,2.1095,-0.30770501494407654,0.04347062483429909,-0.0768231451511383
1763699239578451200,2.119451171875,-0.19066227972507477,0.0007210286566987634,-0.058514177799224854
1763699239588402000,2.12940185546875,-0.026168884709477425,-0.15567612648010254,-0.08688022941350937
1763699239598353200,2.139353271484375,0.07878522574901581,-0.28280025720596313,-0.11609777063131332
1763699239608304000,2.14930419921875,0.08356443047523499,-0.35606202483177185,-0.11872673034667969
1763699239618255000,2.159255126953125,0.021298924461007118,-0.4322097897529602,-0.08124805986881256
1763699239628205000,2.169205078125,-0.06587634980678558,-0.4701453745365143,-0.015489674173295498
1763699239638156300,2.17915625,-0.14121823012828827,-0.43797677755355835,0.05051863566040993
1763699239648107000,2.18910693359375,-0.16956356167793274,-0.3620375692844391,0.07078322023153305
1763699239658058200,2.199058349609375,-0.17538896203041077,-0.23147985339164734,0.03257004916667938
1763699239668009000,2.209009033203125,-0.20296016335487366,-0.10366299748420715,-0.04483291506767273
1763699239677959200,2.218959228515625,-0.25185075402259827,-0.06793216615915298,-0.14999155700206757
1763699239687910100,2.22891015625,-0.18671031296253204,-0.03799837827682495,0.07710788398981094
1763699239697860600,2.238860595703125,-0.20215371251106262,0.01312312949448824,-0.04645053669810295
1763699239707811800,2.248811767578125,-0.25015631318092346,-0.07224198430776596,-0.1389240324497223
1763699239717762800,2.2587626953125,-0.2639125883579254,-0.08722545951604843,-0.11416010558605194
1763699239727713800,2.2687138671875,-0.2508755326271057,-0.026351602748036385,-0.019045334309339523
1763699239737663700,2.278663818359375,-0.17807644605636597,-0.13472680747509003,-0.18954330682754517
1763699239747615000,2.288614990234375,-0.16804185509681702,0.1360989511013031,0.02464073896408081
1763699239757565700,2.298565673828125,-0.2596578001976013,0.09417972713708878,0.19852864742279053
1763699239767517000,2.308516845703125,-0.29393500089645386,0.05797102674841881,0.2352294772863388
1763699239777467600,2.318467529296875,-0.2635565996170044,0.10135525465011597,0.14440876245498657
1763699239787419000,2.3284189453125,-0.19144459068775177,0.12661662697792053,0.044637616723775864
1763699239797368800,2.338368896484375,-0.05060625448822975,0.08213517814874649,-0.013881886377930641
1763699239807319600,2.348319580078125,0.12208940833806992,-0.0010841337498277426,-0.03802036866545677
1763699239817270800,2.358270751953125,0.17085295915603638,0.19195082783699036,-0.03680010885000229
1763699239827221800,2.3682216796875,0.12010370194911957,-0.04694237932562828,0.06830459833145142
1763699239837172700,2.3781728515625,-0.005011336877942085,0.06427522003650665,0.06189649924635887
1763699239847124000,2.3881240234375,-0.11353137344121933,0.15569648146629333,0.053897012025117874
1763699239857073700,2.39807373046875,-0.17003220319747925,0.17264589667320251,0.04333171993494034
1763699239867024600,2.408024658203125,-0.11315544694662094,0.12441219389438629,0.0667281523346901
1763699239876975900,2.417975830078125,-0.015302390791475773,0.059222813695669174,0.1047666147351265
1763699239886926600,2.427926513671875,0.05460556223988533,0.03595380485057831,0.13561658561229706
1763699239896877800,2.4378779296875,0.11934514343738556,0.06614099442958832,0.16675320267677307
1763699239906828500,2.44782861328125,0.1447952389717102,0.12672100961208344,0.20732077956199646
1763699239916778800,2.45777880859375,0.13974428176879883,0.22942900657653809,0.24173042178153992
1763699239926729700,2.467729736328125,0.12239488959312439,0.41490477323532104,0.25978925824165344
1763699239936680700,2.4776806640625,0.11171215027570724,0.5088203549385071,0.26225215196609497
1763699239946631700,2.487631591796875,0.08456616848707199,0.9005910158157349,0.21977214515209198
1763699239956583000,2.4975830078125,0.08483461290597916,1.1948423385620117,0.12358036637306213
1763699239966532600,2.50753271484375,0.1250161975622177,1.2940281629562378,0.05688512325286865
1763699239976483800,2.51748388671875,0.1693519651889801,1.5812358856201172,-0.0067199477925896645
1763699239986434800,2.527434814453125,0.14992499351501465,1.7316968441009521,-0.03190302103757858
1763699239996385800,2.5373857421875,0.08926378190517426,1.7358298301696777,-0.0023123719729483128
1763699240006336800,2.547336669921875,0.06105901300907135,1.585378885269165,0.04762616381049156
1763699240016287700,2.557287841796875,0.038815226405858994,1.4500783681869507,0.059802133589982986
1763699240026237700,2.56723779296875,-0.04156395420432091,1.4461240768432617,0.015678850933909416
1763699240036189000,2.57718896484375,-0.1745116114616394,1.4778681993484497,-0.051299650222063065
1763699240046139600,2.5871396484375,-0.3397412598133087,1.4932818412780762,-0.10585279762744904
1763699240056091000,2.5970908203125,-0.5289766788482666,1.5223180055618286,-0.08674541115760803
1763699240066041600,2.60704150390625,-0.6529732942581177,1.481044054031372,-0.01911255344748497
1763699240075992800,2.616992919921875,-0.5953150391578674,1.2984209060668945,0.061260052025318146
1763699240085942800,2.62694287109375,-0.4642559289932251,1.115174412727356,0.2801423966884613
1763699240095893800,2.636893798828125,-0.2953880727291107,0.8610321879386902,0.5123357176780701
1763699240105844700,2.6468447265625,-0.09552021324634552,0.5671746134757996,0.7383225560188293
1763699240115796000,2.6567958984375,0.10333376377820969,0.353152871131897,0.9254543781280518
1763699240125746700,2.66674658203125,0.2831086218357086,0.14997047185897827,1.014756441116333
1763699240135698000,2.676697998046875,0.4182714819908142,0.055309996008872986,1.0192794799804688
1763699240145647900,2.68664794921875,0.5172280073165894,-0.014690634794533253,0.9690686464309692
1763699240155598600,2.6965986328125,0.5640924572944641,0.01267840526998043,0.8396344780921936
1763699240165549800,2.7065498046875,0.4771428108215332,-0.006576898507773876,0.683360755443573
1763699240175500800,2.716500732421875,0.328322172164917,-0.10314152389764786,0.5044935345649719
1763699240185451800,2.72645166015625,0.20400361716747284,-0.1444200575351715,0.3428860902786255
1763699240195402800,2.73640283203125,0.038315046578645706,0.03654492646455765,0.1913924366235733
1763699240205352700,2.746352783203125,-0.1521752029657364,0.1354876011610031,0.08618703484535217
1763699240215303700,2.7563037109375,-0.23662804067134857,0.0545397624373436,0.003919860348105431
1763699240225254700,2.766254638671875,-0.20331846177577972,0.06635494530200958,-0.033079419285058975
1763699240235205600,2.77620556640625,-0.16109643876552582,0.13879959285259247,-0.03323148563504219
1763699240245156900,2.786156982421875,-0.13857580721378326,0.17293515801429749,-0.029073409736156464
1763699240255107600,2.796107666015625,-0.11674001067876816,0.17040382325649261,-0.01640634983778
1763699240265057800,2.806057861328125,-0.07875119894742966,0.18320807814598083,0.00008119107224047184
1763699240275008800,2.8160087890625,0.010727016255259514,0.07912347465753555,-0.08437856286764145
1763699240284959700,2.825959716796875,0.07980597764253616,0.1557246893644333,-0.1655236780643463
1763699240294910700,2.83591064453125,0.06177211552858353,0.3490864038467407,-0.10949529707431793
1763699240304861700,2.84586181640625,-0.01995871402323246,0.5573320388793945,0.0355059877038002
1763699240314811600,2.855811767578125,-0.04654797911643982,0.6986031532287598,0.15328481793403625
1763699240324763000,2.865762939453125,-0.061285823583602905,0.6889692544937134,0.1760607361793518
1763699240334713600,2.875713623046875,-0.123527891933918,0.5949916243553162,0.13871228694915771
1763699240344664800,2.885664794921875,-0.2232723981142044,0.45356646180152893,0.10376669466495514
1763699240354615800,2.89561572265625,-0.22461916506290436,0.13478179275989532,0.09922973811626434
1763699240364566800,2.90556689453125,-0.23112432658672333,-0.15188775956630707,0.171645388007164
1763699240374516700,2.915516845703125,-0.25794103741645813,-0.10909555107355118,0.3154076039791107
1763699240384468000,2.925468017578125,-0.24819287657737732,0.06290405988693237,0.42092037200927734
1763699240394418700,2.935418701171875,-0.12783370912075043,0.12858852744102478,0.5013499855995178
1763699240404370000,2.945369873046875,0.045525871217250824,0.22948788106441498,0.5698254704475403
1763699240414320600,2.955320556640625,0.17193548381328583,0.5077764987945557,0.6136206388473511
1763699240424272000,2.96527197265625,0.23810593783855438,0.7141880393028259,0.6320460438728333
1763699240434221800,2.975221923828125,0.2302037924528122,0.7696614265441895,0.6317296624183655
1763699240444172800,2.9851728515625,0.1732291728258133,0.7556543350219727,0.6049705743789673
1763699240454123800,2.995123779296875,0.08144546300172806,0.7731167078018188,0.5420746803283691
1763699240464074800,3.00507470703125,-0.00943604577332735,0.7573575973510742,0.45396125316619873
1763699240474025700,3.015025634765625,-0.08689115941524506,0.7217535376548767,0.3520316779613495
1763699240483977000,3.02497705078125,-0.0866813138127327,0.679958701133728,0.25743207335472107
1763699240493926700,3.0349267578125,-0.016013801097869873,0.6372615694999695,0.1548662930727005
1763699240503877600,3.044877685546875,0.16050571203231812,0.5757331848144531,0.029244225472211838
1763699240513828900,3.054828857421875,0.359416663646698,0.38174697756767273,-0.071527399122715
1763699240523779800,3.06477978515625,0.5852391719818115,0.10739130526781082,-0.16476492583751678
1763699240533730800,3.074730712890625,0.7510156035423279,-0.07450605183839798,-0.28202763199806213
1763699240543681800,3.084681884765625,0.7791359424591064,-0.03249020501971245,-0.4194272458553314
1763699240553631700,3.0946318359375,0.726041853427887,0.009791472926735878,-0.5305585861206055
1763699240563582700,3.104582763671875,0.6201914548873901,0.01354240532964468,-0.6398810744285583
1763699240573533700,3.11453369140625,0.40848299860954285,0.06093255430459976,-0.7824478149414062
1763699240583484700,3.124484619140625,0.22467614710330963,0.12173834443092346,-0.9475837349891663
1763699240593435600,3.134435546875,0.005966439843177795,-0.05049574747681618,-1.1485527753829956
1763699240603386600,3.14438671875,-0.27751171588897705,-0.200294628739357,-1.3369733095169067
1763699240613336800,3.1543369140625,-0.5148986577987671,-0.27849090099334717,-1.4980119466781616
1763699240623287600,3.16428759765625,-0.7025370597839355,-0.3192949891090393,-1.6432157754898071
1763699240633238800,3.17423876953125,-0.9057945609092712,-0.4214802086353302,-1.8104064464569092
1763699240643189800,3.184189697265625,-1.0788054466247559,-0.5733791589736938,-2.0474648475646973
1763699240653140700,3.194140625,-1.2763241529464722,-0.7038295865058899,-2.3550868034362793
1763699240663091700,3.204091796875,-1.5834660530090332,-0.4178391695022583,-2.7007322311401367
1763699240673042000,3.2140419921875,-1.8159904479980469,-0.0816262811422348,-3.032521963119507
1763699240682992600,3.22399267578125,-2.077941417694092,0.11710784584283829,-3.264533042907715
1763699240692944000,3.23394384765625,-2.301542282104492,0.2041088044643402,-3.4077486991882324
1763699240702895400,3.243895263671875,-2.446629524230957,0.20246005058288574,-3.4716193675994873
1763699240712846600,3.2538466796875,-2.5272979736328125,0.0841485932469368,-3.453397512435913
1763699240722797300,3.26379736328125,-2.5151052474975586,-0.17100796103477478,-3.379119634628296
1763699240732747500,3.27374755859375,-2.403012752532959,-0.4891773760318756,-3.2665798664093018
1763699240742698500,3.283698486328125,-2.2287206649780273,-0.8122218251228333,-3.1175217628479004
1763699240752649500,3.2936494140625,-2.0747225284576416,-1.0735247135162354,-2.9434220790863037
1763699240762600400,3.303600341796875,-1.9940494298934937,-1.2560900449752808,-2.715355157852173
1763699240772551400,3.313551513671875,-2.0219593048095703,-1.3686479330062866,-2.4861207008361816
1763699240782502400,3.32350244140625,-2.119385004043579,-1.3599119186401367,-2.325873374938965
1763699240792452600,3.33345263671875,-2.2124931812286377,-1.1761316061019897,-2.2624504566192627
1763699240802403300,3.3434033203125,-2.26467227935791,-0.8438191413879395,-2.2556633949279785
1763699240812354600,3.3533544921875,-2.327322006225586,-0.43241429328918457,-2.2583818435668945
1763699240822305500,3.363305419921875,-2.427682638168335,-0.12446703016757965,-2.236355781555176
1763699240832256500,3.373256591796875,-2.4785516262054443,0.24939097464084625,-2.195495367050171
1763699240842207500,3.38320751953125,-2.508394718170166,0.6898624300956726,-2.13907790184021
1763699240852157700,3.39315771484375,-2.464977979660034,0.9665741920471191,-2.082942008972168
1763699240862108400,3.4031083984375,-2.3354415893554688,1.1550157070159912,-1.9944740533828735
1763699240872059600,3.4130595703125,-2.1615359783172607,1.1327091455459595,-1.837843418121338
1763699240882010400,3.42301025390625,-1.8826286792755127,1.14588463306427,-1.6468912363052368
1763699240891961600,3.432961669921875,-1.5918115377426147,1.2244569063186646,-1.4514015913009644
1763699240901912600,3.44291259765625,-1.3699816465377808,1.2821186780929565,-1.2821648120880127
1763699240911862500,3.452862548828125,-1.2446458339691162,1.3514357805252075,-1.1716707944869995
1763699240921813500,3.4628134765625,-1.1527140140533447,1.3833318948745728,-1.1406701803207397
1763699240931764500,3.472764404296875,-1.0473295450210571,1.401926040649414,-1.1745176315307617
1763699240941715500,3.482715576171875,-0.9091017246246338,1.4036924839019775,-1.2493860721588135
1763699240951666700,3.492666748046875,-0.7169246077537537,1.3952486515045166,-1.322877287864685
1763699240961617400,3.502617431640625,-0.41409868001937866,1.3959922790527344,-1.3783354759216309
1763699240971567400,3.5125673828125,-0.023291781544685364,1.396324634552002,-1.4002677202224731
1763699240981518600,3.5225185546875,0.3725990951061249,1.4003947973251343,-1.386976718902588
1763699240991469300,3.53246923828125,0.712062418460846,1.3725594282150269,-1.337733507156372
1763699241001420500,3.542420654296875,0.9391850233078003,1.2752059698104858,-1.2495272159576416
1763699241011371500,3.55237158203125,1.0472640991210938,1.1752921342849731,-1.0852530002593994
1763699241021322500,3.562322509765625,1.0783435106277466,1.1309964656829834,-0.9090567231178284
1763699241031272400,3.5722724609375,1.0730856657028198,1.105557918548584,-0.7715156078338623
1763699241041223400,3.582223388671875,1.0656617879867554,1.0615113973617554,-0.7003144025802612
1763699241051174400,3.59217431640625,1.1163841485977173,0.9576366543769836,-0.7381246089935303
1763699241061125600,3.602125732421875,1.2845629453659058,0.7703735828399658,-0.8819748163223267
1763699241071076400,3.612076416015625,1.5336116552352905,0.5406541228294373,-1.0880427360534668
1763699241081026600,3.622026611328125,1.7175354957580566,0.31322017312049866,-1.2255085706710815
1763699241090977500,3.6319775390625,1.7152185440063477,-0.09989283233880997,-0.9038879871368408
1763699241100928500,3.641928466796875,1.5880491733551025,-0.12039636820554733,-0.44019725918769836
1763699241110879500,3.65187939453125,1.351910948753357,0.056502774357795715,-0.015164746902883053
1763699241120830500,3.66183056640625,1.1242467164993286,0.249399796128273,0.06723400950431824
1763699241130781400,3.671781494140625,0.9606423377990723,0.29235658049583435,-0.05666210874915123
1763699241140731600,3.681731689453125,0.8793043494224548,0.2904880940914154,-0.2525133788585663
1763699241150682400,3.691682373046875,0.9444963932037354,0.42815521359443665,-0.4548074007034302
1763699241160633600,3.701633544921875,1.0531061887741089,0.5068212747573853,-0.667438268661499
1763699241170584300,3.711584228515625,1.1186649799346924,0.3979874551296234,-0.7710027694702148
1763699241180535600,3.72153564453125,1.1023132801055908,0.4144079089164734,-0.7210455536842346
1763699241190486500,3.731486572265625,1.1141352653503418,0.47252315282821655,-0.8677330017089844
1763699241200436500,3.7414365234375,1.0713399648666382,0.3843337297439575,-1.0798869132995605
1763699241210387500,3.751387451171875,0.9737377166748047,0.3078128695487976,-1.340825080871582
1763699241220338700,3.761338623046875,0.8383117318153381,0.14631801843643188,-1.393980622291565
1763699241230289400,3.771289306640625,0.679408609867096,0.006650933995842934,-1.239488959312439
1763699241240240600,3.78124072265625,0.4979691207408905,-0.10321127623319626,-1.0237518548965454
1763699241250191400,3.79119140625,0.3191796839237213,-0.1610274314880371,-0.8922579884529114
1763699241260141600,3.8011416015625,0.19084890186786652,-0.168460413813591,-0.8685361742973328
1763699241270092500,3.811092529296875,0.08567029982805252,-0.17855459451675415,-0.8840504288673401
1763699241280043500,3.82104345703125,0.003166965674608946,-0.14706280827522278,-0.8804233074188232
1763699241289994500,3.830994384765625,-0.04966961592435837,-0.07413481175899506,-0.8307955265045166
1763699241299945500,3.840945556640625,-0.11275516450405121,-0.00767073780298233,-0.7403419017791748
1763699241309896400,3.850896484375,-0.19317516684532166,0.07873819023370743,-0.6397713422775269
1763699241319846400,3.860846435546875,-0.28188419342041016,0.11090844869613647,-0.5122936367988586
1763699241329797600,3.870797607421875,-0.3119986951351166,0.12702403962612152,-0.42000845074653625
1763699241339748400,3.880748291015625,-0.28202077746391296,0.13816821575164795,-0.375253289937973
1763699241349699600,3.890699462890625,-0.23208223283290863,0.1583895981311798,-0.3373682200908661
1763699241359650600,3.900650634765625,-0.21673303842544556,0.21877102553844452,-0.3094402253627777
1763699241369601500,3.9106015625,-0.2498641014099121,0.31222161650657654,-0.30761995911598206
1763699241379551500,3.920551513671875,-0.34382355213165283,0.379537969827652,-0.3348451256752014
1763699241389502500,3.93050244140625,-0.39869213104248047,0.36566075682640076,-0.33018139004707336
1763699241399453400,3.940453369140625,-0.46072232723236084,0.3254965543746948,-0.3599490523338318
1763699241409404400,3.950404296875,-0.5018090009689331,0.32598069310188293,-0.46016034483909607
1763699241419355400,3.96035546875,-0.4458949863910675,0.3407619297504425,-0.5834112763404846
1763699241429306600,3.970306640625,-0.3655599355697632,0.35553687810897827,-0.6327037215232849
1763699241439256300,3.98025634765625,-0.30547481775283813,0.3664434552192688,-0.613448441028595
1763699241449207600,3.99020751953125,-0.2590247690677643,0.4500882625579834,-0.5507451295852661
1763699241459158500,4.000158447265625,-0.3002389967441559,0.5348520874977112,-0.4490194320678711
1763699241469109500,4.010109619140625,-0.4403415024280548,0.5981919169425964,-0.34286850690841675
1763699241479060500,4.020060546875,-0.6256679892539978,0.5162163972854614,-0.26211121678352356
1763699241489011500,4.030011474609375,-1.004331111907959,0.5949634313583374,-0.21291998028755188
1763699241498961400,4.03996142578125,-1.0809403657913208,0.8217159509658813,-0.167401984333992
1763699241508912600,4.04991259765625,-1.030936598777771,0.8322471380233765,-0.019619174301624298
1763699241518863400,4.05986328125,-1.1147704124450684,0.9927021861076355,0.24004043638706207
1763699241528814600,4.069814697265625,-1.3440642356872559,1.1785169839859009,0.4177662134170532
1763699241538765300,4.079765380859375,-1.7337321043014526,1.1905699968338013,0.4642772674560547
1763699241548716500,4.089716552734375,-2.148022174835205,1.1152399778366089,0.43465572595596313
1763699241558666500,4.09966650390625,-2.5488994121551514,1.0804712772369385,0.38279280066490173
1763699241568617500,4.109617431640625,-3.031712293624878,0.9130990505218506,0.30032455921173096
1763699241578568400,4.119568359375,-3.4521725177764893,0.5849692225456238,0.07913583517074585
1763699241588519700,4.129519775390625,-3.6848461627960205,0.20376408100128174,-0.16448108851909637
1763699241598470400,4.139470458984375,-3.6255249977111816,-0.28444501757621765,-0.2440318912267685
1763699241608421600,4.149421630859375,-3.132413387298584,-0.5802892446517944,-0.3239818513393402
1763699241618371600,4.15937158203125,-2.3683602809906006,-0.5543929934501648,-0.5984923243522644
1763699241628322600,4.169322509765625,-1.4008982181549072,-0.6030271053314209,-1.0481339693069458
1763699241638273500,4.1792734375,-0.7593246698379517,-0.21877239644527435,-1.2184425592422485
1763699241648224500,4.189224609375,-1.0812345743179321,0.1711450070142746,-0.9380249977111816
1763699241658175500,4.199175537109375,-1.4862885475158691,0.29426974058151245,-0.7524197101593018
1763699241668126500,4.20912646484375,-1.6827986240386963,0.34775906801223755,-0.6784003973007202
1763699241678076400,4.219076416015625,-1.9160860776901245,0.3551750183105469,-0.6014827489852905
1763699241688027600,4.229027587890625,-1.9617846012115479,0.20300279557704926,-0.5089019536972046
1763699241697978600,4.238978515625,-2.143234968185425,0.24925319850444794,-0.4094544053077698
1763699241707928600,4.248928466796875,-2.2884440422058105,0.15791475772857666,-0.21328754723072052
1763699241717879600,4.258879638671875,-2.4023289680480957,0.3815383315086365,-0.030261412262916565
1763699241727830500,4.26883056640625,-2.258660078048706,0.6628932952880859,0.13306546211242676
1763699241737780500,4.278780517578125,-2.189244031906128,0.6397515535354614,0.3814968466758728
1763699241747731700,4.288731689453125,-2.1362738609313965,0.654282808303833,0.5453776121139526
1763699241757682700,4.2986826171875,-2.0664782524108887,0.672432005405426,0.5699673891067505
1763699241767633700,4.308633544921875,-2.044426679611206,0.5770246982574463,0.6226595044136047
1763699241777584600,4.318584716796875,-1.9533947706222534,0.31265005469322205,0.7251688241958618
1763699241787535600,4.32853564453125,-1.7558077573776245,0.07784392684698105,0.7594988346099854
1763699241797485600,4.338485595703125,-1.4528377056121826,-0.029122786596417427,0.7320647239685059
1763699241807436800,4.348436767578125,-1.1048098802566528,-0.25278064608573914,0.7456883788108826
1763699241817387500,4.358387451171875,-0.7902288436889648,-0.38671502470970154,0.8137379884719849
1763699241827338800,4.3683388671875,-0.729537844657898,-0.351225882768631,0.8911986351013184
1763699241837289500,4.37828955078125,-0.7972013354301453,-0.4631872773170471,0.9559252858161926
1763699241847240700,4.38824072265625,-0.9897790551185608,-0.5603281855583191,1.0427794456481934
1763699241857190700,4.398190673828125,-1.2358644008636475,-0.6263040900230408,1.0915391445159912
1763699241867141600,4.4081416015625,-1.5602376461029053,-0.552688717842102,1.0604262351989746
1763699241877092600,4.418092529296875,-1.9694082736968994,-0.5895822644233704,1.0623760223388672
1763699241887043800,4.4280439453125,-2.293545961380005,-0.4719800353050232,1.0580319166183472
1763699241896994600,4.43799462890625,-2.395615339279175,-0.31280097365379333,1.1032116413116455
1763699241906945800,4.44794580078125,-2.3720664978027344,-0.2382923662662506,1.1380441188812256
1763699241916895700,4.457895751953125,-2.3520736694335938,-0.2457534670829773,1.1359840631484985
1763699241926846700,4.4678466796875,-2.357431173324585,-0.19452011585235596,1.1678786277770996
1763699241936797700,4.477797607421875,-2.3187479972839355,-0.05177818238735199,1.2239012718200684
1763699241946748700,4.487748779296875,-2.2932913303375244,0.061927348375320435,1.3078690767288208
1763699241956699600,4.49769970703125,-2.2348012924194336,0.2056909054517746,1.3359397649765015
1763699241966650600,4.507650634765625,-2.0549168586730957,0.0799952894449234,1.2431272268295288
1763699241976600600,4.5176005859375,-1.781907081604004,-0.19565996527671814,1.046462059020996
1763699241986551600,4.527551513671875,-1.514020323753357,-0.4701825976371765,0.7612329721450806
1763699241996502500,4.53750244140625,-1.3192602396011353,-0.5754831433296204,0.386421799659729
1763699242006453500,4.54745361328125,-1.2536871433258057,-0.5070732235908508,0.14537909626960754
1763699242016404700,4.55740478515625,-1.0273947715759277,-0.684760570526123,-0.06803713738918304
1763699242026355700,4.567355712890625,-0.997953474521637,-0.25988999009132385,-0.10394959896802902
1763699242036305700,4.5773056640625,-1.2541826963424683,0.5634204149246216,-0.1304551661014557
1763699242046256600,4.587256591796875,-1.369730830192566,0.46196913719177246,-0.4782467186450958
1763699242056207600,4.59720751953125,-1.1846359968185425,0.41581934690475464,-0.9258482456207275
1763699242066158600,4.60715869140625,-0.8912597894668579,0.7578816413879395,-1.0060349702835083
1763699242076109600,4.617109619140625,-0.40007829666137695,0.8412006497383118,-0.6898382902145386
1763699242086060500,4.627060546875,-0.18478141725063324,0.6376097202301025,-0.5003818273544312
1763699242096010800,4.6370107421875,0.13297903537750244,0.4911234676837921,-0.34996962547302246
1763699242105961500,4.64696142578125,0.33316537737846375,0.34023594856262207,-0.2124759405851364
1763699242115912700,4.65691259765625,0.3367277979850769,0.13812245428562164,-0.10509174317121506
1763699242125863700,4.66686376953125,0.2919800281524658,-0.22695565223693848,-0.050427958369255066
1763699242135814700,4.676814697265625,-0.45397594571113586,-1.185478687286377,0.3281082510948181
1763699242145765600,4.686765625,-1.2754849195480347,-1.2794089317321777,1.0600624084472656
1763699242155715600,4.696715576171875,-1.5088272094726562,-1.3028813600540161,1.9725743532180786
1763699242165666600,4.70666650390625,-1.5472674369812012,-1.4947748184204102,2.46726655960083
1763699242175617800,4.71661767578125,-1.258327603340149,-1.632270097732544,1.9914631843566895
1763699242185568500,4.726568603515625,-0.8461238741874695,-0.9475502967834473,1.951600193977356
1763699242195519700,4.736519775390625,-0.3342214524745941,-0.4165145456790924,1.0996372699737549
1763699242205470500,4.746470458984375,-0.019802013412117958,-0.354713499546051,-0.05510025843977928
1763699242215420700,4.756420654296875,0.10387913137674332,-0.4587646722793579,-1.0726726055145264
1763699242225371600,4.76637158203125,0.09759646654129028,-0.3822310268878937,-1.4524142742156982
1763699242235322600,4.776322509765625,0.052319955080747604,-0.3016621768474579,-1.3480373620986938
1763699242245273600,4.786273681640625,-0.008722890168428421,-0.3648267686367035,-0.9818487167358398
1763699242255224800,4.796224853515625,-0.054244838654994965,-0.40718886256217957,-0.5372768640518188
1763699242265175600,4.806175537109375,-0.08235150575637817,-0.44054168462753296,-0.09149797260761261
1763699242275125800,4.816125732421875,-0.10816582292318344,-0.5093321204185486,0.20036812126636505
1763699242285076700,4.82607666015625,-0.12423932552337646,-0.4889543950557709,0.2580482065677643
1763699242295027700,4.83602783203125,-0.1090187355875969,-0.3682417869567871,0.10997029393911362
1763699242304978700,4.845978759765625,-0.058419473469257355,-0.2696765959262848,-0.12453541904687881
1763699242314929700,4.8559296875,-0.01096974778920412,-0.21547523140907288,-0.2957345247268677
1763699242324880600,4.865880615234375,0.006820967420935631,-0.14178475737571716,-0.3118780851364136
1763699242334831600,4.87583154296875,0.0013074250891804695,-0.13057871162891388,-0.2217782735824585
1763699242344781600,4.885781494140625,-0.014558982104063034,-0.10793738812208176,-0.09865716099739075
1763699242354732500,4.895732666015625,-0.03649669140577316,-0.08102579414844513,-0.005967787466943264
1763699242364683500,4.90568359375,-0.044382575899362564,-0.04966680333018303,0.03277108445763588
1763699242374634800,4.915634765625,-0.04512199014425278,-0.015706466510891914,0.006342755630612373
1763699242384585700,4.925585693359375,-0.049502622336149216,0.01592070236802101,-0.04857029393315315
1763699242394536700,4.93553662109375,-0.04531017318367958,0.03184646740555763,-0.08120428025722504
1763699242404486700,4.945486572265625,0.04695424437522888,0.06183632090687752,-0.051593393087387085
1763699242414437600,4.955437744140625,0.16128642857074738,0.11220838129520416,0.006631361320614815
1763699242424388600,4.965388671875,0.16884846985340118,0.09412871301174164,0.1298220008611679
1763699242434339600,4.975339599609375,0.07934559136629105,0.043415263295173645,0.3072752058506012
1763699242444290600,4.98529052734375,-0.0109451524913311,0.21350017189979553,0.528424084186554
1763699242454241500,4.995241455078125,-0.19336634874343872,0.3108997046947479,0.5866125822067261
1763699242464191700,5.005191650390625,-0.18603280186653137,0.265954852104187,0.44488099217414856
1763699242474142500,5.015142578125,-0.002202208386734128,0.3274833858013153,0.16506405174732208
1763699242484093700,5.02509375,0.10756823420524597,0.41111674904823303,-0.14894047379493713
1763699242494044400,5.03504443359375,0.2823607921600342,0.32137975096702576,-0.39973247051239014
1763699242503995600,5.04499560546875,0.45130932331085205,0.15698252618312836,-0.5261828303337097
1763699242513946600,5.054946533203125,0.5354132652282715,-0.03305451199412346,-0.5219635963439941
1763699242523896600,5.064896484375,0.5064652562141418,-0.1144188791513443,-0.3532768189907074
1763699242533847600,5.07484765625,0.4569460451602936,-0.1500064730644226,-0.14688140153884888
1763699242543798800,5.084798828125,0.4110211730003357,-0.058462176471948624,0.045937322080135345
1763699242553749500,5.09474951171875,0.34849387407302856,-0.004316952079534531,0.10303476452827454
1763699242563700700,5.10470068359375,0.3049514591693878,-0.07640179991722107,-0.01168090384453535
1763699242573651500,5.1146513671875,0.2293364703655243,-0.12652142345905304,-0.20919905602931976
1763699242583601700,5.1246015625,0.1772727370262146,-0.09234721958637238,-0.44979673624038696
1763699242593552600,5.134552734375,0.12558411061763763,0.08028341829776764,-0.6007423400878906
1763699242603503600,5.144503662109375,0.046660806983709335,0.2632119655609131,-0.6422082781791687
1763699242613454600,5.15445458984375,-0.07785794138908386,0.28287965059280396,-0.6273924708366394
1763699242623405600,5.164405517578125,-0.23726332187652588,0.2953970432281494,-0.6402624249458313
1763699242633356500,5.1743564453125,-0.3462390601634979,0.2700682580471039,-0.6343052983283997
1763699242643307800,5.184307861328125,-0.39135515689849854,0.36863717436790466,-0.6097432374954224
1763699242653257700,5.1942578125,-0.3808761537075043,0.5103628635406494,-0.4920685589313507
1763699242663208700,5.204208740234375,-0.33954912424087524,0.3688889741897583,-0.3746725618839264
1763699242673159700,5.21415966796875,-0.3131934404373169,0.32044634222984314,-0.21949470043182373
1763699242683110700,5.224110595703125,-0.39536792039871216,0.011600624769926071,-0.16983552277088165
1763699242693061600,5.2340615234375,-0.37830981612205505,0.32498085498809814,0.0458412691950798
1763699242703013000,5.24401318359375,-0.30625906586647034,0.3386295735836029,0.22089563310146332
1763699242712963000,5.253963134765625,-0.17762333154678345,0.28936561942100525,0.32422202825546265
1763699242722914300,5.263914306640625,-0.08464173227548599,0.1827070713043213,0.3859138786792755
1763699242732865000,5.273864990234375,-0.012604208663105965,0.13605526089668274,0.387838214635849
1763699242742816300,5.283816162109375,0.09269557893276215,0.17218104004859924,0.2826201915740967
1763699242752767000,5.29376708984375,0.21195107698440552,0.24797578155994415,0.14764314889907837
1763699242762718200,5.30371826171875,0.2885526418685913,-0.19225727021694183,-0.03538817912340164
1763699242772668200,5.313668212890625,0.2802404463291168,-0.6623715758323669,0.2618384063243866
1763699242782619100,5.323619140625,0.16028952598571777,-0.5050352215766907,0.39802178740501404
1763699242792570000,5.333570068359375,-0.01895981654524803,-0.523210346698761,0.5314440131187439
1763699242802521300,5.343521240234375,-0.0021251761354506016,-0.3347027003765106,0.49803388118743896
1763699242812472000,5.35347216796875,0.07141612470149994,-0.015478869900107384,0.3534054160118103
1763699242822423300,5.36342333984375,0.08137847483158112,0.16574710607528687,0.1533959060907364
1763699242832373200,5.373373291015625,0.0913030356168747,0.1788671314716339,0.0983021929860115
1763699242842324000,5.383323974609375,0.12014507502317429,0.10801158845424652,0.05616059899330139
1763699242852275200,5.393275146484375,0.00980853009968996,0.25286421179771423,-0.03360796719789505
1763699242862226000,5.403225830078125,-0.006227161735296249,0.17657743394374847,-0.020350217819213867
1763699242872177200,5.41317724609375,0.042584650218486786,0.11007764935493469,-0.06150762736797333
1763699242882128100,5.423128173828125,0.32140642404556274,0.19403992593288422,-0.1373877376317978
1763699242892079000,5.4330791015625,0.16146130859851837,-0.05344245210289955,-0.36275097727775574
1763699242902029000,5.443029052734375,0.35066986083984375,-0.8427437543869019,-0.1655966192483902
1763699242911980000,5.45297998046875,0.13849814236164093,-0.9462790489196777,-0.09134135395288467
1763699242921931000,5.462930908203125,-0.06794610619544983,-0.9644740223884583,0.06996657699346542
1763699242931882200,5.47288232421875,-0.28885412216186523,-1.1020351648330688,0.2520909309387207
1763699242941833000,5.4828330078125,-0.5569031238555908,-1.0656760931015015,0.3354337513446808
1763699242951784200,5.4927841796875,-0.7628681063652039,-1.051331639289856,0.35180291533470154
1763699242961734100,5.502734130859375,-0.8995423316955566,-0.8257389664649963,0.29827335476875305
1763699242971685000,5.51268505859375,-1.0223881006240845,-0.41147440671920776,0.17789779603481293
1763699242981636000,5.522635986328125,-1.1388256549835205,-0.37176692485809326,0.1148727536201477
1763699242991587000,5.532587158203125,-1.153001308441162,-0.5069612264633179,0.18490776419639587
1763699243001538000,5.5425380859375,-1.2184288501739502,-0.6238402128219604,0.21904921531677246
1763699243011489300,5.5524892578125,-1.142421841621399,-0.39536404609680176,-0.010897217318415642
1763699243021439000,5.56243896484375,-1.1319031715393066,-0.2820955514907837,-0.1596350371837616
1763699243031390200,5.57239013671875,-1.1518921852111816,-0.41663119196891785,-0.10850223898887634
1763699243041341200,5.582341064453125,-1.210081696510315,-0.6137810349464417,-0.036128170788288116
1763699243051292200,5.592292236328125,-1.097030758857727,-0.8432926535606384,0.16713126003742218
1763699243061243100,5.6022431640625,-0.9878541827201843,-0.6542177796363831,0.13606415688991547
1763699243071194000,5.612194091796875,-0.9537644982337952,-0.1218537762761116,-0.22394923865795135
1763699243081145000,5.62214501953125,-0.8792551159858704,0.43454262614250183,-0.33661508560180664
1763699243091095300,5.63209521484375,-0.59877610206604,-0.08218056708574295,0.08405326306819916
1763699243101046000,5.6420458984375,-0.6319300532341003,-0.4128865897655487,0.21674740314483643
1763699243110997200,5.651997314453125,-0.800812304019928,-0.1939348429441452,0.19934672117233276
1763699243120948000,5.661947998046875,-0.7959155440330505,-0.04898645356297493,-0.03016609139740467
1763699243130899200,5.671899169921875,-0.5770446062088013,0.02374674379825592,-0.25388267636299133
1763699243140850200,5.68185009765625,-0.5372247695922852,-0.18070866167545319,-0.1829877346754074
1763699243150800100,5.691800048828125,0.13313232362270355,-0.589530348777771,0.11051274836063385
1763699243160751000,5.701751220703125,-0.001815104391425848,0.22065195441246033,-0.30577874183654785
1763699243170702300,5.711702392578125,-0.08843179047107697,1.0085421800613403,-0.552778422832489
1763699243180653000,5.721653076171875,-0.006459429860115051,1.0062103271484375,-0.5588557720184326
1763699243190604300,5.731604248046875,-0.8233579993247986,0.8519484996795654,-0.44436511397361755
1763699243200555000,5.741554931640625,-0.8906986713409424,1.3623771667480469,-0.2998950183391571
1763699243210505000,5.7515048828125,-0.11974875628948212,1.2295135259628296,-0.560243546962738
1763699243220456200,5.761456298828125,0.2281050831079483,0.662548840045929,-0.5120992064476013
1763699243230407200,5.7714072265625,-0.003789142007008195,0.050385888665914536,-0.25226664543151855
1763699243240358100,5.781358154296875,-0.15750519931316376,-0.37218987941741943,-0.09926537424325943
1763699243250309000,5.79130908203125,0.014636323787271976,-0.5096425414085388,-0.0577787347137928
1763699243260260000,5.801260009765625,0.18897457420825958,-0.5364691019058228,-0.0035471871960908175
1763699243270211300,5.81121142578125,0.2543341815471649,-0.5694137811660767,0.086028553545475
1763699243280161000,5.8211611328125,0.23946256935596466,-0.5319404602050781,0.166524738073349
1763699243290112000,5.831112060546875,0.23398220539093018,-0.2997509241104126,0.17389865219593048
1763699243300063200,5.841063232421875,0.22920209169387817,0.019481370225548744,0.11726146936416626
1763699243310014000,5.851013916015625,0.1779697686433792,0.24320106208324432,0.06787511706352234
1763699243319965200,5.860965087890625,0.08377989381551743,0.3259391188621521,0.041375596076250076
1763699243329916200,5.870916259765625,-0.04352979362010956,0.34759417176246643,0.02885141596198082
1763699243339866000,5.8808662109375,-0.16245537996292114,0.21055378019809723,-0.03456484153866768
1763699243349817000,5.890817138671875,-0.2165512889623642,0.09965426474809647,-0.10776986181735992
1763699243359768000,5.90076806640625,-0.24775847792625427,0.12417984753847122,-0.07661833614110947
1763699243369719000,5.910718994140625,-0.27731338143348694,0.02154359593987465,0.04533948004245758
1763699243379670000,5.920669921875,-0.3509015738964081,-0.1888786256313324,0.22530871629714966
1763699243389621000,5.93062109375,-0.3738095164299011,-0.2655907869338989,0.4021289050579071
1763699243399571200,5.9405712890625,-0.4012310206890106,-0.382293164730072,0.4264012277126312
1763699243409522200,5.950522216796875,-0.3892340660095215,-0.38038966059684753,0.38653892278671265
1763699243419473200,5.96047314453125,-0.3757041394710541,-0.2787519693374634,0.2608606219291687
1763699243429424000,5.970424072265625,-0.26002129912376404,-0.1196647360920906,0.15926790237426758
1763699243439375000,5.980375,-0.055493712425231934,0.015601209364831448,0.06381727755069733
1763699243449326000,5.990326171875,0.038090046495199203,0.03891182318329811,0.037720225751399994
1763699243459277000,6.000277099609375,0.10932508111000061,0.1291477084159851,0.10154420882463455
1763699243469227000,6.01022705078125,0.22917336225509644,0.22649945318698883,0.08031273633241653
1763699243479178200,6.02017822265625,0.30632275342941284,0.08613115549087524,-0.247646763920784
1763699243489129000,6.03012890625,0.319692462682724,0.0653901994228363,-0.31812143325805664
1763699243499080200,6.040080078125,0.20229795575141907,0.19658523797988892,-0.09563325345516205
1763699243509031200,6.05003125,-0.03573402762413025,-0.08346538990736008,0.03966960683465004
1763699243518982100,6.059982177734375,-0.21493573486804962,-0.12209427356719971,0.06446523219347
1763699243528932000,6.06993212890625,-0.12237542867660522,-0.025266263633966446,0.00016198970843106508
1763699243538883300,6.07988330078125,0.036057617515325546,-0.025392763316631317,-0.055828843265771866
1763699243548834000,6.089833984375,0.08435813337564468,-0.04741651564836502,-0.058846212923526764
1763699243558785300,6.099785400390625,0.06405392289161682,-0.09017650038003922,-0.05895007401704788
1763699243568736000,6.109736083984375,0.061017654836177826,-0.13898983597755432,-0.06798352301120758
1763699243578687200,6.119687255859375,0.08794061839580536,-0.16790510714054108,-0.06445349752902985
1763699243588638000,6.129637939453125,0.08644948899745941,-0.219419926404953,-0.051544517278671265
1763699243598588200,6.139588134765625,0.07634598761796951,-0.1842382401227951,-0.08142172545194626
1763699243608539100,6.1495390625,0.052995309233665466,-0.18769937753677368,-0.1053624153137207
1763699243618490000,6.159489990234375,0.032118525356054306,-0.18031443655490875,-0.10498158633708954
1763699243628441000,6.169441162109375,0.010265329852700233,-0.19797153770923615,-0.10620933026075363
1763699243638392300,6.179392333984375,-0.008483057841658592,-0.21704162657260895,-0.1042332649230957
1763699243648343000,6.189343017578125,-0.018643738701939583,-0.2500806748867035,-0.09375268220901489
1763699243658293000,6.19929296875,-0.02163553424179554,-0.2830687165260315,-0.07630605250597
1763699243668244200,6.209244140625,-0.022684775292873383,-0.3055208921432495,-0.05224764347076416
1763699243678195200,6.2191953125,-0.022446157410740852,-0.31962230801582336,-0.026330826804041862
1763699243688146200,6.229146240234375,-0.03269055485725403,-0.32626715302467346,-0.004341450519859791
1763699243698097200,6.23909716796875,-0.04540208727121353,-0.3246689736843109,-0.0033150683157145977
1763699243708047600,6.249047607421875,-0.06290613859891891,-0.32562845945358276,-0.021283574402332306
1763699243717998800,6.258998779296875,-0.08331900089979172,-0.3283259868621826,-0.04633752629160881
1763699243727948500,6.268948486328125,-0.10807199031114578,-0.35018500685691833,-0.06882510334253311
1763699243737899500,6.2788994140625,-0.13211047649383545,-0.37129586935043335,-0.07849211245775223
1763699243747850800,6.288850830078125,-0.14450304210186005,-0.3973124027252197,-0.08201611787080765
1763699243757801500,6.298801513671875,-0.13978445529937744,-0.42410460114479065,-0.0764802098274231
1763699243767752700,6.308752685546875,-0.12253216654062271,-0.4528210759162903,-0.06734862923622131
1763699243777703400,6.318703369140625,-0.1064157783985138,-0.4871193766593933,-0.04858187213540077
1763699243787653600,6.328653564453125,-0.11696309596300125,-0.545111358165741,-0.01946287974715233
1763699243797604600,6.3386044921875,-0.16157157719135284,-0.581731915473938,0.02042754553258419
1763699243807555600,6.3485556640625,-0.22225075960159302,-0.6366854310035706,0.055952247232198715
1763699243817506600,6.358506591796875,-0.27317866683006287,-0.6455135345458984,0.08703160285949707
1763699243827457800,6.368457763671875,-0.3098611831665039,-0.6060513854026794,0.10449281334877014
1763699243837408500,6.378408447265625,-0.32507529854774475,-0.5514115691184998,0.09573633968830109
1763699243847359700,6.38835986328125,-0.3429301679134369,-0.42908352613449097,0.11716847121715546
1763699243857309700,6.398309814453125,-0.341129332780838,-0.32912737131118774,0.1737784892320633
1763699243867260700,6.4082607421875,-0.31717661023139954,-0.1894799768924713,0.14662933349609375
1763699243877211600,6.418211669921875,-0.3298439383506775,-0.11234737187623978,0.06800457090139389
1763699243887162600,6.42816259765625,-0.3052566647529602,-0.0912056714296341,-0.007426829542964697
1763699243897113600,6.438113525390625,-0.26135018467903137,-0.20143364369869232,0.01094978116452694
1763699243907064600,6.448064697265625,-0.2421875,-0.29166513681411743,0.027735285460948944
1763699243917014500,6.4580146484375,-0.20975126326084137,-0.2833414375782013,-0.002640198450535536
1763699243926965800,6.4679658203125,-0.168136864900589,-0.275579035282135,-0.03842080384492874
1763699243936916500,6.47791650390625,-0.10791108757257462,-0.26110073924064636,-0.06248246878385544
1763699243946867700,6.48786767578125,-0.07640781998634338,-0.24750332534313202,-0.07993616163730621
1763699243956818700,6.497818603515625,-0.09927424788475037,-0.24055993556976318,-0.08913152664899826
1763699243966769700,6.507769775390625,-0.13639649748802185,-0.23052744567394257,-0.10709185153245926
1763699243976719600,6.5177197265625,-0.177327960729599,-0.22547650337219238,-0.12507911026477814
1763699243986670800,6.5276708984375,-0.2086072862148285,-0.21972839534282684,-0.1408989280462265
1763699243996621600,6.53762158203125,-0.25152143836021423,-0.26020070910453796,-0.11801544576883316
1763699244006572800,6.54757275390625,-0.26599928736686707,-0.22335249185562134,-0.11881308257579803
1763699244016523500,6.5575234375,-0.2899256646633148,-0.2244017869234085,-0.12846358120441437
1763699244026474800,6.567474853515625,-0.3067561686038971,-0.2740415334701538,-0.12685370445251465
1763699244036425500,6.577425537109375,-0.32428908348083496,-0.3209429979324341,-0.13504372537136078
1763699244046375400,6.58737548828125,-0.32321983575820923,-0.31116461753845215,-0.16616016626358032
1763699244056326700,6.59732666015625,-0.29859599471092224,-0.3681267201900482,-0.24032095074653625
1763699244066277600,6.607277587890625,-0.3312211036682129,-0.4070383310317993,-0.26737332344055176
1763699244076228600,6.617228515625,-0.40206995606422424,-0.4814193546772003,-0.28937822580337524
1763699244086179800,6.627179931640625,-0.4898563325405121,-0.500553548336029,-0.2945040464401245
1763699244096130600,6.637130615234375,-0.5270289778709412,-0.5008965730667114,-0.2710842192173004
1763699244106080500,6.64708056640625,-0.4488775432109833,-0.5227620601654053,-0.21000678837299347
1763699244116031700,6.65703173828125,-0.36784979701042175,-0.5383268594741821,-0.17276807129383087
1763699244125982500,6.666982421875,-0.3542119562625885,-0.5252508521080017,-0.14499525725841522
1763699244135933700,6.67693359375,-0.37371188402175903,-0.4886702299118042,-0.11905500292778015
1763699244145884400,6.686884521484375,-0.38302910327911377,-0.4754563868045807,-0.0951937735080719
1763699244155835600,6.696835693359375,-0.4302197992801666,-0.4489249289035797,-0.0815219059586525
1763699244165786600,6.70678662109375,-0.4527391791343689,-0.4025894105434418,-0.04156874120235443
1763699244175736600,6.716736572265625,-0.46314629912376404,-0.428464412689209,0.01584581471979618
1763699244185687600,6.7266875,-0.4409465789794922,-0.48812881112098694,0.03981498256325722
1763699244195638800,6.736638671875,-0.3908064663410187,-0.5317130088806152,0.045460086315870285
1763699244205589500,6.746589599609375,-0.34248238801956177,-0.5769416689872742,0.02845628559589386
1763699244215540700,6.756540771484375,-0.32212838530540466,-0.6158525943756104,0.012794768437743187
1763699244225491500,6.766491455078125,-0.30131009221076965,-0.6127866506576538,0.03369564935564995
1763699244235442700,6.776442626953125,-0.27576717734336853,-0.5664828419685364,0.08050043880939484
1763699244245392600,6.786392578125,-0.23679037392139435,-0.4815284311771393,0.16902151703834534
1763699244255343600,6.796343505859375,-0.19235314428806305,-0.41018927097320557,0.30977916717529297
1763699244265294600,6.806294677734375,-0.14915825426578522,-0.3823164105415344,0.4836438000202179
1763699244275245600,6.81624560546875,-0.08757317811250687,-0.3596843481063843,0.6925898194313049
1763699244285196500,6.826196533203125,0.013712750747799873,-0.31725257635116577,0.9531141519546509
1763699244295147800,6.836147705078125,0.13627435266971588,-0.24053996801376343,1.2719054222106934
1763699244305097500,6.846097412109375,0.2737354040145874,-0.15680243074893951,1.626054048538208
1763699244315048700,6.856048583984375,0.44052624702453613,-0.05863377824425697,1.9640963077545166
1763699244324999700,6.865999755859375,0.6340811848640442,0.11047033965587616,2.2092034816741943
1763699244334950700,6.87595068359375,0.7600289583206177,0.30906280875205994,2.3699240684509277
1763699244344901600,6.885901611328125,0.7941489219665527,0.5339770317077637,2.402425527572632
1763699244354852600,6.8958525390625,0.8374410271644592,0.7779337763786316,2.326821804046631
1763699244364802600,6.905802490234375,0.9724794626235962,0.8588384985923767,2.225123167037964
1763699244374753800,6.91575390625,1.1262335777282715,0.6351167559623718,2.1454265117645264
1763699244384704500,6.92570458984375,1.294909954071045,-0.043095964938402176,2.0724081993103027
1763699244394655700,6.93565576171875,1.397128701210022,-1.1883870363235474,1.9245158433914185
1763699244404606500,6.9456064453125,1.4494479894638062,-2.117901086807251,1.6849935054779053
1763699244414557700,6.9555576171875,1.4739855527877808,-2.481657028198242,1.4595586061477661
1763699244424508700,6.9655087890625,1.4203524589538574,-2.34635066986084,1.288867473602295
1763699244434458600,6.975458740234375,1.2611548900604248,-1.9118597507476807,1.1394857168197632
1763699244444409600,6.98540966796875,1.0958478450775146,-1.5926129817962646,1.029158592224121
1763699244454360800,6.99536083984375,1.0796231031417847,-1.4038230180740356,0.8896840810775757
1763699244464311600,7.0053115234375,1.0429855585098267,-1.5313799381256104,0.849619448184967
1763699244474262800,7.0152626953125,1.0193973779678345,-1.8144398927688599,0.759367048740387
1763699244484213500,7.025213623046875,1.0958760976791382,-1.918526530265808,0.7072674632072449
1763699244494163500,7.03516357421875,1.1745914220809937,-2.0088698863983154,0.6634959578514099
1763699244504114700,7.04511474609375,1.2472293376922607,-2.017169713973999,0.6405221223831177
1763699244514065700,7.055065673828125,1.3202502727508545,-1.9550117254257202,0.5852964520454407
1763699244524016600,7.0650166015625,1.3826416730880737,-1.8194663524627686,0.5056336522102356
1763699244533967600,7.074967529296875,1.4187922477722168,-1.6229199171066284,0.4009067118167877
1763699244543918600,7.084918701171875,1.4339088201522827,-1.4293668270111084,0.2861073315143585
1763699244553869800,7.094869873046875,1.4272562265396118,-1.2923842668533325,0.1821681410074234
1763699244563819500,7.104819580078125,1.3861298561096191,-1.1829293966293335,0.08889386057853699
1763699244573770500,7.1147705078125,1.3304487466812134,-1.1531975269317627,-0.02415413409471512
1763699244583721700,7.1247216796875,1.2700303792953491,-1.0859805345535278,-0.1263376921415329
1763699244593672400,7.13467236328125,1.1969306468963623,-0.968370258808136,-0.198937326669693
1763699244603623700,7.144623779296875,1.1074707508087158,-0.8187572956085205,-0.23231272399425507
1763699244613574700,7.15457470703125,1.0182747840881348,-0.7204935550689697,-0.23339396715164185
1763699244623525600,7.164525634765625,0.9226794242858887,-0.6791603565216064,-0.20089831948280334
1763699244633475600,7.1744755859375,0.8326086401939392,-0.6866771578788757,-0.1508740335702896
1763699244643426600,7.184426513671875,0.7503559589385986,-0.7300905585289001,-0.09219764173030853
1763699244653377500,7.19437744140625,0.6806514263153076,-0.8132930397987366,-0.030103914439678192
1763699244663328800,7.204328857421875,0.6175963282585144,-0.961911678314209,0.03534473851323128
1763699244673279500,7.214279541015625,0.554703414440155,-1.1535272598266602,0.09177472442388535
1763699244683230700,7.224230712890625,0.5001229643821716,-1.2959040403366089,0.13405899703502655
1763699244693180700,7.2341806640625,0.447567880153656,-1.354557752609253,0.15774302184581757
1763699244703132400,7.24413232421875,0.37454602122306824,-1.3040709495544434,0.1867813915014267
1763699244713083400,7.25408349609375,0.30523085594177246,-1.214430809020996,0.22416605055332184
1763699244723034400,7.264034423828125,0.2497408390045166,-1.1378039121627808,0.2644250690937042
1763699244732985300,7.2739853515625,0.2037333995103836,-1.0867540836334229,0.303930401802063
1763699244742936300,7.283936279296875,0.1428731381893158,-1.0585815906524658,0.3486010730266571
1763699244752887300,7.29388720703125,0.03790011629462242,-1.016453504562378,0.42758697271347046
1763699244762837500,7.30383740234375,-0.07030703127384186,-1.0367566347122192,0.4971086084842682
1763699244772788200,7.313788330078125,-0.17445208132266998,-1.0303983688354492,0.5583937764167786
1763699244782739500,7.323739501953125,-0.2633366286754608,-1.0342168807983398,0.600103497505188
1763699244792690200,7.333690185546875,-0.30122169852256775,-1.1285336017608643,0.5924288034439087
1763699244802641400,7.343641357421875,-0.319685161113739,-1.1902302503585815,0.578423023223877
1763699244812592400,7.35359228515625,-0.310573935508728,-1.1995350122451782,0.5471695065498352
1763699244822542000,7.3635419921875,-0.28971752524375916,-1.0944769382476807,0.5070033669471741
1763699244832493300,7.373493408203125,-0.2861824631690979,-0.894549548625946,0.44700077176094055
1763699244842444300,7.3834443359375,-0.27767428755760193,-0.6271684765815735,0.3611161410808563
1763699244852395300,7.393395263671875,-0.24548493325710297,-0.3846101462841034,0.2090941071510315
1763699244862346500,7.403346435546875,-0.25861769914627075,-0.07353179901838303,0.060089658945798874
1763699244872297200,7.413297119140625,-0.31769993901252747,0.18899676203727722,0.00918413233011961
1763699244882248400,7.42324853515625,-0.40574556589126587,0.29558810591697693,0.09054294973611832
1763699244892198400,7.433198486328125,-0.5694564580917358,0.4732201397418976,0.13036972284317017
1763699244902149000,7.443149169921875,-0.7108778357505798,0.5208250284194946,0.1712799221277237
1763699244912100400,7.453100341796875,-0.7586802244186401,0.754370391368866,0.18084706366062164
1763699244922051000,7.463051025390625,-0.7030513286590576,1.1880640983581543,-0.01916460506618023
1763699244932002300,7.473002197265625,-0.6768210530281067,1.7591811418533325,-0.3413224220275879
1763699244941953300,7.482953369140625,-0.7573460936546326,2.1897404193878174,-0.5648183822631836
1763699244951903200,7.4929033203125,-0.8123512864112854,2.6114377975463867,-0.6145033836364746
1763699244961854200,7.502854248046875,-0.8035804629325867,3.2317955493927,-0.7038585543632507
1763699244971805400,7.512805419921875,-0.8577308058738708,4.031595230102539,-1.0030111074447632
1763699244981756200,7.522756103515625,-0.931231677532196,4.6282196044921875,-1.1973183155059814
1763699244991707400,7.532707275390625,-0.9502213597297668,4.838005065917969,-1.2679128646850586
1763699245001658000,7.542658203125,-1.0277514457702637,4.8517537117004395,-1.3432035446166992
1763699245011609300,7.552609375,-1.1642382144927979,4.587515354156494,-1.4877899885177612
1763699245021559300,7.562559326171875,-1.2537916898727417,4.133851051330566,-1.634816288948059
1763699245031510300,7.57251025390625,-1.1695306301116943,3.820502758026123,-1.713881015777588
1763699245041461200,7.582461181640625,-0.9175859093666077,3.659564256668091,-1.8404484987258911
1763699245051412200,7.592412109375,-0.6713972091674805,3.454155921936035,-2.0316920280456543
1763699245061363200,7.60236328125,-0.49541133642196655,3.13602352142334,-2.2258782386779785
1763699245071314400,7.612314453125,-0.3536275625228882,2.7810797691345215,-2.385718822479248
1763699245081264400,7.622264404296875,-0.2640574276447296,2.511280059814453,-2.461395502090454
1763699245091215400,7.63221533203125,-0.2739763557910919,2.3637924194335938,-2.486001491546631
1763699245101166300,7.642166259765625,-0.3964588940143585,2.391448736190796,-2.486503839492798
1763699245111117300,7.652117431640625,-0.6201170086860657,2.500034809112549,-2.4800732135772705
1763699245121068300,7.662068359375,-0.8699522614479065,2.4233450889587402,-2.4771361351013184
1763699245131019300,7.672019287109375,-1.053428292274475,2.073615789413452,-2.42647123336792
1763699245140969200,7.68196923828125,-1.149749994277954,1.6316723823547363,-2.2680859565734863
1763699245150920400,7.69192041015625,-1.238761067390442,1.2956656217575073,-2.0886855125427246
1763699245160871200,7.70187109375,-1.356110692024231,1.2689049243927002,-1.9361149072647095
1763699245170822400,7.711822509765625,-1.4145311117172241,1.4889239072799683,-1.854332447052002
1763699245180773400,7.7217734375,-1.3415805101394653,1.7598645687103271,-1.7788853645324707
1763699245190724400,7.731724365234375,-1.1517122983932495,1.8637712001800537,-1.6599048376083374
1763699245200675300,7.74167529296875,-0.9211438298225403,1.8450063467025757,-1.4952170848846436
1763699245210625500,7.75162548828125,-0.7493781447410583,1.8294438123703003,-1.2957932949066162
1763699245220576300,7.761576171875,-0.6928414702415466,1.7615418434143066,-1.1573599576950073
1763699245230527500,7.771527587890625,-0.7089362740516663,1.7313636541366577,-1.094037413597107
1763699245240478200,7.781478271484375,-0.7919212579727173,1.7088329792022705,-1.0418550968170166
1763699245250429400,7.791429443359375,-0.9662318229675293,1.5146796703338623,-0.9982842803001404
1763699245260380200,7.801380126953125,-1.1597992181777954,1.331214189529419,-1.0057353973388672
1763699245270331400,7.811331298828125,-1.3161566257476807,1.3136508464813232,-0.9995720386505127
1763699245280281300,7.82128125,-1.4439079761505127,1.420011281967163,-0.9946987628936768
1763699245290232000,7.831232177734375,-1.5424816608428955,1.3524950742721558,-0.9739817976951599
1763699245300183300,7.841183349609375,-1.577800989151001,0.8759240508079529,-0.8562237024307251
1763699245310134500,7.851134521484375,-1.544398307800293,0.22748824954032898,-0.68341463804245
1763699245320085200,7.861085205078125,-1.4307056665420532,-0.19721056520938873,-0.5562998652458191
1763699245330036500,7.871036376953125,-1.2581274509429932,-0.49846574664115906,-0.5488076210021973
1763699245339986400,7.880986328125,-1.0784084796905518,-0.8097636103630066,-0.5851795077323914
1763699245349937200,7.890937255859375,-0.8987039923667908,-0.8780555725097656,-0.6011651158332825
1763699245359888400,7.900888427734375,-0.730685293674469,-0.8142372369766235,-0.6376326680183411
1763699245369839000,7.910839111328125,-0.5453657507896423,-0.5649328827857971,-0.6816270351409912
1763699245379790300,7.920790283203125,-0.3505662977695465,-0.1503886729478836,-0.6503356695175171
1763699245389741000,7.930740966796875,-0.21306385099887848,0.12366444617509842,-0.5081055760383606
1763699245399691300,7.940691162109375,-0.31847119331359863,0.2098114937543869,-0.31795722246170044
1763699245409642200,7.950642333984375,-0.6089780926704407,0.3413410186767578,-0.1907777190208435
1763699245419593200,7.96059326171875,-0.8565022349357605,0.5370845794677734,-0.11312494426965714
1763699245429544200,7.970544189453125,-0.8498027920722961,0.5029125213623047,0.025644119828939438
1763699245439495400,7.980495361328125,-0.7131770253181458,0.24460695683956146,0.17770841717720032
1763699245449446100,7.990446044921875,-0.5961406826972961,0.009315070696175098,0.23910865187644958
1763699245459397400,8.0003974609375,-0.5156554579734802,-0.11963329464197159,0.3255941867828369
1763699245469347300,8.010347412109375,-0.4500255882740021,-0.2249341458082199,0.5954150557518005
1763699245479298300,8.02029833984375,-0.39298874139785767,-0.318606972694397,0.999651312828064
1763699245489249300,8.030249267578125,-0.21185436844825745,-0.323052316904068,1.354858160018921
1763699245499200300,8.0402001953125,0.05193502455949783,-0.2499905526638031,1.6911431550979614
1763699245509151200,8.050151123046875,0.36512491106987,-0.4928596615791321,2.0717852115631104
1763699245519102200,8.060102294921874,0.6852586269378662,-1.1637681722640991,2.355163097381592
1763699245529052200,8.07005224609375,1.010819911956787,-1.8691556453704834,2.3119773864746094
1763699245539003400,8.08000341796875,1.3633971214294434,-2.4492368698120117,2.2748332023620605
1763699245548954400,8.089954345703125,1.7290507555007935,-2.78682804107666,2.538729667663574
1763699245558905300,8.0999052734375,1.9533209800720215,-2.519906520843506,2.681572437286377
1763699245568856300,8.109856201171874,2.106003761291504,-2.574073314666748,2.6158862113952637
1763699245578807300,8.119807373046875,2.3329803943634033,-3.032015323638916,2.64068341255188
1763699245588758300,8.12975830078125,2.5659871101379395,-3.2151901721954346,2.695316791534424
1763699245598708500,8.13970849609375,2.652219772338867,-3.2765398025512695,2.823026418685913
1763699245608659200,8.1496591796875,2.4906599521636963,-3.042058229446411,3.1986265182495117
1763699245618610400,8.1596103515625,2.048110246658325,-2.5490288734436035,3.8337628841400146
1763699245628561200,8.16956103515625,1.5595920085906982,-2.265979051589966,4.586967468261719
1763699245638512400,8.179512451171876,1.4037997722625732,-2.168611764907837,5.176957607269287
1763699245648463400,8.18946337890625,1.5794519186019897,-1.945573329925537,5.440598964691162
1763699245658413300,8.199413330078125,1.6631569862365723,-1.292755126953125,5.378944396972656
1763699245668364300,8.2093642578125,1.5706337690353394,-0.6528326869010925,4.9596781730651855
1763699245678315500,8.2193154296875,1.51399564743042,-0.4792797863483429,4.369214057922363
1763699245688266200,8.229266357421874,1.4483550786972046,-0.8562856316566467,3.77862811088562
1763699245698217500,8.239217529296875,1.3445041179656982,-1.4773081541061401,3.3057024478912354
1763699245708168400,8.24916845703125,1.243585228919983,-2.2091147899627686,2.952826738357544
1763699245718118400,8.259118408203125,1.2222282886505127,-3.022235870361328,2.555967092514038
1763699245728069600,8.269069580078124,1.268748164176941,-3.794395685195923,2.0612645149230957
1763699245738020600,8.2790205078125,1.1239771842956543,-4.209531307220459,1.4623609781265259
1763699245747971600,8.2889716796875,0.6262344717979431,-4.048974990844727,0.7407479286193848
1763699245757922600,8.298922607421876,0.15686674416065216,-3.5240232944488525,-0.13868719339370728
1763699245767873500,8.30887353515625,0.2639106512069702,-2.3110899925231934,-1.0037388801574707
1763699245777824800,8.31882470703125,0.8338444232940674,-1.195646047592163,-1.7873605489730835
1763699245787774500,8.3287744140625,0.891859769821167,-0.5433778762817383,-2.436354637145996
1763699245797725400,8.338725341796875,0.5738260746002197,0.10258664190769196,-2.8213422298431396
1763699245807676700,8.3486767578125,0.23532576858997345,1.0526008605957031,-2.8844778537750244
1763699245817627400,8.35862744140625,-0.03920728340744972,1.9380325078964233,-2.6906752586364746
1763699245827578600,8.36857861328125,-0.20905783772468567,2.5724833011627197,-2.3623123168945312
1763699245837529600,8.378529541015626,-0.26166099309921265,3.049947738647461,-1.9395146369934082
1763699245847479600,8.3884794921875,-0.22221186757087708,3.3092920780181885,-1.4911738634109497
1763699245857430500,8.398430419921874,-0.1108233705163002,3.4406073093414307,-1.0483121871948242
1763699245867381500,8.408381591796875,0.03908063843846321,3.5912952423095703,-0.6543909907341003
1763699245877332500,8.41833251953125,0.16462747752666473,3.7952024936676025,-0.40666094422340393
1763699245887283500,8.428283447265626,0.298221230506897,3.9622185230255127,-0.22540462017059326
1763699245897234400,8.438234375,0.46851933002471924,4.148769378662109,-0.029835835099220276
1763699245907185700,8.448185546875,0.5386310815811157,4.018638610839844,0.2340211123228073
1763699245917135400,8.45813525390625,0.41441598534584045,3.7312867641448975,0.2871944308280945
1763699245927086600,8.468086669921876,0.18676042556762695,3.964489459991455,-0.20445677638053894
1763699245937037600,8.47803759765625,-0.3373439908027649,4.178844451904297,-1.105010747909546
1763699245946988500,8.487988525390625,-1.2565175294876099,3.2738492488861084,-0.9526022672653198
1763699245956939500,8.497939453125,-2.0079102516174316,-0.04246961697936058,1.7016574144363403
1763699245966890500,8.507890380859376,-1.6925249099731445,-0.3512362241744995,2.8578102588653564
1763699245976840400,8.51784033203125,-1.1703423261642456,6.147533416748047,0.7028226256370544
1763699245986791700,8.527791748046875,-0.93965083360672,7.447511196136475,-1.3531148433685303
1763699245996742400,8.537742431640625,-0.886519730091095,5.760421276092529,-1.7584646940231323
1763699246006693600,8.547693603515626,-1.1787457466125488,3.319491147994995,-1.1063908338546753
1763699246016644400,8.557644287109374,-1.864534616470337,1.4991964101791382,-1.0108669996261597
1763699246026595600,8.567595703125,-2.547034978866577,1.097015142440796,-1.1658440828323364
1763699246036546600,8.577546630859375,-2.9346811771392822,1.3009498119354248,-1.7879033088684082
1763699246046496500,8.58749658203125,-3.0632309913635254,1.4036072492599487,-2.6665756702423096
1763699246056447500,8.597447509765624,-3.1463463306427,1.1165481805801392,-2.9833240509033203
1763699246066398700,8.607398681640625,-3.137413263320923,0.26321113109588623,-3.0508415699005127
1763699246076349400,8.617349365234375,-2.8520617485046387,-0.02977493591606617,-3.411271095275879
1763699246086300700,8.62730078125,-2.4894566535949707,0.8168912529945374,-3.966559648513794
1763699246096251400,8.63725146484375,-2.296351432800293,1.7813467979431152,-4.334782600402832
1763699246106201600,8.64720166015625,-2.2831645011901855,1.9728419780731201,-4.153652191162109
1763699246116152600,8.657152587890625,-2.2844204902648926,1.0467334985733032,-3.4336280822753906
1763699246126103600,8.667103515625,-2.310227870941162,0.27671554684638977,-2.517514705657959
1763699246136054500,8.677054443359374,-2.324495792388916,0.19427074491977692,-1.8364025354385376
1763699246146005500,8.687005615234375,-2.3372654914855957,0.5729780793190002,-1.3387376070022583
1763699246155956500,8.69695654296875,-2.2751693725585938,0.9487155675888062,-0.9126912951469421
1763699246165907700,8.70690771484375,-2.0623157024383545,1.1050511598587036,-0.3990972340106964
1763699246175857700,8.716857666015626,-1.7537370920181274,1.3081340789794922,0.028172018006443977
1763699246185808600,8.72680859375,-1.4290415048599243,1.6139533519744873,0.26125824451446533
1763699246195759600,8.736759521484375,-1.044315218925476,1.4920058250427246,0.42803871631622314
1763699246205710600,8.746710693359375,-0.540824294090271,0.8087666630744934,0.5604071021080017
1763699246215661600,8.75666162109375,0.0015505857300013304,0.01337709091603756,0.5241694450378418
1763699246225612500,8.766612548828125,0.5613092184066772,-0.3520922362804413,0.6547916531562805
1763699246235562500,8.7765625,1.1202939748764038,-0.3482608199119568,1.0362961292266846
1763699246245513500,8.786513427734375,1.492287278175354,-1.0612374544143677,1.2002546787261963
1763699246255464400,8.79646435546875,1.4645259380340576,-2.3473925590515137,1.123917579650879
1763699246265415400,8.80641552734375,1.2962573766708374,-3.315338373184204,1.2315876483917236
1763699246275366700,8.81636669921875,1.2865173816680908,-3.645103693008423,1.6834007501602173
1763699246285317600,8.826317626953125,1.4606521129608154,-3.857104539871216,2.2160439491271973
1763699246295268600,8.8362685546875,1.8355339765548706,-4.075933933258057,2.6613173484802246
1763699246305218600,8.846218505859374,2.368932008743286,-3.956003427505493,2.9197933673858643
1763699246315169500,8.85616943359375,2.9224019050598145,-3.8144679069519043,2.9972798824310303
1763699246325120500,8.86612060546875,3.4382524490356445,-3.4725708961486816,2.8707590103149414
1763699246335071500,8.876071533203126,3.829777956008911,-2.7308883666992188,2.664734125137329
1763699246345022500,8.8860224609375,3.9700706005096436,-1.8010324239730835,2.777785062789917
1763699246354973400,8.895973388671875,3.9163973331451416,-0.9293236136436462,3.4650368690490723
1763699246364923400,8.90592333984375,3.6261212825775146,-0.5759897828102112,4.085254669189453
1763699246374874600,8.91587451171875,3.3518667221069336,-1.218215823173523,4.234834671020508
1763699246384825300,8.925825439453124,3.2868845462799072,-2.386113405227661,4.3689446449279785
1763699246394776600,8.935776611328125,3.178274393081665,-3.288393497467041,4.47710657119751
1763699246404727600,8.9457275390625,2.8768136501312256,-3.2374868392944336,4.383272647857666
1763699246414678500,8.955678466796876,2.543513298034668,-3.0885884761810303,3.9523181915283203
1763699246424628500,8.96562841796875,2.220360040664673,-3.198869466781616,3.356463670730591
1763699246434579700,8.975579833984375,1.9488191604614258,-3.5460309982299805,2.734571933746338
1763699246444530400,8.985530517578125,1.7541650533676147,-4.303177356719971,2.2091543674468994
1763699246454481700,8.995481689453126,1.6339592933654785,-5.433813095092773,1.7078410387039185
1763699246464432400,9.005432373046874,1.5031741857528687,-6.115785121917725,1.1647335290908813
1763699246474383600,9.015383544921875,1.1075695753097534,-6.126112937927246,0.5010089874267578
1763699246484334600,9.02533447265625,0.3003646731376648,-5.339653491973877,-0.31668558716773987
1763699246494284500,9.035284423828125,-0.20519189536571503,-4.286829471588135,-1.0690935850143433
1763699246504235500,9.045235595703126,0.08096343278884888,-3.0825281143188477,-1.6342893838882446
1763699246514186500,9.0551865234375,0.10729385912418365,-1.791455626487732,-2.124490976333618
1763699246524137500,9.065137451171875,-0.4685225486755371,-0.3969722390174866,-2.6294102668762207
1763699246534088700,9.075088623046875,-0.9558188915252686,1.164479374885559,-3.044830083847046
1763699246544039400,9.085039306640626,-1.2193408012390137,2.363706350326538,-3.195341110229492
1763699246553989600,9.09498974609375,-1.1288353204727173,3.0495591163635254,-2.950071096420288
1763699246563940600,9.104940673828125,-0.7972888350486755,3.2989370822906494,-2.4661319255828857
1763699246573891600,9.1148916015625,-0.5387425422668457,3.2832603454589844,-1.971320629119873
1763699246583842600,9.124842529296876,-0.45867592096328735,3.3214149475097656,-1.5092014074325562
1763699246593793500,9.13479345703125,-0.39157038927078247,3.5018091201782227,-1.0540539026260376
1763699246603744500,9.14474462890625,-0.23230324685573578,3.6347620487213135,-0.6622015833854675
1763699246613695700,9.15469580078125,-0.1109430342912674,3.463050365447998,-0.2897738516330719
1763699246623645400,9.1646455078125,-0.05430159345269203,3.165627956390381,0.10028095543384552
1763699246633596700,9.1745966796875,-0.04553302377462387,3.1578829288482666,0.320333331823349
1763699246643547600,9.184547607421875,-0.07956768572330475,3.5705180168151855,0.35922402143478394
1763699246653498600,9.19449853515625,-0.22613713145256042,4.127065658569336,0.43002375960350037
1763699246663449600,9.20444970703125,-0.523882269859314,5.109362602233887,0.5867769122123718
1763699246673400600,9.214400634765624,-1.293459177017212,6.074113368988037,0.7308030724525452
1763699246683350500,9.2243505859375,-2.8280696868896484,3.5006284713745117,1.4933031797409058
1763699246693301500,9.234301513671875,-2.6985695362091064,-0.15503056347370148,2.3724255561828613
1763699246703252500,9.24425244140625,-0.27822646498680115,3.8055596351623535,1.021314263343811
1763699246713203000,9.254202880859374,0.6774011254310608,5.9728312492370605,-1.0323238372802734
1763699246723154000,9.26415380859375,-0.053868260234594345,5.751140594482422,-1.8046650886535645
1763699246733105000,9.27410498046875,-1.1713075637817383,4.290473937988281,-1.5145363807678223
1763699246743056000,9.284055908203126,-2.3921730518341064,3.033522844314575,-1.3990215063095093
1763699246753006000,9.294006103515626,-3.707402229309082,2.4784791469573975,-1.9809244871139526
1763699246762956800,9.303956787109374,-4.715231418609619,2.121593475341797,-3.1912100315093994
1763699246772908000,9.313907958984375,-4.814691543579102,1.3128771781921387,-4.368341445922852
1763699246782858800,9.323858642578125,-4.083730697631836,0.27777570486068726,-4.546794891357422
1763699246792810000,9.33381005859375,-3.139777898788452,-0.698760986328125,-4.480037689208984
1763699246802761000,9.343760986328125,-2.224292278289795,-0.5755882263183594,-4.568185806274414
1763699246812710700,9.353710693359375,-1.666283369064331,0.6919353604316711,-4.5605998039245605
1763699246822662000,9.363661865234375,-1.580687403678894,1.9417749643325806,-4.220309257507324
1763699246832612900,9.37361279296875,-1.719990611076355,2.211275815963745,-3.423337459564209
1763699246842563800,9.383563720703124,-1.8794894218444824,0.9642773270606995,-2.4954442977905273
1763699246852515000,9.39351513671875,-2.00553297996521,0.2005975991487503,-1.8944798707962036
1763699246862465800,9.4034658203125,-2.0786404609680176,0.6487130522727966,-1.640019416809082
1763699246872417000,9.4134169921875,-2.117375373840332,1.3077609539031982,-1.246403455734253
1763699246882367000,9.423366943359374,-2.107975721359253,1.5669426918029785,-0.7264231443405151
1763699246892317700,9.433317626953125,-1.9524177312850952,1.491576910018921,-0.3893485367298126
1763699246902269000,9.44326904296875,-1.4981096982955933,1.107378363609314,-0.05128047987818718
1763699246912219600,9.4532197265625,-0.7102822065353394,0.7737396359443665,0.33383119106292725
1763699246922171000,9.4631708984375,0.053430601954460144,1.027164101600647,0.7304680347442627
1763699246932122000,9.4731220703125,0.734903872013092,1.0931365489959717,1.0262638330459595
1763699246942071800,9.48307177734375,1.0963928699493408,0.8619838356971741,1.0414129495620728
1763699246952022800,9.493022705078126,1.165814995765686,0.353298544883728,0.9263342022895813
1763699246961974000,9.50297412109375,1.0864182710647583,-0.7152085900306702,1.1778655052185059
1763699246971924700,9.5129248046875,1.0418747663497925,-2.0243310928344727,1.8249404430389404
1763699246981876000,9.5228759765625,1.2166324853897095,-2.9459614753723145,2.4422318935394287
1763699246991826700,9.53282666015625,1.4956181049346924,-3.3828868865966797,3.007493734359741
1763699247001778000,9.54277783203125,1.572887897491455,-3.930421829223633,3.43418550491333
1763699247011728000,9.552727783203125,1.553722858428955,-4.669053554534912,3.51328182220459
1763699247021678800,9.562678955078125,1.7710959911346436,-4.714604377746582,3.4163894653320312
1763699247031629800,9.5726298828125,2.09208607673645,-3.998831033706665,3.443113327026367
1763699247041580800,9.582580810546874,2.342297315597534,-3.257387638092041,3.8209784030914307
1763699247051531800,9.59253173828125,2.5929384231567383,-2.9237959384918213,4.39955997467041
1763699247061483000,9.60248291015625,2.894552707672119,-3.3963515758514404,4.971958637237549
1763699247071432700,9.6124326171875,3.860511541366577,-3.9841175079345703,4.856966495513916
1763699247081384000,9.622384033203126,5.165019512176514,-2.7584123611450195,4.715296745300293
1763699247091335000,9.6323349609375,5.47117280960083,-0.6235892176628113,5.011532783508301
1763699247101286000,9.642285888671875,4.958217144012451,-0.35488346219062805,4.983103275299072
1763699247111236900,9.65223681640625,4.03205680847168,-1.926973581314087,4.613947868347168
1763699247121187800,9.662187744140626,3.39678692817688,-3.3296546936035156,4.411596298217773
1763699247131138800,9.672138916015625,3.516590118408203,-4.376321315765381,4.189305782318115
1763699247141089000,9.682089111328125,3.714003562927246,-4.637757301330566,3.699711322784424
1763699247151039700,9.692039794921875,3.4383127689361572,-5.142789840698242,3.03324818611145
1763699247160991000,9.701990966796876,2.9381370544433594,-5.946474552154541,2.201364755630493
1763699247170942000,9.71194189453125,2.173003673553467,-6.51002836227417,1.2863593101501465
1763699247180893000,9.721892822265625,1.3403468132019043,-6.4565935134887695,0.11223036050796509
1763699247190844000,9.731843994140625,0.8928490877151489,-6.238658905029297,-0.7258383631706238
1763699247200795000,9.741794921875,1.0757919549942017,-5.087184906005859,-1.4153318405151367
1763699247210744800,9.751744873046874,1.5617183446884155,-3.6144933700561523,-2.276125907897949
1763699247220696000,9.761696044921875,1.7691413164138794,-1.7838594913482666,-3.034501552581787
1763699247230646800,9.771646728515625,1.2208787202835083,-0.24109454452991486,-3.4523847103118896
1763699247240598000,9.781597900390626,0.3960860073566437,0.8713467121124268,-3.484529495239258
1763699247250548700,9.791548828125,-0.3927806317806244,1.901843786239624,-3.3409640789031982
1763699247260500000,9.8015,-0.939700186252594,2.957170248031616,-3.158997058868408
1763699247270450000,9.811449951171875,-1.1680091619491577,4.0829758644104,-2.9720232486724854
1763699247280401000,9.82140087890625,-1.3084957599639893,4.719961643218994,-2.7327446937561035
1763699247290351900,9.831351806640624,-1.622299313545227,4.8415069580078125,-2.367185592651367
1763699247300303000,9.84130322265625,-1.922071933746338,4.733231067657471,-1.899170160293579
1763699247310253800,9.85125390625,-1.9569239616394043,4.464968204498291,-1.3539553880691528
1763699247320205000,9.861205078125,-1.727426528930664,4.491716384887695,-0.7805473804473877
1763699247330155800,9.87115576171875,-1.445425271987915,4.799551010131836,-0.2605839967727661
1763699247340105700,9.881105712890625,-1.1790060997009277,4.807419300079346,-0.00397137925028801
1763699247350057000,9.891056884765625,-0.8236477375030518,5.067946434020996,-0.06705226749181747
1763699247360007700,9.901007568359375,-0.20659784972667694,5.714553356170654,-0.1745627522468567
1763699247369959000,9.910958984375,0.16452716290950775,5.874801158905029,0.10023041814565659
1763699247379910000,9.920909912109375,-0.02735891565680504,5.436529636383057,0.5553353428840637
1763699247389860900,9.93086083984375,-0.8311134576797485,5.579736709594727,-0.08114975690841675
1763699247399812000,9.94081201171875,-1.8033260107040405,5.389538764953613,-0.52562016248703
1763699247409761800,9.95076171875,-1.9973526000976562,3.5716073513031006,0.918260395526886
1763699247419712800,9.960712646484374,-0.6928052306175232,3.2262301445007324,2.146226406097412
1763699247429664000,9.9706640625,0.2275446355342865,6.556193828582764,-0.4702438712120056
1763699247439614700,9.98061474609375,-0.38827961683273315,5.887850761413574,-1.9438363313674927
1763699247449566000,9.99056591796875,-1.1921173334121704,4.2045183181762695,-1.76030695438385
1763699247459516700,10.0005166015625,-2.5784823894500732,2.6229970455169678,-1.9703936576843262
1763699247469468000,10.010468017578125,-4.122341156005859,1.5501569509506226,-1.953104853630066
1763699247479417900,10.02041796875,-4.920282363891602,1.2213801145553589,-2.3911616802215576
1763699247489368800,10.030368896484376,-4.738288879394531,0.837942361831665,-4.0934929847717285
1763699247499319800,10.04031982421875,-3.945380926132202,0.4181000590324402,-5.458930015563965
1763699247509270800,10.050270751953125,-3.2575230598449707,0.8664512038230896,-5.998771667480469
1763699247519221800,10.0602216796875,-2.763296127319336,1.7488987445831299,-5.842281341552734
1763699247529173000,10.070173095703124,-2.5470123291015625,1.3690389394760132,-5.0564866065979
1763699247539123700,10.080123779296875,-2.468695878982544,-0.4098864495754242,-4.084273815155029
1763699247549074000,10.090073974609375,-2.2702863216400146,-1.2755606174468994,-2.861362934112549
1763699247559025000,10.10002490234375,-2.0949230194091797,-0.8303072452545166,-1.318302869796753
1763699247568976000,10.109975830078126,-1.9335991144180298,0.07118086516857147,-0.29836660623550415
1763699247578926800,10.1199267578125,-1.7861965894699097,1.2268130779266357,0.3028841018676758
1763699247588877800,10.1298779296875,-1.5428287982940674,2.495317220687866,0.9117425680160522
1763699247598828800,10.139828857421875,-1.039715051651001,3.133967876434326,1.5608271360397339
1763699247608779000,10.149779052734376,-0.41934502124786377,3.4643430709838867,1.9796419143676758
1763699247618729700,10.159729736328124,0.25831761956214905,3.09991717338562,1.7161223888397217
1763699247628681000,10.169680908203125,0.7064512372016907,2.1054646968841553,0.8592745661735535
1763699247638632000,10.1796318359375,0.9003320336341858,0.6970107555389404,0.12437713891267776
1763699247648583000,10.1895830078125,0.9397830963134766,-0.6448200345039368,0.1860140562057495
1763699247658534000,10.199533935546874,0.8294983506202698,-1.8386802673339844,0.8204612731933594
1763699247668484900,10.20948486328125,0.7100095748901367,-2.476167678833008,1.5241175889968872
1763699247678434800,10.219434814453125,0.6725714206695557,-2.5546703338623047,2.1350338459014893
1763699247688386000,10.229385986328126,0.7216121554374695,-2.7613301277160645,2.489689350128174
1763699247698336800,10.239336669921874,0.6966442465782166,-3.592421531677246,2.7016286849975586
1763699247708288500,10.24928857421875,0.6529293656349182,-4.4182209968566895,3.150869846343994
1763699247718239200,10.2592392578125,0.8035793304443359,-4.76440954208374,3.7153477668762207
1763699247728190500,10.2691904296875,1.2374637126922607,-4.403696060180664,4.017274379730225
1763699247738141400,10.279141357421874,1.8549690246582031,-3.6650283336639404,4.190565586090088
1763699247748091400,10.28909130859375,2.370529890060425,-3.0807559490203857,4.523245811462402
1763699247758042400,10.29904248046875,2.6669490337371826,-2.502078056335449,4.94822883605957
1763699247767993300,10.308993408203126,2.7770354747772217,-2.0519797801971436,5.283070087432861
1763699247777944300,10.3189443359375,3.1679799556732178,-3.096886157989502,5.642788887023926
1763699247787895600,10.3288955078125,4.935380458831787,-3.9004170894622803,5.673552989959717
1763699247797846300,10.33884619140625,6.450897693634033,-1.9293512105941772,5.508431434631348
1763699247807797500,10.348797607421876,6.571865081787109,0.08819166570901871,5.610980987548828
1763699247817747500,10.35874755859375,5.684542655944824,-0.5755607485771179,5.383768558502197
1763699247827698400,10.368698486328125,4.696625709533691,-2.0512311458587646,4.73045015335083
1763699247837649400,10.3786494140625,4.266577243804932,-3.750760793685913,4.12629508972168
1763699247847600400,10.388600341796876,3.9573731422424316,-5.188512325286865,3.7587778568267822
1763699247857551400,10.39855126953125,3.3893115520477295,-6.371581554412842,3.1032872200012207
1763699247867502300,10.40850244140625,2.916707754135132,-6.8238525390625,1.7357115745544434
1763699247877452300,10.418452392578125,2.059159517288208,-6.799737930297852,0.13989697396755219
1763699247887403500,10.428403564453125,0.936663806438446,-7.280061721801758,-0.920320451259613
1763699247897354200,10.438354248046876,0.692339301109314,-6.928860187530518,-1.5563887357711792
1763699247907305500,10.448305419921875,1.4937644004821777,-5.371498107910156,-2.1807103157043457
1763699247917256400,10.45825634765625,2.153935432434082,-3.885087251663208,-2.992648124694824
1763699247927207400,10.46820751953125,1.9169379472732544,-2.232272148132324,-3.554459571838379
1763699247937158400,10.478158447265624,0.9251173734664917,-0.658729612827301,-3.429966926574707
1763699247947108600,10.488108642578124,-0.13088539242744446,0.4745970070362091,-3.068028211593628
1763699247957059300,10.498059326171875,-0.8619473576545715,1.7435654401779175,-2.882720947265625
1763699247967010600,10.508010498046875,-1.2627921104431152,3.356887102127075,-3.1147618293762207
1763699247976961300,10.517961181640626,-1.4643199443817139,4.745223045349121,-3.4051599502563477
1763699247986912500,10.52791259765625,-1.7561777830123901,5.143127918243408,-3.292508840560913
1763699247996863500,10.537863525390625,-2.1751761436462402,5.058305263519287,-2.8359553813934326
1763699248006814500,10.547814453125,-2.309981346130371,4.673820495605469,-2.281883478164673
1763699248016765400,10.557765380859376,-2.061312675476074,3.9196105003356934,-1.5979106426239014
1763699248026715400,10.56771533203125,-1.580898404121399,3.335993766784668,-0.9022504091262817
1763699248036666400,10.577666259765625,-1.1590715646743774,3.729854106903076,-0.45374321937561035
1763699248046617600,10.58761767578125,-0.9025787711143494,4.330994606018066,-0.4100903868675232
1763699248056568300,10.597568359375,-0.6120702624320984,5.056637763977051,-0.6531160473823547
1763699248066519600,10.60751953125,-0.07677440345287323,5.9638285636901855,-0.9449681639671326
1763699248076470300,10.61747021484375,0.1916344165802002,6.788656711578369,-0.602719783782959
1763699248086420500,10.62742041015625,-0.13911603391170502,6.801903247833252,-0.044542230665683746
1763699248096371500,10.637371337890626,-1.2581549882888794,6.114185810089111,-0.5456380844116211
1763699248106322400,10.647322509765624,-2.6748576164245605,5.230244159698486,-1.4739041328430176
1763699248116273400,10.6572734375,-3.2677128314971924,3.8599138259887695,0.05472681671380997
1763699248126224600,10.667224609375,-1.6193522214889526,3.5156941413879395,2.9903948307037354
1763699248136175400,10.67717529296875,0.436820924282074,6.64109992980957,-0.0012106269132345915
1763699248146126600,10.687126708984374,0.006433443631976843,6.068143367767334,-2.1746273040771484
1763699248156076500,10.69707666015625,-1.46007239818573,3.699836015701294,-1.526033639907837
1763699248166027300,10.70702734375,-3.3871562480926514,0.7143257856369019,-1.7339258193969727
1763699248175978500,10.716978515625,-5.230015277862549,0.06631746888160706,-2.439736843109131
1763699248185929500,10.726929443359374,-5.7994537353515625,0.14197739958763123,-3.3693008422851562
1763699248195880400,10.73688037109375,-4.7922234535217285,-1.2541587352752686,-5.2960205078125
1763699248205831400,10.74683154296875,-3.02709698677063,-1.4656982421875,-6.759463787078857
1763699248215782400,10.756782470703126,-1.7874336242675781,0.7334067225456238,-7.052646160125732
1763699248225732400,10.766732421875,-1.354383111000061,1.738445520401001,-6.2842817306518555
1763699248235683300,10.776683349609375,-1.8658993244171143,0.03978785499930382,-4.767217636108398
1763699248245634300,10.78663427734375,-2.61572527885437,-1.6281253099441528,-3.094451665878296
1763699248255585500,10.79658544921875,-2.8155124187469482,-1.012128472328186,-1.5316427946090698
1763699248265536300,10.806536376953124,-2.459981679916382,0.3067580461502075,-0.22580021619796753
1763699248275487500,10.816487548828125,-2.1455237865448,1.456978440284729,0.7321659922599792
1763699248285438200,10.826438232421875,-1.8353297710418701,2.8372511863708496,1.6274996995925903
1763699248295388400,10.836388427734375,-1.1616594791412354,3.8255300521850586,2.394526481628418
1763699248305339400,10.84633935546875,-0.4276173412799835,4.307382583618164,2.7174315452575684
1763699248315290400,10.856290283203125,0.18597312271595,3.839308977127075,2.0924572944641113
1763699248325241300,10.866241455078125,0.5589113831520081,2.199154853820801,0.8482661247253418
1763699248335192300,10.8761923828125,0.7749134302139282,0.03197544068098068,-0.022357694804668427
1763699248345143300,10.886143310546874,1.0641616582870483,-1.546929121017456,0.05278373882174492
1763699248355094500,10.896094482421875,1.3314647674560547,-2.4596149921417236,0.44940805435180664
1763699248365044500,10.90604443359375,1.2789171934127808,-2.451035737991333,0.8159044981002808
1763699248374995500,10.915995361328125,1.0205503702163696,-2.294243812561035,1.3140746355056763
1763699248384946400,10.925946533203126,0.7586830258369446,-2.573479175567627,1.8169670104980469
1763699248394897400,10.9358974609375,0.5304668545722961,-2.9882419109344482,2.1284725666046143
1763699248404848400,10.945848388671875,0.4610762596130371,-3.2483091354370117,2.4054934978485107
1763699248414799400,10.95579931640625,0.6637643575668335,-3.384721040725708,2.741286277770996
1763699248424750300,10.965750244140626,1.048906683921814,-3.2961716651916504,3.1224679946899414
1763699248434700500,10.975700439453124,1.4936420917510986,-2.895108461380005,3.4522151947021484
1763699248444651300,10.9856513671875,1.9364891052246094,-2.43904447555542,3.7408652305603027
1763699248454602500,10.9956025390625,2.3091793060302734,-2.115107536315918,4.014608860015869
1763699248464553500,11.005553466796876,2.6571993827819824,-2.006169080734253,4.416130542755127
1763699248474504400,11.01550439453125,2.972666025161743,-3.1833419799804688,5.175905227661133
1763699248484455400,11.025455322265625,4.111203193664551,-4.305924415588379,5.43052339553833
1763699248494406400,11.035406494140625,6.581753253936768,-3.156684398651123,4.186135292053223
1763699248504356400,11.0453564453125,7.690786361694336,-1.4998576641082764,3.7457878589630127
1763699248514307600,11.0553076171875,6.597100734710693,-0.623797595500946,4.710506916046143
1763699248524258300,11.06525830078125,4.877945423126221,-1.0536987781524658,5.015629768371582
1763699248534209500,11.07520947265625,4.351988315582275,-2.327766180038452,4.061750888824463
1763699248544160300,11.08516015625,4.892096996307373,-3.9590723514556885,2.952347755432129
1763699248554111500,11.095111572265624,4.906234264373779,-5.163357257843018,2.34247088432312
1763699248564062500,11.1050625,4.086061954498291,-5.599498271942139,1.9618597030639648
1763699248574012400,11.115012451171875,3.2416186332702637,-6.037356853485107,1.4019827842712402
1763699248583963400,11.12496337890625,1.884848952293396,-6.135008811950684,0.5663917660713196
1763699248593914600,11.13491455078125,0.5069219470024109,-6.647249698638916,-0.4512457847595215
1763699248603865300,11.144865234375,0.20531010627746582,-6.512872219085693,-1.3209261894226074
1763699248613816600,11.154816650390625,0.8859714269638062,-5.544291019439697,-2.0351805686950684
1763699248623767300,11.164767333984376,1.4525115489959717,-4.225235939025879,-2.790689706802368
1763699248633718500,11.174718505859374,1.0640043020248413,-2.3577003479003906,-3.2987966537475586
1763699248643668500,11.18466845703125,0.2811562418937683,-0.5284754633903503,-3.2764174938201904
1763699248653619500,11.194619384765625,-0.5124258399009705,1.1182410717010498,-2.9982502460479736
1763699248663570400,11.2045703125,-1.2402174472808838,2.8518335819244385,-2.9529998302459717
1763699248673521400,11.214521484375,-1.7840352058410645,4.525198936462402,-3.1721339225769043
1763699248683472400,11.224472412109375,-2.0465235710144043,5.024299144744873,-3.2065536975860596
1763699248693423600,11.234423583984375,-2.1215555667877197,4.517164707183838,-2.914407730102539
1763699248703374300,11.244374267578126,-2.080475330352783,3.950272560119629,-2.401160478591919
1763699248713324500,11.254324462890626,-1.8503308296203613,3.3981664180755615,-1.7391138076782227
1763699248723274800,11.264274658203124,-1.5672270059585571,3.1654651165008545,-1.0238412618637085
1763699248733225500,11.2742255859375,-1.4780343770980835,3.924994468688965,-0.4615922272205353
1763699248743176700,11.2841767578125,-1.5350446701049805,4.615040302276611,0.05951434373855591
1763699248753127700,11.294127685546876,-1.459149956703186,5.216060161590576,0.2217450588941574
1763699248763078700,11.30407861328125,-0.5248794555664062,6.304708957672119,-0.14760440587997437
1763699248773029600,11.314029541015625,0.5328282713890076,7.483423709869385,-0.40734222531318665
1763699248782980600,11.323980712890625,0.7569389939308167,7.6508259773254395,0.28914985060691833
1763699248792930600,11.3339306640625,-0.19053858518600464,6.220160007476807,0.3704204857349396
1763699248802881800,11.3438818359375,-1.7416173219680786,5.195921421051025,-0.14710423350334167
1763699248812832500,11.35383251953125,-2.2074077129364014,4.941704750061035,1.306774616241455
1763699248822783700,11.36378369140625,-0.36866495013237,4.265524864196777,3.9214396476745605
1763699248832734500,11.373734375,0.860248863697052,6.614332675933838,0.6037636399269104
1763699248842685700,11.383685791015624,-0.1346283257007599,4.748501777648926,-1.5262142419815063
1763699248852636700,11.39363671875,-1.4606412649154663,2.6484131813049316,-1.4953795671463013
1763699248862586600,11.403586669921875,-3.775844097137451,0.6656025052070618,-2.342557430267334
1763699248872537600,11.41353759765625,-5.97635555267334,-0.02965536341071129,-2.4082021713256836
1763699248882488800,11.42348876953125,-6.509928226470947,0.07687149196863174,-2.712705373764038
1763699248892439600,11.433439453125,-6.007782459259033,-2.316108226776123,-4.756000518798828
1763699248902390800,11.443390869140625,-4.538504123687744,-4.683712005615234,-6.4217352867126465
1763699248912341500,11.453341552734376,-2.617063045501709,-1.6654492616653442,-7.228161811828613
1763699248922292700,11.463292724609374,-1.4604941606521606,2.2840795516967773,-7.262301921844482
1763699248932242700,11.47324267578125,-1.3902573585510254,2.4426112174987793,-5.885426998138428
1763699248942193400,11.483193359375,-1.8840798139572144,0.12285559624433517,-3.5544700622558594
1763699248952144600,11.49314453125,-2.1052334308624268,-1.0812546014785767,-1.5112475156784058
1763699248962095600,11.503095703125,-2.240255117416382,-0.2007342278957367,-0.5155845284461975
1763699248972046600,11.513046630859375,-2.3955767154693604,0.7799295783042908,0.2577657401561737
1763699248981997800,11.522997802734375,-2.181931495666504,2.1659317016601562,1.2458899021148682
1763699248991948500,11.532948486328126,-1.4229036569595337,3.3361377716064453,2.1511449813842773
1763699249001898500,11.5428984375,-0.4871288537979126,3.8560895919799805,2.7453463077545166
1763699249011849700,11.552849609375,0.11297909170389175,3.731891632080078,2.4265053272247314
1763699249021800400,11.562800537109375,0.3303317725658417,2.54079532623291,1.4050021171569824
1763699249031751700,11.572751708984375,0.366769939661026,0.8272531032562256,0.5108247399330139
1763699249041702400,11.582702392578126,0.5543116331100464,-0.48933249711990356,0.5192065834999084
1763699249051653600,11.592653564453125,1.0661695003509521,-1.7867203950881958,0.8995379209518433
1763699249061604900,11.60260498046875,1.339292287826538,-2.255859375,1.2581591606140137
1763699249071555600,11.6125556640625,1.2905523777008057,-2.1814663410186768,1.526082992553711
1763699249081505500,11.622505615234376,1.1264843940734863,-2.3743674755096436,1.8162140846252441
1763699249091456800,11.632456787109374,0.928274929523468,-2.973966360092163,2.0986099243164062
1763699249101407500,11.642407470703125,0.7870281934738159,-3.3896141052246094,2.3520166873931885
1763699249111358700,11.652358642578125,0.8320825099945068,-3.353872060775757,2.7142529487609863
1763699249121309400,11.662309326171876,1.0207505226135254,-3.0133862495422363,3.148408889770508
1763699249131260700,11.6722607421875,1.3416699171066284,-2.541172742843628,3.428049325942993
1763699249141211400,11.68221142578125,1.789948582649231,-2.226494550704956,3.5786633491516113
1763699249151161600,11.69216162109375,2.1074509620666504,-2.172394275665283,3.7882649898529053
1763699249161112600,11.702112548828126,2.293738603591919,-2.2128889560699463,4.1819233894348145
1763699249171063600,11.7120634765625,2.534531354904175,-2.9103126525878906,4.996694087982178
1763699249181014500,11.7220146484375,3.0940046310424805,-4.376192092895508,6.019780158996582
1763699249190965800,11.7319658203125,5.125271320343018,-4.206829071044922,5.193149566650391
1763699249200916500,11.74191650390625,7.130198001861572,-1.5145189762115479,3.4815714359283447
1763699249210867700,11.75186767578125,6.352049827575684,0.31840822100639343,3.8577349185943604
1763699249220818400,11.761818359375,4.498579978942871,0.7629311084747314,5.014428615570068
1763699249230768600,11.7717685546875,3.852107286453247,0.4102090299129486,4.721831798553467
1763699249240719600,11.7817197265625,4.103903770446777,-1.2518160343170166,3.403268575668335
1763699249250670600,11.791670654296874,4.268063068389893,-2.830601692199707,2.1549246311187744
1763699249260621600,11.80162158203125,3.9184377193450928,-3.8808212280273438,1.5201259851455688
1763699249270572500,11.811572509765625,3.6316635608673096,-4.931077003479004,1.1926056146621704
1763699249280523500,11.8215234375,2.864074945449829,-5.837827205657959,0.9423319101333618
1763699249290474800,11.831474853515624,1.3166401386260986,-6.335689544677734,0.25887638330459595
1763699249300424400,11.841424560546875,0.37376752495765686,-6.358739376068115,-0.7004210948944092
1763699249310375700,11.851375732421875,0.5167814493179321,-5.612926483154297,-1.5238667726516724
1763699249320326700,11.86132666015625,0.878286600112915,-4.527931213378906,-2.221681833267212
1763699249330277600,11.871277587890624,0.6241555213928223,-3.4751574993133545,-2.4641005992889404
1763699249340228600,11.881228515625,-0.05529100447893143,-2.521543264389038,-2.3079214096069336
1763699249350179600,11.8911796875,-0.5234387516975403,-1.4844216108322144,-2.208984375
1763699249360130600,11.901130615234376,-0.8885417580604553,0.6706499457359314,-2.4629011154174805
1763699249370081500,11.91108154296875,-1.1717458963394165,3.4289958477020264,-3.2725844383239746
1763699249380031500,11.921031494140625,-1.226786494255066,5.434549808502197,-3.906162977218628
1763699249389982700,11.930982666015625,-0.8999561667442322,5.757238864898682,-3.925767660140991
1763699249399933700,11.94093359375,-0.3324283957481384,5.391490459442139,-3.7980802059173584
1763699249409884700,11.950884765625,0.13369934260845184,4.815283298492432,-3.382075309753418
1763699249419835600,11.960835693359375,0.3048183023929596,4.224865436553955,-2.459101438522339
1763699249429786600,11.97078662109375,0.3202481269836426,4.001587390899658,-1.1618680953979492
1763699249439737600,11.980737548828126,0.3229343593120575,5.041652202606201,-0.3847590684890747
1763699249449688600,11.9906884765625,0.26087525486946106,5.930352210998535,0.014418946579098701
1763699249459638500,12.000638427734375,0.14530891180038452,5.99526309967041,-0.10977040231227875
1763699249469589800,12.01058984375,0.13108471035957336,5.6951823234558105,-0.21722468733787537
1763699249479540500,12.02054052734375,-0.16885462403297424,4.879673480987549,0.4181193709373474
1763699249489491700,12.03049169921875,-0.8257320523262024,3.710002899169922,0.9881325364112854
1763699249499442700,12.040442626953125,-1.498398780822754,3.34928297996521,-0.18617044389247894
1763699249509393700,12.0503935546875,-2.3236594200134277,3.9084973335266113,-2.166588306427002
1763699249519344600,12.0603447265625,-3.315683126449585,4.58919620513916,-3.2072336673736572
1763699249529295600,12.070295654296874,-3.4674899578094482,3.155555248260498,-0.6457292437553406
1763699249539245600,12.08024560546875,-1.4342702627182007,2.1636123657226562,2.6374828815460205
1763699249549196800,12.09019677734375,0.2518171966075897,7.042759895324707,0.5135210156440735
1763699249559147500,12.1001474609375,-0.049750592559576035,8.889937400817871,-3.16536021232605
1763699249569098800,12.1100986328125,-2.130537986755371,7.119724750518799,-3.048999547958374
1763699249579049500,12.120049560546875,-4.388659477233887,-0.5725106000900269,0.2229962795972824
1763699249589000700,12.130000732421875,-5.882732391357422,-3.897059679031372,-0.5327833294868469
1763699249598951700,12.13995166015625,-6.031829357147217,-3.3749334812164307,-3.492945909500122
1763699249608901600,12.149901611328126,-4.6729888916015625,-3.4596762657165527,-5.849984169006348
1763699249618852600,12.1598525390625,-2.9391536712646484,-2.329573631286621,-6.59094762802124
1763699249628803800,12.169803955078125,-1.6674604415893555,1.1519775390625,-7.167910575866699
1763699249638754600,12.179754638671875,-1.3741041421890259,3.170844554901123,-6.752405166625977
1763699249648705800,12.189705810546876,-2.3089771270751953,-1.2482490539550781,-3.5816597938537598
1763699249658656500,12.199656494140624,-2.830634117126465,-3.1219515800476074,-1.1659554243087769
1763699249668607700,12.209607666015625,-2.697309732437134,0.3673730790615082,-0.20126952230930328
1763699249678558500,12.219558349609375,-2.1749095916748047,2.37949538230896,1.2313528060913086
1763699249688508400,12.22950830078125,-1.3321452140808105,4.566038131713867,2.6429710388183594
1763699249698459600,12.239459716796874,-0.4138360023498535,6.333452224731445,3.6887998580932617
1763699249708410600,12.24941064453125,0.23461388051509857,6.729526042938232,3.7480459213256836
1763699249718361900,12.25936181640625,0.44398176670074463,4.656256198883057,2.558708667755127
1763699249728312800,12.269312744140626,0.15643200278282166,1.469109058380127,0.5889716148376465
1763699249738263800,12.279263916015625,0.007866227068006992,-0.18445166945457458,-0.13439059257507324
1763699249748214800,12.28921484375,0.3830980956554413,-1.7123372554779053,0.8504776358604431
1763699249758165800,12.299165771484375,0.7562541961669922,-3.1468958854675293,1.203202247619629
1763699249768115700,12.30911572265625,0.6940531730651855,-2.806788921356201,0.818386435508728
1763699249778066700,12.319066650390624,0.37113824486732483,-2.2249226570129395,0.861943244934082
1763699249788017700,12.329017578125,-0.09089313447475433,-2.2162206172943115,1.3772221803665161
1763699249797969000,12.338968994140625,-0.25153082609176636,-2.4646198749542236,1.6060340404510498
1763699249807919600,12.348919677734376,0.08444609493017197,-2.7036561965942383,1.7312361001968384
1763699249817870800,12.358870849609374,0.6573795080184937,-2.716313600540161,2.1022844314575195
1763699249827821800,12.36882177734375,1.2350914478302002,-2.515371561050415,2.491717576980591
1763699249837772800,12.378772705078125,1.751828670501709,-2.1224639415740967,2.7259140014648438
1763699249847722800,12.38872265625,2.1394665241241455,-1.7782155275344849,2.8961236476898193
1763699249857673700,12.398673828125,2.4498956203460693,-1.3559675216674805,3.1842405796051025
1763699249867624700,12.408624755859375,2.6716835498809814,-0.7953938841819763,3.642899751663208
1763699249877575700,12.41857568359375,2.870821714401245,-0.8058309555053711,4.288172245025635
1763699249887526700,12.428526611328126,3.151076078414917,-2.640761375427246,5.427848815917969
1763699249897478000,12.438477783203124,4.604000568389893,-4.04734992980957,5.758940696716309
