time,seconds_elapsed,z,y,x
1763699239972560000,0.174559814453125,8.537590980529785,4.198805332183838,-1.5514464378356934
1763699240001323500,0.203323486328125,8.549555778503418,3.0544381141662598,-1.1204391717910767
1763699240020500000,0.2225,8.444271087646484,3.739084482192993,-1.6471593379974365
1763699240030088000,0.232087890625,8.614161491394043,3.564408540725708,-1.4222339391708374
1763699240039675000,0.2416748046875,8.391629219055176,3.3128628730773926,-0.9672985672950745
1763699240049262800,0.251262939453125,7.814659595489502,3.1477582454681396,-0.9553344249725342
1763699240058851300,0.260851318359375,7.259225845336914,3.1716864109039307,-1.2041879892349243
1763699240068439000,0.27043896484375,7.256833076477051,3.2578279972076416,-1.4629119634628296
1763699240078026200,0.280026123046875,7.599006652832031,3.377469062805176,-1.7644076347351074
1763699240087614000,0.289614013671875,7.658827304840088,3.58115816116333,-1.7859430313110352
1763699240097202700,0.29920263671875,7.896015644073486,3.70558500289917,-1.776371717453003
1763699240106790400,0.308790283203125,8.07069206237793,4.0767717361450195,-1.8649061918258667
1763699240116377600,0.318377685546875,7.622934818267822,4.4955153465271,-1.9055840969085693
1763699240125965300,0.32796533203125,7.218547821044922,4.380660057067871,-2.8585257530212402
1763699240135554000,0.337553955078125,7.182356357574463,5.036592483520508,-2.540280342102051
1763699240145142000,0.34714208984375,7.6253275871276855,5.400600910186768,-2.487638235092163
1763699240154729500,0.3567294921875,7.4602227210998535,5.252245903015137,-2.8824539184570312
1763699240164317200,0.366317138671875,7.697112083435059,5.1804609298706055,-3.3541390895843506
1763699240173905700,0.37590576171875,7.776374340057373,5.178068161010742,-3.5886356830596924
1763699240183493600,0.38549365234375,7.567899703979492,5.154139995574951,-3.660719633102417
1763699240193080600,0.39508056640625,7.579864025115967,5.26899528503418,-3.9646079540252686
1763699240202668500,0.40466845703125,7.362117290496826,5.663811206817627,-4.491328239440918
1763699240212257000,0.414257080078125,7.141678333282471,6.178566932678223,-5.3007001876831055
1763699240221845000,0.423844970703125,7.725826263427734,6.497111797332764,-5.927918910980225
1763699240231431700,0.433431640625,8.010870933532715,6.611967086791992,-6.069095611572266
1763699240241019400,0.443019287109375,9.425627708435059,6.798607349395752,-6.437889099121094
1763699240250608000,0.452608154296875,2.7942185401916504,7.464410305023193,-4.742873668670654
1763699240269783000,0.471782958984375,5.389235019683838,7.885547161102295,-5.666802406311035
1763699240279370800,0.481370849609375,6.691827774047852,7.349255561828613,-5.923133373260498
1763699240288959500,0.49095947265625,8.899206161499023,6.406184196472168,-5.228616714477539
1763699240298547200,0.500547119140625,5.25762939453125,6.018248081207275,-4.646861553192139
1763699240308134400,0.510134521484375,7.122535705566406,5.053342342376709,-4.675575256347656
1763699240317722000,0.51972216796875,6.780362129211426,4.318446636199951,-5.19033145904541
1763699240327310800,0.529310791015625,7.541578769683838,4.586442947387695,-4.91037130355835
1763699240336898600,0.538898681640625,7.46500825881958,4.6728835105896,-4.953442096710205
1763699240346485800,0.54848583984375,7.264011383056641,4.4859442710876465,-5.087440013885498
1763699240356073700,0.55807373046875,7.3262248039245605,4.366302967071533,-4.970191955566406
1763699240365662200,0.567662109375,7.069893836975098,4.3758745193481445,-4.817050933837891
1763699240375250000,0.57725,7.00050163269043,4.361517429351807,-4.77876615524292
1763699240384837000,0.586837158203125,7.314260482788086,4.48115873336792,-4.7234320640563965
1763699240394425000,0.596425048828125,7.493722438812256,4.249054908752441,-4.872086048126221
1763699240404013600,0.606013671875,7.534400463104248,4.29451847076416,-4.60139799118042
1763699240413601300,0.615601318359375,7.680362701416016,4.0767717361450195,-4.527220249176025
1763699240423188500,0.6251884765625,7.630113124847412,3.712763547897339,-4.682754039764404
1763699240432776200,0.634776123046875,7.718647480010986,3.5620155334472656,-4.809872627258301
1763699240442365000,0.644364990234375,7.730611801147461,3.7175490856170654,-4.951049327850342
1763699240451952600,0.65395263671875,8.015656471252441,4.17009162902832,-5.214259624481201
1763699240461539800,0.663539794921875,8.37009334564209,4.416552543640137,-5.235795021057129
1763699240471127800,0.6731279296875,8.04676342010498,3.9305102825164795,-5.00369119644165
1763699240480716300,0.68271630859375,7.472187042236328,3.1716864109039307,-4.587040901184082
1763699240490304300,0.69230419921875,7.381259441375732,3.372683525085449,-4.362115859985352
1763699240499891200,0.70189111328125,7.3022966384887695,3.339184045791626,-4.704289436340332
1763699240509479200,0.711479248046875,7.572685241699219,3.198007345199585,-4.769194602966309
1763699240519067600,0.721067626953125,7.872087478637695,3.047259569168091,-4.694717884063721
1763699240528655600,0.730655517578125,7.989335536956787,2.9252257347106934,-4.1970109939575195
1763699240538242600,0.74024267578125,7.83619499206543,2.4631118774414062,-3.70139741897583
1763699240547830500,0.74983056640625,8.06112003326416,2.384148597717285,-3.811467409133911
1763699240557419000,0.7594189453125,8.16401195526123,2.460718870162964,-4.084249019622803
1763699240567007000,0.769007080078125,8.415556907653809,1.2780663967132568,-4.264009952545166
1763699240576594000,0.778593994140625,8.786444664001465,0.7034898400306702,-4.711467742919922
1763699240586182000,0.788181884765625,8.144868850708008,0.9499505758285522,-5.19033145904541
1763699240595770400,0.797770263671875,6.971787929534912,1.4144573211669922,-5.571089267730713
1763699240605358300,0.8073583984375,6.177071571350098,1.2541381120681763,-5.769693374633789
1763699240614945300,0.8169453125,5.851348876953125,0.2509472668170929,-5.618945598602295
1763699240624533200,0.826533203125,5.671886920928955,-0.4938187599182129,-5.046761989593506
1763699240634122000,0.8361220703125,5.774778366088867,-0.6421737670898438,-4.658825874328613
1763699240643709700,0.845709716796875,6.837790012359619,-0.388235479593277,-4.462614059448242
1763699240653296600,0.855296630859375,7.560721397399902,-0.4651049077510834,-5.041976451873779
1763699240662884600,0.864884521484375,7.8888373374938965,-0.7977072596549988,-5.709873199462891
1763699240672473300,0.874473388671875,7.778767108917236,-1.2957134246826172,-6.492924213409424
1763699240682061000,0.88406103515625,7.58943510055542,-1.4871392250061035,-7.098607540130615
1763699240691648000,0.89364794921875,7.733004570007324,-1.6597216129302979,-7.543971538543701
1763699240701236000,0.903236083984375,7.5535430908203125,-1.9468603134155273,-7.754539966583252
1763699240710824400,0.912824462890625,7.203891754150391,-2.430509567260742,-8.044071197509766
1763699240720412400,0.922412353515625,6.703791618347168,-2.6123640537261963,-8.40329360961914
1763699240729999400,0.931999267578125,6.061916828155518,-2.35872483253479,-8.53729248046875
1763699240739587300,0.94158740234375,5.31266450881958,-1.944467544555664,-8.534899711608887
1763699240749176000,0.951176025390625,4.5801615715026855,-1.8607187271118164,-8.503792762756348
1763699240758763800,0.960763671875,4.015156269073486,-1.7841483354568481,-8.791230201721191
1763699240768350700,0.970350830078125,3.842574119567871,-1.6621143817901611,-9.090332984924316
1763699240777938700,0.979938720703125,3.553042411804199,-1.8056837320327759,-9.17886734008789
1763699240787527400,0.98952734375,3.6391842365264893,-2.3395824432373047,-9.327521324157715
1763699240797115100,0.999115234375,3.981656789779663,-2.904587507247925,-9.51176929473877
1763699240806702000,1.0087021484375,3.9457645416259766,-3.206083297729492,-9.770194053649902
1763699240816290000,1.0182900390625,3.893122434616089,-3.2563323974609375,-10.203594207763672
1763699240825878800,1.027878662109375,3.988835334777832,-3.1917262077331543,-10.55803108215332
1763699240835466500,1.037466552734375,4.491627216339111,-2.8878378868103027,-10.593923568725586
1763699240845053700,1.0470537109375,4.987240791320801,-2.2654049396514893,-10.261021614074707
1763699240854641400,1.056641357421875,5.178666591644287,-1.8511474132537842,-9.815957069396973
1763699240864230100,1.066230224609375,5.4179487228393555,-1.6621143817901611,-9.35623550415039
1763699240873817900,1.07581787109375,5.329414367675781,-1.4608181715011597,-9.183652877807617
1763699240883405000,1.085405029296875,5.068596363067627,-1.353141188621521,-9.162117958068848
1763699240892992800,1.09499267578125,5.228915691375732,-1.6214364767074585,-9.554840087890625
1763699240902581500,1.10458154296875,5.434698581695557,-1.9971096515655518,-10.057631492614746
1763699240912170500,1.11417041015625,5.554638862609863,-2.030609130859375,-10.481460571289062
1763699240921758000,1.123758056640625,5.674279689788818,-1.8942182064056396,-10.749456405639648
1763699240931346000,1.133345947265625,5.748457431793213,-1.8894325494766235,-10.802098274230957
1763699240940934400,1.142934326171875,5.892026424407959,-1.9492532014846802,-10.617851257324219
1763699240950522400,1.1525224609375,5.97098970413208,-1.8367904424667358,-10.217950820922852
1763699240960109300,1.162109375,6.081059455871582,-1.8032909631729126,-9.835099220275879
1763699240969697300,1.171697265625,6.275177478790283,-1.7458631992340088,-9.552447319030762
1763699240979285800,1.18128564453125,6.5288166999816895,-1.5756736993789673,-9.420842170715332
1763699240988873700,1.190873779296875,6.859325408935547,-1.4225330352783203,-9.463912963867188
1763699240998460700,1.200460693359375,7.141678333282471,-1.4536397457122803,-9.799206733703613
1763699241008048600,1.210048583984375,7.606184959411621,-1.786541223526001,-10.318449020385742
1763699241017637400,1.219637451171875,7.817052364349365,-2.1358933448791504,-10.794919967651367
1763699241027225000,1.22922509765625,7.951050758361816,-2.5525436401367188,-11.204392433166504
1763699241036812000,1.23881201171875,8.271688461303711,-2.890230655670166,-11.11346435546875
1763699241046400000,1.24839990234375,8.312366485595703,-3.397808074951172,-11.115857124328613
1763699241055988700,1.25798876953125,6.308676719665527,-4.218845367431641,-12.008679389953613
1763699241065576400,1.267576416015625,6.018846035003662,-4.511068820953369,-11.53250789642334
1763699241075163400,1.277163330078125,6.382854461669922,-4.237987995147705,-10.189236640930176
1763699241084751400,1.28675146484375,6.0140604972839355,-4.237987995147705,-9.533304214477539
1763699241094340000,1.296340087890625,5.734100341796875,-4.137489318847656,-8.851051330566406
1763699241103927800,1.305927734375,5.413163185119629,-3.9580278396606445,-8.252546310424805
1763699241113515000,1.315514892578125,5.226522922515869,-3.8312082290649414,-7.7353973388671875
1763699241123102700,1.325102783203125,5.047060966491699,-3.7878382205963135,-7.392924785614014
1763699241132691500,1.33469140625,4.73090934753418,-3.7256247997283936,-7.172784805297852
1763699241142279200,1.344279052734375,4.66869592666626,-3.706482172012329,-7.034001350402832
1763699241151866000,1.3538662109375,4.558626174926758,-3.737588882446289,-6.926024913787842
1763699241161454000,1.3634541015625,4.575376033782959,-3.704089403152466,-6.7178497314453125
1763699241171042800,1.373042724609375,4.637589454650879,-3.720839262008667,-6.68435001373291
1763699241180630500,1.382630615234375,4.740480899810791,-3.8117663860321045,-6.775277137756348
1763699241190217500,1.392217529296875,4.836193561553955,-3.8503506183624268,-6.844669342041016
1763699241199805400,1.401805419921875,4.912764072418213,-3.8383865356445312,-6.825526714324951
1763699241209394200,1.411394287109375,4.999204635620117,-3.7806596755981445,-7.022037029266357
1763699241218982000,1.42098193359375,5.059025287628174,-3.775874137878418,-7.278069019317627
1763699241228569000,1.430569091796875,5.075775146484375,-3.8213376998901367,-7.58943510055542
1763699241238156800,1.44015673828125,5.066203594207764,-3.81655216217041,-7.89332389831543
1763699241247745500,1.44974560546875,5.039882659912109,-3.8862431049346924,-8.221439361572266
1763699241257333200,1.459333251953125,4.898406982421875,-3.986741542816162,-8.604290962219238
1763699241266920400,1.46892041015625,4.680660247802734,-3.93888521194458,-8.786444664001465
1763699241276508200,1.478508056640625,4.472484588623047,-3.8213376998901367,-8.769695281982422
1763699241286097000,1.488096923828125,4.213760852813721,-3.5605201721191406,-8.534899711608887
1763699241295684600,1.4976845703125,4.053441524505615,-3.431307554244995,-8.226224899291992
1763699241305271800,1.507271728515625,4.027120590209961,-3.452843189239502,-7.95553731918335
1763699241314859500,1.516859619140625,4.0079779624938965,-3.359523057937622,-7.785646915435791
1763699241324448300,1.5264482421875,4.153940200805664,-3.2347970008850098,-7.613363265991211
1763699241334036000,1.536035888671875,4.357329845428467,-3.141477108001709,-7.613363265991211
1763699241343623200,1.545623046875,4.702195644378662,-3.0912277698516846,-7.730611801147461
1763699241353211000,1.5552109375,4.7596235275268555,-3.141477108001709,-7.917252063751221
1763699241362799600,1.564799560546875,4.450949192047119,-2.9787650108337402,-8.149654388427734
1763699241372387300,1.57438720703125,4.041477680206299,-2.9333014488220215,-8.618648529052734
1763699241381974500,1.583974609375,3.7588253021240234,-3.4097721576690674,-9.346664428710938
1763699241391562200,1.593562255859375,3.6942191123962402,-3.8261234760284424,-9.799206733703613
1763699241401151000,1.60315087890625,3.926621913909912,-4.025026798248291,-9.569196701049805
1763699241410738700,1.61273876953125,4.671088695526123,-3.9580278396606445,-8.82951545715332
1763699241420326000,1.622325927734375,5.7771711349487305,-3.596412420272827,-8.015357971191406
1763699241429913900,1.631913818359375,7.864908695220947,-2.6051857471466064,-6.823133945465088
1763699241439502300,1.64150244140625,7.881658554077148,-2.176870346069336,-7.103393077850342
1763699241449090000,1.651090087890625,6.1603217124938965,-1.7482560873031616,-7.680362701416016
1763699241458677200,1.66067724609375,4.436592102050781,-1.7315062284469604,-8.147261619567871
1763699241468265000,1.670264892578125,3.2874391078948975,-2.318047046661377,-7.950751304626465
1763699241477853700,1.679853759765625,3.330509901046753,-2.959622621536255,-7.479066371917725
1763699241487441400,1.68944140625,3.7755749225616455,-3.069692373275757,-6.68435001373291
1763699241497028600,1.699028564453125,3.7827534675598145,-3.0601210594177246,-6.229414463043213
1763699241506616300,1.7086162109375,3.1339993476867676,-3.2347970008850098,-6.421139717102051
1763699241516205000,1.718205078125,2.243570327758789,-3.1749765872955322,-6.902096748352051
1763699241525793000,1.72779296875,1.379163146018982,-2.8854451179504395,-6.6915283203125
1763699241535380000,1.7373798828125,1.1207382678985596,-3.017050266265869,-6.207879066467285
1763699241544968700,1.74696875,2.1092731952667236,-3.1845479011535645,-4.802694320678711
1763699241554557400,1.756557373046875,3.842574119567871,-3.3858439922332764,-4.014857292175293
1763699241564145200,1.766145263671875,4.919942378997803,-3.5916268825531006,-4.704289436340332
1763699241573732400,1.775732421875,4.568197727203369,-4.19491720199585,-5.602196216583252
1763699241592908800,1.79490869140625,3.059821844100952,-6.074479579925537,-6.725028038024902
1763699241602496500,1.80449658203125,2.8564319610595703,-6.775875568389893,-6.988537788391113
1763699241612083700,1.814083740234375,3.392723321914673,-7.144370079040527,-7.366603374481201
1763699241621671400,1.82367138671875,4.3788652420043945,-7.29302453994751,-7.8454670906066895
1763699241631260200,1.83326025390625,5.410770416259766,-6.933801651000977,-7.455138206481934
1763699241640848000,1.842847900390625,6.078666687011719,-6.349654197692871,-6.787241458892822
1763699241650435000,1.85243505859375,5.693422317504883,-5.8923258781433105,-6.7345991134643555
1763699241660022800,1.862022705078125,4.434199333190918,-5.755934715270996,-6.325127601623535
1763699241669611500,1.871611572265625,3.4692938327789307,-6.158228397369385,-5.487340450286865
1763699241679199200,1.88119921875,3.208176851272583,-6.507580280303955,-3.9382870197296143
1763699241688786400,1.890786376953125,3.6248271465301514,-7.074978351593018,-3.122035264968872
1763699241698374100,1.9003740234375,3.8572301864624023,-7.817351341247559,-4.026821613311768
1763699241707963000,1.909962890625,3.8066816329956055,-7.872386455535889,-5.501697540283203
1763699241717550600,1.919550537109375,3.11246395111084,-8.307880401611328,-7.7593255043029785
1763699241727137800,1.9291376953125,2.2459630966186523,-8.073383331298828,-9.066405296325684
1763699241736725500,1.9387255859375,2.4756741523742676,-6.962515830993652,-8.982656478881836
1763699241746314200,1.948314208984375,3.780360698699951,-5.758327484130859,-8.577970504760742
1763699241755902000,1.95790185546875,4.46769905090332,-4.470390796661377,-8.738588333129883
1763699241765489200,1.9674892578125,4.252045631408691,-3.055335521697998,-8.915657043457031
1763699241775076900,1.977076904296875,3.330509901046753,-2.071287155151367,-9.140582084655762
1763699241784665600,1.98666552734375,1.8628123998641968,-1.7458631992340088,-8.432007789611816
1763699241794253300,1.99625341796875,0.5054838061332703,-1.7219350337982178,-6.8279194831848145
1763699241803840500,2.005840576171875,-0.026021946221590042,-3.076870918273926,-7.883752346038818
1763699241813428500,2.015428466796875,3.505186080932617,-4.0776686668396,-7.299604415893555
1763699241823017000,2.025016845703125,5.545067310333252,-4.5445685386657715,-7.474280834197998
1763699241832604700,2.034604736328125,5.810670852661133,-4.774279594421387,-8.159226417541504
1763699241842192000,2.04419189453125,4.4150567054748535,-4.417748928070068,-8.130512237548828
1763699241851779800,2.05377978515625,3.7133617401123047,-5.4780683517456055,-7.934001445770264
1763699241861368300,2.063368408203125,4.034298896789551,-5.212464809417725,-6.768098831176758
1763699241870956000,2.0729560546875,5.736493110656738,-3.220440149307251,-4.78594446182251
1763699241880543200,2.082543212890625,7.915158271789551,-3.2757742404937744,-4.599005222320557
1763699241890131000,2.092130859375,8.068299293518066,-3.7232320308685303,-4.591826438903809
1763699241899719700,2.1017197265625,7.51286506652832,-4.352843284606934,-5.2166523933410645
1763699241909307400,2.111307373046875,7.249654293060303,-5.983253002166748,-5.930311679840088
1763699241918894600,2.12089453125,6.457031726837158,-6.3855462074279785,-5.537590026855469
1763699241928482600,2.130482666015625,5.4897332191467285,-5.717649936676025,-5.156831741333008
1763699241938071000,2.140071044921875,4.8792643547058105,-4.96121883392334,-5.274080276489258
1763699241947659000,2.149658935546875,3.7755749225616455,-5.600401401519775,-5.721837043762207
1763699241957246000,2.159245849609375,2.8253252506256104,-8.595317840576172,-4.402793884277344
1763699241966834000,2.168833984375,1.470090389251709,-9.83539867401123,-2.118844509124756
1763699241976422400,2.17842236328125,1.1183454990386963,-10.819446563720703,-0.5985047817230225
1763699241986010400,2.18801025390625,0.8333004713058472,-11.896815299987793,-0.2802593410015106
1763699241995597300,2.197597412109375,0.9050851464271545,-12.195918083190918,0.275174617767334
1763699242005185000,2.20718505859375,1.0151549577713013,-12.186347007751465,1.0893324613571167
1763699242014773800,2.216773681640625,-0.00687936507165432,-12.480962753295898,-0.12203395366668701
1763699242024361700,2.22636181640625,-0.44027936458587646,-12.093026161193848,-1.5777673721313477
1763699242033948700,2.23594873046875,-0.5407779216766357,-11.248061180114746,-1.934597134590149
1763699242043536400,2.245536376953125,0.49351966381073,-11.408380508422852,-1.9103697538375854
1763699242053125000,2.255125,1.5394822359085083,-10.29751205444336,-2.1882362365722656
1763699242062713000,2.264713134765625,2.305783748626709,-10.118050575256348,-1.7189439535140991
1763699242072300000,2.274300048828125,2.3488545417785645,-10.83141040802002,-1.6686947345733643
1763699242081888000,2.283887939453125,1.3983057737350464,-12.066705703735352,-1.2687941789627075
1763699242091476500,2.2934765625,1.9680966138839722,-10.970194816589355,-2.403590440750122
1763699242101064400,2.303064453125,2.5785655975341797,-9.148359298706055,-3.5503506660461426
1763699242110651400,2.3126513671875,3.4980075359344482,-8.865707397460938,-3.622434377670288
1763699242120239400,2.3222392578125,3.85483717918396,-10.264012336730957,-2.3054845333099365
1763699242129827800,2.331827880859375,4.015156269073486,-11.082656860351562,-1.197009563446045
1763699242139415800,2.341415771484375,3.8811583518981934,-10.886445999145508,-0.7612167000770569
1763699242149002800,2.351002685546875,3.2177481651306152,-8.702995300292969,-1.690230131149292
1763699242158590700,2.3605908203125,3.239283561706543,-7.956135272979736,-3.1818559169769287
1763699242168179200,2.37017919921875,3.361616611480713,-7.927421569824219,-3.9478583335876465
1763699242177767200,2.37976708984375,2.813361167907715,-8.164310455322266,-3.7372899055480957
1763699242187354000,2.38935400390625,2.3871397972106934,-8.952147483825684,-4.010071754455566
1763699242196942000,2.398942138671875,1.633101463317871,-8.250452041625977,-3.531208038330078
1763699242206530600,2.408530517578125,1.5131611824035645,-7.290631294250488,-2.669492721557617
1763699242216118500,2.418118408203125,1.817348837852478,-7.000801086425781,-3.1339993476867676
1763699242225705500,2.42770556640625,3.10528564453125,-6.802196502685547,-4.093820571899414
1763699242235293400,2.43729345703125,3.347259759902954,-6.818946361541748,-4.67078971862793
1763699242244882000,2.4468818359375,3.957728624343872,-8.940183639526367,-5.070690155029297
1763699242254470000,2.456469970703125,4.019941806793213,-11.068300247192383,-5.532804012298584
1763699242264056800,2.466056884765625,3.399901866912842,-13.529617309570312,-6.725028038024902
1763699242273644800,2.475644775390625,2.5307090282440186,-14.29561996459961,-7.8693952560424805
1763699242283233500,2.485233642578125,2.128415822982788,-13.963017463684082,-8.199904441833496
1763699242292821200,2.4948212890625,3.0837502479553223,-12.888041496276855,-7.740182876586914
1763699242302408200,2.504408203125,3.208176851272583,-11.913564682006836,-6.303592205047607
1763699242311996200,2.51399609375,2.7101707458496094,-11.465807914733887,-4.646861553192139
1763699242321585000,2.5235849609375,1.4030914306640625,-11.34377384185791,-3.3589248657226562
1763699242331172600,2.533172607421875,-1.038784146308899,-9.588937759399414,-2.5235304832458496
1763699242340759600,2.542759521484375,-1.7545372247695923,-6.699305057525635,-1.0295119285583496
1763699242350347500,2.552347412109375,0.4214358925819397,-3.2156546115875244,0.33529427647590637
1763699242359936300,2.561936279296875,1.7623138427734375,-5.408676624298096,1.5035899877548218
1763699242369524000,2.57152392578125,3.0957143306732178,-6.253941059112549,-0.6176473498344421
1763699242379111000,2.58111083984375,3.646362543106079,-8.549854278564453,0.016749758273363113
1763699242388699000,2.590698974609375,4.084548473358154,-8.729315757751465,-0.5458626747131348
1763699242398287600,2.60028759765625,3.1028928756713867,-8.02791976928711,-2.880061149597168
1763699242407875300,2.609875244140625,2.6551358699798584,-6.500401973724365,-3.7372899055480957
1763699242417462300,2.619462158203125,2.0614166259765625,-6.1797637939453125,-5.372485160827637
1763699242427050200,2.62905029296875,1.8771693706512451,-6.33290433883667,-6.660421848297119
1763699242436639000,2.638638916015625,1.688136339187622,-7.257132053375244,-7.3522467613220215
1763699242446226700,2.648226806640625,1.3767703771591187,-8.185846328735352,-6.325127601623535
1763699242455813600,2.657813720703125,0.5892325639724731,-8.714959144592285,-4.54636287689209
1763699242465401600,2.667401611328125,-0.5240281820297241,-9.320642471313477,-3.050250768661499
1763699242474990300,2.676990234375,-1.0244271755218506,-9.40917682647705,-2.2169501781463623
1763699242484578000,2.686578125,0.2515454888343811,-10.5993070602417,-1.415055513381958
1763699242494165000,2.6961650390625,0.9912267923355103,-10.7859468460083,-1.4485549926757812
1763699242503753000,2.7057529296875,0.8691928386688232,-11.188240051269531,-1.415055513381958
1763699242513341700,2.715341796875,1.2714861631393433,-10.800304412841797,-1.872084617614746
1763699242522929400,2.724929443359375,1.4030914306640625,-8.497212409973145,-3.3302109241485596
1763699242532516400,2.734516357421875,1.0968101024627686,-6.241976737976074,-4.381258487701416
1763699242542104300,2.744104248046875,1.1327024698257446,-5.554937839508057,-4.709074974060059
1763699242551693000,2.753693115234375,1.2164511680603027,-7.091728210449219,-3.715754508972168
1763699242561280800,2.76328076171875,1.6378871202468872,-8.142775535583496,-3.3445677757263184
1763699242570868000,2.772867919921875,1.9513468742370605,-8.619246482849121,-3.6415770053863525
1763699242580455700,2.78245556640625,2.446960210800171,-9.935896873474121,-1.5586248636245728
1763699242590044400,2.79204443359375,1.6115660667419434,-10.604092597961426,-1.1515458822250366
1763699242599632100,2.801632080078125,0.3233301639556885,-3.4002010822296143,-3.6726837158203125
1763699242609219300,2.81121923828125,-0.07387840002775192,-5.866004943847656,-1.0869396924972534
1763699242618807000,2.82080712890625,0.8715856671333313,-9.354142189025879,-0.2587239444255829
1763699242647570700,2.84957080078125,-0.23688943684101105,-10.118050575256348,-2.2911276817321777
1763699242657158400,2.859158447265625,0.28504499793052673,-8.585746765136719,-2.128415822982788
1763699242666747100,2.8687470703125,0.7495517134666443,-7.431807994842529,-1.7548363208770752
1763699242676334800,2.8783349609375,1.4294124841690063,-7.57298469543457,-2.066202402114868
1763699242685921800,2.887921875,1.103988528251648,-8.271987915039062,-2.355733871459961
1763699242695509800,2.897509765625,0.3975076675415039,-9.325428009033203,-2.7747769355773926
1763699242705098500,2.907098388671875,0.033798620104789734,-10.086943626403809,-3.0933215618133545
1763699242714686200,2.916686279296875,0.3496512174606323,-9.87368392944336,-3.3589248657226562
1763699242724273200,2.926273193359375,0.706480860710144,-9.605687141418457,-3.390031576156616
1763699242733861000,2.935861083984375,0.8691928386688232,-9.742077827453613,-3.380460262298584
1763699242743449900,2.945449951171875,1.4676976203918457,-8.384749412536621,-3.0164520740509033
1763699242753037600,2.95503759765625,1.4054841995239258,-7.920242786407471,-2.4370899200439453
1763699242762624800,2.964624755859375,1.450947880744934,-7.58016300201416,-2.444268226623535
1763699242772212500,2.97421240234375,1.5634105205535889,-7.81974458694458,-2.8944180011749268
1763699242781801200,2.98380126953125,1.108774185180664,-8.848957061767578,-3.1555347442626953
1763699242791389000,2.993388916015625,0.4549354016780853,-9.871291160583496,-3.4642090797424316
1763699242800976100,3.00297607421875,0.9553344249725342,-10.374082565307617,-3.809074640274048
1763699242810563800,3.012563720703125,0.8668000102043152,-11.03480052947998,-3.7037904262542725
1763699242820152600,3.022152587890625,0.5006981492042542,-10.103693962097168,-3.301496982574463
1763699242829740300,3.031740234375,0.1701895147562027,-9.605687141418457,-2.755634307861328
1763699242839327500,3.041327392578125,-0.2847459018230438,-8.813064575195312,-2.4610180854797363
1763699242848915200,3.050915283203125,-0.20338992774486542,-8.76520824432373,-1.7380865812301636
1763699242858504000,3.06050390625,0.0026919255033135414,-9.339784622192383,-1.7117655277252197
1763699242868091600,3.070091552734375,0.1821536272764206,-9.043074607849121,-2.001596212387085
1763699242877678800,3.079678955078125,0.802193820476532,-9.375677108764648,-2.9087750911712646
1763699242887266600,3.0892666015625,0.924227774143219,-8.894720077514648,-2.511566400527954
1763699242896855300,3.098855224609375,1.328913927078247,-11.1978120803833,-2.5761725902557373
1763699242906443000,3.108443115234375,1.9800606966018677,-12.164811134338379,-2.856132984161377
1763699242916030200,3.1180302734375,1.7120646238327026,-11.693425178527832,-2.9327032566070557
1763699242925618000,3.127617919921875,0.8787640929222107,-9.574581146240234,-3.059821844100952
1763699242944794400,3.14679443359375,0.6107679605484009,-6.222834587097168,-2.896811008453369
1763699242954381600,3.156381591796875,0.263509601354599,-5.135894775390625,-2.1882362365722656
1763699242963969300,3.16596923828125,0.029012974351644516,-5.61954402923584,-2.2600209712982178
1763699242973558000,3.17555810546875,0.5102694034576416,-5.818148136138916,-1.9872392416000366
1763699242983145700,3.185145751953125,0.24197418987751007,-6.778268337249756,-2.183450698852539
1763699243002320600,3.204320556640625,1.2714861631393433,-10.357333183288574,-2.8896324634552
1763699243011909400,3.213909423828125,2.094916343688965,-10.819446563720703,-2.848954439163208
1763699243021497000,3.2234970703125,1.7024933099746704,-10.778768539428711,-2.7675983905792236
1763699243031084300,3.233084228515625,0.6897311210632324,-9.86411190032959,-1.934597134590149
1763699243040672000,3.242672119140625,0.14865410327911377,-9.062217712402344,-1.1611171960830688
1763699243050260700,3.2522607421875,-0.04995017126202583,-9.404391288757324,-0.8045865893363953
1763699243059848400,3.261848388671875,-1.165603756904602,-9.811470031738281,-1.4844473600387573
1763699243069435600,3.271435546875,-0.6436693072319031,-9.375677108764648,-2.30069899559021
1763699243079023400,3.2810234375,0.30658039450645447,-9.63200855255127,-2.252842426300049
1763699243088612000,3.290612060546875,0.17497515678405762,-10.012765884399414,-1.3743774890899658
1763699243098199800,3.30019970703125,0.11276176571846008,-9.787542343139648,-0.7779664397239685
1763699243107787000,3.309787109375,0.12233305722475052,-10.115657806396484,-0.6702894568443298
1763699243117374700,3.319374755859375,0.6107679605484009,-10.898409843444824,-1.0773683786392212
1763699243126963500,3.32896337890625,0.9409775137901306,-12.356535911560059,-1.599302887916565
1763699243136551200,3.33855126953125,1.2236297130584717,-12.80907917022705,-1.7261223793029785
1763699243146138400,3.348138427734375,1.6522440910339355,-12.916755676269531,-1.9202401638031006
1763699243155726000,3.35772607421875,1.7575281858444214,-12.39721393585205,-1.8146568536758423
1763699243165314800,3.367314697265625,2.4373888969421387,-12.856935501098633,-1.6208382844924927
1763699243174902500,3.376902587890625,4.01754903793335,-13.419548034667969,-1.6256239414215088
1763699243184489700,3.38648974609375,4.01037073135376,-14.02283763885498,-1.2687941789627075
1763699243194077400,3.396077392578125,2.8325037956237793,-14.568700790405273,-0.9074779748916626
1763699243203666200,3.405666259765625,1.4270195960998535,-14.609378814697266,-0.5745765566825867
1763699243213254000,3.41525390625,-0.08614161610603333,-13.960624694824219,-0.34725838899612427
1763699243222841000,3.424841064453125,-0.8473583459854126,-13.10100269317627,-0.3448655605316162
1763699243232428800,3.4344287109375,-1.0842477083206177,-11.817852020263672,-0.27308088541030884
1763699243242017500,3.444017578125,-0.8760721683502197,-10.345368385314941,-0.24915266036987305
1763699243251605200,3.453605224609375,0.19172491133213043,-8.161917686462402,-0.6056832075119019
1763699243261192400,3.4631923828125,1.1853444576263428,-4.7264227867126465,-0.9577272534370422
1763699243270780200,3.4727802734375,2.1837496757507324,-2.3395824432373047,-1.9609181880950928
1763699243280369000,3.482368896484375,2.1020946502685547,-1.6908283233642578,-3.270390272140503
1763699243289956600,3.49195654296875,2.635993242263794,-2.1119651794433594,-4.335794448852539
1763699243299543800,3.501543701171875,3.6511483192443848,-3.5054850578308105,-4.836193561553955
1763699243309131500,3.511131591796875,3.246462106704712,-4.941776752471924,-5.07308292388916
1763699243318720300,3.52072021484375,2.322533369064331,-5.624329566955566,-4.733302116394043
1763699243328308000,3.530307861328125,1.5179468393325806,-5.686542987823486,-2.9159533977508545
1763699243337895200,3.539895263671875,1.316949725151062,-6.045466423034668,-1.6423736810684204
1763699243347483000,3.54948291015625,0.9960124492645264,-8.116454124450684,-1.280758261680603
1763699243357071600,3.559071533203125,0.7040880918502808,-10.122836112976074,-1.1682956218719482
1763699243366659300,3.568659423828125,1.6378871202468872,-11.801102638244629,-1.0510473251342773
1763699243376246500,3.57824658203125,1.474876046180725,-13.08664608001709,-0.8404789566993713
1763699243385834200,3.587834228515625,1.1207382678985596,-13.407583236694336,-0.9481559991836548
1763699243395423000,3.597423095703125,0.8883354067802429,-12.729816436767578,-1.2352946996688843
1763699243405010700,3.6070107421875,0.8955138921737671,-11.238490104675293,-1.3286148309707642
1763699243424185600,3.626185546875,1.5155540704727173,-8.952147483825684,-1.0390832424163818
1763699243433774300,3.6357744140625,1.2882359027862549,-8.53310489654541,-0.7301099896430969
1763699243443362000,3.645362060546875,0.9337990283966064,-8.475676536560059,-0.5650052428245544
1763699243452949200,3.65494921875,0.6921239495277405,-8.573782920837402,-0.4621138870716095
1763699243462537000,3.664536865234375,0.36640095710754395,-8.645566940307617,-0.368793785572052
1763699243472125700,3.674125732421875,0.28983065485954285,-8.54746150970459,-0.263509601354599
1763699243481713400,3.68371337890625,0.29700911045074463,-8.264809608459473,-0.07896314561367035
1763699243491300400,3.69330029296875,0.41186460852622986,-8.001599311828613,0.14117653667926788
1763699243500888300,3.702888427734375,0.7758727669715881,-8.018348693847656,0.31106695532798767
1763699243510477000,3.71247705078125,1.3600205183029175,-8.55463981628418,0.31106695532798767
1763699243520064800,3.722064697265625,1.903490424156189,-9.792327880859375,0.09571290761232376
1763699243529652000,3.73165185546875,2.1547367572784424,-11.166705131530762,-0.4094717800617218
1763699243539239700,3.74123974609375,2.0829520225524902,-11.944671630859375,-1.134796142578125
1763699243548828400,3.750828369140625,1.8843477964401245,-11.79153060913086,-1.9369899034500122
1763699243558416100,3.760416015625,1.5155540704727173,-10.960622787475586,-2.5235304832458496
1763699243568003000,3.770003173828125,1.1757732629776,-9.940682411193848,-2.580958366394043
1763699243577591000,3.779591064453125,0.7447660565376282,-9.06700325012207,-2.2887349128723145
1763699243587179800,3.7891796875,0.1295115202665329,-8.43978500366211,-2.035095691680908
1763699243596767500,3.798767578125,-0.31106695532798767,-7.920242786407471,-1.970489501953125
1763699243606354400,3.8083544921875,-0.7851449251174927,-7.479664325714111,-1.8696918487548828
1763699243615942400,3.8179423828125,-1.2448660135269165,-7.146762847900391,-1.7356936931610107
1763699243625531100,3.82753125,-1.3046865463256836,-6.931408882141113,-1.6064813137054443
1763699243635118800,3.837118896484375,-1.09381902217865,-7.043871879577637,-1.561017632484436
1763699243644705800,3.846705810546875,-0.42831525206565857,-7.494021415710449,-1.5945172309875488
1763699243654293800,3.856293701171875,0.5772684812545776,-8.643174171447754,-2.693420886993408
1763699243663882500,3.865882568359375,1.6354942321777344,-13.089038848876953,-10.229914665222168
1763699243673470200,3.87547021484375,-0.5000999569892883,-9.275178909301758,-3.006880760192871
1763699243683057200,3.88505712890625,7.060322284698486,-6.773482799530029,-2.825026273727417
1763699243692645000,3.89464501953125,-0.3565305769443512,-9.919147491455078,-2.9542386531829834
1763699243702233900,3.90423388671875,-1.9917258024215698,-11.583056449890137,1.2759727239608765
1763699243711821600,3.913821533203125,2.104487419128418,-13.010075569152832,2.683849811553955
1763699243721408500,3.923408447265625,4.237689018249512,-12.174382209777832,1.903191328048706
1763699243730996500,3.93299658203125,3.098107099533081,-10.000802040100098,0.8736793398857117
1763699243740585200,3.942585205078125,1.053739309310913,-8.801100730895996,0.6607181429862976
1763699243750173000,3.9521728515625,-0.13639089465141296,-8.612068176269531,-0.2153540402650833
1763699243759760000,3.961759765625,-0.3684946894645691,-9.287142753601074,-1.434198021888733
1763699243769347800,3.971347900390625,-0.43549370765686035,-10.067801475524902,-2.6383860111236572
1763699243778936300,3.980936279296875,0.04815555736422539,-10.50808048248291,-2.755634307861328
1763699243788524300,3.990524169921875,0.7016952633857727,-10.103693962097168,-3.037987470626831
1763699243798111200,4.000111328125,1.0223335027694702,-9.380462646484375,-3.583850145339966
1763699243807699200,4.00969921875,0.890728235244751,-8.887541770935059,-4.311866283416748
1763699243817287700,4.01928759765625,0.25393831729888916,-8.523533821105957,-4.247260093688965
1763699243826875600,4.028875732421875,-0.550349235534668,-8.64078140258789,-3.7253258228302
1763699243836462600,4.038462646484375,-0.8282157182693481,-8.829814910888672,-3.1483564376831055
1763699243846050600,4.048050537109375,-0.8258228898048401,-8.87527847290039,-2.525923490524292
1763699243855639000,4.05763916015625,-0.2799602448940277,-8.8681001663208,-2.3198416233062744
1763699243865227000,4.06722705078125,0.3568296730518341,-9.05264663696289,-1.9298114776611328
1763699243874814000,4.07681396484375,0.15583257377147675,-9.083752632141113,-1.4174482822418213
1763699243884402000,4.08640185546875,0.3975076675415039,-9.603294372558594,-2.0159530639648438
1763699243893990400,4.095990478515625,1.0920244455337524,-10.02712345123291,-2.283949136734009
1763699243903578400,4.105578369140625,1.3695918321609497,-9.785149574279785,-2.152343988418579
1763699243913165300,4.115165283203125,1.2523435354232788,-9.60807991027832,-2.3030917644500732
1763699243922753300,4.124753173828125,0.5246263742446899,-9.457332611083984,-2.2959132194519043
1763699243941929700,4.1439296875,-0.34217363595962524,-8.267202377319336,-1.1682956218719482
1763699243951516700,4.1535166015625,-0.29431718587875366,-7.623233795166016,-0.6678966283798218
1763699243961104600,4.163104736328125,0.06969095766544342,-7.419844150543213,-0.6080760359764099
1763699243970693000,4.172693115234375,0.5078766345977783,-7.671090126037598,-0.6272186636924744
1763699243980281000,4.182281005859375,0.8237292170524597,-8.147561073303223,-0.4956133961677551
1763699243999456000,4.2014560546875,0.6777670383453369,-9.61765193939209,-0.8548358678817749
1763699244009044500,4.21104443359375,0.5581258535385132,-10.024730682373047,-1.067797064781189
1763699244018632400,4.220632568359375,0.5748756527900696,-9.921540260314941,-1.3743774890899658
1763699244028219400,4.230219482421875,0.41186460852622986,-9.87368392944336,-1.7620147466659546
1763699244037807000,4.23980712890625,0.6610172390937805,-10.108479499816895,-2.1308085918426514
1763699244047395800,4.249395751953125,0.7878368496894836,-9.866504669189453,-2.3700907230377197
1763699244056983600,4.258983642578125,0.5772684812545776,-9.361320495605469,-2.0829520225524902
1763699244066570800,4.26857080078125,0.48394837975502014,-9.440582275390625,-1.3719847202301025
1763699244076158500,4.278158447265625,-0.03798605874180794,-9.689435958862305,-1.2783654928207397
1763699244085747200,4.287747314453125,-0.5910272002220154,-10.156335830688477,-1.7715860605239868
1763699244095335000,4.2973349609375,-1.3549357652664185,-10.759626388549805,-2.33180570602417
1763699244104922000,4.306922119140625,-1.7668004035949707,-11.456236839294434,-1.7404793500900269
1763699244114509800,4.316509765625,-1.350150227546692,-12.052348136901855,-1.1802598237991333
1763699244124098600,4.3260986328125,-0.6966105103492737,-12.892827033996582,-0.9744769930839539
1763699244133686300,4.335686279296875,-0.1818545162677765,-13.146466255187988,-1.036690354347229
1763699244143273500,4.3452734375,0.3209373354911804,-12.595818519592285,-0.4668995141983032
1763699244152861200,4.354861083984375,1.1279168128967285,-12.277572631835938,-0.7444669604301453
1763699244162450000,4.364449951171875,2.080559253692627,-12.140883445739746,-1.1419745683670044
1763699244172037600,4.37403759765625,2.643171787261963,-11.542378425598145,-0.981655478477478
1763699244181624800,4.383624755859375,2.6958138942718506,-10.395618438720703,0.11964113265275955
1763699244191212500,4.393212646484375,2.4517459869384766,-8.894720077514648,0.4214358925819397
1763699244200801300,4.40280126953125,2.669492721557617,-7.474878787994385,0.37118661403656006
1763699244210389000,4.412388916015625,2.533101797103882,-6.653841495513916,0.4381856322288513
1763699244219976200,4.42197607421875,2.1981067657470703,-6.663413047790527,1.0199406147003174
1763699244229564000,4.43156396484375,1.9872392416000366,-7.494021415710449,1.374078392982483
1763699244239152600,4.441152587890625,2.525923490524292,-8.32253646850586,0.9409775137901306
1763699244248740400,4.450740234375,2.604886531829834,-9.435498237609863,0.42382872104644775
1763699244258327600,4.46032763671875,2.188535451889038,-10.93430233001709,-0.009571290574967861
1763699244267915300,4.469915283203125,1.2475578784942627,-11.417951583862305,0.14117653667926788
1763699244277504000,4.47950390625,0.5940182209014893,-10.510473251342773,1.2305090427398682
1763699244287091700,4.489091796875,0.9290133714675903,-11.283953666687012,-0.10289137065410614
1763699244296679000,4.498678955078125,1.3025928735733032,-11.903993606567383,-0.8883354067802429
1763699244306266600,4.5082666015625,1.4557334184646606,-12.23659610748291,-0.20338992774486542
1763699244315855400,4.51785546875,1.572981834411621,-12.471391677856445,0.3640081584453583
1763699244325443000,4.527443115234375,0.9960124492645264,-11.985349655151367,1.0103694200515747
1763699244335030300,4.5370302734375,0.13908281922340393,-11.224132537841797,1.596909999847412
1763699244344618000,4.546617919921875,-0.1698904037475586,-10.924731254577637,1.043868899345398
1763699244354206700,4.556206787109375,0.4381856322288513,-10.445867538452148,1.0534402132034302
1763699244363794400,4.56579443359375,1.3600205183029175,-9.7037935256958,0.675075113773346
1763699244373381400,4.57538134765625,1.9178473949432373,-9.536295890808105,-0.18903298676013947
1763699244382969300,4.58496923828125,2.149951219558716,-10.16590690612793,0.2871387302875519
1763699244392558000,4.59455810546875,2.3033909797668457,-11.470593452453613,0.44775694608688354
1763699244402145800,4.604145751953125,2.6503500938415527,-12.626925468444824,0.5027918815612793
1763699244411732700,4.613732666015625,3.193819999694824,-13.175180435180664,0.9672985672950745
1763699244421320700,4.62332080078125,3.9194436073303223,-12.540783882141113,0.797109067440033
1763699244430909400,4.632909423828125,4.702195644378662,-11.681161880493164,1.8337994813919067
1763699244440497200,4.6424970703125,4.838586330413818,-11.164312362670898,2.5256242752075195
1763699244450084000,4.652083984375,4.489234447479248,-10.48654556274414,2.2504496574401855
1763699244459672000,4.661672119140625,3.536292791366577,-9.076574325561523,0.9984052777290344
1763699244469260500,4.671260498046875,2.947359323501587,-6.933801651000977,1.048654556274414
1763699244478848500,4.6808486328125,2.5522444248199463,-5.135894775390625,0.3927220106124878
1763699244488435500,4.690435546875,1.6689938306808472,-3.586841106414795,-1.0295119285583496
1763699244498023400,4.7000234375,1.5394822359085083,-2.191227436065674,-1.319043517112732
1763699244507612000,4.70961181640625,1.810170292854309,-1.4177473783493042,-1.0079765319824219
1763699244517200000,4.719199951171875,2.090130567550659,-0.9388837814331055,-0.9170492887496948
1763699244526786800,4.728786865234375,2.5857439041137695,-0.9364909529685974,-0.08614161610603333
1763699244536374800,4.738374755859375,2.9760732650756836,-1.534995675086975,0.610468864440918
1763699244545963300,4.74796337890625,3.565006732940674,-2.1960129737854004,0.4501497745513916
1763699244555551200,4.75755126953125,4.3310089111328125,-2.5022943019866943,0.9960124492645264
1763699244565138200,4.76713818359375,4.520340919494629,-2.734697103500366,0.8688937425613403
1763699244574726100,4.77672607421875,4.383651256561279,-3.5748770236968994,-0.4094717800617218
1763699244584314600,4.786314697265625,4.776372909545898,-5.257928848266602,-2.190629243850708
1763699244593902600,4.795902587890625,5.128417015075684,-7.070192813873291,-3.5479576587677
1763699244603489500,4.805489501953125,4.477270126342773,-8.552247047424316,-3.5886356830596924
1763699244613077500,4.815077392578125,4.73090934753418,-8.466105461120605,-3.160320520401001
1763699244622666000,4.824666015625,3.402294635772705,-7.8556365966796875,-1.6734803915023804
1763699244632254000,4.83425390625,4.187439441680908,-8.399106979370117,-1.9226330518722534
1763699244641841000,4.8438408203125,5.6431732177734375,-8.698209762573242,-2.2815563678741455
1763699244651428600,4.8534287109375,6.244070529937744,-8.743673324584961,-2.183450698852539
1763699244661017300,4.863017333984375,6.650850772857666,-8.003992080688477,-1.5897315740585327
1763699244670605000,4.87260498046875,8.338987350463867,-7.180262565612793,-1.220937728881836
1763699244680192300,4.882192138671875,9.588638305664062,-6.509973049163818,-0.8739784955978394
1763699244689780000,4.891780029296875,7.086643218994141,-7.422236919403076,0.035892341285943985
1763699244699368700,4.90136865234375,10.96750259399414,-5.760720729827881,1.450947880744934
1763699244708956400,4.910956298828125,11.01296615600586,-5.040181636810303,2.6192433834075928
1763699244718543600,4.920543701171875,9.488140106201172,-3.806980848312378,-0.41186460852622986
1763699244728131300,4.93013134765625,9.222237586975098,-2.586043119430542,-4.632504463195801
1763699244737720000,4.939719970703125,9.9140625,-3.7950167655944824,-5.159224510192871
1763699244747307800,4.949307861328125,9.952347755432129,-6.218048572540283,-4.235296249389648
1763699244756895000,4.95889501953125,9.298808097839355,-7.788637638092041,-3.8066816329956055
1763699244766482700,4.968482666015625,8.561519622802734,-8.738887786865234,-3.200998544692993
1763699244776071400,4.978071533203125,8.0922269821167,-8.40867805480957,-2.197807550430298
1763699244785659100,4.9876591796875,7.692326545715332,-7.8795647621154785,-1.1682956218719482
1763699244795246300,4.997246337890625,6.854539394378662,-8.102097511291504,0.4668995141983032
1763699244804834000,5.006833984375,6.595815658569336,-7.391129970550537,2.6862425804138184
1763699244814422800,5.0164228515625,7.266404151916504,-7.235596656799316,3.88803768157959
1763699244824010500,5.026010498046875,9.504889488220215,-9.346963882446289,3.7372899055480957
1763699244833597700,5.03559765625,10.507781982421875,-12.507284164428711,4.713860511779785
1763699244843185400,5.045185302734375,9.933204650878906,-15.112170219421387,3.8521454334259033
1763699244852774100,5.054774169921875,5.104488849639893,-13.72343635559082,0.7636095285415649
1763699244862361900,5.06436181640625,0.6418746709823608,-10.182656288146973,1.8409779071807861
1763699244871949000,5.073948974609375,1.0609177350997925,-7.70458984375,5.539982795715332
1763699244881536800,5.083536865234375,1.6474584341049194,-6.354439735412598,5.951847076416016
1763699244891125500,5.09312548828125,0.7615157961845398,-6.320940017700195,4.07467794418335
1763699244900713200,5.102713134765625,-0.638883650302887,-7.0462646484375,3.0092735290527344
1763699244910300200,5.112300048828125,-1.812264084815979,-7.6854472160339355,3.01405930519104
1763699244919888100,5.12188818359375,-0.921535849571228,-8.808279037475586,2.9781668186187744
1763699244929476900,5.131476806640625,0.6538388133049011,-9.818648338317871,1.9965113401412964
1763699244939064600,5.141064697265625,1.257129192352295,-9.888040542602539,0.29431718587875366
1763699244948651500,5.150651611328125,0.6921239495277405,-10.15155029296875,-1.350150227546692
1763699244958239500,5.160239501953125,0.014656038954854012,-11.003693580627441,-1.158724308013916
1763699244967828200,5.169828125,-0.5168496966362,-11.858530044555664,-2.0374884605407715
1763699244977416000,5.179416015625,-0.03559323772788048,-12.344572067260742,-2.832204818725586
1763699244987003000,5.1890029296875,0.07447660714387894,-12.598211288452148,-3.5048868656158447
1763699244996590800,5.1985908203125,0.49351966381073,-12.471391677856445,-3.91914439201355
1763699245006179300,5.208179443359375,0.8500502705574036,-12.040384292602539,-3.952643871307373
1763699245015767300,5.217767333984375,1.0920244455337524,-10.855339050292969,-3.722932815551758
1763699245025354200,5.227354248046875,1.2523435354232788,-9.840184211730957,-3.239283561706543
1763699245034942200,5.236942138671875,1.0920244455337524,-9.380462646484375,-2.6168506145477295
1763699245044530700,5.24653076171875,0.8548358678817749,-8.42303466796875,-2.035095691680908
1763699245054118700,5.25611865234375,0.6251249313354492,-7.776673793792725,-2.1379871368408203
1763699245063705600,5.26570556640625,0.20129621028900146,-6.275476455688477,-2.5833511352539062
1763699245073293600,5.27529345703125,-1.4386845827102661,-3.8213376998901367,-2.8034908771514893
1763699245082882000,5.284882080078125,-1.225723385810852,-2.914158821105957,-1.2065808773040771
1763699245092469800,5.2944697265625,-1.3525429964065552,-1.9755741357803345,1.2065808773040771
1763699245102057000,5.304056884765625,-1.2951152324676514,-1.2837493419647217,2.410768747329712
1763699245111644700,5.313644775390625,-1.1440683603286743,-1.841576099395752,2.7101707458496094
1763699245121233400,5.3232333984375,-1.160818099975586,-3.5676984786987305,2.3772692680358887
1763699245130821000,5.332821044921875,-0.9023932218551636,-5.693721294403076,1.5227324962615967
1763699245140408300,5.342408203125,-0.05952146276831627,-7.843672752380371,0.368793785572052
1763699245149996000,5.35199609375,1.2451651096343994,-9.878469467163086,-0.5410770177841187
1763699245159584800,5.361584716796875,2.346461772918701,-11.571091651916504,-1.2640085220336914
1763699245169172500,5.37117236328125,2.9138598442077637,-12.509676933288574,-1.7644076347351074
1763699245178759700,5.380759765625,3.1316065788269043,-12.167203903198242,-2.001596212387085
1763699245188347600,5.39034765625,3.2946176528930664,-10.721341133117676,-1.9513468742370605
1763699245197936000,5.39993603515625,2.9760732650756836,-8.877969741821289,-1.6926229000091553
1763699245207523800,5.40952392578125,1.9896320104599,-7.369594573974609,-1.3887344598770142
1763699245217111000,5.419111083984375,0.9457631707191467,-6.632306098937988,-1.1276177167892456
1763699245226698800,5.42869873046875,0.32572299242019653,-6.596114635467529,-1.1419745683670044
1763699245236287500,5.43828759765625,0.09361918270587921,-7.1371917724609375,-1.477268934249878
1763699245245875200,5.447875244140625,0.41186460852622986,-8.061419486999512,-2.20737886428833
1763699245255462400,5.45746240234375,1.0824531316757202,-9.296713829040527,-3.4019956588745117
1763699245265050000,5.467050048828125,2.0709879398345947,-10.551151275634766,-4.685146808624268
1763699245274638800,5.476638916015625,2.8348965644836426,-11.906386375427246,-6.224628925323486
1763699245284226600,5.4862265625,3.708575963973999,-12.464213371276855,-7.543971538543701
1763699245293813800,5.495813720703125,4.216153621673584,-12.411571502685547,-8.247760772705078
1763699245303401500,5.5054013671875,4.326223373413086,-12.344572067260742,-8.460721969604492
1763699245312990200,5.514990234375,4.070191383361816,-12.564711570739746,-8.300402641296387
1763699245322578000,5.524577880859375,3.1435706615448,-13.256536483764648,-7.804789066314697
1763699245332164900,5.534164794921875,2.449352979660034,-13.958231925964355,-7.46710205078125
1763699245341752800,5.5437529296875,2.525923490524292,-14.348261833190918,-7.127321243286133
1763699245351341600,5.553341552734375,2.8660032749176025,-14.097015380859375,-6.756134510040283
1763699245360929300,5.56292919921875,2.0757737159729004,-13.986946105957031,-6.416353702545166
1763699245370516200,5.57251611328125,1.786242127418518,-13.436297416687012,-5.31984281539917
1763699245380104200,5.582104248046875,2.6072793006896973,-12.739387512207031,-3.5120654106140137
1763699245389693000,5.59169287109375,3.1794631481170654,-12.195918083190918,-1.8553348779678345
1763699245399280600,5.60128076171875,2.8660032749176025,-11.86331558227539,-0.3233301639556885
1763699245408867600,5.61086767578125,2.751147747039795,-12.014063835144043,0.5530411601066589
1763699245418455600,5.62045556640625,2.461317300796509,-12.478569984436035,1.0606186389923096
1763699245428044000,5.6300439453125,1.434198021888733,-13.089038848876953,1.3525429964065552
1763699245437632000,5.639632080078125,0.6705885529518127,-14.209478378295898,0.97926265001297
1763699245447219000,5.649218994140625,0.9290133714675903,-15.715460777282715,0.44775694608688354
1763699245456807000,5.658806884765625,1.5849459171295166,-17.539690017700195,-0.33768710494041443
1763699245466395400,5.6683955078125,4.144368648529053,-19.47877311706543,-1.079761266708374
1763699245475983400,5.6779833984375,5.6671013832092285,-20.714366912841797,-0.26111677289009094
1763699245485570300,5.6875703125,5.779563903808594,-20.568105697631836,1.1228320598602295
1763699245495158300,5.697158203125,5.116453170776367,-19.58196258544922,1.5179468393325806
1763699245504746800,5.706746826171875,4.067798614501953,-18.413368225097656,1.4868401288986206
1763699245514334700,5.716334716796875,3.1866414546966553,-17.374584197998047,1.43389892578125
1763699245523921700,5.725921630859375,3.0765717029571533,-16.66571044921875,1.2903295755386353
1763699245533509600,5.735509521484375,3.9768712520599365,-16.081562042236328,1.2233306169509888
1763699245543098000,5.74509814453125,4.678267478942871,-15.725031852722168,1.194616675376892
1763699245552686000,5.75468603515625,4.66151762008667,-15.439987182617188,0.8401798605918884
1763699245562273000,5.76427294921875,4.237689018249512,-14.992230415344238,0.4621138870716095
1763699245571861000,5.773861083984375,3.7277185916900635,-14.38893985748291,-0.6942176818847656
1763699245581449500,5.783449462890625,3.519542932510376,-13.661222457885742,-2.0207388401031494
1763699245591037400,5.793037353515625,3.433401346206665,-12.591032981872559,-3.5958142280578613
1763699245600624400,5.802624267578125,3.354438304901123,-11.097014427185059,-5.269294738769531
1763699245610212000,5.812212158203125,3.184248685836792,-8.817850112915039,-6.2174506187438965
1763699245619800800,5.82180078125,2.7870402336120605,-6.040680885314941,-6.112166404724121
1763699245629388500,5.831388427734375,2.667099952697754,-3.0338001251220703,-5.159224510192871
1763699245638975700,5.840975830078125,2.5929224491119385,-0.11066804826259613,-3.605684518814087
1763699245648563500,5.8505634765625,2.683849811553955,2.357827663421631,-1.6878372430801392
1763699245658152200,5.860152099609375,2.104487419128418,3.67447829246521,-0.08614161610603333
1763699245667740000,5.869739990234375,1.8317056894302368,4.660919189453125,0.9194421172142029
1763699245677327000,5.8793271484375,1.6211373805999756,5.706881999969482,1.6663018465042114
1763699245686914800,5.888914794921875,0.7256234884262085,6.430112838745117,2.568695068359375
1763699245696503600,5.898503662109375,-0.9957132935523987,5.944070339202881,3.160320520401001
1763699245706091300,5.90809130859375,-1.9869401454925537,4.8212385177612305,3.1339993476867676
1763699245715678500,5.917678466796875,-2.4131617546081543,4.060021877288818,3.722932815551758
1763699245725266200,5.92726611328125,-2.1975085735321045,3.5069806575775146,4.553541660308838
1763699245734855000,5.93685498046875,-1.0172487497329712,3.1214370727539062,6.030810356140137
1763699245744442600,5.946442626953125,0.9840483069419861,3.425325632095337,8.276473999023438
1763699245754029800,5.95602978515625,3.1076784133911133,3.853940010070801,10.165308952331543
1763699245763617500,5.965617431640625,5.1906304359436035,1.153340458869934,9.083154678344727
1763699245773206300,5.975206298828125,7.505686283111572,-1.4608181715011597,7.177570819854736
1763699245782794000,5.9847939453125,8.499305725097656,-3.8886358737945557,4.347758769989014
1763699245792381200,5.994381103515625,4.704588413238525,-5.854040622711182,3.421138286590576
1763699245801969000,6.003968994140625,-0.15314064919948578,-7.422236919403076,5.44426965713501
1763699245811557600,6.0135576171875,-0.46420758962631226,-9.05982494354248,7.704290866851807
1763699245821145300,6.023145263671875,-2.997309446334839,-12.710674285888672,9.052047729492188
1763699245830732300,6.032732177734375,-6.976274490356445,-18.265012741088867,6.882954120635986
1763699245840320300,6.0423203125,-9.741479873657227,-23.522642135620117,8.915657043457031
1763699245849909000,6.051908935546875,-7.814061641693115,-26.175086975097656,6.540780544281006
1763699245859496700,6.06149658203125,-4.622933387756348,-24.319751739501953,0.5889334678649902
1763699245869083600,6.071083740234375,-3.854238986968994,-22.181764602661133,-5.334199905395508
1763699245878671600,6.080671630859375,-4.036392688751221,-17.12064552307129,-8.499007225036621
1763699245888260400,6.09026025390625,-2.3219351768493652,-11.456236839294434,-9.734301567077637
1763699245897848000,6.09984814453125,-1.6683956384658813,-7.465307712554932,-10.019346237182617
1763699245907435000,6.10943505859375,-1.469791293144226,-5.073681354522705,-10.237093925476074
1763699245917023000,6.11902294921875,-1.0148558616638184,-3.799802303314209,-9.652945518493652
1763699245926611700,6.12861181640625,0.7016952633857727,-4.523033142089844,-9.095118522644043
1763699245936199400,6.138199462890625,2.4206392765045166,-6.433403015136719,-7.833503246307373
1763699245945786400,6.147786376953125,2.6383860111236572,-9.047860145568848,-6.339484691619873
1763699245955374300,6.157374267578125,1.9896320104599,-12.562318801879883,-6.246164321899414
1763699245964962800,6.166962890625,0.27786654233932495,-15.506986618041992,-7.364210605621338
1763699245974550800,6.17655078125,-1.6588243246078491,-17.269001007080078,-8.111370086669922
1763699245984137700,6.1861376953125,-2.843869686126709,-18.518951416015625,-8.930013656616211
1763699245993725700,6.1957255859375,-1.89840567111969,-18.767805099487305,-9.207581520080566
1763699246003314200,6.205314208984375,2.0063817501068115,-18.154943466186523,-9.600303649902344
1763699246012902100,6.214902099609375,5.820241928100586,-17.64736557006836,-9.066405296325684
1763699246022489000,6.224489013671875,9.157630920410156,-16.869400024414062,-7.045965194702148
1763699246032076800,6.234076904296875,10.780862808227539,-16.05524253845215,-4.500899314880371
1763699246041665500,6.24366552734375,10.156036376953125,-15.274882316589355,-1.9728822708129883
1763699246051253200,6.253253173828125,6.789933204650879,-14.487045288085938,0.675075113773346
1763699246060840400,6.26284033203125,3.2344980239868164,-13.989338874816895,4.768895626068115
1763699246070428200,6.27242822265625,3.4190444946289062,-14.918052673339844,8.345866203308105
1763699246080017000,6.282016845703125,7.503293514251709,-14.803196907043457,7.76889705657959
1763699246089604600,6.2916044921875,12.595519065856934,-12.277572631835938,2.372483730316162
1763699246099191800,6.30119189453125,15.233905792236328,-10.082158088684082,-2.643171787261963
1763699246108779800,6.31077978515625,13.210773468017578,-7.944170951843262,-6.069095611572266
1763699246118368300,6.3203681640625,6.172286033630371,-6.079265117645264,-8.367402076721191
1763699246127956000,6.3299560546875,-3.5359935760498047,-6.739983081817627,-9.545269012451172
1763699246137543200,6.339543212890625,-7.948358535766602,-5.650650501251221,-10.57956600189209
1763699246147131000,6.349130859375,-7.732705593109131,-2.734697103500366,-10.68963623046875
1763699246156719600,6.3587197265625,-2.95184588432312,-0.07238288223743439,-10.428818702697754
1763699246166307300,6.368307373046875,5.537889003753662,3.3655049800872803,-10.534102439880371
1763699246175894500,6.37789453125,8.257331848144531,4.960022449493408,-8.671588897705078
1763699246185482200,6.387482177734375,1.9130617380142212,3.73669171333313,-5.322235584259033
1763699246195071000,6.397071044921875,-2.0491535663604736,1.0600204467773438,-2.95902419090271
1763699246204658700,6.40665869140625,-2.3365912437438965,-1.6836497783660889,-1.316650629043579
1763699246214246000,6.416245849609375,-3.648456335067749,-4.539782524108887,-1.1850453615188599
1763699246223833600,6.42583349609375,-1.5846468210220337,-9.60807991027832,-3.0355947017669678
1763699246233422300,6.43542236328125,2.676671266555786,-14.633306503295898,-6.296413898468018
1763699246243010000,6.445010009765625,0.28504499793052673,-18.21954917907715,-7.230212688446045
1763699246252597200,6.45459716796875,0.7304090857505798,-24.80579376220703,-6.502495765686035
1763699246262185000,6.46418505859375,1.6019947528839111,-29.557939529418945,-2.307877540588379
1763699246271773700,6.473773681640625,3.84765887260437,-33.558441162109375,4.386044025421143
1763699246281361400,6.483361328125,9.715457916259766,-33.50101089477539,9.585947036743164
1763699246290948400,6.4929482421875,13.548460960388184,-32.878578186035156,10.371091842651367
1763699246300536300,6.502536376953125,13.873885154724121,-32.33510971069336,9.475876808166504
1763699246310125000,6.512125,9.291629791259766,-34.44677734375,6.090631008148193
1763699246319712800,6.521712646484375,2.7942185401916504,-36.23032760620117,3.8473596572875977
1763699246329299700,6.5312998046875,-1.5966109037399292,-32.12214660644531,2.760420083999634
1763699246338887700,6.5408876953125,-3.4184463024139404,-26.091337203979492,0.9146564602851868
1763699246348476400,6.550476318359375,-3.8159539699554443,-19.995922088623047,-2.4131617546081543
1763699246358064000,6.560064208984375,-3.274876832962036,-14.116158485412598,-5.705087184906006
1763699246367651000,6.569651123046875,-1.409970760345459,-8.820243835449219,-7.890930652618408
1763699246377239000,6.579239013671875,1.2116655111312866,-3.6921253204345703,-8.379365921020508
1763699246386827500,6.58882763671875,3.94097900390625,1.5149558782577515,-6.425925254821777
1763699246396415500,6.59841552734375,5.6359944343566895,6.588038921356201,-4.158426761627197
1763699246406002400,6.60800244140625,6.354140758514404,9.154640197753906,-2.0853450298309326
1763699246415590400,6.61759033203125,5.647958755493164,8.251948356628418,-0.857228696346283
1763699246425179000,6.627178955078125,4.678267478942871,7.193722248077393,0.5985047817230225
1763699246434766800,6.636766845703125,3.292224884033203,8.642276763916016,3.100200891494751
1763699246444353800,6.646353759765625,1.0824531316757202,7.840083599090576,4.67078971862793
1763699246453941800,6.655941650390625,-1.3549357652664185,6.3152570724487305,5.891727447509766
1763699246463530200,6.6655302734375,-3.3969109058380127,4.689633369445801,5.7792649269104
1763699246473118200,6.6751181640625,-5.5396833419799805,3.8994035720825195,4.809573650360107
1763699246482705200,6.684705078125,-7.885846138000488,4.5577287673950195,4.486542224884033
1763699246492293000,6.694293212890625,-8.369495391845703,5.941677570343018,5.113760948181152
1763699246501881600,6.703881591796875,-6.9236321449279785,7.34686279296875,6.258128643035889
1763699246511469600,6.713469482421875,-4.124927043914795,7.4739813804626465,8.077570915222168
1763699246521056500,6.723056396484375,-1.896012783050537,6.875476837158203,9.789336204528809
1763699246530644500,6.73264453125,0.11036894470453262,5.989534378051758,10.936097145080566
1763699246540233000,6.74223291015625,3.119642496109009,3.973581075668335,8.621041297912598
1763699246549821000,6.751821044921875,6.562315940856934,0.4782654345035553,4.857728958129883
1763699246559407900,6.761407958984375,7.357331275939941,-3.90777850151062,2.8585257530212402
1763699246568995800,6.770995849609375,8.764909744262695,-9.047860145568848,1.8481563329696655
1763699246578584300,6.780584228515625,4.817050933837891,-13.893326759338379,2.063809633255005
1763699246588172300,6.79017236328125,1.226022481918335,-18.27458381652832,7.2349982261657715
1763699246597759200,6.79975927734375,-6.174080848693848,-27.783960342407227,7.110571384429932
1763699246607347200,6.80934716796875,-13.392329216003418,-37.31008529663086,5.690730571746826
1763699246616935700,6.818935791015625,-13.962120056152344,-37.38665771484375,4.66361141204834
1763699246626523400,6.8285234375,-10.383055686950684,-38.181671142578125,-3.5575289726257324
1763699246636110600,6.838110595703125,-7.45274543762207,-31.921152114868164,-11.206785202026367
1763699246645698300,6.8476982421875,-4.3187456130981445,-20.410179138183594,-13.509876251220703
1763699246655287000,6.857287109375,-0.3756731450557709,-10.098908424377441,-12.501899719238281
1763699246664874800,6.866874755859375,1.470090389251709,-3.0744779109954834,-11.34078311920166
1763699246674462000,6.8764619140625,2.2555344104766846,1.703988790512085,-10.914860725402832
1763699246693638400,6.895638427734375,-0.45224347710609436,5.154139995574951,-9.301200866699219
1763699246703226000,6.90522607421875,-0.7851449251174927,5.371886730194092,-9.09990406036377
1763699246712813300,6.914813232421875,0.29700911045074463,2.7622146606445312,-9.792028427124023
1763699246722401000,6.924401123046875,0.5581258535385132,-4.9995036125183105,-11.135000228881836
1763699246731989800,6.93398974609375,-2.3533411026000977,-14.951552391052246,-12.003893852233887
1763699246741577500,6.943577392578125,-8.048856735229492,-22.07169532775879,-10.948360443115234
1763699246751164700,6.95316455078125,-9.073583602905273,-26.369205474853516,-9.478269577026367
1763699246760752400,6.96275244140625,-4.512564182281494,-27.934709548950195,-8.226224899291992
1763699246770341000,6.972341064453125,1.8436698913574219,-25.753950119018555,-6.667600154876709
1763699246779928800,6.9819287109375,8.89681339263916,-21.05893325805664,-3.6415770053863525
1763699246789516000,6.99151611328125,14.936896324157715,-17.544475555419922,-1.5873386859893799
1763699246799103700,7.001103759765625,16.53619956970215,-15.847065925598145,-0.4262215197086334
1763699246808692500,7.0106923828125,13.727922439575195,-14.231013298034668,2.142772674560547
1763699246818280200,7.0202802734375,6.054738521575928,-11.382059097290039,6.997809886932373
1763699246827867400,7.029867431640625,1.9369899034500122,-12.780065536499023,9.9140625
1763699246837455000,7.039455078125,3.1244282722473145,-13.108181953430176,11.529815673828125
1763699246847043800,7.0490439453125,7.728219032287598,-12.02602767944336,6.945167541503906
1763699246856631600,7.058631591796875,12.789338111877441,-10.30469036102295,0.368793785572052
1763699246866218500,7.068218505859375,12.152547836303711,-8.753244400024414,-4.400400638580322
1763699246875806500,7.077806396484375,4.905585289001465,-6.562615394592285,-7.790432453155518
1763699246885395200,7.087395263671875,-4.428815841674805,-5.933003902435303,-11.072786331176758
1763699246894983000,7.09698291015625,-7.2681989669799805,-4.417748928070068,-13.708780288696289
1763699246904569900,7.10656982421875,-4.495814800262451,-0.9460622668266296,-15.01107406616211
1763699246914157800,7.11615771484375,4.7931227684021,2.1469600200653076,-14.917753219604492
1763699246923746600,7.12574658203125,11.439188003540039,4.909772872924805,-13.114761352539062
1763699246933334300,7.135334228515625,6.768397808074951,4.948058128356934,-8.760123252868652
1763699246942921200,7.144921142578125,0.35443684458732605,3.3894333839416504,-4.77876615524292
1763699246952509200,7.15450927734375,-3.5407793521881104,1.062413215637207,-2.4155545234680176
1763699246962098000,7.164097900390625,-4.914857864379883,-1.3483555316925049,-1.0031908750534058
1763699246971685600,7.173685546875,-5.774479389190674,-4.487140655517578,-1.4916257858276367
1763699246981272600,7.1832724609375,-5.654539108276367,-7.156334400177002,-2.3198416233062744
1763699246990860500,7.192860595703125,4.709373950958252,-12.614960670471191,-6.512066841125488
1763699247000449300,7.20244921875,5.729314804077148,-20.434106826782227,-9.954740524291992
1763699247010037000,7.212037109375,-0.2632105052471161,-27.096921920776367,-9.083154678344727
1763699247019624000,7.2216240234375,1.8197416067123413,-31.549964904785156,-5.858527183532715
1763699247029212000,7.2312119140625,5.480162143707275,-34.13570785522461,-1.4581263065338135
1763699247038800400,7.24080029296875,12.068799018859863,-36.40530014038086,4.46979284286499
1763699247048388400,7.250388427734375,14.113466262817383,-36.35475158691406,8.369794845581055
1763699247057975300,7.259975341796875,13.182060241699219,-34.552059173583984,8.439186096191406
1763699247067563300,7.269563232421875,9.442377090454102,-36.64458465576172,4.610969066619873
1763699247077151700,7.27915185546875,2.4972095489501953,-36.78575897216797,0.9074779748916626
1763699247086739700,7.28873974609375,-2.5112674236297607,-31.959436416625977,-0.7803592681884766
1763699247096326700,7.29832666015625,-4.536492824554443,-25.58136749267578,-1.7285152673721313
1763699247105914600,7.30791455078125,-5.082355499267578,-19.220348358154297,-3.555136203765869
1763699247115503000,7.317503173828125,-4.931607246398926,-13.124931335449219,-5.947061538696289
1763699247125091000,7.327091064453125,-3.3346974849700928,-8.059026718139648,-7.371389389038086
1763699247134678000,7.336677978515625,-0.009272187948226929,-3.1151559352874756,-6.964310169219971
1763699247144266000,7.346265869140625,2.597707986831665,2.022533416748047,-5.539982795715332
1763699247153854500,7.3558544921875,4.29033088684082,6.149853229522705,-3.2823543548583984
1763699247163442200,7.365442138671875,6.071488380432129,9.015557289123535,-0.21296121180057526
1763699247173029400,7.375029296875,5.760421276092529,10.330114364624023,1.8553348779678345
1763699247182617000,7.3846171875,3.9314076900482178,9.78664493560791,2.7915267944335938
1763699247192205800,7.394205810546875,1.5897315740585327,9.765109062194824,4.721039295196533
1763699247201793500,7.40379345703125,-0.5982056856155396,7.53140926361084,5.365007400512695
1763699247211380700,7.413380615234375,-2.0635104179382324,5.079663276672363,5.341079235076904
1763699247220968400,7.422968505859375,-3.906881093978882,3.8371901512145996,3.897608995437622
1763699247230557200,7.43255712890625,-7.392924785614014,3.8611185550689697,3.177070379257202
1763699247240145000,7.442144775390625,-9.889835357666016,5.017449855804443,4.500899314880371
1763699247249732000,7.451732177734375,-8.515756607055664,7.722835063934326,6.449554443359375
1763699247259319800,7.46131982421875,-4.591826438903809,8.515158653259277,8.848658561706543
1763699247268908500,7.470908447265625,-2.1113669872283936,8.05812931060791,11.979965209960938
1763699247278496300,7.480496337890625,-1.1201400756835938,7.052545547485352,13.777873039245605
1763699247288083500,7.49008349609375,0.6227321028709412,4.648955345153809,12.473186492919922
1763699247297671200,7.499671142578125,4.369294166564941,1.9268203973770142,7.321139812469482
1763699247307260000,7.509260009765625,7.790731430053711,-1.389033555984497,3.61017107963562
1763699247316847600,7.51884765625,7.357331275939941,-7.374380111694336,2.482553482055664
1763699247326434800,7.528434814453125,6.602993965148926,-12.373286247253418,1.9558334350585938
1763699247336022500,7.5380224609375,0.09361918270587921,-14.910874366760254,2.9877381324768066
1763699247345611300,7.547611328125,-3.483351469039917,-18.837196350097656,6.140880107879639
1763699247355199000,7.557198974609375,-11.5585298538208,-26.49363136291504,6.643671989440918
1763699247364786200,7.5667861328125,-15.137594223022461,-34.434810638427734,6.28205680847168
1763699247374374000,7.576373779296875,-14.5103759765625,-36.400516510009766,5.118546962738037
1763699247383962600,7.585962646484375,-9.863513946533203,-39.33561325073242,-3.7923247814178467
1763699247393550300,7.59555029296875,-7.311269760131836,-35.83072280883789,-11.709576606750488
1763699247403137500,7.605137451171875,-1.8649061918258667,-23.261526107788086,-14.331212997436523
1763699247412725200,7.614725341796875,2.243570327758789,-11.90160083770752,-13.35434341430664
1763699247422314000,7.62431396484375,2.698206663131714,-5.193322658538818,-12.588340759277344
1763699247431901700,7.633901611328125,2.0398812294006348,-1.2287144660949707,-12.06640625
1763699247441489000,7.643489013671875,-0.0810568705201149,1.866999864578247,-11.477473258972168
1763699247451076600,7.65307666015625,-1.831406593322754,4.0695929527282715,-11.5014009475708
1763699247460665300,7.662665283203125,-0.8234301209449768,3.7342989444732666,-11.709576606750488
1763699247470253000,7.672253173828125,-0.9047860503196716,-0.1178465187549591,-12.00628662109375
1763699247479840300,7.68184033203125,-0.8330013751983643,-7.446165084838867,-13.667802810668945
1763699247489428000,7.691427978515625,-3.217449188232422,-16.203895568847656,-14.996716499328613
1763699247499016700,7.7010166015625,-5.448756217956543,-22.339691162109375,-13.438092231750488
1763699247508604400,7.7106044921875,-4.091427803039551,-26.37638282775879,-10.457531929016113
1763699247518191600,7.720191650390625,0.37836506962776184,-27.46092987060547,-5.50648307800293
1763699247527779300,7.729779296875,8.726624488830566,-23.881567001342773,-1.220937728881836
1763699247537368000,7.7393681640625,13.486247062683105,-20.03420639038086,0.6822535395622253
1763699247546955800,7.748955810546875,11.611471176147461,-17.51576042175293,3.006880760192871
1763699247556542700,7.758542724609375,5.657529830932617,-16.203895568847656,8.075178146362305
1763699247566130700,7.768130615234375,5.288736343383789,-19.131813049316406,12.032608032226562
1763699247575719400,7.777719482421875,9.466604232788086,-18.86351776123047,12.810873031616211
1763699247585307100,7.78730712890625,16.026227951049805,-16.766508102416992,4.766502857208252
1763699247594894000,7.79689404296875,18.446868896484375,-13.951053619384766,-2.0231316089630127
1763699247604482000,7.80648193359375,13.052847862243652,-10.580163955688477,-7.532007694244385
1763699247614070800,7.81607080078125,-0.363709032535553,-7.546663284301758,-11.587542533874512
1763699247623658500,7.825658447265625,-12.44686508178711,-6.62004280090332,-13.651053428649902
1763699247633245400,7.835245361328125,-14.711671829223633,-3.1630125045776367,-15.276677131652832
1763699247642833400,7.84483349609375,-7.287341594696045,0.885344386100769,-15.078072547912598
1763699247652422100,7.854422119140625,3.9696927070617676,4.7350969314575195,-14.383854866027832
1763699247662009900,7.864009765625,12.74866008758545,8.184948921203613,-12.241082191467285
1763699247671596800,7.8735966796875,8.963812828063965,8.354839324951172,-7.9316086769104
1763699247681184800,7.883184814453125,3.371187925338745,6.690930366516113,-4.618147850036621
1763699247690773200,7.892773193359375,0.5581258535385132,4.897809028625488,-2.8202404975891113
1763699247700361200,7.902361328125,-2.341377019882202,3.142972469329834,-1.4318052530288696
1763699247709948200,7.9119482421875,-4.59421968460083,1.1222338676452637,-1.072582721710205
1763699247719536000,7.9215361328125,-6.037689685821533,-1.4847464561462402,-2.255235433578491
1763699247729124600,7.93112451171875,-7.493422985076904,-3.7710886001586914,-1.8242281675338745
1763699247738712600,7.940712646484375,-3.2533414363861084,-7.276274681091309,-1.0103694200515747
1763699247748299500,7.950299560546875,9.033205032348633,-16.867006301879883,-6.725028038024902
1763699247757887500,7.959887451171875,-0.49292147159576416,-24.305395126342773,-9.923633575439453
1763699247767476000,7.96947607421875,0.25633111596107483,-29.045576095581055,-10.215558052062988
1763699247777064000,7.97906396484375,9.933204650878906,-39.227935791015625,-10.26341438293457
1763699247786651000,7.98865087890625,19.27029800415039,-50.81278610229492,-4.905585289001465
1763699247796238800,7.99823876953125,20.962921142578125,-53.47749328613281,-0.7181459069252014
1763699247805827300,8.007827392578125,17.92254066467285,-47.047080993652344,1.561017632484436
1763699247815415300,8.017415283203125,7.716254711151123,-44.9043083190918,-2.231307029724121
1763699247825002200,8.027002197265626,-2.6189444065093994,-37.20719528198242,-2.6264219284057617
1763699247834590200,8.036590087890625,-6.887740135192871,-28.858936309814453,-2.3222343921661377
1763699247844178700,8.0461787109375,-7.34476900100708,-22.090837478637695,-1.0319048166275024
1763699247853766700,8.0557666015625,-8.206783294677734,-17.048860549926758,-1.2616157531738281
1763699247863352300,8.065352294921874,-8.292924880981445,-12.339786529541016,-2.7891337871551514
1763699247872940000,8.07493994140625,-6.212365627288818,-6.7280192375183105,-3.811467409133911
1763699247882528800,8.08452880859375,-1.342971682548523,-0.6661019921302795,-3.308675527572632
1763699247892116500,8.094116455078124,2.767897605895996,4.9863433837890625,-1.1515458822250366
1763699247901703700,8.10370361328125,4.915156841278076,9.049057006835938,0.7947162389755249
1763699247911291400,8.11329150390625,6.856932163238525,11.354840278625488,3.2512478828430176
1763699247920880000,8.122880126953126,6.299105644226074,13.873286247253418,5.125725269317627
1763699247930467800,8.1324677734375,3.7755749225616455,13.992927551269531,6.451947212219238
1763699247940055000,8.142054931640626,0.6059823632240295,10.433006286621094,5.800800323486328
1763699247949642800,8.151642822265625,-1.7282161712646484,6.849155902862549,5.650052547454834
1763699247959231500,8.1612314453125,-3.8781673908233643,4.452444553375244,5.219045162200928
1763699247968819200,8.170819091796876,-6.389733791351318,3.0305099487304688,3.4019956588745117
1763699247978406400,8.180406494140625,-9.308079719543457,3.245863914489746,2.9877381324768066
1763699247987994000,8.189994140625,-10.028618812561035,5.493920803070068,5.302793979644775
1763699247997582800,8.199582763671875,-8.077570915222168,8.73320484161377,8.163712501525879
1763699248007170600,8.209170654296875,-4.239782810211182,8.57767105102539,9.779765129089355
1763699248016757800,8.2187578125,-2.7074787616729736,8.08205795288086,11.556435585021973
1763699248026345500,8.228345458984375,-2.061117649078369,6.597609996795654,12.892229080200195
1763699248035934200,8.237934326171874,-0.9334999322891235,4.751846790313721,13.162618637084961
1763699248045522000,8.24752197265625,-0.23449662327766418,2.790928602218628,10.818848609924316
1763699248055109000,8.257109130859375,3.605684518814087,-0.7043871879577637,6.868597507476807
1763699248064696800,8.26669677734375,10.730612754821777,-7.5897345542907715,5.468197822570801
1763699248074285600,8.27628564453125,19.500009536743164,-17.817256927490234,2.537588357925415
1763699248083873300,8.285873291015625,11.819945335388184,-18.6409854888916,1.9725831747055054
1763699248093460200,8.295460205078125,-1.9797616004943848,-17.6784725189209,3.1722846031188965
1763699248103048200,8.305048095703125,-14.70210075378418,-18.454345703125,4.2592244148254395
1763699248112637000,8.314636962890624,-19.76561164855957,-26.9342098236084,6.116951942443848
1763699248122224600,8.324224609375,-17.608482360839844,-35.80410385131836,4.754538536071777
1763699248131811600,8.3338115234375,-11.45563793182373,-39.44807434082031,0.36640095710754395
1763699248141399600,8.343399658203126,-10.74437141418457,-42.21567153930664,-7.697112083435059
1763699248150988300,8.35298828125,-12.307782173156738,-35.06681442260742,-13.428520202636719
1763699248160576000,8.362575927734374,-1.8409779071807861,-20.953649520874023,-16.346866607666016
1763699248170163000,8.372162841796875,2.923431158065796,-10.381260871887207,-15.743577003479004
1763699248179751000,8.3817509765625,4.216153621673584,-3.2925238609313965,-14.25434398651123
1763699248189339600,8.391339599609376,1.7336000204086304,1.5915261507034302,-12.245867729187012
1763699248198927400,8.40092724609375,-0.8760721683502197,5.048556804656982,-11.510972023010254
1763699248208514300,8.410514404296874,-3.399303674697876,6.611967086791992,-11.802896499633789
1763699248218102300,8.420102294921875,-3.3538401126861572,4.770989418029785,-11.235498428344727
1763699248227691000,8.42969091796875,-1.414756417274475,0.7226324677467346,-11.61864948272705
1763699248237278700,8.43927880859375,0.8524430394172668,-8.11406135559082,-14.369498252868652
1763699248246864400,8.448864501953125,-6.15972375869751,-17.48465347290039,-14.85554027557373
1763699248256451800,8.458451904296876,-8.824430465698242,-23.960529327392578,-12.660125732421875
1763699248266040600,8.46804052734375,-5.353043556213379,-28.085756301879883,-8.231010437011719
1763699248275628300,8.477628173828125,0.7902296781539917,-28.23650360107422,-2.310270309448242
1763699248285215200,8.48721533203125,8.956634521484375,-24.520750045776367,1.9319051504135132
1763699248294803200,8.49680322265625,12.914063453674316,-21.93769645690918,5.367400169372559
1763699248304392000,8.506391845703124,9.509675025939941,-19.794923782348633,11.010573387145996
1763699248313979600,8.515979736328125,7.4506516456604,-18.55484390258789,15.111572265625
1763699248323566600,8.525566650390624,10.97468090057373,-18.765413284301758,15.87996768951416
1763699248333154600,8.535154541015626,17.783458709716797,-17.319549560546875,7.675576686859131
1763699248342743000,8.544742919921875,20.110477447509766,-14.520844459533691,0.22013968229293823
1763699248352331000,8.5543310546875,15.652948379516602,-11.975778579711914,-6.4064836502075195
1763699248361918000,8.56391796875,2.4421746730804443,-8.940183639526367,-11.34796142578125
1763699248371506000,8.573505859375,-14.572588920593262,-7.101299285888672,-13.36152172088623
1763699248381094400,8.583094482421876,-17.665910720825195,-4.340879440307617,-15.614364624023438
1763699248390682400,8.592682373046875,-9.734301567077637,-0.5440680384635925,-15.504294395446777
1763699248400269300,8.602269287109374,2.4278175830841064,3.1692936420440674,-16.509878158569336
1763699248409857300,8.611857177734375,14.970396041870117,6.662216663360596,-15.966407775878906
1763699248419445800,8.62144580078125,13.301701545715332,8.027022361755371,-11.36949634552002
1763699248429033700,8.63103369140625,5.36769962310791,7.598408222198486,-7.022037029266357
1763699248438620700,8.64062060546875,-0.397208571434021,5.326423168182373,-4.797908306121826
1763699248448208600,8.650208740234374,-3.9116668701171875,3.205185890197754,-3.5671002864837646
1763699248457797000,8.659797119140626,-5.714658737182617,1.1365907192230225,-2.5235304832458496
1763699248467385000,8.669385009765625,-6.866204738616943,-2.586043119430542,-3.057429075241089
1763699248476972000,8.678971923828126,-4.680361270904541,-7.929814338684082,-3.301496982574463
1763699248486560500,8.688560546875,5.676672458648682,-18.696020126342773,-8.52054214477539
1763699248496148700,8.698148681640625,-2.5016961097717285,-22.8640193939209,-8.5731840133667
1763699248505736400,8.707736328125,-1.5607185363769531,-27.862924575805664,-8.920442581176758
1763699248515323600,8.71732373046875,5.003990173339844,-38.4712028503418,-9.24855899810791
1763699248524911400,8.726911376953124,16.040586471557617,-49.76173782348633,-3.780360698699951
1763699248534500000,8.7365,21.346071243286133,-51.55994415283203,0.16271193325519562
1763699248544087800,8.746087890625,21.053848266601562,-44.46851348876953,2.396411895751953
1763699248553675000,8.755675048828126,11.829517364501953,-45.22016143798828,0.6511468887329102
1763699248563262700,8.7652626953125,-1.1009975671768188,-39.82883071899414,-1.0462616682052612
1763699248572851500,8.7748515625,-8.431708335876465,-32.488548278808594,-1.0941181182861328
1763699248582439200,8.784439208984375,-10.82124137878418,-24.61915397644043,-0.064606212079525
1763699248592026400,8.7940263671875,-9.887442588806152,-17.31237030029297,-0.2874378263950348
1763699248601614000,8.803614013671876,-8.029714584350586,-10.998908042907715,-1.9537396430969238
1763699248611202800,8.813202880859375,-5.269294738769531,-5.097609519958496,-3.928715705871582
1763699248620790500,8.82279052734375,-1.134497046470642,-0.11306086927652359,-4.704289436340332
1763699248630377700,8.832377685546875,1.810170292854309,4.019044876098633,-4.103391647338867
1763699248639965400,8.84196533203125,3.833002805709839,6.882655143737793,-2.379662036895752
1763699248649554200,8.85155419921875,4.632803916931152,8.172985076904297,0.20817556977272034
1763699248659142000,8.861141845703125,2.5953152179718018,8.96530818939209,2.731706142425537
1763699248668729000,8.87072900390625,-0.22013968229293823,9.549455642700195,3.648456335067749
1763699248678316800,8.88031689453125,-2.6739792823791504,9.049057006835938,4.869693279266357
1763699248687905500,8.889905517578125,-4.206283092498779,6.983153820037842,5.477769374847412
1763699248697493200,8.8994931640625,-4.981856822967529,5.637490272521973,5.398806095123291
1763699248707080400,8.90908056640625,-6.521338939666748,4.699204444885254,3.7588253021240234
1763699248716668200,8.918668212890625,-10.040582656860352,4.155734539031982,3.895216226577759
1763699248726257000,8.9282568359375,-11.460424423217773,5.4173502922058105,4.9175496101379395
1763699248735844600,8.9378447265625,-7.431210041046143,9.032307624816895,7.969893932342529
1763699248745431800,8.947431884765624,-2.5591237545013428,9.985248565673828,11.029715538024902
1763699248755019500,8.95701953125,0.45972105860710144,9.736394882202148,14.804991722106934
1763699248764608300,8.966608154296875,1.628315806388855,7.787441253662109,17.491233825683594
1763699248774196000,8.976196044921876,1.8077775239944458,4.081557273864746,15.655041694641113
1763699248783783200,8.985783203125,3.6008989810943604,1.2131611108779907,10.625029563903809
1763699248793371000,8.995370849609374,6.761219501495361,-1.7386847734451294,6.404090881347656
1763699248802959600,9.004959716796876,11.989835739135742,-7.980063438415527,6.002096652984619
1763699248812547300,9.01454736328125,15.95444393157959,-12.914362907409668,5.025226593017578
1763699248822134500,9.024134521484376,6.6607208251953125,-16.4886417388916,6.732206344604492
1763699248831722500,9.033722412109375,-7.692027568817139,-19.84278106689453,5.0347981452941895
1763699248841311000,9.04331103515625,-17.45504379272461,-23.137100219726562,6.763313293457031
1763699248850898700,9.052898681640626,-21.62812614440918,-33.69991683959961,5.32193660736084
1763699248860486000,9.06248583984375,-20.129322052001953,-36.68526077270508,2.628814697265625
1763699248870073900,9.072073974609374,-14.247164726257324,-38.6246452331543,-2.9327032566070557
1763699248879662300,9.081662353515625,-10.988739013671875,-37.78416442871094,-11.374282836914062
1763699248889250000,9.09125,-2.3219351768493652,-28.942686080932617,-16.555341720581055
1763699248898837200,9.100837158203126,2.1909282207489014,-18.315261840820312,-17.417057037353516
1763699248908425200,9.11042529296875,0.893121063709259,-10.805089950561523,-16.098012924194336
1763699248918013700,9.120013671875,-2.520838737487793,-5.8612189292907715,-14.90100383758545
1763699248927601400,9.129601318359375,-4.340281009674072,-2.444866418838501,-14.649458885192871
1763699248937188600,9.139188720703125,-4.572684288024902,0.3251247704029083,-14.623137474060059
1763699248946776300,9.1487763671875,-1.9845472574234009,1.6657036542892456,-14.932110786437988
1763699248956365000,9.158364990234375,2.195713996887207,0.8709874153137207,-14.934503555297852
1763699248965952800,9.167952880859374,5.303092956542969,-4.13270378112793,-16.22722625732422
1763699248975540000,9.1775400390625,3.3185458183288574,-11.403594970703125,-13.976776123046875
1763699248985127700,9.187127685546875,1.5203397274017334,-18.432809829711914,-10.385747909545898
1763699248994716400,9.19671630859375,2.3249263763427734,-24.401107788085938,-5.896812438964844
1763699249004304100,9.20630419921875,6.234499454498291,-27.477680206298828,-0.7396813035011292
1763699249013891300,9.215891357421874,12.949955940246582,-27.2955265045166,0.9361918568611145
1763699249023479000,9.22547900390625,14.711971282958984,-25.11446762084961,1.6854444742202759
1763699249033067800,9.23506787109375,10.086645126342773,-21.1474666595459,3.4498519897460938
1763699249042655500,9.244655517578124,5.44426965713501,-15.74417495727539,5.7649078369140625
1763699249052242700,9.25424267578125,2.4421746730804443,-10.71655559539795,9.248259544372559
1763699249061830400,9.263830322265624,3.1651060581207275,-7.718946933746338,7.802396297454834
1763699249071419100,9.273419189453126,6.6846489906311035,-6.474080562591553,1.7835501432418823
1763699249081006800,9.2830068359375,7.872087478637695,-6.335297107696533,-3.318246841430664
1763699249090594000,9.292593994140624,5.616852283477783,-6.34008264541626,-7.572685241699219
1763699249100182000,9.30218212890625,0.9337990283966064,-5.466104030609131,-11.21635627746582
1763699249109770500,9.3117705078125,0.6801598072052002,-4.412963390350342,-14.97996711730957
1763699249119358200,9.321358154296876,6.002096652984619,-1.6549359560012817,-17.20648765563965
1763699249128945400,9.3309453125,10.318748474121094,0.4567300081253052,-16.51944923400879
1763699249138533400,9.340533447265624,6.085845470428467,1.098305583000183,-13.054941177368164
1763699249148121900,9.350121826171875,1.4246268272399902,1.495813250541687,-7.864609718322754
1763699249157709600,9.35970947265625,-0.9287142753601074,0.8470591902732849,-4.498506546020508
1763699249167299000,9.369299072265624,-2.772084951400757,-0.5775675773620605,-3.10528564453125
1763699249186474200,9.38847412109375,-4.898108005523682,-4.47278356552124,-4.9486565589904785
1763699249196062000,9.39806201171875,-4.531706809997559,-6.13908576965332,-5.528018474578857
1763699249205649000,9.40764892578125,1.0561320781707764,-7.273881912231445,-4.144069671630859
1763699249215236900,9.41723681640625,8.899206161499023,-15.988243103027344,-8.901300430297852
1763699249224825600,9.42682568359375,2.7463622093200684,-22.71566390991211,-11.702398300170898
1763699249234413300,9.436413330078125,2.5929224491119385,-28.86611557006836,-11.173285484313965
1763699249244000300,9.446000244140626,6.212964057922363,-33.28805160522461,-9.044869422912598
1763699249253588200,9.455588134765625,9.183952331542969,-36.05325698852539,-4.2209391593933105
1763699249263177000,9.465177001953125,11.154441833496094,-38.16252899169922,2.8537402153015137
1763699249272764700,9.4747646484375,11.712268829345703,-38.24867248535156,5.470590591430664
1763699249282351600,9.4843515625,9.732208251953125,-36.60869216918945,4.931906700134277
1763699249291939600,9.493939697265626,3.7205400466918945,-36.352359771728516,1.3070793151855469
1763699249301528300,9.5035283203125,-2.927917718887329,-32.87379455566406,-0.2515454888343811
1763699249311116000,9.513115966796875,-6.449554443359375,-26.771198272705078,-1.3815559148788452
1763699249320702700,9.52270263671875,-7.045666217803955,-19.912172317504883,-2.9542386531829834
1763699249330290000,9.5322900390625,-6.420840263366699,-13.548760414123535,-4.4721856117248535
1763699249339878700,9.541878662109376,-5.518147945404053,-7.762316703796387,-5.719444274902344
1763699249349466400,9.55146630859375,-2.528017044067383,-3.1223344802856445,-5.518447399139404
1763699249359053600,9.561053466796874,0.5796613097190857,0.7441678643226624,-3.70139741897583
1763699249368641300,9.570641357421875,3.0215368270874023,4.1078782081604,-1.2329018115997314
1763699249378230000,9.58022998046875,4.340580463409424,6.925725936889648,0.20099709928035736
1763699249387817700,9.589817626953124,4.3070807456970215,8.503194808959961,2.035095691680908
1763699249397405000,9.599405029296875,2.6886353492736816,10.119247436523438,3.6966118812561035
1763699249406993000,9.608992919921874,0.857228696346283,11.711371421813965,5.556732177734375
1763699249416581400,9.618581298828126,-0.3086741268634796,9.539884567260742,6.372983932495117
1763699249426169000,9.628169189453125,-1.9414764642715454,7.236793041229248,5.7792649269104
1763699249435756300,9.63775634765625,-5.927619934082031,6.173781394958496,4.974977493286133
1763699249445344300,9.64734423828125,-10.36630630493164,5.6590256690979,6.384948253631592
1763699249454932700,9.6569326171875,-11.223235130310059,8.091629028320312,10.826026916503906
1763699249464520400,9.6665205078125,-7.759026527404785,9.348459243774414,13.462019920349121
1763699249474107600,9.676107666015625,-2.9063823223114014,8.563314437866211,15.808182716369629
1763699249483695400,9.6856953125,-1.2233306169509888,7.081259727478027,17.641983032226562
1763699249493284000,9.6952841796875,-0.30628129839897156,3.7414772510528564,15.046966552734375
1763699249502871800,9.704871826171875,2.693420886993408,0.21266211569309235,10.4790678024292
1763699249512459000,9.714458984375,5.760421276092529,-2.9883363246917725,6.270092487335205
1763699249522047000,9.724046875,7.627720355987549,-9.720542907714844,3.935894250869751
1763699249531635500,9.733635498046874,7.048357963562012,-14.142478942871094,3.404388427734375
1763699249541223400,9.743223388671876,1.6307085752487183,-17.247465133666992,6.195915222167969
1763699249550810400,9.752810302734375,-4.507778644561768,-22.18655014038086,6.880561351776123
1763699249560398300,9.7623984375,-11.623135566711426,-30.089445114135742,6.68435001373291
1763699249569986800,9.77198681640625,-16.231712341308594,-34.69353485107422,5.008476734161377
1763699249579574800,9.78157470703125,-15.420246124267578,-35.588748931884766,0.7636095285415649
1763699249589161700,9.79116162109375,-16.15275001525879,-35.44518280029297,-5.870491027832031
1763699249598749700,9.800749755859375,-11.429317474365234,-31.786853790283203,-13.651053428649902
1763699249608338200,9.810338134765624,-1.2400803565979004,-23.347667694091797,-17.505590438842773
1763699249617926100,9.819926025390625,0.5605186820030212,-14.130515098571777,-18.28864288330078
1763699249627513000,9.82951318359375,-1.7497515678405762,-7.5203423500061035,-17.895919799804688
1763699249637101000,9.83910107421875,-5.465506076812744,-2.7203402519226074,-17.663816452026367
1763699249646689500,9.848689453125,-5.01296329498291,1.4886348247528076,-16.82573127746582
1763699249656277500,9.858277587890624,-0.9885348677635193,5.082056045532227,-15.851253509521484
1763699249665864400,9.867864501953125,3.6248271465301514,6.68853759765625,-15.430116653442383
1763699249675452400,9.877452392578125,6.727719783782959,4.452444553375244,-14.654244422912598
1763699249685041200,9.887041259765626,4.275974273681641,-3.759124279022217,-14.977574348449707
1763699249694628900,9.89662890625,-2.709871530532837,-14.14726448059082,-13.380663871765137
1763699249704215800,9.9062158203125,-5.161617755889893,-22.423738479614258,-10.837990760803223
1763699249713804000,9.915803955078125,-4.191926002502441,-27.79353141784668,-5.807978630065918
1763699249742567700,9.944567626953125,12.832707405090332,-24.801008224487305,3.6532418727874756
1763699249752155400,9.9541552734375,8.520841598510742,-20.405393600463867,6.81595516204834
1763699249761744100,9.963744140625,5.78434944152832,-15.526128768920898,12.265010833740234
1763699249771331800,9.973331787109375,7.165606498718262,-13.682758331298828,14.376676559448242
1763699249780919000,9.9829189453125,11.29801082611084,-13.4099760055542,6.961917400360107
1763699249790506800,9.9925068359375,13.392927169799805,-11.21934700012207,0.22013968229293823
1763699249800095500,10.002095458984375,9.686744689941406,-9.957432746887207,-4.567898273468018
1763699249809683200,10.01168310546875,1.5179468393325806,-7.7237324714660645,-8.400900840759277
1763699249819270100,10.021270263671875,-4.941178798675537,-6.127121448516846,-11.946466445922852
1763699249828857900,10.03085791015625,-3.0978081226348877,-3.9580278396606445,-14.721242904663086
1763699249838446600,10.040446533203125,5.805884838104248,-0.9293124675750732,-16.011871337890625
1763699249848034300,10.050034423828125,12.310773849487305,2.316850423812866,-16.157833099365234
1763699249857621500,10.05962158203125,7.093822002410889,3.0616166591644287,-11.810074806213379
1763699249867209200,10.069209228515625,2.3632113933563232,3.071187973022461,-7.6636128425598145
1763699249876798000,10.0787978515625,0.40707895159721375,2.7789642810821533,-5.2645087242126465
1763699249886385700,10.0883857421875,-1.4291132688522339,2.2067806720733643,-4.170690059661865
1763699249895972900,10.097972900390625,-3.9451663494110107,1.1485549211502075,-4.225724697113037
1763699249905561000,10.10756103515625,-5.43918514251709,-0.8814560174942017,-5.06590461730957
1763699249915149300,10.1171494140625,-6.583552360534668,-3.124727249145508,-5.075475692749023
1763699249924737300,10.1267373046875,-5.585147380828857,-4.807778835296631,-2.944667339324951
1763699249934324200,10.13632421875,8.266902923583984,-11.008480072021484,-5.726622581481934
1763699249943912200,10.145912109375,6.974180698394775,-22.26072883605957,-12.523435592651367
1763699249953500700,10.155500732421874,3.90987229347229,-29.43829917907715,-15.078072547912598
1763699249963088600,10.165088623046875,9.741779327392578,-36.12504196166992,-14.12991714477539
1763699249972675600,10.174675537109374,11.582756996154785,-41.56452560424805,-10.35464096069336
1763699249982263300,10.18426318359375,14.233107566833496,-45.84737777709961,-3.2273194789886475
1763699249991852000,10.19385205078125,14.740684509277344,-45.11966323852539,1.079761266708374
1763699250001440000,10.20343994140625,9.313164710998535,-42.3400993347168,2.183450698852539
1763699250011027000,10.21302685546875,-0.37806597352027893,-41.08327102661133,-0.21296121180057526
1763699250020615000,10.222614990234375,-7.143772125244141,-35.59592819213867,-0.29700911045074463
1763699250030203400,10.232203369140626,-9.056534767150879,-27.963722229003906,0.7995018362998962
1763699250039791400,10.241791259765625,-8.606683731079102,-20.750259399414062,0.8617152571678162
1763699250049378300,10.25137841796875,-8.230711936950684,-13.86221981048584,-1.6160526275634766
1763699250058966300,10.26096630859375,-7.581957817077637,-7.039085865020752,-3.7037904262542725
1763699250068554800,10.2705546875,-3.775275945663452,-1.2406785488128662,-3.411566972732544
1763699250078142700,10.280142822265624,0.45972105860710144,3.3439695835113525,-2.0398812294006348
1763699250087729700,10.289729736328125,3.8377883434295654,8.113163948059082,-0.22492532432079315
1763699250097317600,10.299317626953124,5.8010993003845215,11.680264472961426,2.8058836460113525
1763699250106906000,10.308906005859376,6.0523457527160645,10.842477798461914,4.704289436340332
1763699250116494000,10.318494140625,5.446662425994873,13.779966354370117,7.012166976928711
1763699250126081000,10.3280810546875,2.7320053577423096,13.720146179199219,7.984251022338867
1763699250135669000,10.3376689453125,0.4214358925819397,10.574182510375977,7.282855033874512
1763699250145257500,10.347257568359375,-2.257328987121582,7.179365158081055,6.334698677062988
1763699250154845400,10.356845458984376,-5.757729530334473,5.280959606170654,4.548755645751953
1763699250164432400,10.366432373046875,-10.531410217285156,3.7582271099090576,4.218247413635254
1763699250174020400,10.376020263671874,-12.944572448730469,3.8898322582244873,5.07308292388916
1763699250183609000,10.385609130859375,-10.37348461151123,8.366803169250488,9.516554832458496
1763699250193196800,10.39519677734375,-5.123033046722412,9.302995681762695,12.119048118591309
1763699250202783700,10.40478369140625,-1.7018951177597046,8.525029182434082,14.189737319946289
1763699250212371700,10.414371826171875,-1.4267204999923706,6.487540245056152,15.729219436645508
1763699250221960400,10.42396044921875,-1.3334003686904907,2.7239294052124023,13.969597816467285
1763699250231548200,10.433548095703125,0.6705885529518127,-0.5991029739379883,10.45513916015625
1763699250241135400,10.44313525390625,7.112964630126953,-3.87667179107666,6.658029079437256
1763699250250723000,10.45272314453125,18.851255416870117,-13.06511116027832,5.614160060882568
1763699250260311800,10.462311767578125,17.122739791870117,-25.880769729614258,11.032109260559082
1763699250269899500,10.4718994140625,-4.352245330810547,-25.689044952392578,3.873680830001831
1763699250279486700,10.48148681640625,-14.948561668395996,-29.814271926879883,6.892525672912598
1763699250289074400,10.491074462890625,-21.616161346435547,-38.298919677734375,6.818347930908203
1763699250298663200,10.5006630859375,-20.258533477783203,-39.38107681274414,4.505684852600098
1763699250308251000,10.5102509765625,-16.567007064819336,-37.30290985107422,-1.474876046180725
1763699250317838000,10.519838134765624,-11.58006477355957,-31.870603561401367,-8.097012519836426
1763699250327426000,10.529426025390626,-7.950751304626465,-22.9935302734375,-10.861919403076172
1763699250337014500,10.5390146484375,-4.768895626068115,-13.32832145690918,-13.045370101928711
1763699250346602200,10.548602294921874,-4.847858905792236,-7.417450904846191,-14.541781425476074
1763699250356189400,10.558189453125,-5.106283664703369,-3.359523057937622,-15.173786163330078
1763699250365777400,10.56777734375,-5.065605640411377,-0.6828517913818359,-15.88714599609375
1763699250375366000,10.577365966796876,-2.0491535663604736,0.6601199507713318,-16.713268280029297
1763699250384953900,10.586953857421875,3.1507492065429688,1.1629117727279663,-17.77867317199707
1763699250394540800,10.596540771484374,6.672685146331787,-2.4161527156829834,-18.66910171508789
1763699250404128500,10.60612841796875,2.947359323501587,-10.01994514465332,-18.801006317138672
1763699250413717200,10.61571728515625,-1.8840487003326416,-18.48545265197754,-17.32134437561035
1763699250423305200,10.62530517578125,-2.7050859928131104,-25.61247444152832,-13.873885154724121
1763699250432892200,10.63489208984375,0.649053156375885,-26.574987411499023,-7.642077445983887
1763699250442480000,10.644480224609374,5.130809783935547,-22.84726905822754,-0.20338992774486542
1763699250452068600,10.654068603515626,8.645268440246582,-18.652950286865234,5.302793979644775
1763699250461656600,10.663656494140625,6.955038070678711,-16.862220764160156,8.345866203308105
1763699250471243500,10.673243408203126,4.992026329040527,-16.40010643005371,12.379866600036621
1763699250480831500,10.68283154296875,6.725327014923096,-16.816757202148438,16.35643768310547
1763699250490420200,10.692420166015625,13.658531188964844,-19.77099609375,9.231510162353516
1763699250500008000,10.702008056640626,19.51675796508789,-17.022541046142578,3.445066452026367
1763699250509595000,10.711594970703125,17.92254066467285,-15.076277732849121,-2.7125635147094727
1763699250519182800,10.721182861328124,7.893622875213623,-12.006884574890137,-7.979465484619141
1763699250528771600,10.730771484375,-9.078369140625,-8.188239097595215,-10.864312171936035
1763699250538359300,10.740359375,-15.841682434082031,-4.836492538452148,-13.893027305603027
1763699250547946500,10.749946533203126,-7.553243637084961,-0.9149555563926697,-15.96880054473877
1763699250557534200,10.7595341796875,2.9282166957855225,2.8890342712402344,-15.975979804992676
1763699250567123000,10.769123046875,13.26820182800293,5.544169902801514,-16.042978286743164
1763699250576710700,10.778710693359375,10.96032428741455,5.793322563171387,-12.530613899230957
1763699250586297900,10.7882978515625,4.601696968078613,5.3455657958984375,-9.016156196594238
1763699250595885600,10.797885498046876,1.312164068222046,5.154139995574951,-6.679564476013184
1763699250605474300,10.807474365234375,-0.40677985548973083,4.900201797485352,-5.221437931060791
1763699250615062000,10.81706201171875,-2.427518606185913,3.9687955379486084,-4.73090934753418
1763699250624649200,10.826649169921875,-4.330709934234619,1.4479568004608154,-5.36769962310791
1763699250634237200,10.8362373046875,-6.341877460479736,-1.4656038284301758,-4.986941337585449
1763699250643825700,10.84582568359375,-7.64656400680542,-4.278666019439697,-3.4570305347442627
1763699250653413400,10.855413330078125,-0.27038896083831787,-8.626424789428711,-2.4227328300476074
1763699250663000600,10.86500048828125,8.528019905090332,-20.204395294189453,-8.791230201721191
1763699250672588500,10.874588623046876,0.29700911045074463,-24.640689849853516,-11.252248764038086
1763699250682177000,10.884177001953125,4.18983268737793,-30.40081214904785,-11.972786903381348
1763699250691765000,10.893764892578124,11.087143898010254,-42.208492279052734,-9.530911445617676
1763699250701352000,10.90335205078125,14.647364616394043,-49.54877853393555,-3.9311084747314453
1763699250710939600,10.912939697265625,15.415760040283203,-50.31956481933594,1.1802598237991333
1763699250720528400,10.9225283203125,12.921242713928223,-45.00959396362305,2.872882604598999
1763699250730116400,10.932116455078125,5.30548620223999,-45.69184494018555,2.4323041439056396
1763699250739703300,10.941703369140624,-3.3873395919799805,-40.13750457763672,1.3334003686904907
1763699250749291300,10.951291259765625,-7.998608112335205,-32.26332473754883,2.262413740158081
1763699250758880000,10.9608798828125,-9.286544799804688,-24.173789978027344,3.4091739654541016
1763699250768467700,10.9704677734375,-9.31047248840332,-16.895721435546875,2.307877540588379
1763699250778054700,10.9800546875,-8.391031265258789,-10.800304412841797,-0.7899305820465088
1763699250787642600,10.989642578125,-5.729015827178955,-5.523830890655518,-2.7723841667175293
1763699250797231400,10.9992314453125,-1.673181176185608,-1.0612168312072754,-3.1435706615448
1763699250806819000,11.008819091796875,1.407876968383789,2.855534791946411,-3.3230323791503906
1763699250816406000,11.018406005859376,2.8755745887756348,5.338387489318848,-2.3772692680358887
1763699250825994000,11.027993896484375,3.378366470336914,7.529016494750977,-0.21296121180057526
1763699250835582700,11.037582763671875,2.8564319610595703,8.618349075317383,2.0303099155426025
1763699250845170400,11.04717041015625,2.621636390686035,10.361221313476562,4.362115859985352
1763699250854757600,11.056757568359375,1.3360923528671265,9.990034103393555,6.394519329071045
1763699250864345300,11.066345458984374,-0.6655037999153137,8.211270332336426,6.646064758300781
1763699250873934000,11.07593408203125,-4.974678039550781,7.545766353607178,5.650052547454834
1763699250883521800,11.085521728515625,-9.832406997680664,8.254341125488281,6.653243541717529
1763699250893109000,11.09510888671875,-12.358031272888184,9.695717811584473,8.678468704223633
1763699250902696700,11.10469677734375,-9.865906715393066,10.66271686553955,10.153345108032227
1763699250912285400,11.114285400390624,-3.741776466369629,11.177473068237305,10.759027481079102
1763699250921873200,11.123873046875,0.5653043389320374,10.923833847045898,12.147762298583984
1763699250931460400,11.13346044921875,2.5450658798217773,8.635098457336426,12.763016700744629
1763699250941048000,11.143048095703126,3.9984066486358643,4.739882469177246,10.737492561340332
1763699250950636800,11.15263671875,5.578567028045654,0.8638089895248413,7.567600727081299
1763699250960224800,11.162224853515625,9.203095436096191,-3.366701364517212,5.690730571746826
1763699250969811700,11.171811767578125,16.67737579345703,-11.240882873535156,5.307579517364502
1763699250979399700,11.181399658203125,17.726030349731445,-20.78375816345215,7.9316086769104
1763699250988988200,11.19098828125,-0.5383850932121277,-26.8743896484375,6.880561351776123
1763699250998576000,11.200576171875,-14.29980754852295,-22.725234985351562,6.564708709716797
1763699251008163000,11.2101630859375,-20.768503189086914,-31.6480712890625,8.949156761169434
1763699251017751000,11.2197509765625,-21.221046447753906,-38.509490966796875,8.685647010803223
1763699251027339800,11.22933984375,-18.84617042541504,-36.280574798583984,4.843372344970703
1763699251036927500,11.238927490234374,-13.916656494140625,-30.434310913085938,-4.77876615524292
1763699251046514400,11.248514404296875,-8.09671401977539,-22.725234985351562,-8.834300994873047
1763699251056102400,11.258102294921875,-4.400101661682129,-14.360225677490234,-10.883454322814941
1763699251065691100,11.267691162109376,-2.434697151184082,-7.726125240325928,-12.375080108642578
1763699251075278800,11.27727880859375,-3.3729825019836426,-3.189333438873291,-12.226725578308105
1763699251084866000,11.286865966796874,-4.59421968460083,0.06161518394947052,-11.587542533874512
1763699251094453800,11.296453857421875,-5.736194133758545,1.6322041749954224,-11.506186485290527
1763699251104042500,11.30604248046875,-3.978665828704834,2.0033907890319824,-12.626626014709473
1763699251113630200,11.315630126953126,-0.39481574296951294,1.960319995880127,-13.63191032409668
1763699251123217400,11.325217529296875,6.545566558837891,-0.8934201598167419,-15.724433898925781
1763699251132805000,11.33480517578125,5.968596935272217,-8.916254997253418,-15.458830833435059
1763699251142393900,11.344393798828126,-0.023629123345017433,-19.079172134399414,-13.069297790527344
1763699251151981600,11.353981689453125,-1.0818549394607544,-26.237300872802734,-10.890633583068848
1763699251161568800,11.36356884765625,1.5753746032714844,-30.31467056274414,-7.488637447357178
1763699251171156700,11.37315673828125,5.291129112243652,-30.98974609375,-4.235296249389648
1763699251180745200,11.3827451171875,9.188737869262695,-29.2133731842041,-3.6798620223999023
1763699251190333200,11.392333251953126,8.71226692199707,-26.50798797607422,-3.004487991333008
1763699251199920000,11.401920166015625,6.710970401763916,-20.893827438354492,2.9398818016052246
1763699251209508000,11.411508056640624,8.394021987915039,-16.337894439697266,11.199605941772461
1763699251219096600,11.4210966796875,12.181262016296387,-17.09193229675293,9.995418548583984
1763699251228684500,11.4306845703125,15.755839347839355,-16.5364990234375,2.149951219558716
1763699251238271500,11.440271484375,13.11984634399414,-14.554344177246094,-3.9167516231536865
1763699251247859500,11.449859375,3.1818559169769287,-12.102598190307617,-8.077570915222168
1763699251257448000,11.459447998046874,-8.22831916809082,-8.54746150970459,-11.001002311706543
1763699251267036000,11.469035888671876,-10.567302703857422,-4.482355117797852,-13.694124221801758
1763699251276622800,11.478622802734375,-3.437588930130005,-0.2183450609445572,-15.774682998657227
1763699251286210800,11.4882109375,10.699506759643555,5.0102715492248535,-16.904693603515625
1763699251295799600,11.497799560546875,17.57528305053711,6.959225654602051,-16.263118743896484
1763699251305387300,11.50738720703125,7.766504287719727,4.4859442710876465,-12.032906532287598
1763699251314974500,11.516974365234375,0.21326032280921936,1.8502501249313354,-8.934800148010254
1763699251324562200,11.526562255859375,-2.702693223953247,0.3897309899330139,-6.780063152313232
1763699251334151000,11.53615087890625,-3.8566319942474365,-1.1114661693572998,-5.504090309143066
1763699251343738600,11.545738525390625,-4.41685152053833,-3.2180473804473877,-5.645267009735107
1763699251353325800,11.555325927734375,-4.599005222320557,-5.535795211791992,-5.1783671379089355
1763699251362913800,11.564913818359376,3.845266103744507,-9.627223014831543,-4.946263313293457
1763699251372502300,11.574502197265625,6.699006080627441,-20.802900314331055,-10.653743743896484
1763699251382090000,11.584090087890624,1.537089467048645,-27.776782989501953,-12.085549354553223
1763699251391677200,11.59367724609375,4.053441524505615,-31.523643493652344,-11.20917797088623
1763699251401265200,11.60326513671875,5.707779407501221,-36.95116424560547,-7.953144073486328
1763699251410853600,11.612853515625,8.956634521484375,-40.11836242675781,-2.3820550441741943
1763699251420441600,11.622441650390625,11.063215255737305,-40.57808303833008,3.770789384841919
1763699251430028500,11.632028564453124,10.788041114807129,-38.28217315673828,4.024428367614746
1763699251439616500,11.641616455078125,5.439484119415283,-38.492740631103516,2.5112674236297607
1763699251449205000,11.651205078125,-2.3820550441741943,-37.879878997802734,-0.6894320249557495
1763699251458793000,11.66079296875,-7.64656400680542,-34.01337432861328,-2.2480568885803223
1763699251468380000,11.6703798828125,-8.965607643127441,-26.723342895507812,-2.317448616027832
1763699251477968000,11.6799677734375,-8.77657413482666,-19.529022216796875,-2.6168506145477295
1763699251487556600,11.689556640625,-7.641777992248535,-12.555140495300293,-2.42512583732605
1763699251497144300,11.699144287109375,-4.333102703094482,-6.565008163452148,-1.9992033243179321
1763699251506731300,11.708731201171876,-1.0818549394607544,-0.8335995674133301,-0.9409775137901306
1763699251516319200,11.7183193359375,1.0319048166275024,4.167698860168457,0.4980062246322632
1763699251525908000,11.727907958984375,2.549851655960083,8.330910682678223,2.1643080711364746
1763699251535495700,11.73749560546875,1.4796617031097412,11.172687530517578,4.23021125793457
1763699251545083000,11.747082763671875,-0.6607181429862976,12.132806777954102,4.958227634429932
1763699251554670600,11.756670654296874,-2.4921247959136963,12.57577896118164,5.851049423217773
1763699251564259300,11.76625927734375,-4.658825874328613,11.036295890808105,5.8821563720703125
1763699251573847300,11.775847412109375,-7.907381534576416,10.183853149414062,5.908477306365967
1763699251583434200,11.785434326171876,-12.655040740966797,9.8871431350708,6.5766730308532715
1763699251593022200,11.795022216796875,-14.026726722717285,10.263115882873535,7.6253275871276855
1763699251602610700,11.804610595703124,-10.521839141845703,11.613265991210938,9.774979591369629
1763699251612198700,11.81419873046875,-4.749752998352051,13.442279815673828,14.57049560546875
1763699251621785600,11.82378564453125,0.8500502705574036,13.298709869384766,18.587745666503906
1763699251631373600,11.83337353515625,3.2105698585510254,9.513564109802246,17.9102783203125
1763699251640962000,11.842962158203125,3.3281171321868896,4.153341770172119,14.335700035095215
1763699251650550000,11.852550048828125,4.8314080238342285,0.30119654536247253,10.534102439880371
1763699251660137000,11.862136962890625,9.164810180664062,-5.253142833709717,7.857431411743164
1763699251669725000,11.871724853515625,14.960824012756348,-12.602996826171875,5.922834396362305
1763699251679313700,11.881313720703124,9.9140625,-18.578771591186523,7.593921661376953
1763699251688901400,11.8909013671875,-6.044867992401123,-23.165813446044922,8.594719886779785
1763699251698488600,11.900488525390625,-19.777576446533203,-24.19293212890625,7.225427150726318
1763699251708076300,11.910076171875,-23.730220794677734,-34.48027420043945,9.413662910461426
1763699251717665000,11.9196650390625,-19.918752670288086,-41.554954528808594,9.894919395446777
1763699251727252700,11.929252685546874,-12.57129192352295,-41.75116729736328,4.41475772857666
1763699251736840000,11.93883984375,-11.615957260131836,-39.9532585144043,-4.797908306121826
1763699251746428000,11.948427978515625,-7.837989807128906,-31.578678131103516,-9.229415893554688
1763699251756016400,11.958016357421876,-4.644468784332275,-20.07488441467285,-12.20518970489502
1763699251765604000,11.96760400390625,-6.061617851257324,-12.035598754882812,-14.740386009216309
1763699251775191300,11.97719140625,-8.3359956741333,-6.579364776611328,-15.511472702026367
1763699251784779300,11.986779296875,-8.9943208694458,-2.4017956256866455,-16.07887077331543
1763699251794367700,11.99636767578125,-7.062416076660156,0.6505486369132996,-16.617555618286133
1763699251803955700,12.005955810546874,-1.1560324430465698,2.436790704727173,-17.757137298583984
1763699251813542700,12.015542724609375,4.635196685791016,3.135794162750244,-18.197715759277344
1763699251823130600,12.025130615234374,6.7779693603515625,-0.8934201598167419,-18.659530639648438
1763699251832719400,12.03471923828125,3.371187925338745,-8.149953842163086,-18.518354415893555
1763699251842307000,12.04430712890625,0.38793638348579407,-17.886947631835938,-16.875980377197266
1763699251851894300,12.053894287109374,1.5179468393325806,-26.527130126953125,-11.740683555603027
1763699251861482000,12.06348193359375,5.999703884124756,-27.68107032775879,-2.5761725902557373
1763699251871070700,12.07307080078125,8.346165657043457,-25.696224212646484,6.389733791351318
1763699251880658400,12.082658447265626,8.518448829650879,-23.84088897705078,9.538089752197266
1763699251890245600,12.09224560546875,5.145166873931885,-20.860328674316406,15.927824020385742
1763699251899833600,12.10183349609375,3.964907169342041,-18.166908264160156,21.620946884155273
1763699251909422000,12.111422119140625,11.606685638427734,-17.901304244995117,11.683255195617676
1763699251919009800,12.121009765625,16.411771774291992,-16.246967315673828,2.760420083999634
1763699251928597000,12.130596923828126,12.35384464263916,-13.852648735046387,-4.381258487701416
1763699251938185000,12.14018505859375,1.6067804098129272,-10.628021240234375,-9.119047164916992
1763699251947773400,12.1497734375,-8.920144081115723,-6.555436611175537,-12.920943260192871
1763699251957361400,12.159361328125,-7.012166976928711,-3.2395827770233154,-16.916658401489258
1763699251966948400,12.1689482421875,4.584947109222412,0.4423730969429016,-18.96371841430664
1763699251976536300,12.178536376953126,15.305689811706543,3.471088409423828,-20.019550323486328
1763699251986125000,12.188125,9.12413215637207,3.403790235519409,-17.19213104248047
1763699251995712800,12.197712646484375,0.4262215197086334,2.824428081512451,-11.76461124420166
1763699252005299700,12.2072998046875,-1.2281162738800049,2.5516462326049805,-8.673981666564941
1763699252014887700,12.2168876953125,-0.14835500717163086,3.174079179763794,-6.2413787841796875
1763699252024476400,12.226476318359374,-1.4434702396392822,2.767000198364258,-4.986941337585449
1763699252034064100,12.236064208984375,-3.9523448944091797,0.6146563291549683,-5.425127029418945
1763699252043651300,12.2456513671875,-6.1812591552734375,-2.270190477371216,-5.7720866203308105
1763699252053239000,12.255239013671876,-7.909774303436279,-4.745565414428711,-5.19033145904541
1763699252062827800,12.264827880859375,-2.2788643836975098,-7.139584541320801,-2.293520450592041
1763699252072415500,12.27441552734375,10.292427062988281,-19.55085563659668,-8.575576782226562
1763699252082002700,12.284002685546875,1.5777673721313477,-27.8270320892334,-14.05813217163086
1763699252091590400,12.29359033203125,6.540780544281006,-35.61746597290039,-16.176977157592773
1763699252101179100,12.30317919921875,8.394021987915039,-46.132423400878906,-14.015061378479004
1763699252110767000,12.31276708984375,10.730612754821777,-50.846282958984375,-5.204688549041748
1763699252120354000,12.32235400390625,12.231511116027832,-50.393741607666016,3.1193435192108154
1763699252129942000,12.33194189453125,11.587542533874512,-47.21218490600586,2.4394826889038086
1763699252139530800,12.34153076171875,3.5147573947906494,-43.659141540527344,0.36640095710754395
1763699252149118500,12.351118408203124,-4.852644443511963,-38.17927932739258,-0.08853443711996078
1763699252158705400,12.360705322265625,-8.371888160705566,-30.85335350036621,2.975774049758911
1763699252168293400,12.37029345703125,-10.6295166015625,-22.83051872253418,5.25972318649292
1763699252177882000,12.379882080078126,-12.829716682434082,-15.150455474853516,4.362115859985352
1763699252187469800,12.3894697265625,-12.015857696533203,-8.427820205688477,1.7404793500900269
1763699252197057000,12.39905712890625,-6.885347366333008,-1.791326880455017,0.7372884750366211
1763699252206645000,12.40864501953125,-1.5415760278701782,3.7007992267608643,1.2376874685287476
1763699252216233500,12.4182333984375,2.8037898540496826,7.612765312194824,1.2592228651046753
1763699252225821200,12.4278212890625,5.212165832519531,11.326127052307129,2.0374884605407715
1763699252235408400,12.437408447265625,5.49930477142334,10.883155822753906,1.561017632484436
1763699252244996400,12.446996337890624,6.361319065093994,10.02592658996582,1.7668004035949707
1763699252254584800,12.456584716796876,4.891228675842285,10.806585311889648,3.562314748764038
1763699252264172800,12.4661728515625,0.6251249313354492,9.657432556152344,5.219045162200928
1763699252273759700,12.475759765625,-4.895715236663818,8.785846710205078,6.4304118156433105
1763699252283347700,12.48534765625,-11.316854476928711,7.923832416534424,6.55992317199707
1763699252292936400,12.4949365234375,-14.522339820861816,8.43140983581543,7.689933776855469
1763699252302524200,12.504524169921876,-12.02064323425293,10.785049438476562,11.460424423217773
1763699252312111400,12.514111328125,-5.678467273712158,11.323734283447266,14.14427375793457
1763699252321699000,12.523698974609376,-1.555932879447937,9.906285285949707,14.99432373046875
