time,seconds_elapsed,z,y,x
1763693271407698400,0.052698486328125,9.33950010576248,2.977422696377337,0.28119884981466453
1763693271417657300,0.0626572265625,9.340818202623725,2.9756536408782,0.25493275591339914
1763693271427615500,0.072615478515625,9.34192762517035,2.975081686209142,0.21831063289362937
1763693271437574400,0.082574462890625,9.34202056415081,2.9775241109251973,0.17715634633693844
1763693271447533300,0.092533203125,9.340463397836684,2.9844033490449187,0.13951479887524618
1763693271457491500,0.102491455078125,9.33698373902738,2.9965377312138677,0.10900196164916269
1763693271467450400,0.112450439453125,9.33155586875975,3.014101737216115,0.08743037310652434
1763693271477409300,0.1224091796875,9.324477308675647,3.0362475180506703,0.07556177030086983
1763693271487368400,0.132368408203125,9.315956148567794,3.062401657743752,0.07101575633510947
1763693271497326300,0.142326416015625,9.306405645412205,3.0913322764128446,0.06969399251232389
1763693271507285200,0.15228515625,9.296374080741405,3.1213825467616316,0.06917409225748851
1763693271517244400,0.162244384765625,9.286337839895486,3.151222389230132,0.06410926488228141
1763693271527202300,0.172202392578125,9.276512026929854,3.180307321678102,0.04846573294806294
1763693271537161500,0.182161376953125,9.267422711545228,3.207006235772371,0.019199094107502604
1763693271547120400,0.192120361328125,9.260167625850439,3.227890910629928,-0.019879870312742423
1763693271557079300,0.202079345703125,9.255870805439352,3.2396810094058512,-0.060850057590357026
1763693271567037400,0.212037353515625,9.254974733382463,3.2413834294095634,-0.0962416204684414
1763693271576996400,0.221996337890625,9.257225727179646,3.234144125805795,-0.12026577152865939
1763693271586955300,0.231955322265625,9.26195450926721,3.2201632389873263,-0.1308921420211438
1763693271596913400,0.241913330078125,9.268662482473253,3.200879861846566,-0.12901370786339975
1763693271606872300,0.251872314453125,9.277981514960526,3.174176856099069,-0.11849630503756925
1763693271616831200,0.261831298828125,9.290980112743377,3.1363647195771334,-0.10623773936652578
1763693271626789400,0.271789306640625,9.308097251760959,3.08539119592607,-0.10035590565316378
1763693271636748300,0.281748291015625,9.32877822073996,3.022038083173334,-0.10753627301077358
1763693271646707200,0.291707275390625,9.351654653936624,2.9497619515135884,-0.12587540983767248
1763693271656666400,0.301666259765625,9.37447088137865,2.87540083027333,-0.14748797884467058
1763693271666624300,0.311624267578125,9.394036582592129,2.8096254588097334,-0.1687267187037505
1763693271676583200,0.321583251953125,9.40761093443632,2.762444897700846,-0.1901030312694609
1763693271686542300,0.331542236328125,9.413566043448448,2.74051392866075,-0.21151914612259715
1763693271696500200,0.341500244140625,9.411663424697517,2.745292395108938,-0.23312115720296278
1763693271706459400,0.35145947265625,9.402841235816478,2.7741449801057576,-0.24714016580842435
1763693271716418300,0.361418212890625,9.389196156823635,2.8195781130254267,-0.2517058480224572
1763693271726377200,0.371377197265625,9.373791666942834,2.8712729366883636,-0.24125797590203582
1763693271736335400,0.38133544921875,9.359144132909178,2.920828994756937,-0.2134662433360703
1763693271746294300,0.391294189453125,9.346799030598998,2.962532001237571,-0.17646701236590742
1763693271756253200,0.401253173828125,9.337833633854984,2.9925664894953368,-0.1407080455141142
1763693271766210600,0.41121044921875,9.333345090264082,3.0076401399865746,-0.1146896884293761
1763693271776169500,0.42116943359375,9.334119581767917,3.0056171097263693,-0.10425304095586761
1763693271786128600,0.431128662109375,9.339815163061022,2.987677840670943,-0.10961800205511972
1763693271796087600,0.441087646484375,9.348756009885669,2.9589544350117443,-0.1254530105739832
1763693271806045400,0.45104541015625,9.359052362972497,2.9253634233161807,-0.1441455091495067
1763693271816004600,0.461004638671875,9.36917569757998,2.8919594586253163,-0.1596932982248254
1763693271825963500,0.470963623046875,9.37790144034922,2.8630241637811062,-0.168655845424626
1763693271835921400,0.48092138671875,9.384441071251034,2.8413988996893167,-0.1705989240501076
1763693271845880600,0.490880615234375,9.388688791823387,2.8275664814308286,-0.16664651489621027
1763693271855839500,0.500839599609375,9.390914651179314,2.8204890903905033,-0.16109019594332202
1763693271865797600,0.510797607421875,9.391716030690073,2.8179107643350956,-0.15948835023725405
1763693271875756500,0.520756591796875,9.39185339333415,2.8170433338508007,-0.16654853441445155
1763693271885715500,0.530715576171875,9.39194574779272,2.815657432450354,-0.18387675889944657
1763693271895674400,0.54067431640625,9.392269572919606,2.812880368952453,-0.20823429749934003
1763693271905632500,0.550632568359375,9.392715563121438,2.8093028027266262,-0.23471644530408084
1763693271915591400,0.56059130859375,9.392799734273552,2.8068013412997126,-0.2599241892588325
1763693271925550300,0.57055029296875,9.391941656139492,2.807337347872555,-0.28403677665432914
1763693271935508500,0.580508544921875,9.390043129041791,2.8109640139371157,-0.30975886333938685
1763693271945467400,0.59046728515625,9.386386944621801,2.820867568314075,-0.32988789752405134
1763693271955426600,0.600426513671875,9.38040027142763,2.839432275791466,-0.3407318745562807
1763693271965385500,0.610385498046875,9.372261388635636,2.8661162845775485,-0.3412925041137263
1763693271975343400,0.62034326171875,9.3628891646564,2.897564731286466,-0.3328862756224349
1763693271985302500,0.630302490234375,9.353129987186193,2.931653171110153,-0.30781839679609985
1763693271995261400,0.640261474609375,9.342788625913858,2.9686224270671606,-0.2645122111688368
1763693272005219600,0.650219482421875,9.33157632702589,3.0077094058305023,-0.21388587525393812
1763693272015178500,0.660178466796875,9.32083339921534,3.0437349511966105,-0.16772663828311488
1763693272025137400,0.670137451171875,9.3121246075809,3.0719574215963483,-0.13341228988221845
1763693272035096300,0.680096435546875,9.30483152796328,3.0948575279295443,-0.11113827042495832
1763693272045054500,0.690054443359375,9.297949951756,3.1157772741004823,-0.10220564343938604
1763693272055013400,0.700013427734375,9.29250162322223,3.1320866038665174,-0.0991578458418604
1763693272064972300,0.70997216796875,9.288600524130462,3.1444059872135517,-0.07069015937624498
1763693272074930400,0.719930419921875,9.282185980913042,3.1638696893572806,-0.036507839857181534
1763693272084889300,0.729889404296875,9.274875365638731,3.185390616291761,0.018753702127293218
1763693272094848500,0.7398486328125,9.269656169685721,3.1992692117795345,0.09237472504037432
1763693272104807400,0.749807373046875,9.266813055214286,3.204384655097127,0.168761205495242
1763693272114765300,0.759765380859375,9.265736365893483,3.2030238881379365,0.23906406432064248
1763693272124724500,0.769724365234375,9.266813639736174,3.1952319190874694,0.2950392869828269
1763693272134683400,0.779683349609375,9.270677913948893,3.180119982412457,0.3342972749315202
1763693272144641300,0.789641357421875,9.276571063640713,3.159808139006793,0.36224370486885304
1763693272154600400,0.799600341796875,9.282241510492563,3.1405367445647716,0.3839345815427601
1763693272164559400,0.809559326171875,9.285404358437656,3.1286680275946854,0.4038384286694228
1763693272174517500,0.819517578125,9.284601809883117,3.128081459878385,0.42621896810792387
1763693272184476400,0.829476318359375,9.279848477876186,3.1387796717643734,0.4503984467271715
1763693272194435300,0.839435302734375,9.272812587890028,3.1557743534460663,0.47583388022426515
1763693272204394200,0.849394287109375,9.266035641101002,3.1714038842543957,0.5031505243580788
1763693272214352400,0.859352294921875,9.261324394670128,3.1797689770177007,0.5360223184010013
1763693272224311300,0.869311279296875,9.259965965798497,3.1767136811003085,0.5761107292918488
1763693272234270200,0.879270263671875,9.262097132608295,3.1616628269627687,0.6227618962317705
1763693272244228400,0.889228271484375,9.26633959248364,3.138495594125986,0.6746706549063325
1763693272254187300,0.899187255859375,9.271157806420325,3.1115359832689164,0.7310013216763734
1763693272264146700,0.909146728515625,9.275969590616226,3.0819065686807035,0.7928584967829286
1763693272274105600,0.919105712890625,9.281308029034733,3.0480311870858072,0.8586113641537726
1763693272284063200,0.929063232421875,9.28782427906096,3.0095103177726266,0.9217100637540221
1763693272294022700,0.939022705078125,9.29533947699666,2.9683500398665665,0.9777228236813098
1763693272303981600,0.948981689453125,9.302062063249945,2.930564499090612,1.0265573625423015
1763693272313939500,0.958939453125,9.306054347756504,2.9018364172562956,1.071020627516508
1763693272323898600,0.968898681640625,9.30667920165658,2.8840274965822696,1.112876705667004
1763693272333857500,0.978857421875,9.305361104795336,2.872939116334915,1.1518950031083077
1763693272343815700,0.988815673828125,9.303478359788656,2.8620155712604523,1.1935441605098545
1763693272353774600,0.998774658203125,9.302084859603642,2.8480642027974126,1.2369855350904166
1763693272363733500,1.0087333984375,9.303225261810422,2.828629726748168,1.2724939247146247
1763693272373692400,1.0186923828125,9.30798443903625,2.8019690988376733,1.2964463165797293
1763693272383650600,1.028650634765625,9.315472164443134,2.7714477038457987,1.3082194642208516
1763693272393609500,1.038609375,9.324111982494593,2.7415874031111596,1.3095860763989389
1763693272403568400,1.048568359375,9.332874550142884,2.7143226718276736,1.3039520160347222
1763693272413526500,1.058526611328125,9.341714274680614,2.6901474309921265,1.2906832230083645
1763693272423485400,1.0684853515625,9.350396762830018,2.6700892700865864,1.2692872376278042
1763693272433444600,1.078444580078125,9.35841055793762,2.6551997439906,1.2411479154668748
1763693272443403500,1.088403564453125,9.36553880238235,2.6460399937182664,1.206457564227283
1763693272453361400,1.098361328125,9.372035763186215,2.6418384503751993,1.1644815129589288
1763693272463320600,1.108320556640625,9.378085564744472,2.6412673724889753,1.116068341315165
1763693272473279500,1.118279541015625,9.383313528525829,2.644117501223087,1.0641693733822555
1763693272483237600,1.128237548828125,9.38760041206479,2.6502731012433767,1.0096528433620928
1763693272493196500,1.138196533203125,9.391453580361604,2.65928321391195,0.948262628180161
1763693272503155500,1.148155517578125,9.394757882604003,2.670828398016095,0.880672900770977
1763693272513113600,1.158113525390625,9.396794356867671,2.684623699134588,0.814515836513415
1763693272523072500,1.168072509765625,9.396853978100419,2.702287073858082,0.753105163065344
1763693272533031400,1.178031494140625,9.395001043710112,2.7229452464833854,0.6999324488695711
1763693272542990300,1.187990234375,9.391952762055396,2.74498113720268,0.6532081801608205
1763693272552948500,1.197948486328125,9.388339247733354,2.765969564695656,0.6155371326100081
1763693272562907400,1.207907470703125,9.384365667927264,2.7864073725685476,0.5830964234607294
1763693272572866600,1.217866455078125,9.380427743956446,2.8052123185425994,0.555642672411166
1763693272582824400,1.227824462890625,9.377240930613874,2.821209513619542,0.5277416159855202
1763693272592783400,1.237783447265625,9.375352340388298,2.8331331756472586,0.4964981903294101
1763693272602742500,1.247742431640625,9.375102749541401,2.840081679610908,0.4601825029103085
1763693272612701400,1.257701416015625,9.376286990889906,2.842657375317812,0.4182387099437415
1763693272622659300,1.267659423828125,9.378287809318303,2.8425030615389346,0.37185434071384366
1763693272632618500,1.277618408203125,9.380638171836733,2.8406656169787046,0.32346228492334483
1763693272642577400,1.287577392578125,9.382907870334387,2.8382378053098916,0.2753663808015175
1763693272652535600,1.29753564453125,9.384961295732856,2.8356825678691266,0.227578519715555
1763693272662494500,1.307494384765625,9.38685456213355,2.832790645819902,0.18067367027550935
1763693272672453400,1.317453369140625,9.388436278367042,2.8300533298105,0.13583657615338451
1763693272682411500,1.32741162109375,9.389182712820173,2.829301634660363,0.09318554823291487
1763693272692370400,1.337370361328125,9.388470180636643,2.832765219117701,0.04958324746959843
1763693272702329300,1.347329345703125,9.386047921925783,2.841212144945562,0.0021973278093028055
1763693272712288300,1.357288330078125,9.382030502977967,2.854024280245602,-0.04932586604189127
1763693272722246400,1.367246337890625,9.376106958147883,2.8720579495862126,-0.1013953134371899
1763693272732205300,1.377205322265625,9.367949370655417,2.8961586638808248,-0.15549601093176751
1763693272742164500,1.38716455078125,9.356832933357357,2.928102492891252,-0.21511190991755574
1763693272752122400,1.397122314453125,9.341080068430305,2.9725968836560845,-0.2797700591205619
1763693272762081500,1.40708154296875,9.320302068817615,3.03025178476721,-0.3463089075036347
1763693272772040700,1.417040771484375,9.297038682129978,3.0937752856507896,-0.4049865027260035
1763693272781999600,1.42699951171875,9.275151844492553,3.1521707759961486,-0.45360590099897236
1763693272791957500,1.43695751953125,9.257510389339924,3.196459122794866,-0.5015347597245127
1763693272801916700,1.446916748046875,9.246239638262987,3.221348649379611,-0.5480482717594132
1763693272811875600,1.45687548828125,9.243443870064615,3.2216286353647705,-0.5918126312166452
1763693272821833700,1.466833740234375,9.249315392446517,3.198464325137436,-0.624795740146935
1763693272831792600,1.476792724609375,9.260737534692883,3.159251089645922,-0.6544133181668818
1763693272841751600,1.48675146484375,9.275116188657282,3.110793055947125,-0.6823275263350457
1763693272851710500,1.49671044921875,9.288143428012727,3.065724372425675,-0.708597401362285
1763693272861668600,1.506668701171875,9.296035058045387,3.0313802042752505,-0.7515668475821614
1763693272871627500,1.51662744140625,9.299827436065673,3.0059079093664884,-0.8050543268155306
1763693272881586400,1.52658642578125,9.299315979412198,2.98911021156162,-0.8708177155803889
1763693272891544600,1.536544677734375,9.294157573735713,2.976843727445602,-0.9630267012655734
1763693272901503500,1.54650341796875,9.287614435702562,2.958599045702815,-1.0757758592195807
1763693272911462700,1.556462646484375,9.28359058701396,2.92737885479182,-1.1898653258666396
1763693272921420500,1.566420654296875,9.283947729888558,2.8866926241382953,-1.2828497529037297
1763693272931379500,1.57637939453125,9.289604732736944,2.842623765309155,-1.3390753518640994
1763693272941338600,1.586338623046875,9.301198139896988,2.7964640716806053,-1.355685272011906
1763693272951297500,1.596297607421875,9.318359702578187,2.7468901856943964,-1.3390841196924448
1763693272961255400,1.60625537109375,9.338003729724884,2.696994520407915,-1.3031868768811226
1763693272971214600,1.616214599609375,9.355696622803807,2.650656839863956,-1.2709629157550633
1763693272981173500,1.626173583984375,9.370262323772907,2.6052391967743636,-1.2574978695042431
1763693272991131600,1.636131591796875,9.381956268697976,2.5603759726971385,-1.2624411711253225
1763693273001090600,1.646090576171875,9.391447150620818,2.516870300708711,-1.2792454448014496
1763693273011049500,1.656049560546875,9.398796928861737,2.4740561181157825,-1.308452542324364
1763693273021007600,1.666007568359375,9.40263373054564,2.429596652533859,-1.363056531432271
1763693273030966500,1.675966552734375,9.402173127296566,2.379242283694446,-1.4521462891183792
1763693273040925400,1.685925537109375,9.39752500922978,2.32254380652532,-1.5693004040330647
1763693273050884600,1.695884521484375,9.389754375228286,2.2663149926945567,-1.6931358964078127
1763693273060842500,1.705842529296875,9.379233565735817,2.219700248774886,-1.8092231127433478
1763693273070801400,1.715801513671875,9.364327673026919,2.1904193553633986,-1.9188062078818677
1763693273080760600,1.725760498046875,9.344249346116184,2.183692239065468,-2.021601104184985
1763693273090718500,1.735718505859375,9.320613618984819,2.1983821509361268,-2.1127366884849965
1763693273100677400,1.745677490234375,9.296206322959065,2.228308356513828,-2.1875955301143226
1763693273110636500,1.755636474609375,9.271474617284536,2.2661621402204037,-2.2526978246219453
1763693273120595700,1.765595703125,9.246417917439341,2.3064912279993295,-2.3139226931743324
1763693273130553600,1.7755537109375,9.22113033144772,2.3459885411292314,-2.374337706648558
1763693273140512500,1.785512451171875,9.197045691505075,2.3834255607284605,-2.4298170172862705
1763693273150471700,1.7954716796875,9.176786162808536,2.4197223242513832,-2.4702064569503066
1763693273160429600,1.8054296875,9.161485133302211,2.456594695705175,-2.4905267759233713
1763693273170388500,1.815388427734375,9.149448658549785,2.4970187682911753,-2.4945690370514986
1763693273180347600,1.82534765625,9.138669490382075,2.5446947117015717,-2.485886841163039
1763693273190306600,1.835306640625,9.128061002606152,2.6000673470944164,-2.4674957366868853
1763693273200264700,1.8452646484375,9.114809306845068,2.662243525022268,-2.4501215541683137
1763693273210223600,1.8552236328125,9.096412649410963,2.7267966612145305,-2.4474963202312585
1763693273220182800,1.865182861328125,9.074990506675839,2.7866578401982784,-2.459566112731397
1763693273230140700,1.875140625,9.05352101766765,2.8365575971379875,-2.48154881195873
1763693273240099600,1.885099609375,9.03485197303295,2.8733351299151777,-2.507145025508106
1763693273250058800,1.895058837890625,9.021115124103426,2.8958640648484226,-2.530580553892255
1763693273260016600,1.9050166015625,9.014849633967875,2.9055028308093545,-2.5418349383562804
1763693273269975600,1.9149755859375,9.018985126337409,2.9086735697999595,-2.5234715986698864
1763693273279934700,1.924934814453125,9.033985127070546,2.9172818236693736,-2.4590575786873696
1763693273289893600,1.9348935546875,9.055767335289715,2.940122893291712,-2.3492855368480083
1763693273299851800,1.944851806640625,9.080190413406491,2.976081803162396,-2.205325832594186
1763693273309810700,1.954810791015625,9.106076549813151,3.019599457849562,-2.0326766249507666
1763693273319769600,1.96476953125,9.129954269006848,3.0692241972401737,-1.8423302864447235
1763693273329727700,1.974727783203125,9.14856193884313,3.124395757102966,-1.6469215499825776
1763693273339686700,1.984686767578125,9.16197437812388,3.1814716892823576,-1.451498784995079
1763693273349645600,1.9946455078125,9.170873723894356,3.23344445310384,-1.2689746645472944
1763693273359604500,2.0046044921875,9.17728534450233,3.2702479971051215,-1.1195070835921912
1763693273369562600,2.014562744140625,9.184002670058607,3.2835712967976924,-1.0210993893973528
1763693273379521500,2.024521484375,9.193328716808557,3.2683304730460048,-0.9854505683891475
1763693273389480700,2.034480712890625,9.20555516117513,3.2229017240405082,-1.0203159108694642
1763693273399438600,2.0444384765625,9.218118290150166,3.1490649189352986,-1.1314008619382976
1763693273409397500,2.0543974609375,9.227990864866971,3.0496292699322103,-1.3093252335056662
1763693273419356700,2.064356689453125,9.233432179138063,2.9279981557339427,-1.5300151262186468
1763693273429314600,2.074314453125,9.23373788408637,2.7892589626073834,-1.7687592926688491
1763693273439273500,2.0842734375,9.228472510904073,2.6428724695980548,-2.0052181246608494
1763693273449232600,2.094232666015625,9.217519155213235,2.5010972697764635,-2.2253613432765005
1763693273459191600,2.104191650390625,9.20136180113852,2.3755840534478425,-2.4211409588776527
1763693273469149700,2.114149658203125,9.180742791479826,2.2763486031919715,-2.58893600448817
1763693273479108600,2.124108642578125,9.155598997873067,2.2051076597988604,-2.7354870404094456
1763693273489067500,2.134067626953125,9.12774769887328,2.15352725629583,-2.866517266593873
1763693273499025700,2.144025634765625,9.099629857891797,2.1115029089063406,-2.9847414949581026
1763693273508984600,2.153984619140625,9.071535982307791,2.0707481430612504,-3.0967107545807955
1763693273518943500,2.163943603515625,9.041724196889996,2.0229810142360627,-3.213278740170598
1763693273528901600,2.173901611328125,9.01191474955976,1.9607443382926284,-3.3333547338813543
1763693273538860500,2.183860595703125,8.987718465936183,1.88528796916157,-3.440493212346732
1763693273548819500,2.1938193359375,8.97418386158049,1.807953677329421,-3.516491579400003
1763693273558778600,2.203778564453125,8.977534925574064,1.7370362668022512,-3.5435789082899687
1763693273568736500,2.213736572265625,9.001140842089056,1.676164449471235,-3.512879818643629
1763693273578695400,2.2236953125,9.040649845656752,1.6308764241106808,-3.4318034176737067
1763693273588654600,2.233654541015625,9.092084849339724,1.6020039653696119,-3.3072587541162966
1763693273598612500,2.243612548828125,9.153739633741974,1.5854266323171555,-3.14099647103101
1763693273608571600,2.253571533203125,9.22023542843461,1.5804389070324598,-2.942764347711205
1763693273618530600,2.263530517578125,9.284027224865556,1.6033641478069125,-2.7214786810621616
1763693273628489500,2.273489501953125,9.337161433681844,1.6568309495784341,-2.4985414478138086
1763693273638447600,2.283447509765625,9.384390217846631,1.7180600559145212,-2.269775070020556
1763693273648406500,2.293406494140625,9.433045235422252,1.7737724446557461,-2.0104161316953597
1763693273658365400,2.303365478515625,9.478899808624385,1.8203342893444001,-1.7341358691856263
1763693273668323600,2.313323486328125,9.519535770395398,1.8616576488576828,-1.4432783613994717
1763693273678282500,2.323282470703125,9.553224104985594,1.9011755663841963,-1.1365829407513142
1763693273688241400,2.333241455078125,9.579123685395716,1.9275189450390635,-0.8339362840373069
1763693273698199600,2.343199462890625,9.601860417860745,1.926605191195011,-0.5126967531973495
1763693273708158500,2.353158447265625,9.6184859739691,1.9094390984691678,-0.09565514408368617
1763693273718117400,2.363117431640625,9.604141806796193,1.9595117277577518,0.3019212833152152
1763693273728076500,2.37307666015625,9.567083703511953,2.0754688879728316,0.577692189797014
1763693273738034400,2.383034423828125,9.534124852240085,2.144342079321295,0.8201523080304265
1763693273747993300,2.392993408203125,9.53911374656856,2.076049172078818,0.9304344182837754
1763693273757952800,2.402952880859375,9.538297169488668,2.030839618781954,1.0329412914257496
1763693273767910700,2.41291064453125,9.537794480663537,1.9779064854957162,1.1352296264462172
1763693273777869800,2.422869873046875,9.531631281858681,1.938449650506675,1.2493221618331969
1763693273787829000,2.4328291015625,9.527260227167606,1.893939769911766,1.3471027371056377
1763693273797788000,2.442787841796875,9.526714283722638,1.8434977227889,1.419018803281337
1763693273807746000,2.45274609375,9.527398174333571,1.7955238193452356,1.474844150877744
1763693273817705000,2.462705078125,9.529277412208915,1.7532647864170372,1.513050547414273
1763693273827664000,2.472663818359375,9.535409631353616,1.7158115463353691,1.5173453219987452
1763693273837622000,2.4826220703125,9.547270749539136,1.6817257368601857,1.4804744118496775
1763693273847581000,2.492580810546875,9.562653612110019,1.648737074971944,1.4169374669626353
1763693273857539800,2.502539794921875,9.57984381636381,1.6112091622188687,1.3420071675322949
1763693273867498000,2.512498046875,9.5885385794729,1.561117243707925,1.3391123228736221
1763693273877457000,2.522456787109375,9.594954876255988,1.5209075445249676,1.3394279646940528
1763693273887415800,2.532415771484375,9.599616438326239,1.4937702390134333,1.336562199999392
1763693273897375000,2.542375,9.60493032682538,1.4734113415956496,1.32089029135406
1763693273907332900,2.552332763671875,9.609336452829837,1.4557245859965682,1.3083971588753163
1763693273917291800,2.562291748046875,9.61106488405764,1.4353127893477677,1.3182161037087439
1763693273927251000,2.5722509765625,9.610368133965133,1.4055609174236654,1.3548447295345365
1763693273937208800,2.582208740234375,9.60789677541554,1.3613488507315517,1.4161346261471508
1763693273947168000,2.59216796875,9.60406991060376,1.3004859473593533,1.4969856939285993
1763693273957127000,2.602126953125,9.598170915693045,1.2235471576508135,1.5963810109212995
1763693273967084800,2.612084716796875,9.590825229105352,1.1338778465110808,1.7031673149481414
1763693273977044000,2.6220439453125,9.581782675471901,1.036342332040891,1.8126842129826544
1763693273987003000,2.6320029296875,9.569988777303696,0.9340504898890852,1.9269797235958277
1763693273996961800,2.6419619140625,9.552930674996972,0.8283206361126154,2.055669962525368
1763693274006920000,2.651919921875,9.529014961880446,0.7151341096546501,2.203824926511943
1763693274016878800,2.66187890625,9.501730649113654,0.5931972539754584,2.3527885765329004
1763693274026837800,2.671837646484375,9.474612925085426,0.46531628560218957,2.487080727122724
1763693274036796000,2.6817958984375,9.447432657214998,0.3350249316189438,2.608477740304172
1763693274046754800,2.6917548828125,9.420450542265176,0.20709935691896825,2.7170953514114022
1763693274056713700,2.701713623046875,9.396460594868659,0.08813496857876889,2.805200043582916
1763693274066671900,2.711671875,9.377019981339574,-0.013504685283108846,2.8708360065758227
1763693274076630800,2.721630859375,9.362337960514425,-0.09007375462162308,2.917001545423269
1763693274086589700,2.731589599609375,9.35414062553346,-0.1368769063860178,2.941377277266979
1763693274096548900,2.741548828125,9.356140859439968,-0.15364599915090948,2.9341791824564334
1763693274106506800,2.7515068359375,9.369763142079114,-0.14435959942475893,2.8908626032993197
1763693274116466000,2.7614658203125,9.394850237062572,-0.11588606774024665,2.809581327407062
1763693274126424800,2.7714248046875,9.432843575370311,-0.07548725289308932,2.6806995114281773
1763693274136382700,2.7813828125,9.481483979898691,-0.03029061844330281,2.5041814995273945
1763693274146342000,2.791341796875,9.528805703043938,0.0011520319947179814,2.3178112250454723
1763693274156300800,2.80130078125,9.566493336403369,-0.0007180663757015281,2.156987187491357
1763693274166258700,2.8112587890625,9.596859248572587,-0.034456647514994256,2.017298000163585
1763693274176217900,2.8212177734375,9.626438394278287,-0.0783067261940334,1.8697415865920484
1763693274186176800,2.8311767578125,9.658225863683223,-0.11351661692885681,1.6959271345615385
1763693274196135700,2.8411357421875,9.688871761837602,-0.13654210320739074,1.5091418495379387
1763693274206093800,2.85109375,9.713612235340475,-0.15285062012267298,1.3389409118294715
1763693274216052700,2.861052734375,9.725657477921247,-0.16875895873922853,1.2463890309907495
1763693274226011600,2.87101171875,9.724991707488893,-0.1936353883803822,1.247968555267155
1763693274235969800,2.8809697265625,9.721227971041202,-0.21269642800735308,1.2739186968207359
1763693274245928700,2.8909287109375,9.708240479174256,-0.23637782091135157,1.3654951567560434
1763693274255888000,2.900887939453125,9.689306061601638,-0.2606025451781228,1.4899059648007154
1763693274265846800,2.9108466796875,9.670162969714402,-0.2695508811894804,1.6080037903062998
1763693274275804700,2.9208046875,9.648364394882321,-0.25801402652226385,1.7357630319960415
1763693274285763800,2.930763916015625,9.623251580935715,-0.2233994621989317,1.874434712844342
1763693274295722800,2.94072265625,9.59834627225995,-0.1661102343287319,2.0036331935569645
1763693274305680600,2.9506806640625,9.576011690855026,-0.09116539491638541,2.11236215608418
1763693274315639800,2.960639892578125,9.557397006756066,-0.004588682065829925,2.196934874737263
1763693274325598700,2.9705986328125,9.543315289911627,0.08951507042609155,2.255549560791254
1763693274335556900,2.980556884765625,9.531508532261848,0.185398707769718,2.299207500731945
1763693274345515800,2.990515869140625,9.519030158960819,0.276105453932099,2.341413342168182
1763693274355474700,3.000474609375,9.504656765693426,0.3560070755016059,2.3885448034383354
1763693274365433900,3.010433837890625,9.4879558062613,0.4220987098401412,2.4435456829093396
1763693274375391700,3.020391845703125,9.468757184794544,0.4749115777475759,2.5074849249869584
1763693274385351000,3.030350830078125,9.446669856148958,0.5187035193314775,2.5810382369756697
1763693274395309800,3.040309814453125,9.422745375204086,0.5615189440334215,2.6583731133297084
1763693274405267700,3.050267822265625,9.398822647824883,0.6108911334350705,2.7311770682558416
1763693274415227000,3.060226806640625,9.377151498764754,0.6702246352829039,2.7910961149066686
1763693274425185800,3.070185791015625,9.356905998593568,0.7377775378130376,2.8415441533789036
1763693274435143700,3.080143798828125,9.336047334960103,0.8067116655685007,2.890989152288437
1763693274445102800,3.090102783203125,9.311299262672662,0.869026009858027,2.9520985777676105
1763693274455062000,3.10006201171875,9.281560542491079,0.9214160492435097,3.0288629607573148
1763693274465021000,3.11002099609375,9.24701705237627,0.9649367726705967,3.1196076460435984
1763693274474978800,3.119978759765625,9.209024883112312,1.0040816191010176,3.2180832178428767
1763693274484938000,3.12993798828125,9.168476599624752,1.0465281374253332,3.3187641907319425
1763693274494897000,3.13989697265625,9.124965374678373,1.0993636555559934,3.4200565735176203
1763693274504855000,3.14985498046875,9.078699298065901,1.1683823197897523,3.5188755519270893
1763693274514814000,3.15981396484375,9.037904930862783,1.2451909072473644,3.5966871058821677
1763693274524772900,3.16977294921875,9.030356999701262,1.285392715384811,3.601499766860902
1763693274534731000,3.17973095703125,9.050047204077243,1.2833540491640567,3.552468901710212
1763693274544690000,3.18968994140625,9.084298433247207,1.2471458407074212,3.477145365178585
1763693274554648800,3.19964892578125,9.116881436944007,1.1894998535551131,3.4114433512121436
1763693274564607700,3.209607666015625,9.139819244939089,1.126275920139998,3.371289035478234
1763693274574566000,3.21956591796875,9.150824623078107,1.0688546085890382,3.360111515642702
1763693274584524800,3.22952490234375,9.153376645648478,1.0254237554024905,3.366688555945456
1763693274594484000,3.23948388671875,9.15395239970982,1.0028804266177118,3.3719092132031916
1763693274604441900,3.24944189453125,9.16122735914886,0.9963288130171596,3.354047101037204
1763693274614400800,3.25940087890625,9.164778329628705,0.9977252358116209,3.3439147063404318
1763693274624360000,3.26935986328125,9.189379686921834,0.9706644296023994,3.2838232257321476
1763693274634317800,3.27931787109375,9.203639682942628,0.9185889360588043,3.258772078844905
1763693274644276700,3.28927685546875,9.21525705550015,0.8584558813311159,3.242295575818419
1763693274654236000,3.29923583984375,9.224382611241936,0.801786995582655,3.2308331015616654
1763693274664194800,3.30919482421875,9.230487357857823,0.7559871482424437,3.224432879130542
1763693274674153000,3.319153076171875,9.235533535331488,0.7186627221722155,3.218513425953686
1763693274684112000,3.32911181640625,9.240792478772997,0.6844023598477244,3.210876355203986
1763693274694070800,3.33907080078125,9.24709011761248,0.6468934440560639,3.2005060600981112
1763693274704029000,3.34902880859375,9.255143660208581,0.600828625636734,3.186173875623941
1763693274713987800,3.35898779296875,9.264162832966447,0.5468318451743572,3.169645057888329
1763693274723946800,3.36894677734375,9.27284649015963,0.4886272742912173,3.1537200512647625
1763693274733906000,3.378906005859375,9.280239523020386,0.4330224010450765,3.1400685425311323
1763693274743863800,3.38886376953125,9.288443872264027,0.3865138939788565,3.121825906614959
1763693274753822700,3.39882275390625,9.299615839141607,0.3537950620079413,3.0923057976201176
1763693274763782100,3.4087822265625,9.313433352091907,0.33586298987828195,3.0524639088362453
1763693274773740000,3.418739990234375,9.331377005061507,0.3260362270645797,2.9982477500021454
1763693274783699000,3.428698974609375,9.35675460742414,0.31097192892357706,2.919730093604326
1763693274793658000,3.438658203125,9.38448491039276,0.2835232559079304,2.832214891758561
1763693274803616000,3.448615966796875,9.411676868700981,0.24376303579183295,2.7443215042501685
1763693274813575000,3.458574951171875,9.438454400989412,0.19341907874858005,2.65491069791615
1763693274823534000,3.4685341796875,9.462707383236289,0.1376971093282569,2.570718795274198
1763693274833493000,3.478492919921875,9.482618536886573,0.08363344677528366,2.4986671200200914
1763693274843451100,3.488451171875,9.500164130449294,0.03672489384107757,2.4322647026993334
1763693274853410000,3.49841015625,9.517540797185898,-0.0008227620806785125,2.3636406638063487
1763693274863369000,3.508368896484375,9.534846152251959,-0.030476599152211563,2.2926325062558055
1763693274873327000,3.5183271484375,9.553240471598505,-0.05342232787555549,2.2142997049055992
1763693274883286000,3.5282861328125,9.570870820835232,-0.07355144425861071,2.136214010184258
1763693274893245000,3.538244873046875,9.587179566079378,-0.0931643136486411,2.0609936417661605
1763693274903203000,3.548203125,9.604849662804604,-0.1090200909608975,1.9761979280121624
1763693274913162000,3.558161865234375,9.623480128994583,-0.11747351046162657,1.8828731631048023
1763693274923121000,3.568120849609375,9.640915247920155,-0.11685397205748595,1.7915043545708058
1763693274933080000,3.578080078125,9.654606504142285,-0.10692715553594752,1.7168346057727932
1763693274943038000,3.588037841796875,9.663855394002795,-0.0879071694385726,1.6651003268823026
1763693274952996900,3.597996826171875,9.669953126356004,-0.05879882414897438,1.6306250796981154
1763693274962956000,3.6079560546875,9.673962946519255,-0.01952922339430079,1.607619174902886
1763693274972914000,3.617913818359375,9.675898883017897,0.02843968878041487,1.5957932741612195
1763693274982873000,3.627873046875,9.67595090546608,0.08255424583698623,1.5935932798989116
1763693274992832000,3.63783203125,9.673324648615717,0.1405682443177793,1.605433355296403
1763693275002790000,3.647789794921875,9.665663904729485,0.20321455137487499,1.6443927621573209
1763693275012749000,3.6577490234375,9.651066639578342,0.27432806899603457,1.7181503645464777
1763693275022708000,3.6677080078125,9.629327101457118,0.36024449387565255,1.8211710324294863
1763693275032667000,3.6776669921875,9.60190893317759,0.4675248650297522,1.9378221662580966
1763693275042625000,3.687625,9.57025765737295,0.5989175678510219,2.054713246322423
1763693275052584000,3.697583984375,9.53594388436079,0.7549065133988857,2.160156903568655
1763693275062542800,3.70754296875,9.498072126606106,0.934036169102788,2.254902495059371
1763693275072501000,3.7175009765625,9.455836328423022,1.131099833165109,2.340547226858139
1763693275082460000,3.7274599609375,9.41059667224884,1.3377847275316714,2.412753946543485
1763693275092418800,3.737418701171875,9.360741046711802,1.5484562073163688,2.4797569601058957
1763693275102377000,3.747376953125,9.306316798084973,1.7591313403628765,2.543286013947427
1763693275112336000,3.7573359375,9.24878756918013,1.9656812101729213,2.6012328837424517
1763693275122294800,3.767294677734375,9.193917914873362,2.160979910389334,2.640535258822143
1763693275132254000,3.77725390625,9.148212979274987,2.336462587893009,2.6498162973865864
1763693275142211800,3.7872119140625,9.116964439052342,2.484140874278545,2.623048701970279
1763693275152171000,3.7971708984375,9.102996703976393,2.5979931711688637,2.5605215186476706
1763693275162130000,3.8071298828125,9.105572691944241,2.6759189991533754,2.4694918789401648
1763693275172087800,3.817087890625,9.121248984503746,2.7196292538031934,2.361530101393163
1763693275182047000,3.827046875,9.144410079860688,2.733703079602122,2.253223748192191
1763693275192006000,3.837005859375,9.169913354429601,2.724885274635255,2.1582570612967014
1763693275201963800,3.8469638671875,9.194771316832304,2.701054317192733,2.0810735761120913
1763693275211923000,3.8569228515625,9.21890797922313,2.6679624871909615,2.0159597372971474
1763693275221881900,3.8668818359375,9.24289734209776,2.6267683070152996,1.959417911994457
1763693275231840800,3.8768408203125,9.266047916060685,2.576047296820581,1.916957365144789
1763693275241799000,3.886798828125,9.2873005474478,2.5142563188180325,1.8960352808862924
1763693275251757800,3.8967578125,9.30522608023882,2.4414669769391417,1.9032586562685667
1763693275261716700,3.906716796875,9.318960006558894,2.3585651141077277,1.9402432559251783
1763693275271675000,3.9166748046875,9.328413479080796,2.2695134964749215,2.0000975667767227
1763693275281633800,3.9266337890625,9.334023135656118,2.181658102889359,2.07045003689751
1763693275291593000,3.936593017578125,9.338051075997948,2.1001124769724906,2.135581849760562
1763693275301550800,3.94655078125,9.343897463938593,2.025850724453479,2.181260774134844
1763693275311509800,3.956509765625,9.353850702676176,1.9555007385507226,2.2026973837867376
1763693275321469200,3.96646923828125,9.368188440108298,1.8825218654491007,2.205342783728987
1763693275331428000,3.976427978515625,9.38519510448873,1.8004798343174158,2.2015394459232684
1763693275341385700,3.9863857421875,9.40246363467574,1.7085650823384522,2.201105584550649
1763693275351345200,3.99634521484375,9.418217084124684,1.6114610911533236,2.206980029541999
1763693275361304000,4.006303955078125,9.430528284165263,1.5161746707841752,2.2218752547264096
1763693275371262000,4.016261962890625,9.437748883068561,1.4294934355445206,2.2485182008497415
1763693275381221000,4.02622119140625,9.44112741959095,1.3550048885323107,2.2802330434098836
1763693275391180000,4.036179931640625,9.444179792898893,1.2929346551969647,2.303514111884683
1763693275401138200,4.04613818359375,9.449380284151434,1.2390835302829741,2.311768437749892
1763693275411097000,4.05609716796875,9.456354799339175,1.1874377333935349,2.310351995080709
1763693275421056000,4.066055908203125,9.466961533549428,1.135344631128013,2.2930358263596893
1763693275431015000,4.076014892578125,9.482242104789615,1.0839254095360635,2.2544573816403743
1763693275440973000,4.08597314453125,9.499118420788646,1.037916084163636,2.2045099861666557
1763693275450932000,4.095931884765625,9.51352396275997,1.0022598835665733,2.158407721813768
1763693275460891100,4.10589111328125,9.524259291785954,0.979507076749578,2.1211875598356125
1763693275470849000,4.11584912109375,9.531732988667487,0.9694770464487373,2.0920241553239523
1763693275480808000,4.125807861328125,9.536358894902467,0.9704696376826614,2.0703690806157886
1763693275490767000,4.13576708984375,9.538436285698413,0.9812840232942253,2.055649942650646
1763693275500725000,4.14572509765625,9.539572011730074,0.9992152551736682,2.041694336403906
1763693275510684000,4.155683837890625,9.540804183873533,1.0189652269128708,2.026117266435176
1763693275520643000,4.16564306640625,9.543032381317019,1.032335288356617,2.0087812239699065
1763693275530602000,4.17560205078125,9.546561724486946,1.0311104227367789,1.9925755007088184
1763693275540560100,4.18556005859375,9.551245498389004,1.0098152673821896,1.9810022595539687
1763693275550519000,4.19551904296875,9.55737362588048,0.9648132924214005,1.9738605711057782
1763693275560478000,4.20547802734375,9.565724690118431,0.8959464577484876,1.965852621217072
1763693275570436000,4.21543603515625,9.57792541552186,0.8046312060326337,1.9458418065845966
1763693275580395000,4.22539501953125,9.591666940626501,0.695719142023474,1.9199691141813993
1763693275590354000,4.23535400390625,9.605235447251797,0.5769885715723038,1.8912744962252674
1763693275600312800,4.245312744140625,9.617933016261459,0.4591374508367851,1.8587467298470437
1763693275610271000,4.25527099609375,9.629297875362633,0.3511231759175658,1.8231065305367111
1763693275620230000,4.26522998046875,9.638651394641398,0.2592126617223024,1.788739419902116
1763693275630189000,4.27518896484375,9.645784899783134,0.1873995261981152,1.7590061065480112
1763693275640147000,4.28514697265625,9.650458736813068,0.13678923723571934,1.7379080812007188
1763693275650105900,4.29510595703125,9.65157400457859,0.1066184549129568,1.7338206657566129
1763693275660065000,4.30506494140625,9.648779989945888,0.09598676892453804,1.749919275381416
1763693275670023000,4.31502294921875,9.641309215673804,0.10385529207624494,1.7901840657524764
1763693275679981800,4.32498193359375,9.629853755679726,0.12516843974525108,1.8494956480294464
1763693275689941000,4.33494091796875,9.617212300771474,0.15079222628814168,1.9122963875964283
1763693275699899000,4.34489892578125,9.600065935659408,0.17602390824090688,1.99452590412423
1763693275709858000,4.354858154296875,9.580737550333142,0.19959661660604178,2.083269186460227
1763693275719817000,4.36481689453125,9.560996492552757,0.22091531723299992,2.1700072664536534
1763693275729775900,4.37477587890625,9.543307691127062,0.24127120070978997,2.2444269860133526
1763693275739734000,4.384734130859375,9.52963806221485,0.26129122156202794,2.2995899241782722
1763693275749693000,4.39469287109375,9.519113745591044,0.2805500122508034,2.34054488877058
1763693275759651800,4.40465185546875,9.509894666346907,0.2985887048264034,2.37552779321596
1763693275769610200,4.4146103515625,9.499354567632079,0.3136571859521791,2.4154218505784866
1763693275779569200,4.424569091796875,9.485614211571216,0.32362397829107936,2.467544544264674
1763693275789528000,4.434528076171875,9.469556226217746,0.32818387008514255,2.527881231805682
1763693275799487200,4.4444873046875,9.45259749263227,0.3287196939948946,2.590506322544813
1763693275809445000,4.454445068359375,9.43523193181157,0.327940051391907,2.6531571322470904
1763693275819404000,4.464404052734375,9.418502915328741,0.3293625219430774,2.7117724028229713
1763693275829363200,4.47436328125,9.403929615575075,0.335118235925585,2.7611928518131372
1763693275839321000,4.484321044921875,9.391949254924059,0.34630803072080013,2.800312271541357
1763693275849280000,4.494280029296875,9.381472284573317,0.3620522374173626,2.8332451115891337
1763693275859239200,4.5042392578125,9.371251334810257,0.38201208904758094,2.8642797168001533
1763693275869197000,4.514197021484375,9.36148981925249,0.40767088297177106,2.8925243990316987
1763693275879156200,4.52415625,9.353235201126337,0.44079073349162934,2.9142884870722887
1763693275889115100,4.534115234375,9.347095967718959,0.48237763931192457,2.9273700869634744
1763693275899074000,4.544073974609375,9.342454279392957,0.5325354991985485,2.9334859394952653
1763693275909032200,4.5540322265625,9.338451473492384,0.5901173716060817,2.9352114481136202
1763693275918991000,4.5639912109375,9.334379109486937,0.6519917170431464,2.935073500947654
1763693275928950000,4.573949951171875,9.329727484288812,0.7139747104864567,2.9354397039115425
1763693275938908200,4.583908203125,9.324540437039733,0.7715854801949114,2.9373437839671968
1763693275948867000,4.5938671875,9.31932065656483,0.8208579720817506,2.940551347836852
1763693275958826000,4.603825927734375,9.314639220750331,0.8590021901022642,2.9444857646763323
1763693275968784100,4.6137841796875,9.311037396866082,0.8845361520703882,2.9483146753147245
1763693275978743000,4.623742919921875,9.309052360528707,0.896819295060262,2.950871666321158
1763693275988702000,4.633701904296875,9.309023134434222,0.8959337443973868,2.9512331931099296
1763693275998660000,4.64366015625,9.311730639827251,0.8833545410703867,2.9464792765811083
1763693276008619000,4.653618896484375,9.317806744870543,0.861846765878424,2.9336121962234376
1763693276018578200,4.663578125,9.32745369413793,0.8343676611918955,2.9108111663505434
1763693276028537000,4.673537109375,9.339480232018232,0.8032870248820633,2.8808380528911948
1763693276038495000,4.683494873046875,9.352381799167395,0.7706230649035424,2.84771465870738
1763693276048454100,4.6934541015625,9.36354266012907,0.7371252113841473,2.8197704207271337
1763693276058413000,4.7034130859375,9.374762557801605,0.7054645832292735,2.790435020649433
1763693276068371000,4.713370849609375,9.3839442276448,0.6785057760898023,2.7661531045690175
1763693276078330000,4.723330078125,9.39127588570714,0.6600608225345611,2.745659767116606
1763693276088289000,4.7332890625,9.398722110059857,0.6525143526777625,2.7218808321222663
1763693276098248000,4.743248046875,9.405010981070994,0.6549633532650768,2.699476692612469
1763693276108206000,4.7532060546875,9.41121217379868,0.6660705112781375,2.675035494317114
1763693276118165000,4.7631650390625,9.417397584435344,0.6842528683744371,2.6485487616688013
1763693276128124000,4.7731240234375,9.423386011195182,0.707884503852576,2.6208921084582806
1763693276138082000,4.78308203125,9.42835094012618,0.7359221192047,2.5951880506202576
1763693276148041000,4.793041015625,9.43135479811728,0.7671725591234863,2.5751471331104634
1763693276157999900,4.802999755859375,9.431737075433135,0.8004588157188147,2.563588505002856
1763693276167958000,4.8129580078125,9.428833170685172,0.8356605505466461,2.5630373008608816
1763693276177917000,4.8229169921875,9.422865202191472,0.8731745078396052,2.5724612550273536
1763693276187876000,4.8328759765625,9.415618299803137,0.9140455935407429,2.5847701169803736
1763693276197835000,4.8428349609375,9.409826272398233,0.9587667787987738,2.589655843195319
1763693276207793000,4.85279296875,9.407477663445473,1.0059399603188037,2.580277189475298
1763693276217752000,4.862751953125,9.408779978215694,1.052130414411798,2.5570044504374265
1763693276227711000,4.8727109375,9.412683999916911,1.0930710582178085,2.525264911827445
1763693276237668900,4.8826689453125,9.417769924879073,1.1256480705652385,2.4917680081561207
1763693276247628000,4.8926279296875,9.423003149357438,1.148657117165625,2.461297174307704
1763693276257587200,4.902587158203125,9.42831294620335,1.162553905897215,2.434290363308042
1763693276267545000,4.912545166015625,9.434245258861779,1.1696982977591455,2.407740210034698
1763693276277504000,4.92250390625,9.441317973726987,1.1748333956252783,2.37732300606966
1763693276287463200,4.932463134765625,9.450110936513543,1.1834142500311136,2.3378011430203913
1763693276297422000,4.942422119140625,9.460348837411404,1.1995840982612223,2.2876161393985153
1763693276307380000,4.9523798828125,9.470374556863307,1.226215280881524,2.2313184981152414
1763693276317339100,4.962339111328125,9.478456741032003,1.2651270492084323,2.1745567464515565
1763693276327298000,4.972298095703125,9.483121810233593,1.3164900105684996,2.1231189662896095
1763693276337256200,4.982256103515625,9.483194290947914,1.378455760616064,2.083092222458124
1763693276347215000,4.992215087890625,9.478322300997377,1.4466567517913878,2.0588772341340777
1763693276357174300,5.00217431640625,9.468339836165308,1.5151668089158832,2.055527631445229
1763693276367132200,5.012132080078125,9.453839601647854,1.5769120480805634,2.0757291463442145
1763693276377091000,5.022091064453125,9.437001279571652,1.628113681399077,2.112494988683611
1763693276387050200,5.03205029296875,9.420746310341357,1.66898447483927,2.1527688391439614
1763693276397009200,5.042009033203125,9.406706679072975,1.7035417012184857,2.1868252763941882
1763693276406967000,5.051967041015625,9.39632907744348,1.737537348192185,2.204620606934279
1763693276416926200,5.06192626953125,9.389099710711836,1.7786020567692815,2.202672541606426
1763693276426885000,5.071885009765625,9.384035997581481,1.8353266912929713,2.177575217489898
1763693276436843300,5.08184326171875,9.380809436750411,1.9138975391827522,2.1231575447343287
1763693276446802200,5.09180224609375,9.377820191806554,2.0166781146995723,2.0395793900765478
1763693276456761000,5.101760986328125,9.372108243900536,2.1408530681617557,1.9366786953113972
1763693276466719200,5.11171923828125,9.360714158704877,2.280419213631749,1.8295101139687
1763693276476678100,5.12167822265625,9.341738240078092,2.427723113746941,1.7344931581906973
1763693276486637000,5.131636962890625,9.31484906410873,2.5756653117656705,1.6643068384170532
1763693276496596200,5.14159619140625,9.280893603014945,2.7200185453817247,1.6238544165194033
1763693276506554000,5.15155419921875,9.24159093567431,2.8584450192973017,1.6101770426921544
1763693276516513000,5.161512939453125,9.1985461591959,2.990212912106514,1.6173315906219183
1763693276526472200,5.17147216796875,9.152675219380855,3.1162223875194788,1.6395375772111116
1763693276536430000,5.18143017578125,9.104936147606372,3.2377021105483172,1.6696718725815414
1763693276546389000,5.191388916015625,9.056194036269188,3.3554780106231568,1.701912200320512
1763693276556348200,5.20134814453125,9.007416853618622,3.468840770430863,1.733196834769845
1763693276566306000,5.21130615234375,8.959603547564148,3.576144960851967,1.7626899096272886
1763693276576265200,5.22126513671875,8.9140955958426,3.6750793823346495,1.7897120643265545
1763693276586224000,5.23122412109375,8.872138030079007,3.763213008339703,1.8148780697651206
1763693276596183000,5.24118310546875,8.834024280261993,3.839222773569822,1.8414052805542944
1763693276606141200,5.25114111328125,8.799674851414562,3.9032159377917646,1.8710975312456488
1763693276616100000,5.26110009765625,8.768761242234707,3.9561078622847794,1.9048408108934758
1763693276626059000,5.27105908203125,8.74081583521068,3.9993642356872554,1.9425798821792006
1763693276636017200,5.28101708984375,8.715684316563605,4.034428534805774,1.9825792996123432
1763693276645976000,5.29097607421875,8.6936320592314,4.062112952806055,2.0224694114521147
1763693276655935000,5.30093505859375,8.67498347286284,4.0827772629112005,2.060577900572121
1763693276665893000,5.31089306640625,8.659567877066134,4.09692356942445,2.0970180180884896
1763693276675852000,5.32085205078125,8.647237387803196,4.104587235920131,2.1326108711257574
1763693276685811000,5.33081103515625,8.637740660661459,4.105955601663887,2.1681673376753925
1763693276695770000,5.34077001953125,8.63070944685042,4.10098044359982,2.205265626839548
1763693276705728000,5.35072802734375,8.625590788662434,4.089593080405891,2.2460613092169166
1763693276715687000,5.36068701171875,8.621565186408162,4.072292693775892,2.2924733701713382
1763693276725646000,5.37064599609375,8.617645967137813,4.050599332883954,2.3450391314499077
1763693276735604000,5.38060400390625,8.612601543229818,4.026136215017735,2.40493377431184
1763693276745563100,5.390563232421875,8.60563930300176,3.999491953720152,2.473341247844696
1763693276755522000,5.40052197265625,8.597380593222379,3.9703655202180146,2.54786808104068
1763693276765479700,5.410479736328125,8.589251062780619,3.9372269284650683,2.625527367043495
1763693276775438800,5.42043896484375,8.58247703860104,3.8977366295978424,2.705386501178145
1763693276785397800,5.430397705078125,8.577643042573332,3.8502462718874213,2.7874758785828946
1763693276795356700,5.440356689453125,8.574313021367788,3.7940351398438215,2.87347044673264
1763693276805314800,5.450314697265625,8.571701962086557,3.7290529645845294,2.9648738881886003
1763693276815273700,5.460273681640625,8.5687863669008,3.6560409198656676,3.0626214379742738
1763693276825232600,5.470232666015625,8.564621648436784,3.5759611287176605,3.1670401360869405
1763693276835190800,5.480190673828125,8.558716808307171,3.4897099554583426,3.277297038833797
1763693276845149700,5.490149658203125,8.550535839939117,3.3978272060528396,3.3931536612838507
1763693276855108900,5.50010888671875,8.538679982450605,3.3002430301353334,3.517062072764337
1763693276865067800,5.51006787109375,8.522074300086498,3.1962612621352076,3.650828738175332
1763693276875025700,5.520025634765625,8.500307873958349,3.0869907400771974,3.7928403771013017
1763693276884984800,5.52998486328125,8.472588676905632,2.975283054000139,3.94123265697509
1763693276894943700,5.53994384765625,8.437909577712416,2.8638503854721784,4.095172049582004
1763693276904901600,5.549901611328125,8.39523421906829,2.755306131862104,4.254258741949498
1763693276914860800,5.55986083984375,8.344401272931695,2.651626561678946,4.417038735876977
1763693276924819700,5.56981982421875,8.284752567654847,2.552961897048354,4.584282431215048
1763693276934777900,5.57977783203125,8.212023431530595,2.4585607350811363,4.763248420789838
1763693276944736800,5.58973681640625,8.122724268877505,2.368422783516347,4.958055538097024
1763693276954695700,5.59969580078125,8.015210235098003,2.2860499129950997,5.167278134247661
1763693276964653800,5.60965380859375,7.887692693209647,2.217878001783788,5.388479337483644
1763693276974612700,5.61961279296875,7.7360531019777055,2.1703610483273863,5.622579185259342
1763693276984571600,5.629571533203125,7.553429174417257,2.1487059736192227,5.873598019132018
1763693276994530600,5.639530517578125,7.333829561159014,2.1564637481391427,6.14288140849173
1763693277004488700,5.64948876953125,7.0809624690711495,2.192767087533325,6.420446303984522
1763693277014447600,5.659447509765625,6.802301010513305,2.252337905268371,6.695225952672958
1763693277024406800,5.66940673828125,6.501065901097655,2.3272210045561192,6.963517408385872
1763693277034364700,5.67936474609375,6.1771209472239015,2.409132248914987,7.225624622505903
1763693277044323600,5.689323486328125,5.833688033547997,2.4940417983070016,7.477849325037002
1763693277054282800,5.69928271484375,5.480055797418951,2.581177353185415,7.712126867467164
1763693277064241700,5.70924169921875,5.1250031730979675,2.668051042257249,7.9237763985037795
1763693277074199600,5.719199462890625,4.7695735321581365,2.7504855798378585,8.115195042416453
1763693277084158700,5.72915869140625,4.418907452358305,2.825705948255956,8.28607417164743
1763693277094117600,5.73911767578125,4.073763643111288,2.890440286234021,8.439204878219961
1763693277104075800,5.74907568359375,3.73168097500056,2.9409441465467214,8.578798642349243
1763693277114034700,5.75903466796875,3.393328141067922,2.974684211324155,8.706720088863372
1763693277123993600,5.76899365234375,3.062244129094481,2.990130786781013,8.823387150913476
1763693277133951700,5.77895166015625,2.750859089325368,2.9860718667790294,8.926731790053845
1763693277143910700,5.78891064453125,2.468096625189483,2.9602769157871602,9.017519145438074
1763693277153869600,5.79886962890625,2.2092710630886256,2.910852375143766,9.100355249556898
1763693277163828700,5.808828857421875,1.9749270312935112,2.8387285114362832,9.176692054784297
1763693277173786600,5.81878662109375,1.7681515360340474,2.7447961360245943,9.247169028067589
1763693277183745800,5.828745849609375,1.5841113119348882,2.6296254500120875,9.313757177218795
1763693277193705000,5.838705078125,1.4174024541258812,2.495476799546182,9.377311073240637
1763693277203662600,5.84866259765625,1.2567572802700102,2.345098752682656,9.438826741433143
1763693277213621800,5.858621826171875,1.0814295010671018,2.1821792041540147,9.499420618605614
1763693277223581000,5.868580810546875,0.8811831883806734,2.0129037107273935,9.557306405863166
1763693277233539800,5.878539794921875,0.6684248923845588,1.8437322621971368,9.608549686366318
1763693277243497700,5.888497802734375,0.45993780743423845,1.6765755144901573,9.651316814947128
1763693277253457000,5.898456787109375,0.2723556729445234,1.5118071232244372,9.68559142499268
1763693277263415800,5.908415771484375,0.12081766979037784,1.3493567996427416,9.712622055259347
1763693277273374000,5.9183740234375,0.006302089539848384,1.1868341414771972,9.73456734508574
1763693277283332900,5.928332763671875,-0.08023762119137681,1.022045584206283,9.75291782529056
1763693277293291800,5.938291748046875,-0.14636334046260452,0.8562670660499483,9.7680990278095
1763693277303250000,5.94825,-0.2031369560940191,0.6918647316176444,9.780105107423662
1763693277313208800,5.958208740234375,-0.25870765307592225,0.5316084109488874,9.788813899058104
1763693277323167700,5.968167724609375,-0.31290958245526995,0.37867443252485244,9.794338799959421
1763693277333126700,5.978126708984375,-0.36588147684931754,0.2351391094292514,9.797000712645053
1763693277343084800,5.988084716796875,-0.4186687353914603,0.09981347847268916,9.797201203653216
1763693277353043700,5.998043701171875,-0.4719706654574722,-0.029640093529142902,9.795241301757097
1763693277363003000,6.0080029296875,-0.5255305523399263,-0.15488155056154354,9.79133435744643
1763693277372960800,6.017960693359375,-0.5790591673012823,-0.2765630249738693,9.78563234641254
1763693277382919700,6.027919677734375,-0.6305811186153442,-0.3940344622094184,9.778419930815696
1763693277392878800,6.03787890625,-0.6774285022471099,-0.5053793793886899,9.770162974601984
1763693277402836700,6.047836669921875,-0.718432055221498,-0.6079619481153786,9.761384040340781
1763693277412796000,6.0577958984375,-0.7552053502149879,-0.699391108534485,9.752482356482744
1763693277422754800,6.0677548828125,-0.7909504712045192,-0.7791144143950194,9.743601715412735
1763693277432713700,6.077713623046875,-0.8281636919852345,-0.8481319826502353,9.734743286174535
1763693277442671900,6.087671875,-0.8662965118288993,-0.906675795425102,9.726142046567798
1763693277452630800,6.097630859375,-0.9018385845270007,-0.9540440611258149,9.71837842682898
1763693277462589700,6.107589599609375,-0.9314576969169079,-0.989496994235739,9.71203753336966
1763693277472547800,6.1175478515625,-0.9537075957130641,-1.0126127160809935,9.707494044721127
1763693277482506800,6.1275068359375,-0.9679732177570461,-1.0239971566654742,9.704888246136903
1763693277492465700,6.137465576171875,-0.9748744485128671,-1.0249046268992126,9.704102064195276
1763693277502423800,6.147423828125,-0.9796516728520392,-1.0168260229270905,9.704469143941997
1763693277512382700,6.1573828125,-0.9883476780701428,-1.0010949314404278,9.705225515267252
1763693277522341600,6.167341552734375,-1.0027360497109592,-0.9785955148626119,9.706042092347145
1763693277532300800,6.17730078125,-1.0224231853470205,-0.9499626370310783,9.70683411950767
1763693277542258700,6.1872587890625,-1.0482716200917959,-0.916260200850293,9.707315765544772
1763693277552217600,6.197217529296875,-1.084977037480846,-0.879483764051646,9.70668448190391
1763693277562176800,6.2071767578125,-1.1377020079091191,-0.8404661241974681,9.704102648717164
1763693277572134700,6.217134765625,-1.2056193598374723,-0.7993232358176261,9.699377373760939
1763693277582093800,6.22709375,-1.2841881619006394,-0.7547067530430853,9.692867553475498
1763693277592052700,6.237052734375,-1.3707009087055921,-0.7076297253739089,9.68456558907628
1763693277602011600,6.24701171875,-1.4624378198996186,-0.657625412081182,9.674666126352548
1763693277611969800,6.2569697265625,-1.551724123071134,-0.6046508873386308,9.664209029746056
1763693277621928700,6.2669287109375,-1.630734093030542,-0.5495556075824425,9.65448433906734
1763693277631887600,6.2768876953125,-1.6945393334649501,-0.49346773659233,9.646523150929807
1763693277641845800,6.286845703125,-1.739106204944104,-0.43631234596855933,9.641343117943405
1763693277651804700,6.2968046875,-1.764064266720414,-0.3763034656098112,9.63934054594934
1763693277661763600,6.306763671875,-1.7734360523082315,-0.3120571668770164,9.639913377401232
1763693277671721700,6.3167216796875,-1.7702001391269266,-0.24254671880463136,9.642507485547661
1763693277681680600,6.3266806640625,-1.7561466254636644,-0.1684413441574201,9.646654668354987
1763693277691639600,6.3366396484375,-1.7383106706522404,-0.09255095839011482,9.650911156755685
1763693277701598700,6.3465986328125,-1.7243195547007024,-0.018562574885808862,9.653846625685691
1763693277711556600,6.356556640625,-1.7172835185840725,0.051278913505538364,9.654981767195462
1763693277721515800,6.366515869140625,-1.716720185612887,0.1160127902592998,9.65452116394639
1763693277731474700,6.376474609375,-1.7234743360482154,0.17580303203184156,9.652415131577849
1763693277741432600,6.3864326171875,-1.7388932928457854,0.2318707370167598,9.648464932647347
1763693277751391700,6.396391845703125,-1.761852728150785,0.28482505922149864,9.642879825991391
1763693277761350700,6.4063505859375,-1.7919595509923993,0.3348442412897944,9.63572235545218
1763693277771309300,6.416309326171875,-1.8299812386117875,0.38193858541995285,9.626819502550363
1763693277781267500,6.426267333984375,-1.8749616593278944,0.42656606451254336,9.61628583357632
1763693277791226400,6.436226318359375,-1.9242894615985453,0.46923692964464425,9.604548049509525
1763693277801185300,6.446185302734375,-1.9756934856213628,0.5103074103754014,9.592007716888189
1763693277811143400,6.456143310546875,-2.028759159246087,0.5492693745195866,9.578768880608678
1763693277821102300,6.466102294921875,-2.0849246985822916,0.5859202121771871,9.564527004766465
1763693277831061200,6.476061279296875,-2.1439447505667806,0.6201068516783416,9.549311899977923
1763693277841019400,6.486019287109375,-2.2043815374813973,0.6511782817684113,9.533470187723635
1763693277850978300,6.495978271484375,-2.265509667661041,0.6765598296537995,9.517359010878204
1763693277860937500,6.5059375,-2.326627568707615,0.6935528308350593,9.501376428848504
1763693277870896400,6.515896484375,-2.386341155914217,0.7009124728828668,9.486015778109431
1763693277880854300,6.525854248046875,-2.4439992718957364,0.698016239984706,9.471538924467563
1763693277890813400,6.5358134765625,-2.4993942652508614,0.6864899797767401,9.457913719218968
1763693277900772400,6.5457724609375,-2.550962832185626,0.6680493370704352,9.445458142271637
1763693277910730200,6.555730224609375,-2.5954192290276286,0.6441070282079279,9.435005721840263
1763693277920689400,6.565689453125,-2.630518014937639,0.6145890381049365,9.42724970088601
1763693277930648600,6.575648681640625,-2.6559707283630964,0.5793002825807779,9.4223479003191
1763693277940607500,6.585607421875,-2.673006618838012,0.5375019990321248,9.420007474672794
1763693277950565400,6.5955654296875,-2.6843548190653324,0.48774998000003394,9.419488419234751
1763693277960524500,6.605524658203125,-2.6918782003074884,0.42887350120469925,9.420204458549618
1763693277970483500,6.6154833984375,-2.696506444630027,0.359522755472362,9.421783836695552
1763693277980441300,6.62544140625,-2.6977698886945842,0.27870096858432514,9.424157580089568
1763693277990400500,6.635400390625,-2.694134162540734,0.1859519760046154,9.427482340598106
1763693278000359400,6.645359375,-2.684181800585985,0.08188854846986941,9.43180078831911
1763693278010317600,6.655317626953125,-2.668155379414558,-0.03244415463182376,9.436645305740832
1763693278020276500,6.6652763671875,-2.6480332133620976,-0.15574830519240349,9.441083580449224
1763693278030235600,6.675235595703125,-2.626412040923536,-0.28714199439436194,9.444039507645368
1763693278040194600,6.685194580078125,-2.6068244201391932,-0.42612599259484557,9.444219540387392
1763693278050152400,6.69515234375,-2.59374778868407,-0.571949846752733,9.440113858634232
1763693278060111600,6.705111572265625,-2.5866949475631116,-0.7230323886238038,9.431682714897393
1763693278070070500,6.715070556640625,-2.581095520120859,-0.8772679146330803,9.420124379050732
1763693278080028400,6.7250283203125,-2.573228732268512,-1.0332567140504718,9.406447151353955
1763693278089987600,6.734987548828125,-2.559429631757736,-1.18997156272009,9.391680959376693
1763693278099946500,6.744946533203125,-2.5365432616889474,-1.3461140183292328,9.376797278499602
1763693278109905400,6.754905517578125,-2.5051293017715213,-1.5010715019375085,9.361703754264116
1763693278119863600,6.764863525390625,-2.4676854140400883,-1.6547373383000492,9.345734031715988
1763693278129822500,6.774822509765625,-2.4280036842539907,-1.8070865391060709,9.327895008164644
1763693278139781400,6.784781494140625,-2.3893536356031895,-1.9576954721160231,9.30745953837931
1763693278149739500,6.794739501953125,-2.354971911921352,-2.106329451791197,9.283741393661499
1763693278159698400,6.804698486328125,-2.3297836946509776,-2.2538201066501435,9.255418970018624
1763693278169657300,6.8146572265625,-2.3177580335535106,-2.4016551910325883,9.221195797899364
1763693278179615500,6.824615478515625,-2.3198626046173274,-2.5517840854406355,9.180252962136269
1763693278189574400,6.834574462890625,-2.3349724954657254,-2.7061428725033996,9.132088942947982
1763693278199533600,6.844533447265625,-2.359412524717301,-2.866092026919126,9.076842856544255
1763693278209492500,6.854492431640625,-2.3877016306124625,-3.031490971173346,9.015505467528104
1763693278219450400,6.864450439453125,-2.4152118610896167,-3.199763425037265,8.949785917904972
1763693278229409500,6.874409423828125,-2.4392322036243974,-3.3666242585375903,8.881801345959305
1763693278239368400,6.884368408203125,-2.4602140552461145,-3.527406648907065,8.813349741023778
1763693278249326600,6.89432666015625,-2.4815444280445575,-3.677155604086816,8.745905267304181
1763693278259285500,6.904285400390625,-2.506896019183099,-3.812792155022919,8.680350552853941
1763693278269244400,6.914244384765625,-2.5376103063985704,-3.932966056150198,8.617581669729947
1763693278279203300,6.924203369140625,-2.5735101795583963,-4.038887852302193,8.557733642488717
1763693278289161500,6.934161376953125,-2.6133950307011604,-4.134469163964688,8.499808107742666
1763693278299120400,6.944120361328125,-2.6543571556866166,-4.2244355583548545,8.442686290594935
1763693278309079300,6.954079345703125,-2.6925463088274,-4.312314625076949,8.385972469726205
1763693278319037400,6.964037353515625,-2.724355990064144,-4.39825337138623,8.330884204232692
1763693278328996400,6.973996337890625,-2.7477701833993193,-4.480011032618582,8.27947199690342
1763693278338955500,6.98395556640625,-2.7644299340382217,-4.556081588125228,8.232281206661462
1763693278348913400,6.993913330078125,-2.7767487328633664,-4.621063178862631,8.19181534076035
1763693278358872300,7.003872314453125,-2.7858438934668897,-4.674047750075161,8.15860105342269
1763693278368831500,7.01383154296875,-2.7928870899766682,-4.7137753648295995,8.133297100818156
1763693278378790400,7.023790283203125,-2.7977301460936665,-4.743564353893697,8.114290202531219
1763693278388748300,7.033748291015625,-2.797502767078578,-4.7657431602150195,8.10136057833135
1763693278398707500,7.04370751953125,-2.7886680109769104,-4.784026420402527,8.093627938252688
1763693278408666400,7.053666259765625,-2.769755805236101,-4.8020504451319574,8.08944626865387
1763693278418624500,7.06362451171875,-2.7418323177829382,-4.820016602194309,8.088274302265047
1763693278428583400,7.07358349609375,-2.7067940298885107,-4.838996904735267,8.088741919776798
1763693278438542300,7.083542236328125,-2.6669351899698377,-4.859222238901257,8.089857187542318
1763693278448501200,7.093501220703125,-2.6243416643902657,-4.881664664594829,8.090277458781003
1763693278458459400,7.10345947265625,-2.5811910894498227,-4.906883569264411,8.088901494252681
1763693278468418300,7.113418212890625,-2.5404806011378764,-4.935500591939688,8.084379048392176
1763693278478377200,7.123377197265625,-2.505330377301574,-4.967482707133889,8.07575676599741
1763693278488335400,7.13333544921875,-2.477593936853111,-5.001691266205906,8.063189545369148
1763693278498294300,7.143294189453125,-2.4576874593779445,-5.036818109166622,8.047401024606824
1763693278508253400,7.15325341796875,-2.445411476781219,-5.072144274091721,8.028929548370838
1763693278518212600,7.163212646484375,-2.4392884638562795,-5.107755101177096,8.008190127202868
1763693278528170200,7.173170166015625,-2.4384210333719847,-5.143970323896408,7.9852394597262135
1763693278538129700,7.183129638671875,-2.441482028377801,-5.180703433009982,7.9605182754457
1763693278548088600,7.193088623046875,-2.4459232256956396,-5.2173798435002565,7.935161131349205
1763693278558046500,7.20304638671875,-2.448486938703805,-5.252880780470371,7.910912240755557
1763693278568005600,7.213005615234375,-2.446222500903159,-5.286064088147878,7.889483083757757
1763693278577964500,7.222964599609375,-2.437066988414526,-5.316254643750191,7.872008801865578
1763693278587922400,7.23292236328125,-2.4204480081774293,-5.343150249460339,7.8589143424928185
1763693278597881600,7.242881591796875,-2.3975113692261276,-5.366449876505136,7.850068188214301
1763693278607840500,7.252840576171875,-2.3711836265318094,-5.385307137188315,7.845149436512589
1763693278617799400,7.26279931640625,-2.3441227472573516,-5.399037556377053,7.843845368176698
1763693278627757600,7.272757568359375,-2.317617017647624,-5.407928134319186,7.845594257670641
1763693278637716500,7.282716552734375,-2.2925899822883307,-5.412794279050827,7.849592971917986
1763693278647675400,7.29267529296875,-2.2706669042937455,-5.414593437427282,7.8547221514999865
1763693278657633500,7.302633544921875,-2.2525766824603077,-5.413697365370393,7.860545743086933
1763693278667592400,7.312592529296875,-2.236619819393754,-5.409999095374346,7.867644761437178
1763693278677551600,7.322551513671875,-2.2188085606321692,-5.403336130353808,7.877260146522522
1763693278687510500,7.332510498046875,-2.196290731614828,-5.392598463240265,7.890915746909379
1763693278697468400,7.342468505859375,-2.169070716255903,-5.376027267667651,7.90973267558217
1763693278707427600,7.352427490234375,-2.1403955336526037,-5.351785975858569,7.933944156774878
1763693278717386500,7.362386474609375,-2.11423584100157,-5.318644753757119,7.963191878569126
1763693278727344600,7.3723447265625,-2.0936730915747583,-5.276285036933422,7.99673525173068
1763693278737303600,7.382303466796875,-2.0791976992376147,-5.224946479362249,8.0341288705796
1763693278747262500,7.392262451171875,-2.0698180226042866,-5.167025620791316,8.073912599435449
1763693278757221400,7.402221435546875,-2.0651039996944367,-5.104150354683399,8.115010333499312
1763693278767180500,7.4121806640625,-2.0667012057580054,-5.040861831599473,8.15406808616817
1763693278777139500,7.422139404296875,-2.0746508495882154,-4.9790533179402345,8.189946039757132
1763693278787098400,7.432098388671875,-2.0861603778570887,-4.9188686060905455,8.223323993223906
1763693278797056500,7.442056396484375,-2.0969867461673912,-4.860283146131039,8.255341764253377
1763693278807015400,7.452015380859375,-2.1019950758486985,-4.801312193985283,8.288508120796084
1763693278816974300,7.461974365234375,-2.096865896266699,-4.740791966570914,8.324567860692738
1763693278826932500,7.471932373046875,-2.0781169182635844,-4.677373387366533,8.365044832509756
1763693278836891400,7.481891357421875,-2.0451421387702227,-4.609882736417651,8.410514790308476
1763693278846850300,7.491850341796875,-2.000374630152434,-4.5370308506965635,8.46074743246436
1763693278856809500,7.5018095703125,-1.9495435837119817,-4.457081407929957,8.514933196160197
1763693278866767400,7.511767333984375,-1.899658585949987,-4.368834092417359,8.571755738100409
1763693278876726300,7.521726318359375,-1.85679077347368,-4.271569942234456,8.629970611181855
1763693278886685400,7.531685546875,-1.8251574717171488,-4.166409778104723,8.687934724372624
1763693278896643300,7.541643310546875,-1.8069428928516804,-4.05596787417978,8.743826122942567
1763693278906602500,7.5516025390625,-1.801894231159985,-3.944017026996612,8.795925143492221
1763693278916561400,7.5615615234375,-1.8084435066729783,-3.8339439563840627,8.843121194431186
1763693278926520300,7.571520263671875,-1.824678163767606,-3.7275448981091377,8.885176375350355
1763693278936478500,7.581478515625,-1.8497665739253162,-3.6248531699195503,8.922397560241818
1763693278946437400,7.591437255859375,-1.8818964270271359,-3.524195577906072,8.955941517925261
1763693278956396300,7.601396240234375,-1.9177923546642064,-3.4229303753882645,8.987547201022505
1763693278966354400,7.6113544921875,-1.9544163043148814,-3.3182793298244473,9.01885185534656
1763693278976313300,7.621313232421875,-1.9908456081762909,-3.209491038325429,9.050198010724783
1763693278986272300,7.631272216796875,-2.026569540247321,-3.097032826142013,9.081396866586804
1763693278996231400,7.6412314453125,-2.060696412385255,-2.981609042151272,9.112294109153748
1763693279006189300,7.651189208984375,-2.0930087824471295,-2.8638705514773726,9.142645408275722
1763693279016148200,7.661148193359375,-2.123568902014196,-2.744604412844777,9.172132784044742
1763693279026107400,7.671107421875,-2.1523262099429963,-2.625244166187942,9.200326028349995
1763693279036065300,7.681065185546875,-2.1799777485869822,-2.506592944583297,9.226866244751214
1763693279046024400,7.6910244140625,-2.208015217808634,-2.389379208435863,9.251266526514291
1763693279055983400,7.7009833984375,-2.238050144457817,-2.2737673545271155,9.27316096293628
1763693279065942300,7.7109423828125,-2.2697993276789785,-2.1594800272203982,9.292742446240782
1763693279075900400,7.720900390625,-2.301945839654654,-2.045749164752662,9.310551659175752
1763693279085859300,7.730859375,-2.3346058541104195,-1.9318749482914803,9.32672771795094
1763693279095818200,7.740818359375,-2.368824934576452,-1.8186825766146182,9.34084742871821
1763693279105776400,7.7507763671875,-2.4045937287025154,-1.7071980317689477,9.352741280129552
1763693279115735300,7.7607353515625,-2.441402679531276,-1.5986379960678516,9.362388813918828
1763693279125694200,7.770694091796875,-2.4785931770235297,-1.4940512479119001,9.369887060719728
1763693279135653400,7.7806533203125,-2.5141578268796203,-1.394332544183731,9.37577904136777
1763693279145611300,7.790611328125,-2.5460660000547763,-1.3010470883734524,9.380576797038316
1763693279155570200,7.800570068359375,-2.5733517741262912,-1.2156390879400074,9.384588370767235
1763693279165529300,7.810529296875,-2.595853236530721,-1.1400026130016891,9.387882151615619
1763693279175487200,7.8204873046875,-2.613298584589362,-1.0743608047898858,9.390785471841692
1763693279185446100,7.830446044921875,-2.626401519529521,-1.020047249995917,9.393184934198855
1763693279195405300,7.8404052734375,-2.6358473932668565,-0.9775716517075895,9.395055404245852
1763693279205364200,7.8503642578125,-2.6422072836875916,-0.9472354770895093,9.396377592760324
1763693279215322400,7.860322265625,-2.6463106273531913,-0.9299971228450536,9.39694399447143
1763693279225281300,7.87028125,-2.650057412666082,-0.9273362330727278,9.396149044701456
1763693279235240200,7.880240234375,-2.654658184459805,-0.9407387354813516,9.393516358110308
1763693279245198300,7.8901982421875,-2.6615976283341642,-0.9706028356082737,9.38851401977837
1763693279255157200,7.9001572265625,-2.6719538949146866,-1.0167692512385547,9.380683180022238
1763693279265116200,7.9101162109375,-2.6855124646678563,-1.0787123510628938,9.369887645241617
1763693279275075300,7.920075439453125,-2.700253814464807,-1.1556621736221016,9.356468191698193
1763693279285033200,7.930033203125,-2.712355755668878,-1.2465168951541186,9.341289327266812
1763693279294992100,7.9399921875,-2.7187843274116514,-1.3499001127392052,9.325039034211635
1763693279304951600,7.94995166015625,-2.7191400089815256,-1.4634414439842105,9.307793884900212
1763693279314909200,7.9599091796875,-2.714937881116569,-1.5850350026510656,9.289089768952131
1763693279324868400,7.969868408203125,-2.705021467258036,-1.7137961148597298,9.2690961977154
1763693279334827500,7.97982763671875,-2.6885429184049365,-1.8524790477544069,9.24718481015861
1763693279344785200,7.98978515625,-2.665940333713591,-2.0050116423033177,9.221880857554078
1763693279354744300,7.999744384765625,-2.636840788218379,-2.172905910504609,9.19216785633564
1763693279364703500,8.009703369140626,-2.6032562062636018,-2.356106907300651,9.156538909071683
1763693279374662400,8.019662353515624,-2.568675014486909,-2.5523349973216654,9.113610452449322
1763693279384620500,8.02962060546875,-2.5365061445489525,-2.757151759728789,9.062816669279336
1763693279394579500,8.039579345703125,-2.5104198093950747,-2.9655171545282006,9.004105537113547
1763693279404538400,8.049538330078125,-2.4909610756874083,-3.1726860330194233,8.938654867559672
1763693279414496500,8.05949658203125,-2.4754534176930783,-3.3755160055235027,8.868392413809895
1763693279424455400,8.069455322265625,-2.460323360839486,-3.571870936794579,8.795393228572607
1763693279434414300,8.079414306640626,-2.4417718051046133,-3.760322547595203,8.721703722983598
1763693279444373200,8.089373291015624,-2.4199092251256107,-3.93894922221303,8.6486484236449
1763693279454331400,8.099331298828124,-2.3987673606365916,-4.104594542443752,8.577212834462523
1763693279464290300,8.109290283203125,-2.3839921085700393,-4.254747109988331,8.507885031214355
1763693279474249500,8.11924951171875,-2.3810744675576685,-4.387345900663734,8.441093468445539
1763693279484207400,8.129207275390625,-2.3921432663217184,-4.504643954093754,8.375933306270838
1763693279494166300,8.139166259765625,-2.4147046422198413,-4.609630222961306,8.312092410001158
1763693279504125400,8.14912548828125,-2.4440891421362756,-4.704643671607971,8.25004015071392
1763693279514084400,8.15908447265625,-2.4770459475815296,-4.793276479306817,8.188964042982459
1763693279524042200,8.169042236328124,-2.5101851238563655,-4.872902389207482,8.131676806139945
1763693279534001400,8.17900146484375,-2.5417227101534605,-4.943241415324807,8.079256298550963
1763693279543960300,8.188960205078125,-2.569937289507687,-5.002126735013723,8.033962281841038
1763693279553918500,8.19891845703125,-2.5938530026242135,-5.049520354351401,7.996540605941415
1763693279563877400,8.20887744140625,-2.612324478860199,-5.086890007802844,7.966790195322036
1763693279573836300,8.218836181640626,-2.623871124269068,-5.116324192079901,7.944113084089755
1763693279583795200,8.228795166015624,-2.628564250521362,-5.141100905939936,7.926547032260895
1763693279593753300,8.23875341796875,-2.62742969353348,-5.163348978105187,7.9124477797597645
1763693279603712300,8.248712158203125,-2.622029880316555,-5.184795086237788,7.900206722345947
1763693279613671400,8.25867138671875,-2.6132547454476356,-5.206624056208133,7.888750093308091
1763693279623629300,8.26862939453125,-2.6019971461132165,-5.228748794254661,7.877830055364966
1763693279633588200,8.278588134765625,-2.5897783005312083,-5.253309235015511,7.865505995842814
1763693279643547400,8.28854736328125,-2.5766522769764064,-5.2801177469640965,7.8518544871091835
1763693279653506300,8.29850634765625,-2.5641025920048355,-5.310580105245113,7.835401364958286
1763693279663464200,8.308464111328124,-2.5526678825378415,-5.344840102243423,7.8158140364348885
1763693279673423400,8.31842333984375,-2.541001994663477,-5.383595072573423,7.792984949511289
1763693279683382300,8.32838232421875,-2.5288784261494874,-5.427375177589059,7.766516629302501
1763693279693340400,8.33834033203125,-2.51808435267359,-5.475944854968786,7.735868977582454
1763693279703299300,8.34829931640625,-2.5101956452503797,-5.528095313444734,7.701263528147339
1763693279713258200,8.35825830078125,-2.506424894540012,-5.582481568148732,7.663166729465127
1763693279723217200,8.368217041015624,-2.5062773027628658,-5.638534879282116,7.622065488269925
1763693279733175300,8.37817529296875,-2.507006201559305,-5.69602669878602,7.578957583427429
1763693279743134200,8.38813427734375,-2.505499304127693,-5.754653659799695,7.535040700289606
1763693279753093000,8.398093017578125,-2.500560386420786,-5.814015364828705,7.49098294737637
1763693279763051300,8.40805126953125,-2.4923612978741527,-5.872603747397661,7.447890824624896
1763693279773009400,8.418009521484375,-2.481030048781633,-5.928470596048236,7.407303378170728
1763693279782968300,8.42796826171875,-2.466450027026236,-5.980116612133384,7.370565008360147
1763693279792927200,8.43792724609375,-2.4481900015838445,-6.027220308613777,7.338212306287884
1763693279802885400,8.447885498046874,-2.425854397265613,-6.070556761515141,7.30985305776596
1763693279812844300,8.45784423828125,-2.399304974644631,-6.111207920855283,7.284699327287077
1763693279822803200,8.46780322265625,-2.3694579717829822,-6.1496735528498885,7.262063717108965
1763693279832761300,8.47776123046875,-2.33800923281312,-6.185470257896185,7.241826984766125
1763693279842720300,8.48772021484375,-2.3064180166326462,-6.216778419351577,7.225128363421559
1763693279852679200,8.49767919921875,-2.276250257384032,-6.241908768954873,7.213020576998591
1763693279862638300,8.507638427734374,-2.248970036270469,-6.258944659429789,7.20681237000823
1763693279872596200,8.51759619140625,-2.224162781141698,-6.266665024548769,7.207800796523689
1763693279882555100,8.52755517578125,-2.1996249906040726,-6.264899768441915,7.216859716770053
1763693279892514300,8.537514404296875,-2.172230057069659,-6.253937644922733,7.234644964307546
1763693279902472200,8.54747216796875,-2.1397532902263103,-6.234423966157436,7.261116207125783
1763693279912431400,8.557431396484375,-2.1022018504671753,-6.206512461403012,7.295914548784494
1763693279922390300,8.567390380859376,-2.06318647563532,-6.169409934455156,7.338393508073687
1763693279932349400,8.577349365234374,-2.0255122862793504,-6.1224231423527,7.38807143895626
1763693279942307300,8.587307373046874,-1.9885751790262758,-6.065715751224756,7.444665432837605
1763693279952266200,8.597266357421875,-1.9501143693372607,-6.001448738497495,7.506666838720441
1763693279962225400,8.607225341796875,-1.9101907936193048,-5.932319672691822,7.571603129011392
1763693279972183300,8.617183349609375,-1.8730330293528734,-5.861796522179246,7.6355428094804285
1763693279982142200,8.62714208984375,-1.8425553273722528,-5.792710710993409,7.695445197257399
1763693279992101400,8.637101318359376,-1.8184972831755875,-5.723667569905519,7.752617283287644
1763693280002060300,8.647060302734374,-1.7976852351628243,-5.655812761819362,7.807077772271633
1763693280012018400,8.657018310546874,-1.7753598599776625,-5.587288676169514,7.8613389392912385
1763693280021977300,8.666977294921875,-1.7467540893487632,-5.517301532229781,7.916983669623732
1763693280031936500,8.6769365234375,-1.707730823471397,-5.443966246905923,7.976043176835775
1763693280041894400,8.686894287109375,-1.6553838195100425,-5.364570638629794,8.040614725467563
1763693280051853300,8.696853271484375,-1.5915158891029655,-5.2764884505510325,8.111480405807495
1763693280061812500,8.7068125,-1.5230268747664988,-5.177347108319402,8.188152142077683
1763693280071771400,8.716771484375,-1.4582432908192275,-5.065861832821369,8.269277350625396
1763693280081729500,8.7267294921875,-1.4035875715240835,-4.941522336447239,8.353543195286393
1763693280091688400,8.7366884765625,-1.3633433855496346,-4.80618418393582,8.438737260708212
1763693280101647400,8.7466474609375,-1.3397723942175506,-4.662962292437255,8.522451901227235
1763693280111605500,8.75660546875,-1.3318091602534055,-4.514867241944373,8.603059807902573
1763693280121564400,8.766564453125,-1.335677087727934,-4.364574096885323,8.67968010624647
1763693280131523300,8.7765234375,-1.3472253405719994,-4.213898089988529,8.752052684018015
1763693280141482200,8.786482177734374,-1.3638972200401127,-4.063936368840933,8.820124349725246
1763693280151440400,8.7964404296875,-1.383510852048546,-3.914660291869938,8.884352199485898
1763693280161399300,8.8063994140625,-1.4048431245431303,-3.7655522649422286,8.945247105431557
1763693280171358500,8.8163583984375,-1.428217862650752,-3.615905308832228,9.003098405897617
1763693280181316400,8.82631640625,-1.4559374980948865,-3.46478974147439,9.057917791321874
1763693280191275300,8.836275146484375,-1.4880881017237901,-3.3118241623356934,9.109764882937073
1763693280201234400,8.846234375,-1.521894655866176,-3.1579385457426308,9.158693456757067
1763693280211193300,8.856193359375,-1.5529555645622313,-3.005338000524044,9.204709942522644
1763693280221151200,8.866151123046874,-1.5779595113068818,-2.8562524776890874,9.247824277105927
1763693280231110400,8.8761103515625,-1.5951137674644589,-2.712289120173454,9.288136998271941
1763693280241069300,8.8860693359375,-1.6030425146371126,-2.5737954262405633,9.326104617616533
1763693280251027500,8.89602734375,-1.6009095942616463,-2.4396475064270198,9.362456033936143
1763693280260986400,8.905986328125,-1.5900561918139458,-2.3085716875351965,9.397479416522383
1763693280270945300,8.9159453125,-1.5737382403500377,-2.178160177771002,9.431295761406421
1763693280280904200,8.925904296875,-1.554811713822931,-2.0470156775571406,9.463756600028276
1763693280290862300,8.9358623046875,-1.5355271676383913,-1.9148280980311334,9.49452349421382
1763693280300821200,8.9458212890625,-1.5190436503492295,-1.7828423246875404,9.522833642897009
1763693280310780200,8.9557802734375,-1.50732559389621,-1.6527303823918102,9.548131750282645
1763693280320739300,8.9657392578125,-1.500400032416731,-1.525877880283445,9.570311433386802
1763693280330697200,8.975697265625,-1.4969054682992398,-1.4036355023190379,9.589548633298277
1763693280340656400,8.985656494140626,-1.4949937894590197,-1.2871475962281227,9.606175942972301
1763693280350615300,8.995615234375,-1.4923428365588187,-1.1781480000659823,9.620563949286938
1763693280360573200,9.0055732421875,-1.4884579579494892,-1.0775688070509581,9.632949383607507
1763693280370532400,9.015532470703125,-1.483411780475825,-0.9866416778698563,9.643465516924858
1763693280380491300,9.0254912109375,-1.477783126939088,-0.9047061758525669,9.652359601998329
1763693280390449400,9.035449462890625,-1.4724693845704198,-0.8337140926539898,9.659563249766826
1763693280400408300,9.045408203125,-1.4672715236663818,-0.7741405715052038,9.665310268986225
1763693280410367200,9.0553671875,-1.4615259657517075,-0.7268798578321933,9.66984908145964
1763693280420326100,9.065326171875,-1.4557939979709684,-0.6933733095496892,9.673173841968179
1763693280430284300,9.0752841796875,-1.4508138714708387,-0.6742519911028444,9.675272860074042
1763693280440243200,9.0852431640625,-1.4483995038054882,-0.66982401859276,9.675942722159624
1763693280450202000,9.0952021484375,-1.4487369190663097,-0.6799879774715751,9.675183428224921
1763693280460161300,9.105161376953125,-1.4509990187793969,-0.7050054412849247,9.673054014980792
1763693280470119200,9.115119140625,-1.456332488761842,-0.7457761353515088,9.669193247899413
1763693280480078300,9.125078369140626,-1.4662427651405334,-0.8028080822587013,9.663126495206356
1763693280490037500,9.13503759765625,-1.4810104184225201,-0.876130361970514,9.654499536636472
1763693280499995100,9.1449951171875,-1.501105258076638,-0.9648695526532828,9.642930679395795
1763693280509954300,9.154954345703125,-1.5284242037653921,-1.0681245407488196,9.627741878092289
1763693280519913500,9.16491357421875,-1.5646429336160421,-1.1838623591247945,9.608367900058626
1763693280529872400,9.174872314453125,-1.6094658256828784,-1.3080840012729167,9.584828034517168
1763693280539830300,9.184830322265626,-1.6600563413657248,-1.4361296586886048,9.557831891041994
1763693280549789400,9.19478955078125,-1.7128649714894593,-1.5642195936374366,9.528361466407775
1763693280559748400,9.204748291015624,-1.7625034471444785,-1.6901732472099362,9.497751224088669
1763693280569706500,9.21470654296875,-1.8051469493456185,-1.814697306370735,9.466717203399538
1763693280579665400,9.22466552734375,-1.8413873065061865,-1.9410740076608954,9.434613507652282
1763693280589624300,9.234624267578125,-1.873805036638677,-2.0726266502842305,9.400184583827853
1763693280599583500,9.24458349609375,-1.9047259523421525,-2.2118020428709686,9.362174878907203
1763693280609541400,9.254541259765626,-1.9349473414741456,-2.359056550886482,9.319936158114672
1763693280619500300,9.264500244140624,-1.9640850270226597,-2.513051034681499,9.273474266669153
1763693280629459500,9.27445947265625,-1.990583011717349,-2.6714748792260883,9.223402368032932
1763693280639417300,9.284417236328125,-2.0117995488777756,-2.8318989576771854,9.1707918908298
1763693280649376500,9.29437646484375,-2.0235197972878813,-2.992131897470355,9.11717545145452
1763693280659335400,9.30433544921875,-2.02253370885998,-3.149299312213063,9.064306031054258
1763693280669294300,9.31429443359375,-2.00910548748821,-3.300450535406172,9.013371962630748
1763693280679252500,9.32425244140625,-1.9870453391104936,-3.4418151086002586,8.965262888500094
1763693280689211400,9.33421142578125,-1.9622158721499143,-3.5699896530926227,8.920497279578447
1763693280699170300,9.34417041015625,-1.9410745921827852,-3.6828687210366127,8.879138264229892
1763693280709128400,9.35412841796875,-1.930113199315965,-3.7810719056352973,8.84016585175693
1763693280719087400,9.36408740234375,-1.9323234227113424,-3.867832197460532,8.802066714987157
1763693280729046300,9.37404638671875,-1.9468363705798983,-3.9459304594025015,8.764123061040044
1763693280739005400,9.38400537109375,-1.9702540710464118,-4.018301283608377,8.725923971027136
1763693280748963300,9.39396337890625,-1.998143071708083,-4.084050936108827,8.688979264989495
1763693280758922200,9.403922119140624,-2.0273402323588727,-4.14146063028723,8.654975873100756
1763693280768881700,9.413881591796875,-2.0543578570134935,-4.188592676079273,8.625873112735151
1763693280778840600,9.423840576171875,-2.0756473132796582,-4.224386458516121,8.603293032136559
1763693280788798500,9.433798583984375,-2.0889977932401,-4.249748863309621,8.587554195734858
1763693280798757600,9.443757568359375,-2.093599149555713,-4.266084204299748,8.578328686749934
1763693280808716500,9.453716552734376,-2.088994432239234,-4.277282182401418,8.573874629950524
1763693280818674700,9.4636748046875,-2.075219881647825,-4.2868893841803075,8.572421508532763
1763693280828633600,9.473633544921874,-2.0532254919826984,-4.298738227406144,8.571784964194894
1763693280838592500,9.483592529296875,-2.0236460540160537,-4.315102209968865,8.57059721571505
1763693280848551400,9.493551513671875,-1.9871086136050522,-4.3362747618570925,8.568458450120687
1763693280858509600,9.503509521484375,-1.9456845701962708,-4.36281906991154,8.564490715533495
1763693280868468500,9.513468505859375,-1.9015387006081639,-4.392475664767622,8.559245800617337
1763693280878427400,9.523427490234376,-1.85701888314113,-4.425947141736746,8.551775610867143
1763693280888385500,9.533385498046876,-1.8140763979934156,-4.461901667693257,8.54230343364477
1763693280898344400,9.543344482421874,-1.7736191537901758,-4.5008185505867,8.530376264485716
1763693280908303600,9.5533037109375,-1.7360729747280477,-4.543255716560781,8.515589614242314
1763693280918262500,9.563262451171875,-1.7026259015478193,-4.589553357355296,8.497498077234626
1763693280928220400,9.573220458984375,-1.6738126256480812,-4.6399096258908505,8.475846217396855
1763693280938179600,9.5831796875,-1.6499739232905208,-4.69347404281795,8.450991762125492
1763693280948138500,9.593138427734376,-1.6319665574349462,-4.749733105656504,8.423010699266195
1763693280958096400,9.603096435546876,-1.6191370326086878,-4.808328210227192,8.392183014804125
1763693280968055600,9.6130556640625,-1.6096211623750627,-4.869034900124371,8.358945931112766
1763693280978014500,9.623014404296875,-1.601665088804066,-4.931924487018585,8.323532672426104
1763693280987973600,9.6329736328125,-1.5926333488255737,-4.996726337274909,8.286532436808944
1763693280997931500,9.642931640625,-1.5801669582232831,-5.06295032928884,8.248636129134892
1763693281007890400,9.652890380859375,-1.5646994861088692,-5.129096579891443,8.210632269433141
1763693281017849600,9.662849609375,-1.5483175294980407,-5.1935757740646595,8.173119408118724
1763693281027807500,9.672807373046876,-1.5326597955085337,-5.255225297769904,8.136580944794416
1763693281037766700,9.6827666015625,-1.518321911945939,-5.314083144930005,8.100963103446364
1763693281047725600,9.6927255859375,-1.505816942898929,-5.3711026707470415,8.065614726689457
1763693281057684700,9.702684814453125,-1.4938495878599583,-5.427566900768876,8.029964152115584
1763693281067642600,9.712642578125,-1.480699891168624,-5.483834146913885,7.994090290179848
1763693281077601800,9.722601806640625,-1.465819863553345,-5.539611563715338,7.958295338699221
1763693281087560700,9.732560791015626,-1.4499920336939394,-5.593766347751021,7.923237469321489
1763693281097519600,9.74251953125,-1.4341399461761115,-5.64460864623785,7.889995709455013
1763693281107477800,9.752477783203124,-1.4198494088865816,-5.69015283831656,7.859809245505929
1763693281117436700,9.762436767578125,-1.4074389862552283,-5.728292891618609,7.83429369597733
1763693281127395600,9.7723955078125,-1.3948894474141298,-5.757020973452925,7.815458647125959
1763693281137353700,9.782353759765625,-1.3795675212502478,-5.774504607695341,7.805272184154391
1763693281147312600,9.792312744140625,-1.3612459748789667,-5.7795028543740505,7.804790538117289
1763693281157271600,9.802271484375,-1.3437589796356857,-5.771959599387645,7.813399376508593
1763693281167230700,9.812230712890624,-1.3316380414701998,-5.752264134314656,7.829981093475222
1763693281177188600,9.822188720703124,-1.324742436737567,-5.721844446131587,7.853403470116853
1763693281187147500,9.8321474609375,-1.3186379823826253,-5.682838131389022,7.882697953662276
1763693281197106700,9.842106689453125,-1.3107564353525638,-5.639097773861884,7.915356945204734
1763693281207064600,9.852064697265625,-1.3029010456770658,-5.593541891345382,7.948906163585185
1763693281217023500,9.8620234375,-1.2987933180972933,-5.548097652509808,7.9813617415100335
1763693281226982700,9.871982666015626,-1.3006274016566575,-5.502381026473641,8.012651782786845
1763693281236941600,9.881941650390624,-1.3076906180411576,-5.453514411973953,8.044845494905113
1763693281246899700,9.891899658203124,-1.3171153028599918,-5.400440993434191,8.079034180232883
1763693281256858600,9.901858642578125,-1.3236141633599996,-5.341183917823433,8.117279447475076
1763693281266817500,9.911817626953125,-1.3219624506302177,-5.27406969897151,8.161309727859496
1763693281276775700,9.921775634765625,-1.308201928564161,-5.197077060183882,8.212755837458372
1763693281286734600,9.931734619140625,-1.2810101163864136,-5.10791526017487,8.272760516566038
1763693281296693500,9.941693603515626,-1.2436014460988343,-5.004976279225946,8.341106323039531
1763693281306652700,9.951652587890624,-1.2023611617591232,-4.887955289171636,8.41620978707969
1763693281316610600,9.961610595703124,-1.163514932949096,-4.75841442476213,8.495535252729058
1763693281326569500,9.971569580078125,-1.132194277338311,-4.6183442752927535,8.576680335021019
1763693281336528600,9.981528564453125,-1.111268320622295,-4.470887814964354,8.65717075279653
1763693281346487600,9.991487548828125,-1.1013046335559338,-4.319862556238472,8.73477538600266
1763693281356445400,10.001445556640626,-1.1020163620218635,-4.169032527823746,8.8076752025187
1763693281366404600,10.011404541015626,-1.111446745929122,-4.021740318146348,8.87472337039709
1763693281376363500,10.021363525390624,-1.125410827743262,-3.8795448470860716,8.936050822541118
1763693281386321700,10.03132177734375,-1.1393806086458265,-3.743286364859342,8.99222045353055
1763693281396280600,10.041280517578125,-1.1514797003056854,-3.612723463925719,9.043932520589232
1763693281406239500,10.051239501953125,-1.1630822406202554,-3.487609768308699,9.09143544552028
1763693281416198400,10.061198486328125,-1.175599557692185,-3.36759514939636,9.13496888229847
1763693281426156500,10.071156494140626,-1.18899007740207,-3.2519404792591926,9.175051886361837
1763693281436115500,10.081115478515626,-1.2023922144845127,-3.14065131085515,9.211999515008927
1763693281446074400,10.091074462890624,-1.215260463885963,-3.0340877096682783,9.245962574887276
1763693281456032500,10.101032470703124,-1.2269114464521407,-2.93322495047152,9.276920023208856
1763693281465991400,10.110991455078125,-1.23695134055987,-2.838471321804821,9.30502091305554
1763693281475950600,10.12095068359375,-1.2459363187871872,-2.7502412496879693,9.330284533649682
1763693281485909500,10.130909423828125,-1.2555794686622916,-2.6681799293339252,9.352792718055843
1763693281495867400,10.140867431640626,-1.2674471627190709,-2.5910309309408066,9.372859939050674
1763693281505826600,10.15082666015625,-1.2826923703849316,-2.517629302382469,9.390775534969567
1763693281515785700,10.16078564453125,-1.3014417867794632,-2.4468824261166153,9.406881451117991
1763693281525744600,10.17074462890625,-1.3236167937085033,-2.3787787578359243,9.42124432299137
1763693281535702500,10.18070263671875,-1.3494234351381658,-2.3131657373271883,9.433911496862768
1763693281545661700,10.19066162109375,-1.3787342852964997,-2.2504379168659447,9.44483913359046
1763693281555620600,10.20062060546875,-1.41028969951123,-2.1899070219270884,9.45440541883707
1763693281565578500,10.21057861328125,-1.4419400985330342,-2.1313694927625355,9.463005489400029
1763693281575537700,10.22053759765625,-1.4727610609933732,-2.0751298652768133,9.470755665135384
1763693281585496600,10.23049658203125,-1.502541136098653,-2.020383252827823,9.477911382108926
1763693281595455700,10.240455810546875,-1.530696532611549,-1.9671993596509099,9.484592467308044
1763693281605413600,10.25041357421875,-1.5568179390788077,-1.9137867722846567,9.491266538244485
1763693281615372500,10.26037255859375,-1.5826013457633554,-1.862933075620979,9.497117602360248
1763693281625331700,10.270331787109376,-1.6094509203746914,-1.8138859899878501,9.502098897904157
1763693281635289600,10.28028955078125,-1.637839833382517,-1.7684198315814137,9.505816457122563
1763693281645248800,10.290248779296874,-1.667731990560144,-1.7267992426872252,9.508271449059247
1763693281655207700,10.300207763671875,-1.6987888076029718,-1.6896628134697675,9.509444584491849
1763693281665166600,10.31016650390625,-1.7298986700072883,-1.6581300494782625,9.50938554778099
1763693281675124700,10.320124755859375,-1.7590543296039103,-1.6329539610370993,9.508395367699862
1763693281685083600,10.330083740234375,-1.7841370406731962,-1.6155070055432617,9.506703176829218
1763693281695042600,10.34004248046875,-1.8030283497564494,-1.6073742602311074,9.504515311396121
1763693281705000700,10.350000732421876,-1.8137177938140927,-1.610364381957799,9.501977317351102
1763693281714959600,10.359959716796874,-1.8154962016634641,-1.6260039957687258,9.498973459360004
1763693281724918500,10.36991845703125,-1.8098674019962548,-1.6545250107236205,9.495121460106969
1763693281734877700,10.379877685546875,-1.7999829907111822,-1.6954412507407366,9.489780683600902
1763693281744835600,10.389835693359375,-1.7896740704037248,-1.7473669605500994,9.48230757124126
1763693281754794500,10.39979443359375,-1.7818915998339653,-1.8081508073367178,9.472373037204147
1763693281764753700,10.409753662109376,-1.7785756071537733,-1.8764412303611635,9.459705278810858
1763693281774712800,10.419712890625,-1.7806357545539735,-1.9517761650696395,9.444061134955286
1763693281784670500,10.42967041015625,-1.7882231409430502,-2.034001005422324,9.425258819329738
1763693281794630000,10.4396298828125,-1.7997979895330964,-2.123998087211698,9.403177920424937
1763693281804588800,10.4495888671875,-1.8113390819840132,-2.2230805388629435,9.378025358989834
1763693281814546700,10.459546630859375,-1.8205895792797206,-2.33275394263342,9.349549206089973
1763693281824505900,10.469505859375,-1.8261422449707985,-2.4538866057902573,9.317405178332328
1763693281834464800,10.47946484375,-1.8281385333545506,-2.586198103956878,9.281157222387193
1763693281844423700,10.489423583984374,-1.828451983217895,-2.7282921604692936,9.24032252317369
1763693281854381800,10.4993818359375,-1.8284221726015208,-2.8778657590821384,9.194842043980955
1763693281864340700,10.5093408203125,-1.8290850204244256,-3.033784635068476,9.144452749958633
1763693281874299600,10.519299560546875,-1.8297632119469343,-3.195571818566322,9.089041243860125
1763693281884257800,10.5292578125,-1.827995617752522,-3.3627366034492847,9.02888751167059
1763693281894216700,10.539216796875,-1.8209810628153382,-3.5341859337836503,8.964593610936403
1763693281904175900,10.54917578125,-1.807774229109287,-3.7080677519619463,8.896773289641738
1763693281914134800,10.559134765625,-1.7900585396766662,-3.8819229743942616,8.825912869998811
1763693281924092700,10.5690927734375,-1.7731050667881965,-4.050949753756821,8.753075597324967
1763693281934051800,10.5790517578125,-1.764013997837901,-4.2100101426392795,8.679542159080505
1763693281944010800,10.5890107421875,-1.7679821708165109,-4.354090112271905,8.607352536660432
1763693281953969700,10.5989697265625,-1.7873394899763166,-4.480987184174358,8.537946992000936
1763693281963927800,10.608927734375,-1.8209205647997557,-4.591379695999622,8.471946287348866
1763693281973886700,10.61888671875,-1.8645009094595908,-4.687360820634662,8.409676585918664
1763693281983845600,10.628845703125,-1.9135617313571274,-4.77167430382967,8.351035596379637
1763693281993803800,10.6388037109375,-1.964722448143363,-4.845677405412495,8.296364679515362
1763693282003762700,10.6487626953125,-2.0158100996933874,-4.91056079647243,8.245804120579361
1763693282013721600,10.6587216796875,-2.063489111843705,-4.965424021038412,8.201033835482598
1763693282023680800,10.6686806640625,-2.105541808544844,-5.009900876146554,8.163208839479088
1763693282033638700,10.678638671875,-2.1408869704313576,-5.044121710178255,8.132883843842148
1763693282043597800,10.688597900390626,-2.168892144818604,-5.068551802557707,8.110245895576476
1763693282053556700,10.698556640625,-2.1878904214076695,-5.085308291569352,8.094637407556176
1763693282063514600,10.7085146484375,-2.1966284391365942,-5.09469220598638,8.08636759186089
1763693282073473800,10.718473876953125,-2.1945858273930847,-5.100781170511246,8.083082578840852
1763693282083432700,10.7284326171875,-2.1821965936802328,-5.105027722039819,8.08375477901399
1763693282093391600,10.7383916015625,-2.1607047467097638,-5.10914743231833,8.086924641221762
1763693282103349800,10.748349853515625,-2.1323735552385448,-5.113933497551083,8.091418445509671
1763693282113308700,10.75830859375,-2.1005324559502303,-5.119053909304737,8.096507293081283
1763693282123267600,10.768267578125,-2.0674368265561758,-5.124274858823418,8.101721228337288
1763693282133226800,10.778226806640625,-2.0344693535864353,-5.129546077224612,8.106731165453791
1763693282143184600,10.7881845703125,-2.003223005320877,-5.135325245147943,8.11085379834175
1763693282153143600,10.7981435546875,-1.974869748148322,-5.143044441223144,8.112911899915337
1763693282163102700,10.808102783203125,-1.9491877560116349,-5.1541123632043595,8.112101168054341
1763693282173060600,10.818060546875,-1.9260621703594922,-5.170121248719096,8.107434929808974
1763693282183019500,10.82801953125,-1.9042554122209547,-5.192571565458178,8.098233386221528
1763693282192978700,10.837978759765624,-1.88279337586686,-5.22268847130239,8.083872267913819
1763693282202937600,10.8479375,-1.8621835724279283,-5.261176315128803,8.063666515231132
1763693282212895700,10.857895751953125,-1.8413858452014624,-5.307812394097447,8.037838246491551
1763693282222854700,10.867854736328125,-1.8194079682797193,-5.361536385500431,8.00712512831986
1763693282232813600,10.8778134765625,-1.7965794658780097,-5.420930823755264,7.972212804892659
1763693282242772700,10.887772705078126,-1.7723716379471122,-5.484314623907208,7.934191994056105
1763693282252730600,10.897730712890626,-1.7464195966973899,-5.549654818823933,7.894411772331595
1763693282262689500,10.907689453125,-1.7187883701890705,-5.615318838867545,7.853938892167807
1763693282272648700,10.917648681640625,-1.6899064129672943,-5.680475493910908,7.813243893685937
1763693282282606600,10.927606689453125,-1.6615524251423774,-5.744420435076951,7.772466477617621
1763693282292565500,10.9375654296875,-1.635914272147417,-5.807067153126001,7.731243655869364
1763693282302525000,10.94752490234375,-1.6139844721511005,-5.868508587038517,7.689347464904189
1763693282312483800,10.95748388671875,-1.5965825248427687,-5.928633093133568,7.646739326277375
1763693282322441700,10.967441650390626,-1.585546020913124,-5.986973053899407,7.603457233911752
1763693282332401000,10.97740087890625,-1.5808846049733458,-6.04215250480771,7.56065971019268
1763693282342359800,10.98735986328125,-1.5808054022572933,-6.091821667861938,7.5207169913828364
1763693282352317700,10.997317626953125,-1.5823767432272433,-6.133562960526347,7.486380422016977
1763693282362276900,11.00727685546875,-1.5825488849237561,-6.165813371267914,7.4598039652585975
1763693282372235800,11.01723583984375,-1.5778370539709925,-6.187074770483374,7.443179578194021
1763693282382194700,11.027194580078126,-1.5696519939497113,-6.196369837573171,7.43717653838694
1763693282392152800,11.03715283203125,-1.5628957976877689,-6.193674607139825,7.4408426596790544
1763693282402111700,11.04711181640625,-1.5608917643889784,-6.179090201470255,7.453377731603384
1763693282412070700,11.057070556640625,-1.5628082655347884,-6.153364224061369,7.474231134539842
1763693282422029800,11.06702978515625,-1.566780530166626,-6.119710960784555,7.500981778821349
1763693282431987700,11.07698779296875,-1.5721725984685122,-6.082430739182233,7.530119610500336
1763693282441946600,11.086946533203125,-1.5803404150940477,-6.046017948064208,7.557684493774175
1763693282451905800,11.09690576171875,-1.5915173504076898,-6.01318944517374,7.581490316775441
1763693282461863700,11.10686376953125,-1.6038671288929878,-5.982469312739372,7.603160296791791
1763693282471822800,11.11682275390625,-1.615275973266363,-5.954487665358186,7.622688004082441
1763693282481781800,11.12678173828125,-1.6230106591716407,-5.925118947532773,7.643899718937277
1763693282491740700,11.13674072265625,-1.6238355656884609,-5.891268700379133,7.669843723011017
1763693282501698800,11.14669873046875,-1.6132677021838724,-5.848726028203964,7.7045561399519435
1763693282511657700,11.15665771484375,-1.5882213776022196,-5.793079544305801,7.7516551602572195
1763693282521616600,11.16661669921875,-1.5512722876504064,-5.721161140042543,7.812313919359445
1763693282531575600,11.176575439453124,-1.5096467303201555,-5.63119854504466,7.885490214729309
1763693282541533700,11.18653369140625,-1.4722402519896625,-5.524215841662883,7.967805509844422
1763693282551492600,11.19649267578125,-1.4474075701586901,-5.402845716488361,8.055102100503444
1763693282561451800,11.20645166015625,-1.4397370355308055,-5.271379729235172,8.14310128647387
1763693282571409700,11.21640966796875,-1.4502514152824877,-5.134974532014131,8.227951068502664
1763693282581368600,11.22636865234375,-1.4775878966279328,-4.9986932534337045,8.306636482682825
1763693282591327700,11.23632763671875,-1.5187131032206118,-4.867191902606189,8.377012918201089
1763693282601286700,11.24628662109375,-1.5699410400241613,-4.742761513078213,8.438712710788845
1763693282611244800,11.256244873046874,-1.6269235948316751,-4.624585507769883,8.493332189726829
1763693282621203700,11.26620361328125,-1.6855378424942493,-4.510218539355695,8.5432597114563
1763693282631162600,11.27616259765625,-1.7415001143433153,-4.396999864193797,8.590924548950792
1763693282641120800,11.286120849609375,-1.7897743159078061,-4.283255119331181,8.63833511942327
1763693282651079700,11.29607958984375,-1.8280238209336994,-4.166800238727033,8.687145619821548
1763693282661038600,11.30603857421875,-1.8539935439705848,-4.046013758659362,8.738585299679636
1763693282670997500,11.31599755859375,-1.8652322924740612,-3.920071211002767,8.793425143370031
1763693282680955600,11.32595556640625,-1.860878627309203,-3.7896386584505435,8.85133723411262
1763693282690914600,11.33591455078125,-1.8430740905493497,-3.6563510087281466,8.91092514911294
1763693282700873700,11.345873779296875,-1.8165813665516672,-3.5222359682708975,8.970188654464483
1763693282710832600,11.35583251953125,-1.7872705163933336,-3.3888922044470906,9.02726137177348
1763693282720790500,11.36579052734375,-1.7598264830201864,-3.256614024028182,9.08118234705329
1763693282730749700,11.375749755859376,-1.7372765052989125,-3.1257769823282957,9.131361797717213
1763693282740708600,11.38570849609375,-1.7216611491464078,-2.9960578387424346,9.177683988431095
1763693282750666500,11.39566650390625,-1.7150123587816952,-2.867627565923333,9.219860165381432
1763693282760625700,11.405625732421875,-1.7180280533410608,-2.740092488378286,9.258005479380488
1763693282770584800,11.415584716796875,-1.7295374354794621,-2.612759655407071,9.292607421684265
1763693282780543700,11.425543701171875,-1.7479745710544288,-2.4854861514076587,9.324019043514133
1763693282790502000,11.435501953125,-1.7718189725004136,-2.3578498054452237,9.352623206707834
1763693282800460800,11.445460693359376,-1.7997414370402693,-2.230232894835621,9.378558442953228
1763693282810419700,11.455419677734374,-1.831036008361727,-2.1028217359311876,9.40190600079298
1763693282820379000,11.46537890625,-1.8648549835942685,-1.9763725539267063,9.422667633792758
1763693282830336800,11.475336669921875,-1.9004107194915412,-1.8521828412868082,9.440776706457138
1763693282840295700,11.485295654296875,-1.9365768423721192,-1.731220712391287,9.456370581430196
1763693282850254800,11.4952548828125,-1.9721968756772577,-1.6157907909207045,9.469427631402015
1763693282860212700,11.505212646484376,-2.0050660028390586,-1.5069763420671223,9.48045872850418
1763693282870172000,11.515171875,-2.0334483399756254,-1.4071534473121166,9.489751457506417
1763693282880130800,11.525130859375,-2.0558647544451056,-1.3182657880693673,9.497682835027575
1763693282890089700,11.53508984375,-2.0716095821961757,-1.2420803740113973,9.504529339921474
1763693282900048000,11.5450478515625,-2.0806382534347474,-1.178803249104321,9.510612459227442
1763693282910006800,11.5550068359375,-2.083242152322829,-1.1283371635187416,9.516163079091905
1763693282919965700,11.564965576171875,-2.0793563969306645,-1.0912504917271435,9.521337266859412
1763693282929924600,11.574924560546876,-2.0702716115906834,-1.0679290912419557,9.525957912397384
1763693282939882800,11.5848828125,-2.0576367325536906,-1.0592723951209335,9.52966085856855
1763693282949841700,11.594841552734374,-2.04373840945214,-1.0661555787634105,9.531884964358806
1763693282959800800,11.60480078125,-2.02995655233711,-1.0893772452011703,9.532203528788685
1763693282969758700,11.6147587890625,-2.0176763319566846,-1.1295698471188544,9.530133152255415
1763693282979717600,11.624717529296875,-2.006750448794663,-1.1868510926119982,9.52547860444784
1763693282989676800,11.6346767578125,-1.9985909616060553,-1.2604184331260622,9.517738950106502
1763693282999636000,11.644635986328124,-1.9930143305175005,-1.3492254283480345,9.506728895792364
1763693283009593600,11.654593505859374,-1.987666247487813,-1.4530295016936956,9.492539042398333
1763693283019552800,11.664552734375,-1.9802393123574553,-1.5720181385591625,9.475115029388666
1763693283029512000,11.674511962890625,-1.9666548775106667,-1.7047350026562809,9.454974743157624
1763693283039469800,11.6844697265625,-1.9442725114412605,-1.8486038137562573,9.432543715640902
1763693283049429000,11.694428955078125,-1.9176852410279213,-2.0008884248934686,9.406876190420984
1763693283059388000,11.704387939453126,-1.8945821594685315,-2.159558645414561,9.376420846402645
1763693283069346800,11.714346923828124,-1.8793800602920352,-2.3241018496222794,9.340069430083036
1763693283079305000,11.724304931640624,-1.872281188072264,-2.4945012325122953,9.297440248668194
1763693283089263900,11.734263916015625,-1.8697446553319692,-2.672085412339866,9.248481864231824
1763693283099222800,11.744222900390625,-1.8660051765426993,-2.8570947737321255,9.19377119987905
1763693283109182000,11.754181884765625,-1.8577404754139482,-3.048132309372723,9.133896869152784
1763693283119139800,11.764139892578125,-1.8450941982001066,-3.242079887241125,9.06944923916161
1763693283129099000,11.77409912109375,-1.8319538538590072,-3.4341292302727697,9.00117123722732
1763693283139058000,11.784057861328124,-1.8248222484134136,-3.618861236028373,8.92996594966948
1763693283149016800,11.794016845703124,-1.8297640887297688,-3.791268013218045,8.857124000820518
1763693283158975000,11.80397509765625,-1.8493029019363223,-3.9484018179520963,8.784110202535986
1763693283168934000,11.813933837890625,-1.882865856581181,-4.088980209204554,8.712372415536642
1763693283178892800,11.823892822265625,-1.9259864747747777,-4.213556436944008,8.64331466140151
1763693283188851000,11.833850830078125,-1.9739304214715956,-4.323407389238477,8.57800369257927
1763693283198809900,11.843809814453126,-2.0239191718690095,-4.4190296174332495,8.517413322538136
1763693283208768800,11.853768798828124,-2.0735550171755253,-4.501118410316109,8.462310443997383
1763693283218728000,11.86372802734375,-2.1202400498524305,-4.569590181256831,8.413904432746767
1763693283228685800,11.873685791015625,-2.1611242872960865,-4.626179206702113,8.372481119990349
1763693283238644700,11.883644775390625,-2.193218046171218,-4.672454927925766,8.33836725346446
1763693283248604000,11.89360400390625,-2.2147741905495524,-4.7102898608013986,8.311338376763462
1763693283258561800,11.903561767578125,-2.2239389092579485,-4.743909806330501,8.289742631027101
1763693283268521000,11.91352099609375,-2.220066890130192,-4.774065290619433,8.273452005961538
1763693283278480000,11.92347998046875,-2.205509956989437,-4.803553835432231,8.260266945695877
1763693283288438800,11.933438720703125,-2.1827904679201544,-4.832900633686781,8.249173889273404
1763693283298397000,11.94339697265625,-2.1553955343857405,-4.863622227425873,8.238314057084917
1763693283308355800,11.95335595703125,-2.125791546499729,-4.895440091969072,8.22715436516702
1763693283318314800,11.963314697265625,-2.095423442373425,-4.927843355184793,8.215590768623352
1763693283328273700,11.973273681640626,-2.065194892848283,-4.962056590431929,8.202642439723014
1763693283338231800,11.983231689453126,-2.035160989112407,-4.997026781526207,8.188909682446718
1763693283348190700,11.993190673828124,-2.005435274542868,-5.033962719735503,8.173604561287164
1763693283358150000,12.00314990234375,-1.9760569121062754,-5.07333845231235,8.156398574942349
1763693283368108800,12.01310888671875,-1.9477299584187566,-5.11619559726417,8.136416694143414
1763693283378066700,12.023066650390625,-1.9228557755336164,-5.162808879879116,8.112855785813927
1763693283388025900,12.03302587890625,-1.9028408692479133,-5.213650593844056,8.085010916554927
1763693283397984800,12.04298486328125,-1.888549601306021,-5.268968576440215,8.052435511642694
1763693283407942700,12.052942626953126,-1.879119363529235,-5.328360676607489,8.015476192557811
1763693283417901800,12.06290185546875,-1.8701991211012006,-5.391000380393862,7.975576728367805
1763693283427860700,12.07286083984375,-1.8592193157948553,-5.455213617107272,7.934376702973246
1763693283437819600,12.082819580078125,-1.8461321629457175,-5.519743664684891,7.892694447019696
1763693283447777800,12.09277783203125,-1.831721944799274,-5.5835851454764605,7.851036156463622
1763693283457736700,12.10273681640625,-1.8171020294249056,-5.646077549746632,7.8096315484076735
1763693283467695600,12.112695556640626,-1.803438245731592,-5.707025647184253,7.768390021958947
1763693283477655000,12.122655029296874,-1.7921813770495354,-5.766508932766318,7.726957356852292
1763693283487612700,12.13261279296875,-1.7848662317305801,-5.825000869223475,7.6846613529145715
1763693283497571600,12.142571533203125,-1.7823536643877624,-5.883197622126341,7.640785386309028
1763693283507531000,12.152531005859375,-1.7846077269248664,-5.941695988324284,7.594853656217455
1763693283517488600,12.162488525390625,-1.7899242457725106,-6.000512918952107,7.547211615076661
1763693283527448000,12.172447998046875,-1.7958268939450381,-6.05901303871572,7.498916662985086
1763693283537407000,12.182406982421876,-1.8002987786620854,-6.11580226290822,7.45159435531795
1763693283547366000,12.192365966796874,-1.8016335343971848,-6.168980310866236,7.407304547214507
1763693283557324000,12.202323974609374,-1.798084755874425,-6.216431797870993,7.3683970166713
1763693283567283000,12.212282958984375,-1.7887204229407012,-6.255853707677126,7.337244922560453
1763693283577241900,12.222241943359375,-1.7744354386091232,-6.28471622954607,7.316016256570816
1763693283587200800,12.23220068359375,-1.7585075093761084,-6.300357450792193,7.30640262505114
1763693283597159000,12.242158935546875,-1.7457574795268476,-6.300581322675943,7.309265613266826
1763693283607117800,12.252117919921876,-1.737843345401436,-6.2849582216084,7.32458710103929
1763693283617077000,12.262076904296874,-1.73250198437348,-6.2554924731493,7.3510279487192625
1763693283627035000,12.272034912109374,-1.7251313094750045,-6.216034322986006,7.386151869070529
1763693283636993800,12.281993896484375,-1.7125614584982394,-6.170922677105665,7.426791922494768
1763693283646953000,12.291952880859375,-1.6955315593726932,-6.124428636956215,7.469064545556902
1763693283656912000,12.301911865234375,-1.6770954467110335,-6.077132632774115,7.511737566113472
1763693283666869800,12.311869873046875,-1.6599762618668377,-6.0300926491796965,7.553333312827348
1763693283676829000,12.321828857421876,-1.6438503258436918,-5.97963730418384,7.596846875861287
1763693283686787800,12.331787841796874,-1.6261070177517831,-5.923516188511252,7.644484240826964
1763693283696746800,12.341746826171875,-1.6037402876429259,-5.859894487950205,7.698053918451071
1763693283706705000,12.351704833984375,-1.5737195356495677,-5.78743072476387,7.7588295819312325
1763693283716663800,12.361663818359375,-1.5338208021119235,-5.704992680051922,7.827570525202154
1763693283726622700,12.371622802734375,-1.4847748855225742,-5.611515354931354,7.904221803206205
1763693283736580900,12.381580810546875,-1.4301882859408854,-5.50670999558866,7.98756059615016
1763693283746539800,12.391539794921876,-1.3751555500268935,-5.390895166453719,8.075739814862608
1763693283756498700,12.401498779296874,-1.325164899933338,-5.265301870626211,8.166449428835511
1763693283766457900,12.411457763671875,-1.2840942000068722,-5.13197418115437,8.257381745648384
1763693283776416000,12.421416015625,-1.2535101150423287,-4.99349685383439,8.346502044603229
1763693283786375200,12.431375244140625,-1.2339499667868017,-4.8533968937486405,8.431625382876396
1763693283796334000,12.441333984375,-1.2246291076686233,-4.715269110518694,8.510986504361034
1763693283806293000,12.45129296875,-1.223231661960855,-4.582373967245221,8.583468387725949
1763693283816251100,12.461251220703126,-1.2278612945228815,-4.456897283534706,8.64862913442254
1763693283826210000,12.4712099609375,-1.2390889371104539,-4.339976831245422,8.706299233102797
1763693283836169000,12.4811689453125,-1.2593003888815641,-4.231657326301932,8.7565762989223
1763693283846127000,12.491127197265625,-1.2882234087660909,-4.130346238815784,8.800631713747977
1763693283856086000,12.5010859375,-1.3232589201815426,-4.033848104569316,8.840105061480402
1763693283866045000,12.511044921875,-1.361289083368331,-3.9404266012892126,8.876392180392145
1763693283876004000,12.521004150390626,-1.3989628343328833,-3.8498447053492066,8.910217877626419
1763693283885962000,12.5309619140625,-1.4326998303703964,-3.761023681601882,8.942731323218345
1763693283895921000,12.5409208984375,-1.4604251649029552,-3.672809976097941,8.97485606175363
1763693283905880000,12.550880126953125,-1.4817933854937553,-3.583698444971442,9.007319822984933
1763693283915839000,12.5608388671875,-1.4972905220940709,-3.4925317348808047,9.04050546875
1763693283925796900,12.570796875,-1.5078858581274748,-3.398740521505475,9.07442644305229
1763693283935756000,12.580756103515625,-1.5154643305577338,-3.3022157915130257,9.108739631542562
1763693283945715000,12.59071484375,-1.5221866245500741,-3.203881966271996,9.142674049848317
1763693283955673000,12.600673095703126,-1.5302185398362576,-3.1044957093685865,9.175562173971533
1763693283965632000,12.610632080078124,-1.5414447211191058,-3.0042443600684403,9.207000099286436
1763693283975591000,12.6205908203125,-1.5574854630768298,-2.9033737098261714,9.236615485349297
1763693283985549800,12.6305498046875,-1.5780600490719079,-2.8010736113026735,9.264668444401025
1763693283995508000,12.640508056640625,-1.6011169534020124,-2.697619082047045,9.291375249540804
1763693284005467000,12.650466796875,-1.6246987583890555,-2.593445298606157,9.316907165682315
1763693284015426000,12.660426025390626,-1.6485343920066953,-2.4902003204479812,9.340857950112223
1763693284025385000,12.670385009765624,-1.6742559855014085,-2.389462356674671,9.362569431182742
1763693284035342800,12.6803427734375,-1.703103017540276,-2.291633266085386,9.381802539440988
1763693284045302000,12.690302001953125,-1.73418496902436,-2.1970922572560605,9.398711004143953
1763693284055261000,12.700260986328125,-1.7663989932782946,-2.104896642509103,9.413799852204322
1763693284065218800,12.71021875,-1.7986513037160037,-2.0162508291982113,9.427086034756899
1763693284075178000,12.720177978515625,-1.82978527764827,-1.9309915895856915,9.438937216070293
1763693284085137000,12.730136962890626,-1.859847238434851,-1.8511046906612811,9.449061719721556
1763693284095095800,12.740095703125,-1.888344726383686,-1.7784625021681189,9.457358423423766
1763693284105054000,12.750053955078124,-1.9145207856476305,-1.7128810458414256,9.464197914054989
1763693284115012900,12.760012939453125,-1.9369598503403365,-1.654341178589314,9.470043717473745
1763693284124971800,12.7699716796875,-1.955247202181071,-1.6032652174770832,9.47506943668127
1763693284134931000,12.779930908203125,-1.9691784046389162,-1.5611260115362704,9.479218957576155
1763693284144888800,12.789888916015625,-1.9788949120111763,-1.5295497006639838,9.482343811598419
1763693284154847700,12.79984765625,-1.984901312819123,-1.5101030957855284,9.484206682860851
1763693284164807000,12.809806884765624,-1.9876580641813575,-1.503639744990319,9.484656180194019
1763693284174766000,12.81976611328125,-1.9888279847435653,-1.5108666275039315,9.483260341921449
