time,seconds_elapsed,z,y,x
1763693271401474300,0.046474365234375,-0.04465854912996292,0.13043230772018433,-0.002800047630444169
1763693271411432200,0.05643212890625,-0.0222693532705307,0.26410114765167236,-0.025124793872237206
1763693271421391400,0.066391357421875,0.021377461031079292,0.3966219127178192,-0.012738165445625782
1763693271431350300,0.076350341796875,0.07187392562627792,0.4742189645767212,0.018384600058197975
1763693271441308200,0.08630810546875,0.11360938847064972,0.4537174105644226,0.06502693891525269
1763693271451267300,0.096267333984375,0.13345420360565186,0.38524115085601807,0.121014304459095
1763693271461226200,0.106226318359375,0.1480049043893814,0.29658612608909607,0.18037404119968414
1763693271471184100,0.11618408203125,0.1591092199087143,0.19460037350654602,0.22986355423927307
1763693271481143300,0.126143310546875,0.16519267857074738,0.10994860529899597,0.2758012115955353
1763693271491102200,0.136102294921875,0.16071191430091858,0.07316422462463379,0.30803346633911133
1763693271501061400,0.146061279296875,0.1478818655014038,0.05474713444709778,0.32162728905677795
1763693271511019300,0.156019287109375,0.12373632192611694,0.08541343361139297,0.3207353949546814
1763693271520978200,0.165978271484375,0.11161840707063675,0.19181764125823975,0.3126455247402191
1763693271530937300,0.175937255859375,0.11776711046695709,0.3447187840938568,0.2924337387084961
1763693271540895200,0.185895263671875,0.1281861960887909,0.4699094295501709,0.2348833531141281
1763693271550854400,0.1958544921875,0.1353040337562561,0.5019291639328003,0.137200728058815
1763693271560813300,0.205813232421875,0.13181768357753754,0.45005184412002563,0.025978870689868927
1763693271570772500,0.2157724609375,0.10143528133630753,0.319116473197937,-0.07405771315097809
1763693271580730400,0.22573046875,0.0486796535551548,0.15385028719902039,-0.1508086919784546
1763693271590689500,0.235689453125,-0.023002255707979202,-0.011032943613827229,-0.2034234255552292
1763693271600648400,0.2456484375,-0.10663403570652008,-0.14297233521938324,-0.27660149335861206
1763693271610606300,0.2556064453125,-0.17490017414093018,-0.19806727766990662,-0.39259496331214905
1763693271620565500,0.2655654296875,-0.19529706239700317,-0.14367274940013885,-0.5368953943252563
1763693271630524400,0.2755244140625,-0.155562162399292,0.010935738682746887,-0.6719906330108643
1763693271640483300,0.2854833984375,-0.07268432527780533,0.17476195096969604,-0.7766541838645935
1763693271650441500,0.29544140625,0.04938938841223717,0.25342079997062683,-0.8142316937446594
1763693271660400400,0.305400390625,0.19685527682304382,0.28970691561698914,-0.7364572286605835
1763693271670359300,0.315359375,0.36360591650009155,0.34043586254119873,-0.5492487549781799
1763693271680317400,0.3253173828125,0.5191637873649597,0.38269251585006714,-0.2862858176231384
1763693271690276400,0.3352763671875,0.5961448550224304,0.4220290184020996,-0.00010066748654935509
1763693271700235300,0.3452353515625,0.6338509917259216,0.34996598958969116,0.2624475955963135
1763693271710194400,0.3551943359375,0.6429909467697144,0.26161590218544006,0.4562695324420929
1763693271720152300,0.36515234375,0.6074971556663513,0.10371308028697968,0.5359393358230591
1763693271730111500,0.375111572265625,0.5361036658287048,-0.11464083194732666,0.5237412452697754
1763693271740070400,0.3850703125,0.4545517861843109,-0.25162026286125183,0.4488464891910553
1763693271750028300,0.3950283203125,0.3781092166900635,-0.27390000224113464,0.3320956528186798
1763693271759986400,0.404986328125,0.322744220495224,-0.19167089462280273,0.17792925238609314
1763693271769945300,0.4149453125,0.286016583442688,-0.04042438790202141,-0.006678941659629345
1763693271779903500,0.424903564453125,0.2703723609447479,0.13360999524593353,-0.18476718664169312
1763693271789862400,0.4348623046875,0.28017014265060425,0.2587798833847046,-0.3088771402835846
1763693271799821300,0.4448212890625,0.2895396649837494,0.3008309304714203,-0.36909255385398865
1763693271809780500,0.454780517578125,0.27577751874923706,0.26595258712768555,-0.3729346990585327
1763693271819738400,0.46473828125,0.23229928314685822,0.18077483773231506,-0.32942768931388855
1763693271829697300,0.474697265625,0.16362914443016052,0.0834733247756958,-0.25013235211372375
1763693271839656400,0.484656494140625,0.09047450870275497,-0.00845553632825613,-0.1632099598646164
1763693271849614300,0.4946142578125,0.032042622566223145,-0.05203550308942795,-0.08637270331382751
1763693271859573200,0.5045732421875,0.00762835843488574,-0.02244432270526886,-0.03514280542731285
1763693271869532400,0.514532470703125,0.03585493564605713,0.07414506375789642,-0.013030048459768295
1763693271879491600,0.52449169921875,0.10179693251848221,0.20875534415245056,-0.01888607256114483
1763693271889449500,0.534449462890625,0.1654488742351532,0.31053149700164795,-0.03515132889151573
1763693271899408400,0.544408447265625,0.2117263674736023,0.3527468740940094,-0.04821093752980232
1763693271909367600,0.554367431640625,0.23700882494449615,0.34639737010002136,-0.04206862300634384
1763693271919325400,0.564325439453125,0.2306385338306427,0.3211849629878998,-0.006734335329383612
1763693271929284400,0.574284423828125,0.15160231292247772,0.33306583762168884,0.022054968401789665
1763693271939243500,0.584243408203125,0.08449597656726837,0.25644588470458984,0.0865844264626503
1763693271949202400,0.594202392578125,0.010569021105766296,0.1389235258102417,0.18159988522529602
1763693271959160600,0.60416064453125,-0.051478635519742966,0.0041462755762040615,0.27523744106292725
1763693271969119500,0.614119384765625,-0.07083422690629959,-0.08478119969367981,0.33350685238838196
1763693271979078700,0.62407861328125,-0.002630670554935932,-0.23655128479003906,0.3579680025577545
1763693271989036500,0.63403662109375,0.14869840443134308,-0.405189573764801,0.3837910592556
1763693271998995500,0.643995361328125,0.29811158776283264,-0.45037969946861267,0.4107758104801178
1763693272008954600,0.65395458984375,0.3840786814689636,-0.38806384801864624,0.3898204565048218
1763693272018912500,0.66391259765625,0.41284802556037903,-0.24823057651519775,0.3023952841758728
1763693272028871400,0.673871337890625,0.4071318209171295,-0.11688081175088882,0.2386527806520462
1763693272038830600,0.68383056640625,0.3234763443470001,-0.012819658033549786,0.22270524501800537
1763693272048789500,0.69378955078125,0.1334933489561081,0.07010664790868759,0.18911053240299225
1763693272058747600,0.70374755859375,-0.0242595337331295,-0.3257341682910919,0.11482644826173782
1763693272068706600,0.71370654296875,-0.06620538234710693,-0.3522813618183136,0.19873467087745667
1763693272078665500,0.72366552734375,-0.004176635295152664,-0.5641014575958252,0.2411620169878006
1763693272088623600,0.73362353515625,0.054538875818252563,-0.7739745378494263,0.16076144576072693
1763693272098582500,0.74358251953125,0.09577632695436478,-0.7988412380218506,0.060747504234313965
1763693272108541400,0.75354150390625,0.1315079629421234,-0.7319692969322205,-0.008846488781273365
1763693272118500400,0.763500244140625,0.15719254314899445,-0.5743730068206787,-0.0735439881682396
1763693272128458500,0.77345849609375,0.16513276100158691,-0.37993934750556946,-0.15234266221523285
1763693272138417400,0.78341748046875,0.1395120918750763,-0.25853702425956726,-0.21884845197200775
1763693272148376600,0.79337646484375,0.0858248919248581,-0.2059459686279297,-0.2187826782464981
1763693272158334500,0.80333447265625,0.024023577570915222,-0.1959114521741867,-0.14707307517528534
1763693272168293400,0.81329345703125,0.0504077784717083,-0.22286424040794373,-0.02460947260260582
1763693272178252500,0.82325244140625,0.02484436333179474,-0.2444576770067215,0.1009010449051857
1763693272188211500,0.83321142578125,-0.10979440808296204,-0.30975839495658875,0.1765153855085373
1763693272198169300,0.84316943359375,-0.25591886043548584,-0.37170538306236267,0.16208450496196747
1763693272208128500,0.85312841796875,-0.31958118081092834,-0.45289477705955505,0.08392259478569031
1763693272218087400,0.86308740234375,-0.32325929403305054,-0.5325741767883301,-0.038001179695129395
1763693272228045600,0.873045654296875,-0.3132804334163666,-0.6020693182945251,-0.1760927438735962
1763693272238004500,0.88300439453125,-0.3060118556022644,-0.6568827629089355,-0.2708384096622467
1763693272247963400,0.89296337890625,-0.2865382730960846,-0.6968389749526978,-0.31443437933921814
1763693272257921500,0.902921630859375,-0.23935692012310028,-0.7386096119880676,-0.3386041522026062
1763693272267880400,0.91288037109375,-0.19850723445415497,-0.7762249112129211,-0.3804005980491638
1763693272277839400,0.92283935546875,-0.17686638236045837,-0.7469479441642761,-0.43181106448173523
1763693272287798500,0.932798583984375,-0.17077147960662842,-0.6676725745201111,-0.469864159822464
1763693272297756400,0.94275634765625,-0.17517714202404022,-0.5854469537734985,-0.4422796666622162
1763693272307715300,0.95271533203125,-0.18188831210136414,-0.5350652933120728,-0.3514461815357208
1763693272317674500,0.962674560546875,-0.20396831631660461,-0.5159525871276855,-0.23130512237548828
1763693272327632400,0.97263232421875,-0.24325738847255707,-0.49238651990890503,-0.15291471779346466
1763693272337591300,0.98259130859375,-0.2885633409023285,-0.5216400027275085,-0.15365080535411835
1763693272347550500,0.992550537109375,-0.3747789263725281,-0.5907306671142578,-0.19626538455486298
1763693272357509400,1.00250927734375,-0.429811030626297,-0.5298026204109192,-0.2596305012702942
1763693272367467500,1.012467529296875,-0.4624616503715515,-0.40955501794815063,-0.3486037850379944
1763693272377426400,1.022426513671875,-0.48721492290496826,-0.28488072752952576,-0.4023793935775757
1763693272387385300,1.03238525390625,-0.4781077206134796,-0.16096119582653046,-0.3957768976688385
1763693272397343500,1.042343505859375,-0.48404043912887573,-0.08670027554035187,-0.3689735233783722
1763693272407302400,1.052302490234375,-0.5268616676330566,-0.018663698807358742,-0.34263190627098083
1763693272417261300,1.06226123046875,-0.593411922454834,0.05555380508303642,-0.3066667318344116
1763693272427219500,1.072219482421875,-0.6632813215255737,0.1077943742275238,-0.26122280955314636
1763693272437178400,1.082178466796875,-0.7245910167694092,0.16065092384815216,-0.2037171721458435
1763693272447137300,1.09213720703125,-0.7612347602844238,0.22861319780349731,-0.15025794506072998
1763693272457096400,1.102096435546875,-0.7704623341560364,0.30029645562171936,-0.10820157080888748
1763693272467054300,1.112054443359375,-0.7719752788543701,0.33947980403900146,-0.068207286298275
1763693272477013200,1.12201318359375,-0.7720956802368164,0.36252838373184204,-0.026214027777314186
1763693272486972400,1.131972412109375,-0.7970454692840576,0.4186989963054657,0.004538825247436762
1763693272496930300,1.141930419921875,-0.7365685701370239,0.5249732136726379,0.045638591051101685
1763693272506889200,1.15188916015625,-0.6585578918457031,0.5267402529716492,0.07886525243520737
1763693272516848600,1.1618486328125,-0.545129120349884,0.5200410485267639,0.13530004024505615
1763693272526807600,1.1718076171875,-0.4966246783733368,0.4319380819797516,0.1748857945203781
1763693272536765400,1.181765380859375,-0.4538242220878601,0.38842684030532837,0.20205563306808472
1763693272546724600,1.191724609375,-0.4586288332939148,0.2755628824234009,0.18953824043273926
1763693272556683500,1.20168359375,-0.455736368894577,0.22431832551956177,0.18683139979839325
1763693272566641700,1.2116416015625,-0.4715653955936432,0.1544628143310547,0.17253874242305756
1763693272576600600,1.2216005859375,-0.4709150493144989,0.15642395615577698,0.14558462798595428
1763693272586559500,1.2315595703125,-0.43739864230155945,0.19978635013103485,0.10765083134174347
1763693272596518400,1.241518310546875,-0.41068288683891296,0.2606568932533264,0.05648724362254143
1763693272606476500,1.2514765625,-0.3961105942726135,0.3267722725868225,0.008471248671412468
1763693272616435500,1.261435546875,-0.38820579648017883,0.3797079026699066,-0.019872507080435753
1763693272626394600,1.27139453125,-0.39379045367240906,0.40320125222206116,-0.037942588329315186
1763693272636352500,1.2813525390625,-0.40120068192481995,0.396822988986969,-0.043118443340063095
1763693272646311400,1.2913115234375,-0.40195807814598083,0.3936692774295807,-0.04222681745886803
1763693272656270600,1.3012705078125,-0.38603290915489197,0.39044150710105896,-0.043243877589702606
1763693272666228500,1.311228515625,-0.3419368267059326,0.38266721367836,-0.04175703227519989
1763693272676187400,1.3211875,-0.2629786431789398,0.38051965832710266,-0.020383035764098167
1763693272686146600,1.331146484375,-0.16057422757148743,0.4166052043437958,0.024345019832253456
1763693272696105500,1.34110546875,-0.03803127259016037,0.49128371477127075,0.08068925142288208
1763693272706063600,1.351063720703125,0.09056531637907028,0.5827763676643372,0.12636806070804596
1763693272716022500,1.3610224609375,0.21765775978565216,0.6272154450416565,0.17891515791416168
1763693272725981400,1.3709814453125,0.3131866753101349,0.6705520153045654,0.24089570343494415
1763693272735939600,1.380939697265625,0.3868766129016876,0.75629061460495,0.3140210509300232
1763693272745898500,1.3908984375,0.4487959146499634,0.8338008522987366,0.4419079124927521
1763693272755857400,1.400857421875,0.48195919394493103,0.8838704228401184,0.5900696516036987
1763693272765816600,1.410816650390625,0.479459285736084,0.8124239444732666,0.6667673587799072
1763693272775774500,1.4207744140625,0.4476566016674042,0.6786733269691467,0.6262391209602356
1763693272785733400,1.4307333984375,0.43134605884552,0.6725783944129944,0.47938230633735657
1763693272795692800,1.44069287109375,0.45122870802879333,0.6611968278884888,0.27440252900123596
1763693272805650400,1.450650390625,0.37739628553390503,0.6360952258110046,0.010763698257505894
1763693272815609600,1.460609619140625,0.351358026266098,0.49164748191833496,-0.2594131827354431
1763693272825568800,1.47056884765625,0.3690803050994873,0.4543488621711731,-0.44053077697753906
1763693272835526400,1.4805263671875,0.3744809329509735,0.4383704364299774,-0.560451090335846
1763693272845485600,1.490485595703125,0.39252570271492004,0.3930082619190216,-0.5434883236885071
1763693272855444700,1.50044482421875,0.4305092990398407,0.5958327651023865,-0.4220399260520935
1763693272865403600,1.510403564453125,0.44887128472328186,0.720878005027771,-0.32982105016708374
1763693272875361800,1.52036181640625,0.5031315684318542,0.8346469402313232,-0.24071326851844788
1763693272885320700,1.53032080078125,0.5320487022399902,1.1353760957717896,-0.18153996765613556
1763693272895279600,1.540279541015625,0.492313027381897,1.3742496967315674,-0.23386149108409882
1763693272905237800,1.55023779296875,0.4361459016799927,1.4021873474121094,-0.38027143478393555
1763693272915196700,1.56019677734375,0.4445628225803375,1.201697587966919,-0.5000172853469849
1763693272925155600,1.570155517578125,0.5392371416091919,0.835050106048584,-0.5558368563652039
1763693272935114500,1.580114501953125,0.6608876585960388,0.4306214153766632,-0.5935243368148804
1763693272945072600,1.59007275390625,0.7285894751548767,0.07178977131843567,-0.6433243751525879
1763693272955031600,1.600031494140625,0.7108261585235596,-0.17797133326530457,-0.6508808135986328
1763693272964990700,1.60999072265625,0.6436386108398438,-0.1916155070066452,-0.5905860662460327
1763693272974948600,1.619948486328125,0.5698815584182739,-0.008616657927632332,-0.5691803693771362
1763693272984907500,1.629907470703125,0.48619627952575684,0.17351612448692322,-0.5526573061943054
1763693272994866700,1.63986669921875,0.3971542716026306,0.2808481752872467,-0.5243273973464966
1763693273004824600,1.649824462890625,0.3363540470600128,0.3719618320465088,-0.50755375623703
1763693273014783700,1.65978369140625,0.31187188625335693,0.6188323497772217,-0.515776515007019
1763693273024742700,1.66974267578125,0.2845742106437683,0.9835938215255737,-0.5731271505355835
1763693273034701600,1.67970166015625,0.2314974069595337,1.3013999462127686,-0.6454096436500549
1763693273044659700,1.68965966796875,0.1948011815547943,1.3917820453643799,-0.653476893901825
1763693273054618600,1.69961865234375,0.18556374311447144,1.2962284088134766,-0.5611895322799683
1763693273064577500,1.70957763671875,0.19384349882602692,1.2307021617889404,-0.3892020881175995
1763693273074535700,1.71953564453125,0.24642522633075714,1.1772814989089966,-0.15865302085876465
1763693273084494600,1.72949462890625,0.34377521276474,1.0896220207214355,0.05597538501024246
1763693273094453500,1.73945361328125,0.4561992287635803,0.9335373044013977,0.20217254757881165
1763693273104411600,1.74941162109375,0.5149949193000793,0.8349348306655884,0.2785179018974304
1763693273114370600,1.75937060546875,0.5058040618896484,0.7928688526153564,0.3081223964691162
1763693273124329500,1.76932958984375,0.44702649116516113,0.7755053043365479,0.31504929065704346
1763693273134288600,1.77928857421875,0.37279513478279114,0.724230170249939,0.3081122934818268
1763693273144246500,1.78924658203125,0.3028094172477722,0.5546520352363586,0.31012964248657227
1763693273154205400,1.799205322265625,0.22458197176456451,0.30786460638046265,0.33359768986701965
1763693273164164600,1.80916455078125,0.14431457221508026,0.10299082845449448,0.38774374127388
1763693273174122500,1.81912255859375,0.08724062889814377,-0.052964948117733,0.4840007722377777
1763693273184081700,1.82908154296875,-0.002126800362020731,-0.19513434171676636,0.5937997102737427
1763693273194040600,1.83904052734375,-0.09266415983438492,-0.24064482748508453,0.6992848515510559
1763693273203999500,1.84899951171875,-0.15433338284492493,-0.09193658083677292,0.7537270188331604
1763693273213957600,1.85895751953125,-0.19083945453166962,0.06308335810899734,0.7224900126457214
1763693273223916500,1.86891650390625,-0.2195771038532257,0.17410814762115479,0.6257627010345459
1763693273233875500,1.87887548828125,-0.28104206919670105,0.19967688620090485,0.5004867911338806
1763693273243833600,1.88883349609375,-0.39098718762397766,0.15319408476352692,0.37284067273139954
1763693273253792500,1.89879248046875,-0.5269394516944885,-0.0026791400741785765,0.2609468996524811
1763693273263751400,1.90875146484375,-0.6322381496429443,-0.3373953402042389,0.20144523680210114
1763693273273710600,1.918710693359375,-0.6882769465446472,-0.8652096390724182,0.2591748535633087
1763693273283668500,1.92866845703125,-0.7195395231246948,-1.4032624959945679,0.4213363230228424
1763693273293627400,1.93862744140625,-0.7523453831672668,-1.7963963747024536,0.5756614208221436
1763693273303586600,1.948586669921875,-0.754572868347168,-2.123523712158203,0.6470184326171875
1763693273313544400,1.95854443359375,-0.6800402998924255,-2.315582513809204,0.6789164543151855
1763693273323503600,1.968503662109375,-0.5568597912788391,-2.3320016860961914,0.7056138515472412
1763693273333462500,1.978462646484375,-0.4368990361690521,-2.3012568950653076,0.7011341452598572
1763693273343420400,1.98842041015625,-0.34560027718544006,-2.1618568897247314,0.6368699073791504
1763693273353379600,1.998379638671875,-0.30313563346862793,-1.8101553916931152,0.47071370482444763
1763693273363338500,2.00833837890625,-0.3225325047969818,-1.2752323150634766,0.21819092333316803
1763693273373297700,2.018297607421875,-0.40298181772232056,-0.6247301697731018,-0.08435722440481186
1763693273383255600,2.028255615234375,-0.516380786895752,0.09393688291311264,-0.40548065304756165
1763693273393214500,2.03821435546875,-0.6400063633918762,0.8938058614730835,-0.7009962201118469
1763693273403173600,2.048173583984375,-0.7734890580177307,1.6193902492523193,-0.9574460983276367
1763693273413131500,2.058131591796875,-0.8681787848472595,2.0963332653045654,-1.1725157499313354
1763693273423090400,2.06809033203125,-0.9020720720291138,2.321134328842163,-1.3434315919876099
1763693273433049600,2.078049560546875,-0.8698089122772217,2.341939687728882,-1.4268429279327393
1763693273443007500,2.088007568359375,-0.7618648409843445,2.2179765701293945,-1.3958958387374878
1763693273452966700,2.097966552734375,-0.5973731279373169,2.0192534923553467,-1.2600128650665283
1763693273462925600,2.107925537109375,-0.38141366839408875,1.7686201333999634,-1.0274478197097778
1763693273472884700,2.117884765625,-0.18376930058002472,1.583126187324524,-0.7609401941299438
1763693273482842600,2.127842529296875,-0.08366213738918304,1.441503882408142,-0.5584750175476074
1763693273492801800,2.1378017578125,-0.09968984127044678,1.2927350997924805,-0.4385879933834076
1763693273502760700,2.1477607421875,-0.15555763244628906,1.1962964534759521,-0.395140141248703
1763693273512718600,2.157718505859375,-0.1594940572977066,1.2462522983551025,-0.45841071009635925
1763693273522677800,2.167677734375,-0.16162191331386566,1.3185741901397705,-0.6164965033531189
1763693273532636700,2.17763671875,-0.1684420108795166,1.2033215761184692,-0.779299259185791
1763693273542595600,2.187595703125,-0.14582563936710358,0.8918441534042358,-0.8259927034378052
1763693273552553700,2.1975537109375,-0.13218653202056885,0.3662711977958679,-0.7602770924568176
1763693273562512600,2.2075126953125,-0.15821680426597595,-0.29795020818710327,-0.6469585299491882
1763693273572471600,2.217471435546875,-0.1779327094554901,-0.8746973872184753,-0.46561455726623535
1763693273582429700,2.2274296875,-0.15075835585594177,-1.3463789224624634,-0.28620511293411255
1763693273592388600,2.237388671875,-0.08571064472198486,-1.7945297956466675,-0.1706409752368927
1763693273602347500,2.247347412109375,-0.024448085576295853,-2.145220994949341,-0.08200991153717041
1763693273612305700,2.2573056640625,0.027101125568151474,-2.386483669281006,0.1748162806034088
1763693273622264600,2.2672646484375,0.051474910229444504,-2.4099977016448975,0.5486828088760376
1763693273632223500,2.277223388671875,0.10143900662660599,-2.374595880508423,0.6363477110862732
1763693273642182700,2.2871826171875,0.1585417091846466,-2.7141525745391846,0.5679678320884705
1763693273652140500,2.297140625,0.11079335957765579,-2.9027109146118164,0.47697320580482483
1763693273662099700,2.307099609375,-0.0301967840641737,-3.043602466583252,0.43511685729026794
1763693273672058600,2.31705859375,-0.15506760776042938,-3.2719874382019043,0.44605231285095215
1763693273682016500,2.3270166015625,-0.1489090472459793,-3.2014429569244385,0.32830172777175903
1763693273691975700,2.3369755859375,-0.028615666553378105,-3.2623801231384277,0.02503504604101181
1763693273701934600,2.3469345703125,0.08158620446920395,-4.095492362976074,-0.2249436378479004
1763693273711892500,2.356892578125,0.07356476783752441,-5.232884407043457,-0.0012628709664568305
1763693273721851600,2.3668515625,0.2104853391647339,-2.95266056060791,1.1898289918899536
1763693273731810600,2.376810546875,0.6768908500671387,-2.7565367221832275,1.1317843198776245
1763693273741769500,2.38676953125,1.1525026559829712,-0.7465530037879944,-0.8795073628425598
1763693273751727600,2.3967275390625,0.9848651885986328,-0.8507747650146484,-0.34372514486312866
1763693273761686800,2.406686767578125,0.9416530132293701,-0.7216790914535522,-0.6264654994010925
1763693273771645700,2.416645751953125,0.8092212080955505,-1.0744248628616333,-0.2665019929409027
1763693273781603800,2.426603759765625,0.8084582090377808,-0.893165647983551,-0.37127208709716797
1763693273791562800,2.436562744140625,0.757853627204895,-0.6302064657211304,-0.4241006672382355
1763693273801521700,2.446521728515625,0.6109461784362793,-0.48385560512542725,-0.42924296855926514
1763693273811480800,2.456480712890625,0.28014591336250305,-0.39649462699890137,-0.40986767411231995
1763693273821438700,2.466438720703125,-0.03633297234773636,-0.11464668810367584,-0.4069581627845764
1763693273831398000,2.47639794921875,-0.08544645458459854,0.34746450185775757,-0.3777883052825928
1763693273841356800,2.486356689453125,-0.002121207769960165,0.6473917961120605,-0.3456495404243469
1763693273851314700,2.496314697265625,0.116988405585289,0.8618087768554688,-0.3720872700214386
1763693273861273900,2.50627392578125,0.1994747519493103,-0.047570712864398956,-0.48596057295799255
1763693273871232800,2.516232666015625,0.19961164891719818,0.1092042475938797,-0.4043616056442261
1763693273881190700,2.526190673828125,0.196486696600914,0.043726708739995956,-0.2629892826080322
1763693273891149800,2.53614990234375,0.20324473083019257,0.19947662949562073,-0.19105437397956848
1763693273901108700,2.546108642578125,0.23254641890525818,0.20400506258010864,-0.15231603384017944
1763693273911067600,2.556067626953125,0.3211314082145691,-0.020852018147706985,-0.16007168591022491
1763693273921025800,2.56602587890625,0.4222407341003418,-0.28261199593544006,-0.23730309307575226
1763693273930984700,2.575984619140625,0.4276661276817322,-0.5486354231834412,-0.3805502653121948
1763693273940943600,2.585943603515625,0.3727773129940033,-0.7674790620803833,-0.5625326037406921
1763693273950901800,2.59590185546875,0.3059982657432556,-0.9757774472236633,-0.7377227544784546
1763693273960860700,2.605860595703125,0.2244836986064911,-1.0746403932571411,-0.8922702670097351
1763693273970819600,2.615819580078125,0.0631595253944397,-1.1336594820022583,-1.0057311058044434
1763693273980777700,2.62577783203125,-0.06915749609470367,-1.186824917793274,-1.0876368284225464
1763693273990736600,2.635736572265625,-0.18861998617649078,-1.3301440477371216,-1.1429775953292847
1763693274000696000,2.645696044921875,-0.21447154879570007,-1.5679821968078613,-1.2270448207855225
1763693274010655000,2.655655029296875,-0.1434626281261444,-1.606188178062439,-1.3140037059783936
1763693274020612600,2.665612548828125,-0.027770644053816795,-1.4353543519973755,-1.359475016593933
1763693274030572000,2.675572021484375,0.05500253289937973,-1.2969613075256348,-1.3733913898468018
1763693274040531000,2.685531005859375,0.09883470088243484,-1.174932599067688,-1.3480406999588013
1763693274050488800,2.69548876953125,0.0806887224316597,-0.9684097766876221,-1.271017074584961
1763693274060448000,2.705447998046875,0.007103183306753635,-0.7238860726356506,-1.1218379735946655
1763693274070407000,2.715406982421875,-0.08959007263183594,-0.5179526209831238,-0.8913893103599548
1763693274080365800,2.72536572265625,-0.18032503128051758,-0.29872971773147583,-0.602810263633728
1763693274090324000,2.735323974609375,-0.21194180846214294,0.032535307109355927,-0.2855300009250641
1763693274100283000,2.745282958984375,-0.1415262371301651,0.4229864180088043,0.02454209513962269
1763693274110241800,2.75524169921875,0.05146505683660507,0.8113397359848022,0.3026730418205261
1763693274120200000,2.765199951171875,0.3474522531032562,1.3012348413467407,0.5212610363960266
1763693274130158800,2.775158935546875,0.7099489569664001,1.8546879291534424,0.6877450942993164
1763693274140117800,2.78511767578125,1.0187336206436157,1.996009111404419,0.6365460753440857
1763693274150076000,2.795075927734375,1.08161461353302,1.7309234142303467,0.2827723026275635
1763693274160034800,2.805034912109375,0.9524697065353394,1.4594221115112305,-0.1317732036113739
1763693274169994000,2.814993896484375,0.81501305103302,1.5011850595474243,-0.31033363938331604
1763693274179953000,2.824952880859375,0.6328853368759155,1.781192660331726,-0.2678753733634949
1763693274189910800,2.834910888671875,0.4659178853034973,1.9487265348434448,-0.17487673461437225
1763693274199870000,2.844869873046875,0.3663974404335022,1.8372846841812134,-0.11872611939907074
1763693274209828900,2.854828857421875,0.22886593639850616,1.1312181949615479,-0.12666447460651398
1763693274219787000,2.864787109375,-0.06922195106744766,0.010125338099896908,-0.25753486156463623
1763693274229746000,2.874745849609375,-0.5326788425445557,-0.14262744784355164,-0.25157177448272705
1763693274239704800,2.884704833984375,-0.9012547135353088,-0.874189019203186,-0.36330389976501465
1763693274249663000,2.8946630859375,-0.9101837873458862,-1.2888858318328857,-0.41042402386665344
1763693274259622000,2.904621826171875,-0.7493285536766052,-1.1887296438217163,-0.24063870310783386
1763693274269580800,2.914580810546875,-0.6456924676895142,-1.279105305671692,-0.02346324734389782
1763693274279539700,2.924539794921875,-0.493023544549942,-1.4413355588912964,0.23628443479537964
1763693274289497900,2.934497802734375,-0.2391878217458725,-1.374048113822937,0.5239785313606262
1763693274299456800,2.944456787109375,0.047585628926754,-1.1629127264022827,0.7785024046897888
1763693274309416000,2.954416015625,0.24701005220413208,-0.9263888597488403,0.9503633975982666
1763693274319373800,2.964373779296875,0.33043596148490906,-0.6349663138389587,1.0601646900177002
1763693274329332700,2.974332763671875,0.266927570104599,-0.4549051821231842,1.0764278173446655
1763693274339292000,2.9842919921875,0.1027199849486351,-0.43013033270835876,0.9930278062820435
1763693274349249800,2.994249755859375,-0.10039477795362473,-0.49002644419670105,0.8336597084999084
1763693274359208700,3.004208740234375,-0.26857632398605347,-0.5758494734764099,0.6456778049468994
1763693274369168000,3.01416796875,-0.35033512115478516,-0.6787545084953308,0.47850292921066284
1763693274379126800,3.024126708984375,-0.2960825264453888,-0.7860596776008606,0.38561001420021057
1763693274389085000,3.0340849609375,-0.12305855005979538,-0.8312729597091675,0.4082047939300537
1763693274399043800,3.0440439453125,0.08712238818407059,-0.7906443476676941,0.5342961549758911
1763693274409002800,3.054002685546875,0.28783124685287476,-0.6341612339019775,0.7037810683250427
1763693274418961000,3.0639609375,0.39098265767097473,-0.5152835845947266,0.8342309594154358
1763693274428919800,3.073919921875,0.3686731159687042,-0.4815405309200287,0.8602425456047058
1763693274438878700,3.083878662109375,0.2844841778278351,-0.6073279976844788,0.7730690240859985
1763693274448837600,3.093837646484375,0.16046397387981415,-0.7902480363845825,0.6275920271873474
1763693274458795800,3.103795654296875,0.04252375662326813,-0.9626304507255554,0.4907212555408478
1763693274468754700,3.113754638671875,-0.021800370886921883,-1.0732299089431763,0.41074785590171814
1763693274478713900,3.1237138671875,-0.05952537804841995,-1.0994197130203247,0.4282253682613373
1763693274488671700,3.133671630859375,-0.0669955462217331,-1.1208938360214233,0.5306215286254883
1763693274498630700,3.143630615234375,-0.04128192737698555,-1.0964497327804565,0.7155511379241943
1763693274508589800,3.15358984375,-0.01925172470510006,-1.036714792251587,0.9139321446418762
1763693274518547700,3.163547607421875,0.14471377432346344,-0.09006065130233765,0.5612952709197998
1763693274528507000,3.1735068359375,0.06006386876106262,0.532882809638977,0.039986830204725266
1763693274538465800,3.1834658203125,-0.12519653141498566,0.8411849737167358,-0.4161663353443146
1763693274548424700,3.1934248046875,-0.19258037209510803,0.7355826497077942,-0.7036681175231934
1763693274558382800,3.2033828125,-0.15210378170013428,0.4698340892791748,-0.7643339037895203
1763693274568341800,3.213341796875,-0.13168585300445557,0.1413821578025818,-0.6983333230018616
1763693274578300700,3.22330078125,-0.1481950581073761,-0.08916209638118744,-0.5633161067962646
1763693274588258800,3.2332587890625,-0.24684174358844757,-0.09081964939832687,-0.36609357595443726
1763693274598217700,3.2432177734375,-0.3629899322986603,0.2468862235546112,-0.21585851907730103
1763693274608176600,3.2531767578125,-0.7483122944831848,-0.13732510805130005,-0.1886410266160965
1763693274618134800,3.263134765625,-1.1785176992416382,0.716760516166687,-0.7019751667976379
1763693274628093700,3.27309375,-1.2763460874557495,0.14173635840415955,-1.0114845037460327
1763693274638052900,3.283052978515625,-1.2538615465164185,0.07329978048801422,-1.1038140058517456
1763693274648012000,3.293011962890625,-1.2623341083526611,0.014899587258696556,-1.0826575756072998
1763693274657969700,3.3029697265625,-1.1267565488815308,-0.02068903297185898,-0.9058305621147156
1763693274667928800,3.3129287109375,-0.6412303447723389,0.01398505736142397,-0.635394275188446
1763693274677888000,3.322887939453125,-0.06455555558204651,0.07281694561243057,-0.39568260312080383
1763693274687845600,3.332845703125,0.15583939850330353,0.1211346834897995,-0.3434889316558838
1763693274697804800,3.3428046875,0.10756374150514603,0.16393859684467316,-0.4534745514392853
1763693274707764000,3.352763916015625,-0.15380021929740906,0.1697610765695572,-0.6337907910346985
1763693274717721900,3.362721923828125,-0.46375781297683716,0.15238501131534576,-0.7935735583305359
1763693274727681000,3.372680908203125,-0.7537840604782104,0.1125451847910881,-0.8718259930610657
1763693274737640000,3.382639892578125,-0.9679495692253113,0.1346299797296524,-0.851780891418457
1763693274747598800,3.392598876953125,-1.1216614246368408,0.2627333700656891,-0.7529906630516052
1763693274757557000,3.402556884765625,-1.278633952140808,0.36882996559143066,-0.6342994570732117
1763693274767516000,3.412515869140625,-1.399981141090393,0.49712881445884705,-0.5573511719703674
1763693274777474800,3.422474853515625,-1.305689811706543,0.7870447635650635,-0.5595178604125977
1763693274787433000,3.432432861328125,-1.1143603324890137,0.9107821583747864,-0.6231714487075806
1763693274797392000,3.442391845703125,-0.8758601546287537,0.9097816348075867,-0.674016535282135
1763693274807350800,3.452350830078125,-0.6270708441734314,0.9417656660079956,-0.7110229730606079
1763693274817309000,3.462308837890625,-0.39917027950286865,0.9105411767959595,-0.7064793705940247
1763693274827267800,3.472267822265625,-0.22362802922725677,0.771825909614563,-0.646075963973999
1763693274837226800,3.482226806640625,-0.11530022323131561,0.7045682668685913,-0.5431926846504211
1763693274847186000,3.49218603515625,-0.07991719990968704,0.7178404331207275,-0.430634468793869
1763693274857143800,3.502143798828125,-0.09882644563913345,0.7504503130912781,-0.34959688782691956
1763693274867103000,3.51210302734375,-0.1724143773317337,0.8091256022453308,-0.2911101281642914
1763693274877062000,3.522061767578125,-0.2685052156448364,0.8451679944992065,-0.2717953026294708
1763693274887019800,3.532019775390625,-0.40981706976890564,0.7772310376167297,-0.30314308404922485
1763693274896979000,3.54197900390625,-0.5135578513145447,0.8802900314331055,-0.28852686285972595
1763693274906937900,3.551937744140625,-0.5551726818084717,0.9827218651771545,-0.21635280549526215
1763693274916895700,3.561895751953125,-0.524450957775116,0.9814561009407043,-0.11040586978197098
1763693274926855000,3.57185498046875,-0.4556831121444702,0.822106122970581,0.005767075344920158
1763693274936814000,3.58181396484375,-0.40878376364707947,0.5708581805229187,0.10921144485473633
1763693274946773000,3.59177294921875,-0.4222410023212433,0.3756521940231323,0.21277645230293274
1763693274956731000,3.60173095703125,-0.4736783504486084,0.25886672735214233,0.3134647011756897
1763693274966690000,3.61168994140625,-0.5510895252227783,0.13674479722976685,0.39493879675865173
1763693274976649000,3.62164892578125,-0.6455715298652649,0.03241919353604317,0.44857192039489746
1763693274986606800,3.63160693359375,-0.7402825951576233,-0.09152033179998398,0.472589910030365
1763693274996566000,3.64156591796875,-0.8301259279251099,-0.3664640188217163,0.49838024377822876
1763693275006525000,3.65152490234375,-0.8976229429244995,-0.7414637207984924,0.5622265934944153
1763693275016483000,3.661483154296875,-0.951745867729187,-1.0837832689285278,0.6893017292022705
1763693275026442000,3.67144189453125,-0.9964238405227661,-1.2565699815750122,0.8909009099006653
1763693275036401200,3.681401123046875,-1.0298858880996704,-1.2878503799438477,1.1279551982879639
1763693275046360000,3.691360107421875,-1.0453698635101318,-1.2023227214813232,1.3738595247268677
1763693275056318000,3.70131787109375,-1.0496950149536133,-1.0773488283157349,1.6187342405319214
1763693275066277000,3.711277099609375,-1.0380573272705078,-1.0436363220214844,1.8199430704116821
1763693275076236000,3.721236083984375,-0.9917835593223572,-0.8971651792526245,1.941537618637085
1763693275086194000,3.73119384765625,-0.9000922441482544,-0.8531785607337952,2.0139451026916504
1763693275096153000,3.741153076171875,-0.788943886756897,-0.8211454749107361,2.055220365524292
1763693275106112000,3.751112060546875,-0.6683983206748962,-0.7799309492111206,2.058661699295044
1763693275116071000,3.76107080078125,-0.5667177438735962,-0.593565046787262,1.9876667261123657
1763693275126029000,3.771029052734375,-0.47507649660110474,-0.2646428346633911,1.8176796436309814
1763693275135988000,3.780988037109375,-0.3732156455516815,0.1476650834083557,1.5605535507202148
1763693275145947000,3.79094677734375,-0.25227245688438416,0.5824796557426453,1.2320175170898438
1763693275155905000,3.800905029296875,-0.13409389555454254,0.9428753852844238,0.8675673007965088
1763693275165864000,3.810864013671875,-0.05290955305099487,1.1750266551971436,0.5059377551078796
1763693275175822800,3.82082275390625,0.017070064321160316,1.2200686931610107,0.18889108300209045
1763693275185781000,3.830781005859375,0.058937087655067444,1.090638279914856,-0.06490390002727509
1763693275195740000,3.840739990234375,0.10570725798606873,0.8967726230621338,-0.22779561579227448
1763693275205699000,3.850698974609375,0.17000901699066162,0.7717414498329163,-0.31638434529304504
1763693275215657000,3.860656982421875,0.264055073261261,0.7124651074409485,-0.38025280833244324
1763693275225616000,3.870615966796875,0.37607136368751526,0.5987436175346375,-0.460634708404541
1763693275235575000,3.880574951171875,0.46586331725120544,0.3972861170768738,-0.5611141920089722
1763693275245534000,3.890533935546875,0.5020769834518433,0.10255460441112518,-0.6756013631820679
1763693275255492000,3.9004921875,0.47155606746673584,-0.2395675778388977,-0.7927753925323486
1763693275265451000,3.910450927734375,0.4143519103527069,-0.5229840874671936,-0.876885175704956
1763693275275410000,3.920409912109375,0.4122411012649536,-0.6595550179481506,-0.8699250221252441
1763693275285368000,3.9303681640625,0.528918981552124,-0.6028336882591248,-0.7726751565933228
1763693275295327000,3.940326904296875,0.6943273544311523,-0.3681287467479706,-0.6497700214385986
1763693275305286000,3.950285888671875,0.8575549125671387,-0.07292959839105606,-0.5557058453559875
1763693275315244800,3.960244873046875,1.0102496147155762,0.1712050437927246,-0.5346308946609497
1763693275325203000,3.970202880859375,1.1507718563079834,0.27816957235336304,-0.5968543291091919
1763693275335161900,3.980161865234375,1.2484943866729736,0.2506183683872223,-0.6856555938720703
1763693275345121000,3.99012109375,1.3198330402374268,0.18540048599243164,-0.7335131168365479
1763693275355079000,4.000078857421875,1.3554699420928955,0.0894760861992836,-0.7116997241973877
1763693275365037800,4.010037841796875,1.3374924659729004,-0.059961073100566864,-0.6264031529426575
1763693275374997000,4.0199970703125,1.2238003015518188,-0.16246934235095978,-0.520254373550415
1763693275384955000,4.029954833984375,1.0164068937301636,-0.12730255722999573,-0.42919209599494934
1763693275394913800,4.039913818359375,0.7411225438117981,0.010571950115263462,-0.39514705538749695
1763693275404873000,4.049873046875,0.45244523882865906,0.05693066120147705,-0.440350741147995
1763693275414831900,4.059831787109375,0.2913024127483368,0.18713687360286713,-0.48439517617225647
1763693275424790000,4.0697900390625,0.24633388221263885,0.41950058937072754,-0.49485260248184204
1763693275434749000,4.0797490234375,0.2584057152271271,0.5674495697021484,-0.4432389438152313
1763693275444707800,4.089707763671875,0.3835687041282654,0.5451573133468628,-0.30971017479896545
1763693275454666000,4.099666015625,0.5306971669197083,0.4624917507171631,-0.14044898748397827
1763693275464625000,4.109625,0.639275312423706,0.38043949007987976,0.018978750333189964
1763693275474583800,4.119583740234375,0.7473765015602112,0.32052847743034363,0.15715579688549042
1763693275484542000,4.1295419921875,0.8062219619750977,0.23801469802856445,0.2747311592102051
1763693275494500900,4.1395009765625,0.8010509014129639,0.22997167706489563,0.3537293076515198
1763693275504459800,4.149459716796875,0.7270081043243408,0.23921631276607513,0.36715322732925415
1763693275514419000,4.1594189453125,0.6056443452835083,0.24870702624320984,0.28559473156929016
1763693275524376800,4.169376953125,0.47225701808929443,0.23310862481594086,0.10922422260046005
1763693275534335700,4.179335693359375,0.39408206939697266,0.17209932208061218,-0.11315451562404633
1763693275544295000,4.189294921875,0.41719669103622437,0.12364843487739563,-0.35782578587532043
1763693275554252800,4.199252685546875,0.5278587937355042,0.11180616170167923,-0.5837670564651489
1763693275564212000,4.2092119140625,0.6913893818855286,0.26087260246276855,-0.7956342697143555
1763693275574171100,4.219171142578125,0.8063609600067139,0.3382246494293213,-0.9657676815986633
1763693275584128800,4.229128662109375,0.8650330901145935,0.3509351313114166,-1.0740959644317627
1763693275594088000,4.239087890625,0.8431911468505859,0.38629284501075745,-1.0832873582839966
1763693275604047000,4.249047119140625,0.76398766040802,0.41076916456222534,-1.005242943763733
1763693275614006000,4.259006103515625,0.6584689617156982,0.38720762729644775,-0.8646647334098816
1763693275623964000,4.2689638671875,0.5098350048065186,0.33320724964141846,-0.6848137378692627
1763693275633923000,4.278923095703125,0.3417893052101135,0.24987800419330597,-0.49456605315208435
1763693275643882000,4.288882080078125,0.17918840050697327,0.07538636773824692,-0.31091180443763733
1763693275653840100,4.298840087890625,0.042456112802028656,-0.14079147577285767,-0.13038676977157593
1763693275663799000,4.308799072265625,-0.09765545278787613,-0.371942937374115,0.037647511810064316
1763693275673758000,4.318758056640625,-0.3265725374221802,-0.6318981051445007,0.15167607367038727
1763693275683716000,4.328716064453125,-0.4224258065223694,-0.6157388091087341,0.1837565153837204
1763693275693675000,4.338675048828125,-0.45781922340393066,-0.8595600128173828,0.16973043978214264
1763693275703634000,4.348634033203125,-0.49488934874534607,-0.9368225932121277,0.14301307499408722
1763693275713593000,4.358593017578125,-0.5058820843696594,-0.9348214864730835,0.109442338347435
1763693275723551000,4.368551025390625,-0.5268856287002563,-0.8212392330169678,0.0898638442158699
1763693275733510100,4.37851025390625,-0.5760526657104492,-0.6123328804969788,0.07265369594097137
1763693275743469000,4.388468994140625,-0.6089341640472412,-0.4560897648334503,0.053634997457265854
1763693275753427000,4.398427001953125,-0.6033790707588196,-0.37907782196998596,0.041000962257385254
1763693275763386000,4.40838623046875,-0.5734739303588867,-0.41764092445373535,0.019822707399725914
1763693275773345000,4.418344970703125,-0.5697625279426575,-0.5548368692398071,-0.03602537885308266
1763693275783303000,4.428302978515625,-0.6248564124107361,-0.657582700252533,-0.11300058662891388
1763693275793262000,4.438261962890625,-0.7202990651130676,-0.688137412071228,-0.19007299840450287
1763693275803221000,4.448220947265625,-0.8389428853988647,-0.6961087584495544,-0.24597248435020447
1763693275813180000,4.458179931640625,-0.9517676830291748,-0.6667453050613403,-0.265578955411911
1763693275823138000,4.468137939453125,-1.0444304943084717,-0.5770846605300903,-0.2524242699146271
1763693275833097000,4.478096923828125,-1.1152852773666382,-0.4652198851108551,-0.21926631033420563
1763693275843055900,4.488055908203125,-1.1453627347946167,-0.39330601692199707,-0.18240709602832794
1763693275853014000,4.498013916015625,-1.1613774299621582,-0.3782961666584015,-0.14981000125408173
1763693275862973000,4.507972900390625,-1.1781009435653687,-0.3586966395378113,-0.1005851998925209
1763693275872931800,4.517931884765625,-1.1815029382705688,-0.29718586802482605,-0.025501098483800888
1763693275882890000,4.527889892578125,-1.1677604913711548,-0.20412729680538177,0.06751246750354767
1763693275892849000,4.537848876953125,-1.1343529224395752,-0.12955959141254425,0.16988837718963623
1763693275902808000,4.54780810546875,-1.092012643814087,-0.08446614444255829,0.266705721616745
1763693275912767200,4.557767333984375,-1.0672378540039062,-0.06573187559843063,0.32660260796546936
1763693275922724900,4.567724853515625,-1.061808466911316,-0.07601354271173477,0.3352522850036621
1763693275932684300,4.577684326171875,-1.070474624633789,-0.10018172860145569,0.2908390164375305
1763693275942643200,4.587643310546875,-1.0728472471237183,-0.12228010594844818,0.20455873012542725
1763693275952601000,4.59760107421875,-1.0564613342285156,-0.13452878594398499,0.09131020307540894
1763693275962560300,4.607560302734375,-1.0118539333343506,-0.13558898866176605,-0.02847212180495262
1763693275972519200,4.617519287109375,-0.9453641176223755,-0.1171865463256836,-0.15168939530849457
1763693275982477300,4.627477294921875,-0.8651028275489807,-0.09017117321491241,-0.270550012588501
1763693275992436200,4.637436279296875,-0.7772765755653381,-0.03173156455159187,-0.37199220061302185
1763693276002395100,4.64739501953125,-0.6892812252044678,0.06175044924020767,-0.4445367157459259
1763693276012354000,4.65735400390625,-0.5993678569793701,0.18226754665374756,-0.48067981004714966
1763693276022312200,4.667312255859375,-0.516287088394165,0.27556392550468445,-0.49588537216186523
1763693276032271000,4.67727099609375,-0.4572828710079193,0.3250981867313385,-0.49328160285949707
1763693276042230000,4.68722998046875,-0.46241050958633423,0.26021480560302734,-0.5056802034378052
1763693276052188200,4.697188232421875,-0.4821045994758606,0.28109613060951233,-0.49390292167663574
1763693276062147000,4.70714697265625,-0.45725542306900024,0.2420903891324997,-0.4384194314479828
1763693276072106200,4.717106201171875,-0.43612831830978394,0.17792312800884247,-0.34434831142425537
1763693276082064100,4.727064208984375,-0.3931227922439575,0.23665115237236023,-0.21099986135959625
1763693276092023000,4.73702294921875,-0.3324013948440552,0.21326114237308502,-0.08494338393211365
1763693276101982200,4.746982177734375,-0.2798617482185364,0.24135802686214447,0.02648567035794258
1763693276111941000,4.756941162109375,-0.23015783727169037,0.26634541153907776,0.11848323792219162
1763693276121899000,4.76689892578125,-0.17619021236896515,0.287514328956604,0.19354335963726044
1763693276131858200,4.776858154296875,-0.12518960237503052,0.2737857401371002,0.2572517693042755
1763693276141817000,4.786817138671875,-0.08435908704996109,0.21986019611358643,0.3045652210712433
1763693276151775200,4.796775146484375,-0.0669659823179245,0.13431066274642944,0.33085915446281433
1763693276161734100,4.806734130859375,-0.08703023940324783,0.01642850786447525,0.34513530135154724
1763693276171693000,4.816693115234375,-0.15270166099071503,-0.10609527677297592,0.35082513093948364
1763693276181651200,4.826651123046875,-0.23663784563541412,-0.16058488190174103,0.36174941062927246
1763693276191610000,4.836610107421875,-0.30514127016067505,-0.1002214103937149,0.38636207580566406
1763693276201569000,4.846569091796875,-0.33449143171310425,0.047823715955019,0.40839096903800964
1763693276211528000,4.85652783203125,-0.34699976444244385,0.20043696463108063,0.40251123905181885
1763693276221486000,4.866486083984375,-0.3522073030471802,0.29841598868370056,0.34957024455070496
1763693276231445000,4.876445068359375,-0.3370150327682495,0.3251408040523529,0.2663845419883728
1763693276241404200,4.886404052734375,-0.29509130120277405,0.29813021421432495,0.17719288170337677
1763693276251362000,4.896362060546875,-0.24025654792785645,0.26234906911849976,0.09200689196586609
1763693276261321000,4.906321044921875,-0.17727544903755188,0.2587255537509918,0.03081543743610382
1763693276271280000,4.916280029296875,-0.11379953473806381,0.3012714385986328,0.018386730924248695
1763693276281238000,4.926238037109375,-0.04610810801386833,0.40068483352661133,0.06594972312450409
1763693276291197200,4.936197265625,0.02153698354959488,0.5297352075576782,0.16054733097553253
1763693276301156000,4.946156005859375,0.10110451281070709,0.610589325428009,0.2867225706577301
1763693276311115000,4.956114990234375,0.17103619873523712,0.6330432295799255,0.43212664127349854
1763693276321073200,4.9660732421875,0.2094762623310089,0.591376781463623,0.5733604431152344
1763693276331032000,4.976031982421875,0.20269185304641724,0.47527649998664856,0.6872910261154175
1763693276340991000,4.985990966796875,0.14231745898723602,0.3066994845867157,0.7500508427619934
1763693276350949000,4.99594921875,0.04156448692083359,0.07673605531454086,0.7370351552963257
1763693276360908000,5.005907958984375,-0.07345157861709595,-0.19793225824832916,0.6501692533493042
1763693276370867000,5.015866943359375,-0.17783604562282562,-0.41394951939582825,0.5155171155929565
1763693276380825000,5.0258251953125,-0.24059556424617767,-0.4773106276988983,0.38615116477012634
1763693276390784000,5.035783935546875,-0.23132562637329102,-0.42814576625823975,0.3134460747241974
1763693276400743000,5.045742919921875,-0.15004515647888184,-0.24201875925064087,0.3164463937282562
1763693276410702000,5.0557021484375,-0.009073922410607338,-0.0062640211544930935,0.4128836989402771
1763693276420660000,5.065659912109375,0.1546172797679901,0.2606441080570221,0.6098769307136536
1763693276430619000,5.075618896484375,0.3028285801410675,0.6023428440093994,0.8737764954566956
1763693276440578000,5.085578125,0.4200361669063568,0.9564465880393982,1.1614314317703247
1763693276450536000,5.095535888671875,0.5197870135307312,1.2113540172576904,1.4154216051101685
1763693276460495000,5.1054951171875,0.5943501591682434,1.306143045425415,1.6025246381759644
1763693276470454000,5.1154541015625,0.6445187926292419,1.217814326286316,1.7006893157958984
1763693276480412000,5.125411865234375,0.668792188167572,0.9788253903388977,1.7156704664230347
1763693276490371000,5.13537109375,0.6632142066955566,0.6660853624343872,1.6809507608413696
1763693276500330000,5.145330078125,0.6360462307929993,0.3706190884113312,1.617344856262207
1763693276510289200,5.1552890625,0.6001515984535217,0.1370428055524826,1.5445575714111328
1763693276520247000,5.1652470703125,0.5736206769943237,-0.03770876303315163,1.4825806617736816
1763693276530206000,5.1752060546875,0.5598278641700745,-0.1313561648130417,1.438173532485962
1763693276540165000,5.1851650390625,0.5458225607872009,-0.1571507304906845,1.4048340320587158
1763693276550123000,5.195123046875,0.5306028723716736,-0.14678704738616943,1.3654205799102783
1763693276560082000,5.20508203125,0.5184170603752136,-0.1265464872121811,1.3076778650283813
1763693276570041000,5.215041015625,0.5047467947006226,-0.09948904067277908,1.2236136198043823
1763693276579999000,5.2249990234375,0.50044846534729,-0.06873272359371185,1.1109213829040527
1763693276589958100,5.234958251953125,0.5074770450592041,-0.07496318966150284,0.9806187748908997
1763693276599917000,5.2449169921875,0.5045452117919922,-0.10713018476963043,0.8475944399833679
1763693276609876200,5.254876220703125,0.4970278739929199,-0.1536332368850708,0.7213174700737
1763693276619834000,5.264834228515625,0.4906488060951233,-0.2020239382982254,0.6120790839195251
1763693276629793300,5.274793212890625,0.48195067048072815,-0.2336772084236145,0.5191033482551575
1763693276639752200,5.284752197265625,0.4686223268508911,-0.2408384382724762,0.43430057168006897
1763693276649710000,5.2947099609375,0.45611771941185,-0.22530528903007507,0.3522808253765106
1763693276659669200,5.304669189453125,0.4534417986869812,-0.20516087114810944,0.27669578790664673
1763693276669628200,5.314628173828125,0.46355727314949036,-0.18965302407741547,0.2079595923423767
1763693276679587000,5.324587158203125,0.47728267312049866,-0.1795324832201004,0.1397232711315155
1763693276689545200,5.334545166015625,0.4935167729854584,-0.18770384788513184,0.07324172556400299
1763693276699504000,5.344504150390625,0.5044841766357422,-0.22294306755065918,0.0024490428622812033
1763693276709463000,5.354463134765625,0.5057510733604431,-0.2886962592601776,-0.06506848335266113
1763693276719421200,5.364421142578125,0.49036306142807007,-0.36681875586509705,-0.11995969712734222
1763693276729380000,5.374380126953125,0.4657391905784607,-0.4617351293563843,-0.15795448422431946
1763693276739339000,5.384339111328125,0.4335101544857025,-0.5811179876327515,-0.1875467300415039
1763693276749297200,5.394297119140625,0.38667741417884827,-0.6829604506492615,-0.22539663314819336
1763693276759256000,5.404256103515625,0.3127555251121521,-0.7558088302612305,-0.28674203157424927
1763693276769214700,5.414214599609375,0.22456999123096466,-0.8246105313301086,-0.3830653727054596
1763693276779174000,5.424173828125,0.13883857429027557,-0.8883697986602783,-0.5009528398513794
1763693276789131500,5.434131591796875,0.07870866358280182,-0.9591118693351746,-0.621877133846283
1763693276799090700,5.444090576171875,0.053460560739040375,-1.0342659950256348,-0.7328177690505981
1763693276809049900,5.4540498046875,0.07327155023813248,-1.0990642309188843,-0.8219503164291382
1763693276819007700,5.4640078125,0.13048796355724335,-1.1559884548187256,-0.8847388625144958
1763693276828967000,5.473966796875,0.20903150737285614,-1.1954271793365479,-0.9270367622375488
1763693276838925800,5.48392578125,0.29035937786102295,-1.2272312641143799,-0.9607129693031311
1763693276848883700,5.4938837890625,0.35976749658584595,-1.2945008277893066,-0.9940911531448364
1763693276858843000,5.5038427734375,0.40219831466674805,-1.4045085906982422,-1.0494319200515747
1763693276868801800,5.5138017578125,0.40549105405807495,-1.5110677480697632,-1.1111104488372803
1763693276878760700,5.5237607421875,0.37866103649139404,-1.6077332496643066,-1.1523481607437134
1763693276888718800,5.53371875,0.3464740514755249,-1.6950328350067139,-1.1649284362792969
1763693276898677800,5.543677734375,0.3234632909297943,-1.7785407304763794,-1.1433528661727905
1763693276908637000,5.553636962890625,0.3282873332500458,-1.8374769687652588,-1.0831682682037354
1763693276918594800,5.5635947265625,0.3699452877044678,-1.880104660987854,-0.9994462728500366
1763693276928553700,5.5735537109375,0.4518771767616272,-2.008868455886841,-0.9003223180770874
1763693276938513000,5.583512939453125,0.5633863806724548,-2.196221351623535,-0.7839821577072144
1763693276948470800,5.593470703125,0.6699503660202026,-2.3844666481018066,-0.6277185082435608
1763693276958429700,5.6034296875,0.7456392645835876,-2.5531845092773438,-0.40214452147483826
1763693276968388900,5.613388916015625,0.7698703408241272,-2.7564821243286133,-0.11330605298280716
1763693276978347800,5.62334765625,0.739628791809082,-3.0375616550445557,0.21679888665676117
1763693276988306000,5.633305908203125,0.6595832109451294,-3.4062681198120117,0.5799323320388794
1763693276998264800,5.643264892578125,0.5448222756385803,-3.6879396438598633,0.93112713098526
1763693277008223700,5.6532236328125,0.41528722643852234,-3.83160400390625,1.2155234813690186
1763693277018182000,5.663181884765625,0.31608152389526367,-3.9242451190948486,1.4324935674667358
1763693277028140800,5.673140869140625,0.2953181862831116,-4.027414798736572,1.6131640672683716
1763693277038099700,5.683099609375,0.33951735496520996,-4.081410884857178,1.8134771585464478
1763693277048058600,5.69305859375,0.4018196165561676,-3.9985198974609375,2.066967010498047
1763693277058016800,5.703016845703125,0.4721105396747589,-3.785391092300415,2.3320415019989014
1763693277067975700,5.7129755859375,0.5514610409736633,-3.6013221740722656,2.562673330307007
1763693277077934800,5.722934814453125,0.6078627705574036,-3.3833022117614746,2.731901168823242
1763693277087892700,5.732892822265625,0.643097460269928,-3.192378520965576,2.8100953102111816
1763693277097851600,5.7428515625,0.6734277009963989,-3.0876686573028564,2.792778253555298
1763693277107810800,5.752810791015625,0.7051858901977539,-3.018489122390747,2.6964011192321777
1763693277117768700,5.762768798828125,0.7491703629493713,-2.947751522064209,2.5613582134246826
1763693277127727900,5.772727783203125,0.8107810020446777,-2.7578282356262207,2.4051246643066406
1763693277137686800,5.782686767578125,0.9073493480682373,-2.4581949710845947,2.2255561351776123
1763693277147645700,5.792645751953125,1.0428850650787354,-2.240394115447998,2.023862838745117
1763693277157603800,5.802603759765625,1.182482361793518,-2.039947748184204,1.8205139636993408
1763693277167562800,5.812562744140625,1.3233071565628052,-1.79425847530365,1.6076416969299316
1763693277177521700,5.822521728515625,1.4720889329910278,-1.6075743436813354,1.3896726369857788
1763693277187479800,5.832479736328125,1.6048887968063354,-1.4847546815872192,1.1565842628479004
1763693277197438700,5.842438720703125,1.7135952711105347,-1.4615230560302734,0.8969593048095703
1763693277207397600,5.852397705078125,1.7933980226516724,-1.668807029724121,0.61709064245224
1763693277217355800,5.862355712890625,1.8183767795562744,-2.0126256942749023,0.34034186601638794
1763693277227314700,5.872314697265625,1.7819581031799316,-2.2100956439971924,0.11943398416042328
1763693277237273600,5.882273681640625,1.7400598526000977,-2.2058284282684326,-0.04881947115063667
1763693277247232800,5.892232666015625,1.704167127609253,-2.023059606552124,-0.1682790219783783
1763693277257190700,5.902190673828125,1.6727205514907837,-1.6624010801315308,-0.28939107060432434
1763693277267149600,5.912149658203125,1.6668075323104858,-1.274466872215271,-0.43653416633605957
1763693277277108700,5.922108642578125,1.6947128772735596,-0.9869147539138794,-0.5973358154296875
1763693277287066600,5.932066650390625,1.7112109661102295,-0.7627801895141602,-0.7330523729324341
1763693277297025800,5.94202587890625,1.7043226957321167,-0.6465151309967041,-0.823456346988678
1763693277306984700,5.951984619140625,1.6687524318695068,-0.6262372732162476,-0.8712121248245239
1763693277316942600,5.961942626953125,1.6016939878463745,-0.5975193381309509,-0.8794834017753601
1763693277326901800,5.97190185546875,1.507269024848938,-0.5692357420921326,-0.8646866083145142
1763693277336860700,5.981860595703125,1.4231610298156738,-0.553287148475647,-0.8376474976539612
1763693277346819600,5.991819580078125,1.36375093460083,-0.5470095276832581,-0.7932009696960449
1763693277356777700,6.00177783203125,1.3201225996017456,-0.5416795015335083,-0.7179325819015503
1763693277366736600,6.011736572265625,1.2825522422790527,-0.5368565320968628,-0.6054821610450745
1763693277376695600,6.021695556640625,1.237771987915039,-0.5173725485801697,-0.4555446207523346
1763693277386653700,6.03165380859375,1.1703485250473022,-0.4741726219654083,-0.30224695801734924
1763693277396612600,6.041612548828125,1.078755497932434,-0.4161471426486969,-0.1835320144891739
1763693277406571500,6.051571533203125,0.9606969952583313,-0.3709719479084015,-0.11095208674669266
1763693277416531000,6.061531005859375,0.8356536030769348,-0.3584252595901489,-0.06454730033874512
1763693277426488600,6.071488525390625,0.7209169268608093,-0.37862348556518555,-0.010570885613560677
1763693277436447700,6.08144775390625,0.6081083416938782,-0.40125608444213867,0.07947644591331482
1763693277446407000,6.091406982421875,0.4811903238296509,-0.392978698015213,0.2029736191034317
1763693277456364500,6.101364501953125,0.3460807204246521,-0.3478618264198303,0.3398960530757904
1763693277466324000,6.111323974609375,0.20377495884895325,-0.2873702645301819,0.478831022977829
1763693277476283000,6.121282958984375,0.06677956134080887,-0.22038669884204865,0.6096425652503967
1763693277486240500,6.131240478515625,-0.056227851659059525,-0.150722935795784,0.730432391166687
1763693277496200000,6.141199951171875,-0.16058994829654694,-0.12824079394340515,0.8210844993591309
1763693277506158800,6.151158935546875,-0.2456824630498886,-0.17152301967144012,0.8717772364616394
1763693277516117800,6.16111767578125,-0.32051384449005127,-0.2316175103187561,0.8904481530189514
1763693277526076000,6.171075927734375,-0.38620761036872864,-0.28507301211357117,0.8951464891433716
1763693277536034800,6.181034912109375,-0.44428449869155884,-0.33968380093574524,0.9036685824394226
1763693277545993700,6.19099365234375,-0.48386865854263306,-0.4414895176887512,0.9180446267127991
1763693277555951900,6.200951904296875,-0.5079827904701233,-0.6043980121612549,0.9233754873275757
1763693277565910800,6.210910888671875,-0.5376977920532227,-0.7663089036941528,0.9193732738494873
1763693277575869700,6.22086962890625,-0.5701830387115479,-0.8745282888412476,0.8999772071838379
1763693277585828900,6.230828857421875,-0.6048552989959717,-0.9512912631034851,0.8612226247787476
1763693277595786800,6.240786865234375,-0.6361173391342163,-1.0090131759643555,0.8140473961830139
1763693277605746000,6.250745849609375,-0.6720209717750549,-0.990386962890625,0.7744618654251099
1763693277615704800,6.260704833984375,-0.7007189393043518,-0.8845492601394653,0.7626049518585205
1763693277625662700,6.270662841796875,-0.7263569235801697,-0.7322087287902832,0.8055622577667236
1763693277635622000,6.280621826171875,-0.7568283081054688,-0.5337685942649841,0.909530520439148
1763693277645580800,6.290580810546875,-0.8157411217689514,-0.3234339952468872,1.0489901304244995
1763693277655538700,6.30053857421875,-0.8850560188293457,-0.1537346988916397,1.1866321563720703
1763693277665497900,6.310497802734375,-0.959821879863739,-0.018824022263288498,1.2993682622909546
1763693277675456800,6.320456787109375,-1.0238027572631836,0.11113876849412918,1.3683547973632812
1763693277685415700,6.330415771484375,-1.050150752067566,0.17315927147865295,1.40131676197052
1763693277695373800,6.340373779296875,-1.0334159135818481,0.14825737476348877,1.4145255088806152
1763693277705332700,6.350332763671875,-0.9926868677139282,0.08450636267662048,1.432329535484314
1763693277715291600,6.360291748046875,-0.9435446262359619,0.02857518568634987,1.4576585292816162
1763693277725249800,6.370249755859375,-0.8946178555488586,-0.0349997952580452,1.4828743934631348
1763693277735208700,6.380208740234375,-0.8584367036819458,-0.11849521845579147,1.4876292943954468
1763693277745167600,6.390167724609375,-0.8246177434921265,-0.19046156108379364,1.465145230293274
1763693277755125800,6.400125732421875,-0.7901798486709595,-0.2575305998325348,1.417981743812561
1763693277765084400,6.41008447265625,-0.7518758773803711,-0.33468905091285706,1.3523083925247192
1763693277775043600,6.420043701171875,-0.7170324325561523,-0.40797069668769836,1.275202751159668
1763693277785002500,6.43000244140625,-0.6887972950935364,-0.45602717995643616,1.2000224590301514
1763693277794960400,6.43996044921875,-0.6659356951713562,-0.4755963683128357,1.133673071861267
1763693277804919600,6.44991943359375,-0.6402412056922913,-0.49064135551452637,1.0766957998275757
1763693277814878500,6.45987841796875,-0.6111677885055542,-0.5221577286720276,1.0245848894119263
1763693277824836600,6.469836669921875,-0.5820139050483704,-0.5546658635139465,0.9694279432296753
1763693277834795500,6.47979541015625,-0.5449764728546143,-0.5723521709442139,0.9125766158103943
1763693277844754400,6.48975439453125,-0.48136743903160095,-0.5819163918495178,0.8649193644523621
1763693277854713300,6.49971337890625,-0.39641764760017395,-0.5844826102256775,0.8247692584991455
1763693277864671500,6.50967138671875,-0.2873438894748688,-0.5749974846839905,0.7899670600891113
1763693277874630400,6.51963037109375,-0.1776144653558731,-0.5557055473327637,0.7528253197669983
1763693277884589300,6.52958935546875,-0.07510966062545776,-0.5375529527664185,0.7057363390922546
1763693277894547500,6.53954736328125,0.011847871355712414,-0.5082283616065979,0.6443238854408264
1763693277904506400,6.54950634765625,0.08510664105415344,-0.4427689015865326,0.5793624520301819
1763693277914465500,6.559465576171875,0.16059793531894684,-0.34940671920776367,0.5116015076637268
1763693277924423400,6.56942333984375,0.23778219521045685,-0.251725435256958,0.44628241658210754
1763693277934382300,6.57938232421875,0.32574373483657837,-0.1645764261484146,0.3724617063999176
1763693277944341500,6.589341552734375,0.43226513266563416,-0.10770142823457718,0.28365275263786316
1763693277954300400,6.599300537109375,0.5570531487464905,-0.07217459380626678,0.17864777147769928
1763693277964258600,6.609258544921875,0.6975327730178833,-0.04766419157385826,0.0700741559267044
1763693277974217500,6.619217529296875,0.8516711592674255,-0.0181686170399189,-0.03706614300608635
1763693277984176400,6.62917626953125,1.006527304649353,0.02905961498618126,-0.13512906432151794
1763693277994134500,6.639134521484375,1.1529200077056885,0.09564290195703506,-0.22142480313777924
1763693278004093400,6.649093505859375,1.2847802639007568,0.1659490168094635,-0.3004849851131439
1763693278014052400,6.65905224609375,1.4043583869934082,0.21694989502429962,-0.3852717876434326
1763693278024011300,6.66901123046875,1.5187269449234009,0.2429037243127823,-0.4864812195301056
1763693278033969400,6.678969482421875,1.6313533782958984,0.24168425798416138,-0.6042848229408264
1763693278043928300,6.68892822265625,1.7390912771224976,0.1876380741596222,-0.7257633209228516
1763693278053887500,6.698887451171875,1.82827627658844,0.13408243656158447,-0.8406233191490173
1763693278063845400,6.708845458984375,1.8930734395980835,0.13573706150054932,-0.9367120265960693
1763693278073804300,6.71880419921875,1.9389508962631226,0.17973008751869202,-1.025938630104065
1763693278083763500,6.728763427734375,1.9746713638305664,0.26568707823753357,-1.113296389579773
1763693278093721300,6.738721435546875,1.9977971315383911,0.39572176337242126,-1.2187426090240479
1763693278103680300,6.74868017578125,2.02002215385437,0.5312878489494324,-1.3462886810302734
1763693278113639400,6.758639404296875,2.0469751358032227,0.6499798893928528,-1.5017287731170654
1763693278123598300,6.768598388671875,2.074136257171631,0.7365062236785889,-1.6709564924240112
1763693278133556500,6.778556396484375,2.097625494003296,0.7906355261802673,-1.843127965927124
1763693278143515400,6.788515380859375,2.1180906295776367,0.8226238489151001,-2.0239920616149902
1763693278153474600,6.798474609375,2.1529455184936523,0.8093423843383789,-2.2196202278137207
1763693278163432400,6.808432373046875,2.2080278396606445,0.7577694654464722,-2.4287502765655518
1763693278173391400,6.818391357421875,2.290623188018799,0.7016225457191467,-2.6381888389587402
1763693278183350500,6.8283505859375,2.392883777618408,0.6522701978683472,-2.8165783882141113
1763693278193309400,6.838309326171875,2.5061557292938232,0.6304232478141785,-2.9423270225524902
1763693278203267300,6.848267333984375,2.6082587242126465,0.6542243957519531,-2.9936535358428955
1763693278213226500,6.8582265625,2.6666572093963623,0.7099300026893616,-2.9686293601989746
1763693278223185700,6.868185546875,2.662569522857666,0.7773995995521545,-2.8776071071624756
1763693278233143600,6.8781435546875,2.5895156860351562,0.8231604695320129,-2.7399418354034424
1763693278243102500,6.8881025390625,2.4545695781707764,0.8211212754249573,-2.5930707454681396
1763693278253061600,6.8980615234375,2.2776753902435303,0.7658630609512329,-2.451225996017456
1763693278263019500,6.90801953125,2.080744981765747,0.6830893754959106,-2.31032133102417
1763693278272978400,6.917978515625,1.8855822086334229,0.5815840363502502,-2.147451639175415
1763693278282937600,6.9279375,1.7160615921020508,0.464741587638855,-1.9482216835021973
1763693278292896500,6.937896484375,1.5913434028625488,0.3518024981021881,-1.7086505889892578
1763693278302854700,6.947854736328125,1.4936442375183105,0.2631317675113678,-1.4362001419067383
1763693278312813600,6.9578134765625,1.39497709274292,0.20047610998153687,-1.14542555809021
1763693278322772500,6.9677724609375,1.27669358253479,0.16765344142913818,-0.8670275211334229
1763693278332730600,6.977730712890625,1.1349284648895264,0.14060771465301514,-0.635550320148468
1763693278342689500,6.987689453125,0.9686177968978882,0.10727425664663315,-0.47335851192474365
1763693278352648400,6.9976484375,0.7854143977165222,0.09964403510093689,-0.37618640065193176
1763693278362607400,7.007607421875,0.6136266589164734,0.10098706930875778,-0.32748493552207947
1763693278372565500,7.0175654296875,0.473185658454895,0.11421818286180496,-0.3137691020965576
1763693278382524400,7.0275244140625,0.37295281887054443,0.16238811612129211,-0.2972641587257385
1763693278392483600,7.037483642578125,0.3145392835140228,0.25080451369285583,-0.26784077286720276
1763693278402441500,7.04744140625,0.2892264723777771,0.3550398647785187,-0.23021109402179718
1763693278412400400,7.057400390625,0.2815411388874054,0.4506284296512604,-0.19367945194244385
1763693278422359600,7.067359619140625,0.2824718952178955,0.5261053442955017,-0.16482330858707428
1763693278432317400,7.0773173828125,0.29114341735839844,0.5781866312026978,-0.14803127944469452
1763693278442276400,7.0872763671875,0.3135848045349121,0.6086721420288086,-0.13650564849376678
1763693278452235500,7.097235595703125,0.3411194980144501,0.6130034923553467,-0.12327080219984055
1763693278462194400,7.1071943359375,0.37701305747032166,0.5782721638679504,-0.10609740763902664
1763693278472152600,7.117152587890625,0.4145053029060364,0.5002449750900269,-0.08467813581228256
1763693278482111500,7.127111572265625,0.43682339787483215,0.3915390074253082,-0.05694957077503204
1763693278492070400,7.1370703125,0.438740611076355,0.27433860301971436,-0.021999841555953026
1763693278502028500,7.147028564453125,0.43231627345085144,0.15645085275173187,0.010214820504188538
1763693278511987500,7.156987548828125,0.42650577425956726,0.0584782250225544,0.040339432656764984
1763693278521946400,7.1669462890625,0.43013620376586914,-0.019357718527317047,0.05838847532868385
1763693278531905500,7.176905517578125,0.43602338433265686,-0.07861198484897614,0.06680699437856674
1763693278541863400,7.186863525390625,0.43928149342536926,-0.10440923273563385,0.0675891637802124
1763693278551822300,7.196822265625,0.4283745288848877,-0.08557268977165222,0.06791460514068604
1763693278561781500,7.206781494140625,0.3983873128890991,-0.032528650015592575,0.07309205085039139
1763693278571739400,7.216739501953125,0.357705682516098,0.04535443335771561,0.08615219593048096
1763693278581698300,7.2266982421875,0.3110657334327698,0.1300770491361618,0.10311786085367203
1763693278591657500,7.236657470703125,0.2626151144504547,0.20387563109397888,0.12195653468370438
1763693278601616400,7.246616455078125,0.2027219533920288,0.24245977401733398,0.13607075810432434
1763693278611574500,7.256574462890625,0.13302995264530182,0.2437649965286255,0.15097007155418396
1763693278621533400,7.266533447265625,0.06254806369543076,0.21693284809589386,0.17854097485542297
1763693278631492400,7.276492431640625,-0.004518851637840271,0.16847848892211914,0.22463656961917877
1763693278641450500,7.286450439453125,-0.06279893219470978,0.08607549965381622,0.29017215967178345
1763693278651409400,7.296409423828125,-0.12020683288574219,-0.021820344030857086,0.3730854392051697
1763693278661368300,7.306368408203125,-0.1792917251586914,-0.1177857518196106,0.4608970284461975
1763693278671327200,7.3163271484375,-0.24163739383220673,-0.16129834949970245,0.5524682402610779
1763693278681285400,7.326285400390625,-0.31087106466293335,-0.15731744468212128,0.6350557804107666
1763693278691244300,7.336244384765625,-0.3973521590232849,-0.13560229539871216,0.7004539966583252
1763693278701203500,7.346203369140625,-0.4966297447681427,-0.12709510326385498,0.7286046743392944
1763693278711161300,7.356161376953125,-0.597898006439209,-0.1377410888671875,0.7083179950714111
1763693278721120300,7.366120361328125,-0.6926186680793762,-0.1539352387189865,0.6360219717025757
1763693278731079400,7.376079345703125,-0.7743207216262817,-0.16466937959194183,0.5377918481826782
1763693278741037300,7.386037353515625,-0.8358256220817566,-0.16262993216514587,0.44263121485710144
1763693278750996200,7.395996337890625,-0.861575722694397,-0.15966449677944183,0.3533458113670349
1763693278760955400,7.405955322265625,-0.8524687886238098,-0.17921902239322662,0.2716829180717468
1763693278770915300,7.415915283203125,-0.8158090710639954,-0.20546101033687592,0.1878521889448166
1763693278780873200,7.425873291015625,-0.7697619199752808,-0.21055936813354492,0.11405093967914581
1763693278790832400,7.435832275390625,-0.7345086336135864,-0.1772560030221939,0.06024150177836418
1763693278800791300,7.445791259765625,-0.7277750968933105,-0.09795212745666504,0.03808480128645897
1763693278810749200,7.455749267578125,-0.7444097399711609,0.011408981867134571,0.04910336434841156
1763693278820708400,7.465708251953125,-0.7896267175674438,0.1434439867734909,0.10689502209424973
1763693278830667300,7.475667236328125,-0.8550043702125549,0.26174452900886536,0.2037683129310608
1763693278840626200,7.485626220703125,-0.9435420036315918,0.3371066451072693,0.34023720026016235
1763693278850584300,7.495584228515625,-1.0518569946289062,0.34184256196022034,0.4899132549762726
1763693278860543200,7.505543212890625,-1.1729423999786377,0.27043095231056213,0.6315670609474182
1763693278870502100,7.515502197265625,-1.293753743171692,0.13767610490322113,0.7528455257415771
1763693278880460300,7.525460205078125,-1.3994317054748535,-0.032339032739400864,0.8577597141265869
1763693278890419200,7.535419189453125,-1.4760380983352661,-0.2246118038892746,0.9602503776550293
1763693278900378000,7.545378173828125,-1.5109018087387085,-0.41646644473075867,1.0734059810638428
1763693278910337300,7.555337158203125,-1.5095281600952148,-0.5922588109970093,1.1980853080749512
1763693278920295200,7.565295166015625,-1.4877920150756836,-0.7405686378479004,1.3282649517059326
1763693278930254300,7.57525439453125,-1.463924765586853,-0.8690136671066284,1.4408849477767944
1763693278940213500,7.585213623046875,-1.4521048069000244,-0.9691168665885925,1.5287902355194092
1763693278950171100,7.595171142578125,-1.468885898590088,-1.0194140672683716,1.5902997255325317
1763693278960130300,7.60513037109375,-1.5163666009902954,-1.0217571258544922,1.63093900680542
1763693278970089500,7.61508935546875,-1.5682276487350464,-1.0031448602676392,1.6480023860931396
1763693278980048400,7.62504833984375,-1.6077886819839478,-0.9695043563842773,1.6358743906021118
1763693278990006300,7.63500634765625,-1.633776307106018,-0.9159191250801086,1.6000330448150635
1763693278999965400,7.64496533203125,-1.6493667364120483,-0.8533276915550232,1.5430357456207275
1763693279009924400,7.65492431640625,-1.6493558883666992,-0.7868384122848511,1.465419054031372
1763693279019882500,7.664882568359375,-1.6323068141937256,-0.7212388515472412,1.381973147392273
1763693279029841400,7.67484130859375,-1.600378155708313,-0.6594945788383484,1.2835708856582642
1763693279039800300,7.68480029296875,-1.5605359077453613,-0.6149172186851501,1.1792863607406616
1763693279049759500,7.694759521484375,-1.518636703491211,-0.5942026376724243,1.0767996311187744
1763693279059717400,7.70471728515625,-1.4780999422073364,-0.5780212879180908,0.9786198139190674
1763693279069676300,7.71467626953125,-1.451544165611267,-0.548350989818573,0.891901969909668
1763693279079635500,7.724635498046875,-1.433142900466919,-0.5217851400375366,0.8065258264541626
1763693279089593300,7.73459326171875,-1.4053535461425781,-0.510244607925415,0.7207717895507812
1763693279099552500,7.744552490234375,-1.3656657934188843,-0.5015376806259155,0.6284921765327454
1763693279109511400,7.754511474609375,-1.3126620054244995,-0.4867424964904785,0.5299213528633118
1763693279119469300,7.76446923828125,-1.246057152748108,-0.4709331691265106,0.43321162462234497
1763693279129428500,7.774428466796875,-1.173450231552124,-0.43958908319473267,0.34941524267196655
1763693279139387400,7.784387451171875,-1.09019935131073,-0.3868611752986908,0.28146684169769287
1763693279149346300,7.79434619140625,-0.9901896715164185,-0.3267544209957123,0.22022265195846558
1763693279159304400,7.804304443359375,-0.8711258172988892,-0.26406893134117126,0.15907859802246094
1763693279169263400,7.814263427734375,-0.7412216663360596,-0.201663076877594,0.09017623215913773
1763693279179222300,7.82422216796875,-0.6016592383384705,-0.1439230889081955,0.006792924832552671
1763693279189180400,7.834180419921875,-0.4538894593715668,-0.09488177299499512,-0.07737042009830475
1763693279199139300,7.844139404296875,-0.3014304041862488,-0.0537460520863533,-0.1551951766014099
1763693279209098200,7.85409814453125,-0.14569301903247833,-0.019824836403131485,-0.22278887033462524
1763693279219057400,7.864057373046875,0.025083249434828758,-0.00887817982584238,-0.2869281768798828
1763693279229015300,7.874015380859375,0.2129729837179184,-0.010001501068472862,-0.3449366092681885
1763693279238974200,7.88397412109375,0.40620771050453186,-0.02659033238887787,-0.3992816209793091
1763693279248933400,7.893933349609375,0.5939725637435913,-0.05763639882206917,-0.4405536949634552
1763693279258891300,7.903891357421875,0.7700492739677429,-0.09090620279312134,-0.4611484408378601
1763693279268850400,7.913850341796875,0.935380220413208,-0.10450191050767899,-0.46446728706359863
1763693279278809300,7.923809326171875,1.0844237804412842,-0.07784339785575867,-0.4554591178894043
1763693279288768300,7.933768310546875,1.224768042564392,-0.014985873363912106,-0.4522058069705963
1763693279298726400,7.943726318359375,1.3475861549377441,0.06334301829338074,-0.47857776284217834
1763693279308685300,7.953685302734375,1.4593232870101929,0.1307007521390915,-0.5484870672225952
1763693279318644200,7.963644287109375,1.5724540948867798,0.21794778108596802,-0.6735248565673828
1763693279328602400,7.973602294921875,1.7218382358551025,0.33097365498542786,-0.8337917923927307
1763693279338561300,7.983561279296875,1.9296280145645142,0.4497237503528595,-1.0278770923614502
1763693279348520200,7.993520263671875,2.1623177528381348,0.5914894342422485,-1.244956374168396
1763693279358479400,8.003479248046874,2.399534225463867,0.7249550819396973,-1.469086766242981
1763693279368437200,8.013437255859374,2.6153008937835693,0.8312591314315796,-1.6849766969680786
1763693279378396200,8.023396240234375,2.7802419662475586,0.9101619124412537,-1.8857395648956299
1763693279388355300,8.033355224609375,2.88326358795166,0.9442471861839294,-2.05232572555542
1763693279398313200,8.043313232421875,2.920581102371216,0.958186149597168,-2.1637349128723145
1763693279408272400,8.0532724609375,2.8983123302459717,0.9760677218437195,-2.1896345615386963
1763693279418231300,8.063231201171876,2.8279545307159424,0.9954198598861694,-2.1222097873687744
1763693279428190200,8.073190185546874,2.7175440788269043,1.0263937711715698,-1.971420407295227
1763693279438148400,8.0831484375,2.5709245204925537,1.0329078435897827,-1.7701584100723267
1763693279448107300,8.093107177734375,2.384512424468994,0.9797894954681396,-1.5620847940444946
1763693279458066200,8.103066162109375,2.167724370956421,0.864487886428833,-1.3786522150039673
1763693279468024300,8.1130244140625,1.9337867498397827,0.6825516819953918,-1.2329086065292358
1763693279477983200,8.122983154296875,1.7189642190933228,0.46809902787208557,-1.1024930477142334
1763693279487942100,8.132942138671876,1.540438175201416,0.2701292335987091,-0.9720026850700378
1763693279497901300,8.1429013671875,1.4001697301864624,0.11457371711730957,-0.830329418182373
1763693279507859200,8.152859130859374,1.2822414636611938,0.0019358517602086067,-0.6947169899940491
1763693279517818000,8.162818115234375,1.166698694229126,-0.06236058101058006,-0.5881319642066956
1763693279527777500,8.172777587890625,1.0424983501434326,-0.0765155479311943,-0.5251684188842773
1763693279537735200,8.182735107421875,0.9065501689910889,-0.04325799271464348,-0.5088546872138977
1763693279547694300,8.1926943359375,0.7749212980270386,0.029096366837620735,-0.5378608107566833
1763693279557653500,8.202653564453126,0.6711493730545044,0.1350768655538559,-0.5958234071731567
1763693279567612400,8.2126123046875,0.593181848526001,0.271411269903183,-0.6693698167800903
1763693279577570600,8.222570556640624,0.5574778914451599,0.415392130613327,-0.7481919527053833
1763693279587529500,8.232529541015625,0.5528599619865417,0.545878529548645,-0.8280409574508667
1763693279597488400,8.24248828125,0.5645307302474976,0.6525176167488098,-0.9018853306770325
1763693279607446500,8.252446533203125,0.5831702351570129,0.7408820986747742,-0.960791826248169
1763693279617405400,8.262405517578125,0.6050416827201843,0.8049361705780029,-1.0025190114974976
1763693279627364400,8.2723642578125,0.6352518200874329,0.83847576379776,-1.0282765626907349
1763693279637323300,8.2823232421875,0.6715701222419739,0.8613041043281555,-1.036394715309143
1763693279647281400,8.292281494140624,0.7136403322219849,0.8577679395675659,-1.029234766960144
1763693279657240300,8.302240234375,0.7542450428009033,0.824360728263855,-0.9981207847595215
1763693279667199500,8.312199462890625,0.791488528251648,0.7943812608718872,-0.9412503242492676
1763693279677157400,8.322157470703125,0.8349640965461731,0.7606302499771118,-0.8698432445526123
1763693279687116300,8.3321162109375,0.8744369745254517,0.6977626085281372,-0.7888818383216858
1763693279697075500,8.342075439453126,0.9022691249847412,0.6182253956794739,-0.7157506346702576
1763693279707033300,8.352033447265624,0.9139912724494934,0.522203803062439,-0.6463944911956787
1763693279716992300,8.3619921875,0.9167513847351074,0.4252104163169861,-0.5750986933708191
1763693279726951400,8.371951416015625,0.9149090051651001,0.3531700372695923,-0.4937085211277008
1763693279736910300,8.381910400390625,0.9037485122680664,0.31821951270103455,-0.4018952548503876
1763693279746868500,8.391868408203125,0.8908135294914246,0.2954561412334442,-0.3070390224456787
1763693279756827400,8.401827392578125,0.8613182306289673,0.2795296609401703,-0.2253500372171402
1763693279766785300,8.411785400390626,0.8112156391143799,0.2770824730396271,-0.1646539270877838
1763693279776744400,8.421744384765624,0.7455436587333679,0.289975106716156,-0.1226353719830513
1763693279786702300,8.431702392578124,0.6732897162437439,0.31355178356170654,-0.08721426129341125
1763693279796661500,8.44166162109375,0.6091741323471069,0.33459049463272095,-0.04493418335914612
1763693279806620400,8.451620361328125,0.5523588061332703,0.3471235930919647,0.012103267945349216
1763693279816578300,8.461578369140625,0.49960261583328247,0.33191269636154175,0.08915384113788605
1763693279826537500,8.471537353515625,0.43686655163764954,0.2763708829879761,0.186552032828331
1763693279836496400,8.481496337890626,0.34149447083473206,0.17700247466564178,0.30472129583358765
1763693279846454300,8.491454345703126,0.21930918097496033,0.046309974044561386,0.4381083846092224
1763693279856413400,8.501413330078124,0.067880779504776,-0.11558917909860611,0.5774266123771667
1763693279866372400,8.511372314453125,-0.09784853458404541,-0.26682397723197937,0.7047795057296753
1763693279876331300,8.521331298828125,-0.2636183202266693,-0.37388357520103455,0.8155816197395325
1763693279886289400,8.531289306640625,-0.4162440896034241,-0.4149079918861389,0.9052846431732178
1763693279896248300,8.541248291015625,-0.549775242805481,-0.39901208877563477,0.9720657467842102
1763693279906207200,8.551207275390626,-0.6663969159126282,-0.3417613208293915,1.0003799200057983
1763693279916166400,8.56116650390625,-0.7708700895309448,-0.2764270603656769,0.9600110054016113
1763693279926124300,8.571124267578124,-0.8665816783905029,-0.19635432958602905,0.8517398834228516
1763693279936083200,8.581083251953125,-0.9500858783721924,-0.08990298956632614,0.7109875679016113
1763693279946042400,8.59104248046875,-1.0142470598220825,0.04297250136733055,0.5780252814292908
1763693279956000300,8.601000244140625,-1.0410882234573364,0.15991324186325073,0.4732911288738251
1763693279965959400,8.61095947265625,-1.0188943147659302,0.2093002200126648,0.37213706970214844
1763693279975918300,8.62091845703125,-0.9788248538970947,0.20332302153110504,0.2733420729637146
1763693279985877200,8.630877197265624,-0.9395858645439148,0.17122980952262878,0.19247384369373322
1763693279995835400,8.64083544921875,-0.9175383448600769,0.15076634287834167,0.16012388467788696
1763693280005794300,8.650794189453125,-0.920362651348114,0.1422860324382782,0.1826595664024353
1763693280015753200,8.660753173828125,-0.95346599817276,0.14980041980743408,0.27876824140548706
1763693280025711400,8.67071142578125,-1.0200684070587158,0.1587371826171875,0.45143696665763855
1763693280035670300,8.680670166015625,-1.1320791244506836,0.17189106345176697,0.6866350769996643
1763693280045629200,8.690629150390626,-1.2772037982940674,0.15502101182937622,0.9548095464706421
1763693280055587300,8.70058740234375,-1.4403868913650513,0.06300133466720581,1.2213940620422363
1763693280065546200,8.710546142578124,-1.6119189262390137,-0.10283742845058441,1.4550193548202515
1763693280075505200,8.720505126953125,-1.7755225896835327,-0.3127395212650299,1.6449629068374634
1763693280085464300,8.73046435546875,-1.9085620641708374,-0.5396096706390381,1.7927641868591309
1763693280095422200,8.740422119140625,-2.0013582706451416,-0.7683613896369934,1.9098633527755737
1763693280105381400,8.75038134765625,-2.053678512573242,-0.9742109775543213,2.0129151344299316
1763693280115340300,8.76034033203125,-2.0764846801757812,-1.1193758249282837,2.1011757850646973
1763693280125299200,8.77029931640625,-2.0766584873199463,-1.2016140222549438,2.174406051635742
1763693280135257300,8.78025732421875,-2.0624353885650635,-1.2354590892791748,2.215670585632324
1763693280145216300,8.79021630859375,-2.042711019515991,-1.2251139879226685,2.217496871948242
1763693280155175200,8.800175048828125,-2.0234785079956055,-1.1802152395248413,2.1732821464538574
1763693280165133300,8.81013330078125,-2.0040857791900635,-1.109492301940918,2.069211006164551
1763693280175092200,8.82009228515625,-1.9860243797302246,-1.0518721342086792,1.9052331447601318
1763693280185051400,8.830051513671876,-1.9681447744369507,-0.9877043962478638,1.695038914680481
1763693280195010300,8.84001025390625,-1.93862783908844,-0.896611750125885,1.4644323587417603
1763693280204968200,8.84996826171875,-1.8877543210983276,-0.7669442892074585,1.2433964014053345
1763693280214927400,8.85992724609375,-1.8124728202819824,-0.6162554621696472,1.047548532485962
1763693280224886500,8.869886474609375,-1.725441336631775,-0.4662473201751709,0.889434814453125
1763693280234844200,8.87984423828125,-1.6370410919189453,-0.3187295198440552,0.7690833806991577
1763693280244803300,8.88980322265625,-1.5649949312210083,-0.16853122413158417,0.6673378348350525
1763693280254762500,8.899762451171876,-1.5072410106658936,-0.03502749279141426,0.5699798464775085
1763693280264721400,8.909721435546874,-1.4737043380737305,0.05991126969456673,0.47070786356925964
1763693280274679300,8.91967919921875,-1.458271861076355,0.11779427528381348,0.3701929748058319
1763693280284638500,8.929638427734375,-1.4479774236679077,0.152292862534523,0.2735756039619446
1763693280294597400,8.939597412109375,-1.4305284023284912,0.14553801715373993,0.1852755844593048
1763693280304555500,8.949555419921875,-1.3949280977249146,0.1126655638217926,0.10673923045396805
1763693280314514400,8.959514404296876,-1.3485441207885742,0.07095033675432205,0.04289766773581505
1763693280324473300,8.969473388671876,-1.2940038442611694,0.040835049003362656,-0.0021401161793619394
1763693280334432300,8.979432373046874,-1.22687566280365,0.023791348561644554,-0.02256469801068306
1763693280344390400,8.989390380859374,-1.1519795656204224,0.029331523925065994,-0.017467940226197243
1763693280354349300,8.999349365234375,-1.0660569667816162,0.03957830369472504,0.013170663267374039
1763693280364308500,9.00930859375,-0.9739568829536438,0.04794382303953171,0.05764172598719597
1763693280374266400,9.019266357421875,-0.8780777454376221,0.04953373223543167,0.10534293204545975
1763693280384225300,9.029225341796876,-0.7758145332336426,0.0445735938847065,0.13806892931461334
1763693280394184400,9.039184326171876,-0.6633108854293823,0.04180630296468735,0.15199778974056244
1763693280404143400,9.049143310546874,-0.5344135761260986,0.048888180404901505,0.14995966851711273
1763693280414101200,9.059101318359374,-0.39128386974334717,0.051290616393089294,0.13844150304794312
1763693280424060400,9.069060302734375,-0.2397947460412979,0.04742264375090599,0.12131337821483612
1763693280434019300,9.079019287109375,-0.0838666707277298,0.024807877838611603,0.09663013368844986
1763693280443977500,9.0889775390625,0.0729178860783577,-0.0034698324743658304,0.06329641491174698
1763693280453936400,9.098936279296876,0.23218423128128052,-0.019833892583847046,0.021027253940701485
1763693280463895300,9.108895263671876,0.40163639187812805,-0.046183206140995026,-0.024592161178588867
1763693280473854200,9.118854248046874,0.5774745345115662,-0.089446522295475,-0.07072583585977554
1763693280483812400,9.128812255859375,0.7541957497596741,-0.1358070969581604,-0.11023489385843277
1763693280493771300,9.138771240234375,0.9210246801376343,-0.18543191254138947,-0.13828010857105255
1763693280503730200,9.148730224609375,1.0771048069000244,-0.25528955459594727,-0.14695481956005096
1763693280513688300,9.158688232421875,1.2136783599853516,-0.34780749678611755,-0.13487125933170319
1763693280523647200,9.168647216796876,1.3083678483963013,-0.44582700729370117,-0.10932835191488266
1763693280533606400,9.1786064453125,1.3501256704330444,-0.5154444575309753,-0.06861474364995956
1763693280543565300,9.1885654296875,1.3518873453140259,-0.5512466430664062,-0.0367705300450325
1763693280553523200,9.198523193359375,1.3351746797561646,-0.5261993408203125,-0.03802647814154625
1763693280563482400,9.208482421875,1.3265101909637451,-0.44412630796432495,-0.08495777100324631
1763693280573441300,9.218441162109375,1.3656303882598877,-0.35220572352409363,-0.18530142307281494
1763693280583399200,9.228399169921875,1.45199453830719,-0.2742869555950165,-0.33411407470703125
1763693280593358300,9.2383583984375,1.5791099071502686,-0.2099985033273697,-0.5323451161384583
1763693280603317200,9.248317138671876,1.7266591787338257,-0.13661536574363708,-0.7774781584739685
1763693280613276200,9.258276123046874,1.8719079494476318,-0.04350167140364647,-1.0552341938018799
1763693280623234300,9.268234375,1.9941928386688232,0.07592139393091202,-1.328932523727417
1763693280633193200,9.278193115234375,2.0851171016693115,0.22074489295482635,-1.5627213716506958
1763693280643152100,9.288152099609375,2.1336255073547363,0.39576250314712524,-1.714403510093689
1763693280653111300,9.298111328125,2.1322884559631348,0.5867809653282166,-1.7720694541931152
1763693280663069200,9.308069091796876,2.075390338897705,0.757118821144104,-1.750260591506958
1763693280673028400,9.3180283203125,1.9638442993164062,0.8661587834358215,-1.6726773977279663
1763693280682987300,9.3279873046875,1.8009754419326782,0.8946066498756409,-1.5628998279571533
1763693280692945200,9.337945068359375,1.6026111841201782,0.8351180553436279,-1.4350651502609253
1763693280702904300,9.347904296875,1.409183144569397,0.6905605792999268,-1.3037587404251099
1763693280712863200,9.35786328125,1.2441473007202148,0.4947056174278259,-1.1570502519607544
1763693280722822400,9.367822509765626,1.1145555973052979,0.2871321737766266,-0.9910557270050049
1763693280732780300,9.3777802734375,1.0083359479904175,0.10908627510070801,-0.8116396069526672
1763693280742739500,9.387739501953124,0.9041343927383423,-0.01841176487505436,-0.6441214680671692
1763693280752698400,9.397698486328125,0.7875609397888184,-0.09569244086742401,-0.5161874890327454
1763693280762656300,9.40765625,0.6579169034957886,-0.11258060485124588,-0.4366194009780884
1763693280772615700,9.41761572265625,0.5260469913482666,-0.06256990134716034,-0.4038926064968109
1763693280782574600,9.42757470703125,0.4012307822704315,0.03783765807747841,-0.4178638160228729
1763693280792533800,9.43753369140625,0.30970245599746704,0.16815705597400665,-0.4723454415798187
1763693280802491600,9.44749169921875,0.26023319363594055,0.3160026967525482,-0.5541707873344421
1763693280812450600,9.457450439453124,0.25869014859199524,0.4701573848724365,-0.6416287422180176
1763693280822409700,9.46740966796875,0.2996293306350708,0.6097485423088074,-0.7244772911071777
1763693280832367600,9.47736767578125,0.3650623857975006,0.7321072220802307,-0.7878530621528625
1763693280842326500,9.487326416015625,0.4321269094944,0.8433451056480408,-0.8367742896080017
1763693280852285700,9.49728564453125,0.49183711409568787,0.9194385409355164,-0.8624545931816101
1763693280862244600,9.50724462890625,0.534374475479126,0.9633615016937256,-0.8729059100151062
1763693280872202800,9.51720263671875,0.5681494474411011,0.9726029634475708,-0.8700690865516663
1763693280882161700,9.52716162109375,0.5956945419311523,0.9505056142807007,-0.8516067266464233
1763693280892120600,9.53712060546875,0.6182358264923096,0.9049171209335327,-0.812623143196106
1763693280902078700,9.54707861328125,0.6446146965026855,0.8514922261238098,-0.7612686157226562
1763693280912037600,9.55703759765625,0.6780155301094055,0.7786073684692383,-0.7033591866493225
1763693280921996500,9.56699658203125,0.7147303819656372,0.6990818977355957,-0.6459358930587769
1763693280931955500,9.57695556640625,0.7431132793426514,0.6184999942779541,-0.5953541994094849
1763693280941913600,9.58691357421875,0.7674100995063782,0.5288760662078857,-0.5488641858100891
1763693280951872500,9.59687255859375,0.7870684862136841,0.44026872515678406,-0.4978023171424866
1763693280961831700,9.606831787109375,0.8052480220794678,0.3731325566768646,-0.44421952962875366
1763693280971790600,9.61679052734375,0.8228054642677307,0.3200294077396393,-0.38267067074775696
1763693280981748500,9.62674853515625,0.8381868004798889,0.29616349935531616,-0.3245088458061218
1763693280991707600,9.636707763671875,0.8523604273796082,0.3119187355041504,-0.27537670731544495
1763693281001666600,9.64666650390625,0.850582480430603,0.3357977271080017,-0.24028530716896057
1763693281011624400,9.65662451171875,0.8328002691268921,0.3464231789112091,-0.22791944444179535
1763693281021583600,9.66658349609375,0.8018919229507446,0.34058740735054016,-0.23099513351917267
1763693281031542500,9.67654248046875,0.7704375982284546,0.3308517038822174,-0.2314598560333252
1763693281041501400,9.68650146484375,0.745606005191803,0.29947006702423096,-0.21747294068336487
1763693281051459600,9.69645947265625,0.7322723269462585,0.2645842432975769,-0.17416700720787048
1763693281061418500,9.70641845703125,0.7206111550331116,0.22947101294994354,-0.10227257758378983
1763693281071377400,9.71637744140625,0.6991183757781982,0.18943703174591064,-0.006102900020778179
1763693281081335600,9.72633544921875,0.6668635010719299,0.12959501147270203,0.09866132587194443
1763693281091294500,9.73629443359375,0.6124916076660156,0.05673438683152199,0.20468389987945557
1763693281101253600,9.746253662109375,0.532956063747406,-0.031079089269042015,0.3000178635120392
1763693281111212500,9.756212646484375,0.42893245816230774,-0.12342366576194763,0.3880840837955475
1763693281121170400,9.76617041015625,0.29761651158332825,-0.19125810265541077,0.47286343574523926
1763693281131129600,9.776129638671875,0.14150840044021606,-0.22389701008796692,0.5609725117683411
1763693281141088500,9.786088623046876,-0.03099440038204193,-0.23904959857463837,0.6382683515548706
1763693281151046400,9.79604638671875,-0.1981048285961151,-0.26124945282936096,0.6680728793144226
1763693281161005600,9.806005615234374,-0.3468109369277954,-0.2963046431541443,0.624415397644043
1763693281170964500,9.815964599609375,-0.4685482978820801,-0.2926403880119324,0.5214999318122864
1763693281180923400,9.82592333984375,-0.5593476891517639,-0.22086021304130554,0.40278181433677673
1763693281190881500,9.835881591796875,-0.6059117317199707,-0.11452312022447586,0.29563456773757935
1763693281200840400,9.84584033203125,-0.605575680732727,-0.0345931313931942,0.19554020464420319
1763693281210799600,9.855799560546876,-0.5852304697036743,0.0017278589075431228,0.08239980041980743
1763693281220758800,9.8657587890625,-0.568977415561676,0.011326690204441547,-0.0372626818716526
1763693281230716400,9.87571630859375,-0.5831835269927979,0.0091759217903018,-0.13684573769569397
1763693281240675600,9.885675537109375,-0.6247379183769226,0.009289638139307499,-0.19306878745555878
1763693281250634800,9.895634765625,-0.6946821212768555,0.03345702588558197,-0.19249461591243744
1763693281260592400,9.90559228515625,-0.7975200414657593,0.07891985028982162,-0.12087316066026688
1763693281270551800,9.9155517578125,-0.9319106340408325,0.14044766128063202,0.01056236308068037
1763693281280510700,9.9255107421875,-1.1008000373840332,0.19122055172920227,0.1940983682870865
1763693281290469600,9.9354697265625,-1.2885379791259766,0.20428310334682465,0.3963462710380554
1763693281300427800,9.945427734375,-1.474906325340271,0.14823101460933685,0.5886632800102234
1763693281310386700,9.95538671875,-1.6346626281738281,0.0431852862238884,0.7502247095108032
1763693281320345600,9.965345703125,-1.7584797143936157,-0.09643413126468658,0.8715333342552185
1763693281330303700,9.9753037109375,-1.8433740139007568,-0.24533705413341522,0.9535645246505737
1763693281340262700,9.9852626953125,-1.8786702156066895,-0.3786253333091736,1.0034903287887573
1763693281350221600,9.9952216796875,-1.868224859237671,-0.4983583986759186,1.0345299243927002
1763693281360180700,10.0051806640625,-1.8191049098968506,-0.591383695602417,1.0560318231582642
1763693281370138600,10.015138671875,-1.7517216205596924,-0.6400704979896545,1.0809820890426636
1763693281380097500,10.02509765625,-1.6787822246551514,-0.6355972290039062,1.110526204109192
1763693281390056700,10.035056640625,-1.608965277671814,-0.5986474752426147,1.1283848285675049
1763693281400014600,10.0450146484375,-1.5395585298538208,-0.5667380094528198,1.11704421043396
1763693281409973500,10.054973388671876,-1.4717533588409424,-0.5427000522613525,1.078328251838684
1763693281419932700,10.0649326171875,-1.4092508554458618,-0.5137724876403809,1.0137503147125244
1763693281429891600,10.0748916015625,-1.3491547107696533,-0.4737111032009125,0.9376079440116882
1763693281439849700,10.084849609375,-1.2838667631149292,-0.43133729696273804,0.8659031391143799
1763693281449808600,10.09480859375,-1.2124043703079224,-0.38881006836891174,0.8067812323570251
1763693281459767600,10.104767578125,-1.1379252672195435,-0.3488844931125641,0.7678018808364868
1763693281469726500,10.1147265625,-1.063141107559204,-0.3215703070163727,0.7476587891578674
1763693281479684600,10.1246845703125,-0.9893251657485962,-0.3102390766143799,0.7226743102073669
1763693281489643500,10.1346435546875,-0.9296437501907349,-0.31464049220085144,0.6880233883857727
1763693281499602400,10.1446025390625,-0.8805164098739624,-0.331814169883728,0.6431600451469421
1763693281509560600,10.154560546875,-0.8450473546981812,-0.35255166888237,0.5967275500297546
1763693281519519500,10.16451953125,-0.8122928738594055,-0.3732801079750061,0.5548291206359863
1763693281529478700,10.174478759765625,-0.7789631485939026,-0.39918893575668335,0.5216818451881409
1763693281539437600,10.1844375,-0.7463711500167847,-0.4245118796825409,0.48814651370048523
1763693281549395500,10.1943955078125,-0.7156949639320374,-0.44285517930984497,0.46086135506629944
1763693281559354600,10.204354736328124,-0.6949343085289001,-0.43918776512145996,0.4475463628768921
1763693281569313500,10.2143134765625,-0.672447919845581,-0.4268152415752411,0.44697776436805725
1763693281579271700,10.224271728515625,-0.6518925428390503,-0.41597458720207214,0.45845144987106323
1763693281589230600,10.234230712890625,-0.6448655724525452,-0.40017271041870117,0.47413668036460876
1763693281599189500,10.244189453125,-0.638676106929779,-0.37666791677474976,0.48298901319503784
1763693281609148400,10.2541484375,-0.6248968839645386,-0.3657130002975464,0.480772465467453
1763693281619106600,10.2641064453125,-0.6004988551139832,-0.3708806037902832,0.459396094083786
1763693281629065500,10.2740654296875,-0.5598236322402954,-0.3752487301826477,0.41683050990104675
1763693281639024400,10.2840244140625,-0.5117186903953552,-0.3784343898296356,0.35472026467323303
1763693281648983600,10.293983642578125,-0.4517751932144165,-0.37655872106552124,0.27460092306137085
1763693281658941400,10.30394140625,-0.37843573093414307,-0.3606727123260498,0.1787511110305786
1763693281668900600,10.313900634765625,-0.29295676946640015,-0.32464465498924255,0.07561992853879929
1763693281678859500,10.323859619140626,-0.19439956545829773,-0.2649722695350647,-0.03651779890060425
1763693281688817400,10.3338173828125,-0.0776873379945755,-0.1838470697402954,-0.1507200002670288
1763693281698776600,10.343776611328124,0.059731774032115936,-0.08021654188632965,-0.2591005265712738
1763693281708735500,10.353735595703125,0.21133248507976532,0.033005885779857635,-0.3567695617675781
1763693281718694700,10.363694580078125,0.36408713459968567,0.13102459907531738,-0.4410106837749481
1763693281728652500,10.373652587890625,0.5111750960350037,0.19638895988464355,-0.5157517790794373
1763693281738611500,10.383611572265625,0.6437352895736694,0.21976085007190704,-0.5838748812675476
1763693281748570600,10.393570556640626,0.7506961226463318,0.21002300083637238,-0.642871618270874
1763693281758528500,10.403528564453126,0.8416680693626404,0.1803700476884842,-0.7010683417320251
1763693281768487700,10.41348779296875,0.9291684031486511,0.1406463235616684,-0.762789785861969
1763693281778446600,10.423446533203125,1.0192711353302002,0.10419164597988129,-0.8397641777992249
1763693281788405800,10.43340576171875,1.1208903789520264,0.08233775198459625,-0.9307076930999756
1763693281798363600,10.44336376953125,1.235601782798767,0.10823193192481995,-1.0167912244796753
1763693281808322600,10.453322509765625,1.3639858961105347,0.1580791175365448,-1.0820705890655518
1763693281818281700,10.46328173828125,1.5027179718017578,0.2230951339006424,-1.1306135654449463
1763693281828240600,10.47324072265625,1.642817497253418,0.29539036750793457,-1.1836906671524048
1763693281838198800,10.48319873046875,1.7728610038757324,0.35552480816841125,-1.2589648962020874
1763693281848157700,10.49315771484375,1.8825294971466064,0.4102972447872162,-1.3484069108963013
1763693281858116600,10.50311669921875,1.976125955581665,0.4522803723812103,-1.4291198253631592
1763693281868074800,10.51307470703125,2.064882516860962,0.4937378168106079,-1.4846571683883667
1763693281878033700,10.52303369140625,2.140420913696289,0.5490599274635315,-1.491885781288147
1763693281887992600,10.53299267578125,2.191558361053467,0.6131401062011719,-1.4274569749832153
1763693281897951500,10.542951416015624,2.2116804122924805,0.6639420390129089,-1.2965458631515503
1763693281907909600,10.55290966796875,2.192943572998047,0.6767563819885254,-1.118887186050415
1763693281917868500,10.56286865234375,2.126314878463745,0.6196808218955994,-0.9265265464782715
1763693281927827700,10.57282763671875,1.9955101013183594,0.47484907507896423,-0.7435705661773682
1763693281937785600,10.58278564453125,1.8099948167800903,0.26143133640289307,-0.5763344168663025
1763693281947744500,10.59274462890625,1.5906599760055542,0.011025220155715942,-0.42144709825515747
1763693281957703700,10.60270361328125,1.3708291053771973,-0.24319666624069214,-0.2580648362636566
1763693281967662800,10.612662841796874,1.173579454421997,-0.46060436964035034,-0.09132219105958939
1763693281977620500,10.622620361328124,1.0006028413772583,-0.6230419874191284,0.06838677823543549
1763693281987579600,10.63257958984375,0.8579487800598145,-0.7246634364128113,0.18826258182525635
1763693281997538800,10.642538818359375,0.7333906292915344,-0.7693718075752258,0.2449256032705307
1763693282007497700,10.652497802734375,0.6160104870796204,-0.7365331649780273,0.24333488941192627
1763693282017455900,10.662455810546875,0.5046554207801819,-0.6375826001167297,0.18229417502880096
1763693282027414800,10.672414794921876,0.4074689745903015,-0.4913012981414795,0.07153170555830002
1763693282037373700,10.682373779296874,0.32854166626930237,-0.3166176378726959,-0.06898945569992065
1763693282047331800,10.692331787109374,0.2638359069824219,-0.1152094155550003,-0.22046712040901184
1763693282057290800,10.702290771484375,0.21718531847000122,0.10655973106622696,-0.367418497800827
1763693282067249700,10.712249755859375,0.19916130602359772,0.31787145137786865,-0.4913620054721832
1763693282077208800,10.722208740234375,0.20534676313400269,0.5133615732192993,-0.592961847782135
1763693282087166700,10.732166748046875,0.22566641867160797,0.6778687834739685,-0.6673184037208557
1763693282097126000,10.7421259765625,0.24051913619041443,0.7971754670143127,-0.7148241400718689
1763693282107084800,10.752084716796874,0.2534509003162384,0.8650200366973877,-0.7468286752700806
1763693282117042700,10.762042724609374,0.2552136480808258,0.8917608261108398,-0.761745035648346
1763693282127001900,10.772001953125,0.253252238035202,0.8929810523986816,-0.7611042857170105
1763693282136960800,10.781960693359375,0.24983219802379608,0.8637621998786926,-0.7458227872848511
1763693282146919700,10.791919677734375,0.26145103573799133,0.8072757720947266,-0.7151554226875305
1763693282156877800,10.8018779296875,0.2857385277748108,0.7448241114616394,-0.6678646206855774
1763693282166836700,10.811836669921876,0.3282143473625183,0.6701123118400574,-0.6014350056648254
1763693282176795600,10.821795654296874,0.3846949338912964,0.6018072962760925,-0.5208197832107544
1763693282186754800,10.8317548828125,0.4570431709289551,0.5457490682601929,-0.4320848286151886
1763693282196712700,10.841712646484375,0.5374307036399841,0.4707592725753784,-0.3299912214279175
1763693282206671600,10.851671630859375,0.6155468225479126,0.39957481622695923,-0.21945326030254364
1763693282216630800,10.861630859375,0.6812624335289001,0.33974531292915344,-0.10036309063434601
1763693282226588700,10.871588623046875,0.7306267619132996,0.27141499519348145,0.017678063362836838
1763693282236547600,10.881547607421876,0.7623804807662964,0.21111837029457092,0.1317223459482193
1763693282246506800,10.8915068359375,0.770031213760376,0.15804769098758698,0.24201662838459015
1763693282256465700,10.901465576171875,0.757565438747406,0.10699542611837387,0.3427131474018097
1763693282266423800,10.911423828125,0.7371163964271545,0.05787794664502144,0.43145206570625305
1763693282276382700,10.9213828125,0.7111268639564514,-0.0016855146968737245,0.5054069757461548
1763693282286341600,10.931341552734375,0.6876817345619202,-0.08344642072916031,0.5642367601394653
1763693282296299800,10.9412998046875,0.6685953736305237,-0.1717669665813446,0.6113158464431763
1763693282306258700,10.9512587890625,0.648030161857605,-0.2635565400123596,0.6556761264801025
1763693282316217600,10.961217529296874,0.6244609355926514,-0.3827252686023712,0.6894974708557129
1763693282326176800,10.9711767578125,0.5830453038215637,-0.5033020377159119,0.7226064205169678
1763693282336134700,10.981134765625,0.5116158723831177,-0.6075791716575623,0.7592520117759705
1763693282346093600,10.991093505859375,0.4033181667327881,-0.662299394607544,0.7860194444656372
1763693282356052700,11.001052734375,0.2774731516838074,-0.6775254607200623,0.808660089969635
1763693282366011600,11.01101171875,0.12858833372592926,-0.6278407573699951,0.823390543460846
1763693282375969500,11.020969482421876,-0.029831398278474808,-0.560904860496521,0.8064413666725159
1763693282385928700,11.0309287109375,-0.174709752202034,-0.5107069611549377,0.7333536148071289
1763693282395887600,11.0408876953125,-0.30491968989372253,-0.45608070492744446,0.587131917476654
1763693282405845800,11.050845703125,-0.4189525246620178,-0.35380786657333374,0.39887574315071106
1763693282415804700,11.0608046875,-0.4918139576911926,-0.2225441187620163,0.20705758035182953
1763693282425763600,11.070763671875,-0.5098605751991272,-0.09118397533893585,0.02791072614490986
1763693282435722500,11.080722412109376,-0.4635695219039917,-0.0007709851488471031,-0.12752306461334229
1763693282445680600,11.0906806640625,-0.3935012221336365,0.05491997301578522,-0.2521558105945587
1763693282455639600,11.1006396484375,-0.329988032579422,0.10075244307518005,-0.3370717763900757
1763693282465598500,11.110598388671875,-0.29508358240127563,0.13362836837768555,-0.3699503540992737
1763693282475558000,11.120557861328125,-0.3062147796154022,0.15768736600875854,-0.34920379519462585
1763693282485515500,11.130515625,-0.3783867061138153,0.17202022671699524,-0.26220977306365967
1763693282495474700,11.140474609375,-0.5162029266357422,0.19484059512615204,-0.10931983590126038
1763693282505433900,11.150433837890626,-0.721092700958252,0.23107342422008514,0.09580908715724945
1763693282515391500,11.1603916015625,-0.96998131275177,0.22754740715026855,0.3237386643886566
1763693282525351000,11.170350830078124,-1.2318718433380127,0.15251576900482178,0.5306151509284973
1763693282535309800,11.180309814453125,-1.4686808586120605,0.008976982906460762,0.6877842545509338
1763693282545268700,11.190268798828125,-1.652370810508728,-0.19667470455169678,0.78154057264328
1763693282555227000,11.200226806640625,-1.775424599647522,-0.4220886528491974,0.8237317204475403
1763693282565185800,11.210185791015626,-1.8285623788833618,-0.6347266435623169,0.8330314755439758
1763693282575144700,11.220144775390626,-1.8134126663208008,-0.8197846412658691,0.8256752490997314
1763693282585102800,11.230102783203124,-1.74531090259552,-0.9576852321624756,0.8039124608039856
1763693282595061800,11.240061767578124,-1.6424505710601807,-1.0440012216567993,0.767863392829895
1763693282605020700,11.250020751953125,-1.5473647117614746,-1.0733859539031982,0.7217975854873657
1763693282614979800,11.259979736328125,-1.4838062524795532,-1.0528570413589478,0.665945291519165
1763693282624937700,11.269937744140625,-1.4544481039047241,-0.989399254322052,0.6140663623809814
1763693282634896600,11.279896728515626,-1.4453896284103394,-0.8663619756698608,0.570837676525116
1763693282644855800,11.289855712890626,-1.4588873386383057,-0.7224780321121216,0.5357435941696167
1763693282654814700,11.299814697265624,-1.4994853734970093,-0.5657909512519836,0.5194258689880371
1763693282664772900,11.30977294921875,-1.5536847114562988,-0.3914783000946045,0.5262646079063416
1763693282674731800,11.319731689453125,-1.603735327720642,-0.21481004357337952,0.5567143559455872
1763693282684690700,11.329690673828125,-1.6383434534072876,-0.06355927139520645,0.5987686514854431
1763693282694648800,11.33964892578125,-1.6446667909622192,0.036850426346063614,0.6380696892738342
1763693282704607700,11.349607666015626,-1.6279562711715698,0.07542099058628082,0.6629601120948792
1763693282714566700,11.359566650390626,-1.6065682172775269,0.06494490802288055,0.6707650423049927
1763693282724525600,11.369525634765624,-1.5787311792373657,0.021499698981642723,0.6716969013214111
1763693282734483700,11.379483642578125,-1.5581119060516357,-0.042089130729436874,0.6731909513473511
1763693282744442600,11.389442626953125,-1.5353208780288696,-0.13063444197177887,0.6787334680557251
1763693282754401800,11.39940185546875,-1.5187286138534546,-0.22821000218391418,0.6821119785308838
1763693282764360700,11.409360595703125,-1.5114469528198242,-0.3152887225151062,0.6930890083312988
1763693282774318800,11.41931884765625,-1.5088746547698975,-0.38520973920822144,0.7077742218971252
1763693282784278000,11.429278076171874,-1.512128233909607,-0.43755123019218445,0.7164425253868103
1763693282794237000,11.43923681640625,-1.5093004703521729,-0.469826340675354,0.7151913642883301
1763693282804194800,11.44919482421875,-1.5029959678649902,-0.4919513761997223,0.6974283456802368
1763693282814154000,11.459154052734375,-1.4871890544891357,-0.5012737512588501,0.6611111164093018
1763693282824113000,11.46911279296875,-1.4534627199172974,-0.5021922588348389,0.613658607006073
1763693282834071800,11.47907177734375,-1.4074952602386475,-0.4882591664791107,0.5560659170150757
1763693282844030000,11.489030029296876,-1.3381811380386353,-0.46661698818206787,0.4815810024738312
1763693282853988900,11.49898876953125,-1.2488963603973389,-0.41871604323387146,0.3965398967266083
1763693282863947800,11.50894775390625,-1.1355884075164795,-0.35319241881370544,0.3018786311149597
1763693282873907000,11.518906982421875,-0.9993557333946228,-0.27463608980178833,0.20310437679290771
1763693282883864800,11.52886474609375,-0.8467989563941956,-0.18896698951721191,0.10246352106332779
1763693282893823700,11.53882373046875,-0.690459668636322,-0.10237909853458405,-0.0006420881254598498
1763693282903783000,11.548782958984376,-0.5315024852752686,-0.023545805364847183,-0.09976760298013687
1763693282913740800,11.55874072265625,-0.3703407645225525,0.05983031168580055,-0.20019380748271942
1763693282923700000,11.568699951171874,-0.20582027733325958,0.12499040365219116,-0.29195621609687805
1763693282933659000,11.578658935546875,-0.03693751245737076,0.1743430346250534,-0.36494016647338867
1763693282943617800,11.58861767578125,0.13550589978694916,0.19384562969207764,-0.4141111671924591
1763693282953576000,11.598575927734375,0.3121855854988098,0.19925718009471893,-0.44373828172683716
1763693282963534800,11.608534912109375,0.4964262843132019,0.18640609085559845,-0.47020453214645386
1763693282973493800,11.61849365234375,0.6846129298210144,0.1815388947725296,-0.5079540610313416
1763693282983452700,11.62845263671875,0.868742048740387,0.16449813544750214,-0.5594651699066162
1763693282993410800,11.638410888671874,1.0394517183303833,0.14225247502326965,-0.6069780588150024
1763693283003369700,11.64836962890625,1.2046782970428467,0.1480882614850998,-0.6308743357658386
1763693283013329000,11.658328857421875,1.3643208742141724,0.1702985018491745,-0.6187378168106079
1763693283023286800,11.668286865234375,1.5134776830673218,0.23486630618572235,-0.6051111817359924
1763693283033245700,11.67824560546875,1.6470415592193604,0.35089409351348877,-0.6399333477020264
1763693283043204900,11.688204833984376,1.7634727954864502,0.44186049699783325,-0.7537741661071777
1763693283053163800,11.698163818359374,1.8765228986740112,0.4685342013835907,-0.9564868211746216
1763693283063122000,11.708121826171874,1.9991286993026733,0.46773019433021545,-1.2289175987243652
1763693283073080800,11.718080810546875,2.125246047973633,0.47262346744537354,-1.515494465827942
1763693283083039700,11.728039794921875,2.2567455768585205,0.5082392692565918,-1.7440506219863892
1763693283092998700,11.73799853515625,2.375661611557007,0.5872371196746826,-1.8635016679763794
1763693283102956800,11.747956787109375,2.463627815246582,0.6822342276573181,-1.8771536350250244
1763693283112915700,11.757915771484376,2.5031449794769287,0.7583590745925903,-1.8123271465301514
1763693283122874600,11.76787451171875,2.4829680919647217,0.776016891002655,-1.6950091123580933
1763693283132832800,11.777832763671874,2.394960880279541,0.704054057598114,-1.5508021116256714
1763693283142791700,11.787791748046875,2.2452776432037354,0.5409854650497437,-1.3879008293151855
1763693283152750800,11.797750732421875,2.0543391704559326,0.3234667479991913,-1.1962957382202148
1763693283162709800,11.807709716796875,1.8377896547317505,0.07971081137657166,-0.9810140132904053
1763693283172667600,11.817667724609375,1.618658423423767,-0.13790300488471985,-0.7419393658638
1763693283182626800,11.827626708984376,1.4091368913650513,-0.3008684813976288,-0.5131112337112427
1763693283192585700,11.837585693359374,1.212523102760315,-0.42028144001960754,-0.3246278762817383
1763693283202545000,11.847544921875,1.029671549797058,-0.4862375557422638,-0.19735515117645264
1763693283212502800,11.857502685546875,0.8574228286743164,-0.49113911390304565,-0.13423344492912292
1763693283222462000,11.8674619140625,0.7121796011924744,-0.4302334189414978,-0.12903042137622833
1763693283232420900,11.8774208984375,0.5990290641784668,-0.30559346079826355,-0.16929927468299866
1763693283242378800,11.887378662109375,0.5257996320724487,-0.13437645137310028,-0.25310203433036804
1763693283252338000,11.897337890625,0.4923921227455139,0.06960491091012955,-0.3549652695655823
1763693283262296800,11.907296875,0.48889750242233276,0.2999643385410309,-0.46951210498809814
1763693283272256000,11.917256103515625,0.5040913820266724,0.5010993480682373,-0.5823238492012024
1763693283282214000,11.9272138671875,0.5313360691070557,0.664012610912323,-0.678371012210846
1763693283292172800,11.9371728515625,0.5613709092140198,0.7751777172088623,-0.7549542188644409
1763693283302132000,11.947132080078125,0.5861055850982666,0.8379865288734436,-0.8074363470077515
1763693283312089900,11.95708984375,0.6039729714393616,0.8690648078918457,-0.8341689109802246
1763693283322049000,11.967049072265626,0.613212525844574,0.8711948394775391,-0.8319326639175415
1763693283332008000,11.977008056640624,0.6194899082183838,0.8498525023460388,-0.7943053841590881
1763693283341966800,11.986966796875,0.6209503412246704,0.8112217783927917,-0.7291119694709778
1763693283351925000,11.996925048828125,0.630471408367157,0.7590605616569519,-0.6423656344413757
1763693283361884000,12.0068837890625,0.6488270163536072,0.6961377859115601,-0.5472090244293213
1763693283371842800,12.0168427734375,0.6723278164863586,0.6036257147789001,-0.45787569880485535
1763693283381801700,12.0268017578125,0.7054567337036133,0.49435245990753174,-0.3713330626487732
1763693283391760000,12.036759765625,0.7439079880714417,0.3738148808479309,-0.2888360619544983
1763693283401718800,12.04671875,0.7775042653083801,0.24697303771972656,-0.1961255669593811
1763693283411678000,12.056677978515625,0.8009963035583496,0.171403706073761,-0.09622959792613983
1763693283421636900,12.066636962890625,0.8045092821121216,0.13570377230644226,-0.0032149681355804205
1763693283431594800,12.0765947265625,0.7954484224319458,0.10982263833284378,0.07758214324712753
1763693283441554000,12.086553955078125,0.7799187302589417,0.08789603412151337,0.13521002233028412
1763693283451512800,12.096512939453126,0.7605577707290649,0.07041583955287933,0.16424380242824554
1763693283461470700,12.106470703125,0.7421915531158447,0.051773980259895325,0.17444343864917755
1763693283471430000,12.116429931640624,0.7277737259864807,0.027838023379445076,0.16545739769935608
1763693283481388800,12.126388916015625,0.7216788530349731,-0.012115518562495708,0.1519053727388382
1763693283491347700,12.13634765625,0.7242668867111206,-0.07008161395788193,0.14354464411735535
1763693283501305900,12.146305908203125,0.7296488881111145,-0.1400202214717865,0.1494225114583969
1763693283511264800,12.1562646484375,0.7339285612106323,-0.20432090759277344,0.17135417461395264
1763693283521223700,12.1662236328125,0.7260000705718994,-0.2519773840904236,0.21283769607543945
1763693283531182800,12.176182861328124,0.6995527744293213,-0.28698116540908813,0.27140939235687256
1763693283541140700,12.186140625,0.6394841074943542,-0.3102097809314728,0.3428249955177307
1763693283551100000,12.196099853515625,0.5502216219902039,-0.31811752915382385,0.4249768555164337
1763693283561058800,12.206058837890625,0.42549166083335876,-0.31780487298965454,0.5125775337219238
1763693283571016700,12.2160166015625,0.2687765955924988,-0.3161401152610779,0.5906515717506409
1763693283580975900,12.225975830078125,0.08355668187141418,-0.32181239128112793,0.6338546872138977
1763693283590934800,12.235934814453126,-0.12037834525108337,-0.3393748700618744,0.6062220335006714
1763693283600893700,12.245893798828124,-0.3173105716705322,-0.3351180851459503,0.5190045237541199
1763693283610851800,12.255851806640624,-0.4849163591861725,-0.2731870710849762,0.39853352308273315
1763693283620810800,12.265810791015625,-0.5985105633735657,-0.14350444078445435,0.2758214473724365
1763693283630769700,12.275769775390625,-0.6472464203834534,0.020386764779686928,0.1646648496389389
1763693283640728800,12.285728759765625,-0.6471396088600159,0.17820967733860016,0.05769951641559601
1763693283650686700,12.295686767578125,-0.6141819357872009,0.2907833755016327,-0.05356122925877571
1763693283660645600,12.305645751953126,-0.5908774137496948,0.360699325799942,-0.16163577139377594
1763693283670605000,12.31560498046875,-0.6117891073226929,0.4004161059856415,-0.23828500509262085
1763693283680562700,12.325562744140624,-0.6733717322349548,0.43142464756965637,-0.2626846134662628
1763693283690521600,12.335521484375,-0.7749798893928528,0.45130112767219543,-0.22465680539608002
1763693283700481000,12.34548095703125,-0.9044515490531921,0.46576449275016785,-0.12129047513008118
1763693283710440000,12.35543994140625,-1.0592049360275269,0.46808332204818726,0.04115808755159378
1763693283720397800,12.365397705078125,-1.2276259660720825,0.4396202564239502,0.24312902987003326
1763693283730357000,12.37535693359375,-1.3962385654449463,0.3678664267063141,0.45661041140556335
1763693283740316000,12.38531591796875,-1.554777979850769,0.24545077979564667,0.6598218679428101
1763693283750274800,12.39527490234375,-1.6859290599822998,0.08232789486646652,0.8346179127693176
1763693283760233000,12.40523291015625,-1.7850433588027954,-0.10587583482265472,0.9810733795166016
