time,seconds_elapsed,z,y,x
1763701035700158200,0.188158203125,9.462797164916992,2.5237979888916016,0.5062738060951233
1763701035710237400,0.198237548828125,9.480957984924316,2.4802589416503906,0.36077049374580383
1763701035730844700,0.2188447265625,9.492774963378906,2.4481375217437744,0.2534728944301605
1763701035750522600,0.238522705078125,9.523405075073242,2.3338921070098877,0.1676201969385147
1763701035760575000,0.248574951171875,9.526580810546875,2.323596715927124,0.12466329336166382
1763701035770654500,0.258654541015625,9.524499893188477,2.3345844745635986,0.0632675439119339
1763701035780733700,0.268733642578125,9.514395713806152,2.376159906387329,-0.022824501618742943
1763701035791519500,0.27951953125,9.497214317321777,2.436161518096924,-0.196008563041687
1763701035801598700,0.2895986328125,9.474410057067871,2.493913412094116,-0.4316737949848175
1763701035811678200,0.29967822265625,9.444175720214844,2.6120293140411377,-0.393988698720932
1763701035821189000,0.309189208984375,9.423258781433105,2.676633596420288,-0.45629048347473145
1763701035831268400,0.319268310546875,9.395148277282715,2.754512071609497,-0.5605685114860535
1763701035841347800,0.329347900390625,9.356809616088867,2.860229969024658,-0.6630175113677979
1763701035851421000,0.3394208984375,9.318891525268555,2.9593489170074463,-0.7555798292160034
1763701035861500200,0.349500244140625,9.284351348876953,3.0485589504241943,-0.8231050372123718
1763701035871579400,0.359579345703125,9.256935119628906,3.116321563720703,-0.8764019012451172
1763701035881700600,0.36970068359375,9.237434387207031,3.159611701965332,-0.9257749915122986
1763701035891780000,0.379780029296875,9.222561836242676,3.1914291381835938,-0.9641163945198059
1763701035901859300,0.389859375,9.207437515258789,3.2193851470947266,-1.014417290687561
1763701035911895800,0.399895751953125,9.188032150268555,3.2550973892211914,-1.0746095180511475
1763701035921975000,0.40997509765625,9.16818618774414,3.29411244392395,-1.124089241027832
1763701035932054500,0.420054443359375,9.153928756713867,3.323011636734009,-1.1547961235046387
1763701035942137000,0.43013720703125,9.143189430236816,3.3465185165405273,-1.1718732118606567
1763701035952216600,0.440216552734375,9.131429672241211,3.3743209838867188,-1.1837759017944336
1763701035962295800,0.4502958984375,9.11939525604248,3.405334949493408,-1.187738299369812
1763701035972376800,0.460376953125,9.1106595993042,3.4313395023345947,-1.1799051761627197
1763701035982456000,0.4704560546875,9.108332633972168,3.4463863372802734,-1.1537282466888428
1763701035992535600,0.48053564453125,9.109440803527832,3.453192949295044,-1.1242554187774658
1763701036002611500,0.490611572265625,9.105244636535645,3.464902877807617,-1.1222132444381714
1763701036012690700,0.500690673828125,9.094423294067383,3.486548900604248,-1.1427279710769653
1763701036022770200,0.510770263671875,9.077632904052734,3.5168581008911133,-1.182652235031128
1763701036032857900,0.52085791015625,9.055577278137207,3.5515687465667725,-1.2463024854660034
1763701036042937000,0.53093701171875,9.02424144744873,3.5967118740081787,-1.3405669927597046
1763701036053016300,0.541016357421875,8.976110458374023,3.665153980255127,-1.4718916416168213
1763701036063090000,0.55108984375,8.908254623413086,3.756866693496704,-1.6429667472839355
1763701036073169400,0.56116943359375,8.819136619567871,3.8673477172851562,-1.8538743257522583
1763701036083248600,0.57124853515625,8.705464363098145,4.003198146820068,-2.087985038757324
1763701036093361400,0.581361328125,8.571492195129395,4.149877548217773,-2.340604305267334
1763701036103440600,0.591440673828125,8.424788475036621,4.283390998840332,-2.6164650917053223
1763701036113520000,0.60152001953125,8.270581245422363,4.391063213348389,-2.9131486415863037
1763701036123575300,0.6115751953125,8.11434268951416,4.465979099273682,-3.2222416400909424
1763701036133654500,0.621654541015625,7.95624303817749,4.506307601928711,-3.544259786605835
1763701036143734000,0.631734130859375,7.789426326751709,4.515948295593262,-3.8860559463500977
1763701036153818400,0.641818359375,7.6163859367370605,4.503334999084473,-4.22859525680542
1763701036163897600,0.651897705078125,7.45231819152832,4.471892356872559,-4.542632579803467
1763701036173977000,0.66197705078125,7.30443000793457,4.424694538116455,-4.820555686950684
1763701036184042500,0.67204248046875,7.169266223907471,4.364123821258545,-5.072122573852539
1763701036194121700,0.682121826171875,7.045235633850098,4.30279016494751,-5.293490409851074
1763701036204201200,0.692201171875,6.9277119636535645,4.249439716339111,-5.488119125366211
1763701036214315300,0.702315185546875,6.814268589019775,4.2121429443359375,-5.656322956085205
1763701036224394500,0.71239453125,6.703792572021484,4.189762592315674,-5.8030548095703125
1763701036234474000,0.722473876953125,6.586623191833496,4.177755832672119,-5.944167613983154
1763701036244543500,0.73254345703125,6.462911605834961,4.177186012268066,-6.078838348388672
1763701036254622700,0.742622802734375,6.334768772125244,4.189294338226318,-6.204103469848633
1763701036264702000,0.752701904296875,6.204328536987305,4.216512680053711,-6.316463947296143
1763701036274755800,0.762755859375,6.073444843292236,4.257453441619873,-6.415429592132568
1763701036284835000,0.7728349609375,5.944797039031982,4.307731628417969,-6.501786231994629
1763701036294914600,0.78291455078125,5.819502353668213,4.366246223449707,-6.575687885284424
1763701036305039600,0.79303955078125,5.705610752105713,4.423025131225586,-6.637261390686035
1763701036315119000,0.803119140625,5.467864513397217,4.514082431793213,-6.774651527404785
1763701036325198300,0.8131982421875,5.097460746765137,4.654176235198975,-6.9659833908081055
1763701036335242200,0.8232421875,4.816673755645752,4.742281436920166,-7.104985237121582
1763701036345321700,0.83332177734375,4.559584617614746,4.795426368713379,-7.237710952758789
1763701036365485300,0.8534853515625,4.051246166229248,4.883296489715576,-7.477379322052002
1763701036375564500,0.863564453125,3.9109787940979004,4.895761489868164,-7.543616771697998
1763701036385643800,0.873643798828125,4.0228729248046875,4.896613121032715,-7.483986854553223
1763701036395698000,0.883697998046875,4.003266334533691,4.879409313201904,-7.505705833435059
1763701036405777200,0.893777099609375,3.975672483444214,4.861495018005371,-7.531950950622559
1763701036415856400,0.9038564453125,3.960512161254883,4.831448554992676,-7.559223175048828
1763701036426176800,0.9141767578125,3.9372451305389404,4.799965858459473,-7.59136438369751
1763701036436256000,0.924256103515625,3.9140756130218506,4.782763481140137,-7.614169120788574
1763701036446335500,0.93433544921875,3.8899948596954346,4.776942253112793,-7.630148410797119
1763701036456204800,0.944204833984375,3.8679752349853516,4.788379669189453,-7.634171962738037
1763701036466284000,0.954283935546875,3.84332275390625,4.814774990081787,-7.630019664764404
1763701036476363300,0.96436328125,3.8100383281707764,4.842376708984375,-7.629244804382324
1763701036486474500,0.974474609375,3.7677032947540283,4.864469528198242,-7.636212348937988
1763701036506633200,0.99463330078125,3.6397998332977295,4.886996746063232,-7.683717250823975
1763701036516708400,1.004708251953125,3.528538703918457,4.903560638427734,-7.724952220916748
1763701036526787800,1.014787841796875,3.371929407119751,4.920811653137207,-7.783706188201904
1763701036536867000,1.0248671875,3.1849000453948975,4.928449630737305,-7.857301712036133
1763701036546934300,1.034934326171875,3.0036067962646484,4.915003776550293,-7.9367170333862305
1763701036557013500,1.045013427734375,2.8166658878326416,4.891590118408203,-8.019296646118164
1763701036567092700,1.0550927734375,2.621608257293701,4.863933086395264,-8.10183334350586
1763701036577138400,1.065138427734375,2.438932418823242,4.831729412078857,-8.1777982711792
1763701036587218000,1.075218017578125,2.2952589988708496,4.801642417907715,-8.236893653869629
1763701036597297200,1.085297119140625,2.173985242843628,4.747213840484619,-8.301093101501465
1763701036607398100,1.095398193359375,2.071071147918701,4.663447380065918,-8.374564170837402
1763701036617477600,1.1054775390625,1.992624282836914,4.559595108032227,-8.450439453125
1763701036627556900,1.115556884765625,1.9209132194519043,4.447646617889404,-8.526366233825684
1763701036637659600,1.12565966796875,1.8434069156646729,4.3373918533325195,-8.599956512451172
1763701036647739000,1.13573876953125,1.7528040409088135,4.248048782348633,-8.663264274597168
1763701036657818000,1.145818115234375,1.6702364683151245,4.167773246765137,-8.718391418457031
1763701036667856400,1.1558564453125,1.6325823068618774,4.102359771728516,-8.75646686553955
1763701036677935600,1.165935546875,1.6420094966888428,4.043982028961182,-8.78182315826416
1763701036688015000,1.17601513671875,1.6694120168685913,3.9828927516937256,-8.804545402526855
1763701036698712600,1.186712646484375,1.6719049215316772,3.9152441024780273,-8.83436393737793
1763701036708791800,1.196791748046875,1.629237413406372,3.8499839305877686,-8.870941162109375
1763701036728923400,1.21692333984375,1.454800009727478,3.700035810470581,-8.964579582214355
1763701036739002600,1.227002685546875,1.3508408069610596,3.5973238945007324,-9.022464752197266
1763701036749082000,1.23708203125,1.2464243173599243,3.471071243286133,-9.08672046661377
1763701036758585600,1.246585693359375,1.159313440322876,3.327002763748169,-9.151908874511719
1763701036768666000,1.256666015625,1.077447533607483,3.149603843688965,-9.224396705627441
1763701036778747000,1.266746826171875,1.017296552658081,2.9723455905914307,-9.289814949035645
1763701036788827400,1.276827392578125,0.9881246089935303,2.807123899459839,-9.344199180603027
1763701036798928000,1.286927978515625,0.9919596910476685,2.6483864784240723,-9.390018463134766
1763701036809008600,1.297008544921875,1.029553771018982,2.4992332458496094,-9.426782608032227
1763701036819089200,1.307089111328125,1.0959241390228271,2.371234178543091,-9.452333450317383
1763701036849342200,1.33734228515625,1.4682750701904297,2.0894935131073,-9.468292236328125
1763701036859372500,1.34737255859375,1.6226743459701538,2.035254955291748,-9.454895973205566
1763701036869453000,1.357453125,1.7795183658599854,2.0042481422424316,-9.43327522277832
1763701036879533600,1.367533447265625,1.9428471326828003,1.9960331916809082,-9.402743339538574
1763701036889641200,1.37764111328125,2.1132757663726807,2.0088112354278564,-9.363179206848145
1763701036899721700,1.3877216796875,2.294848918914795,2.0365781784057617,-9.314311981201172
1763701036909802500,1.397802490234375,2.4851479530334473,2.0687406063079834,-9.258225440979004
1763701036919813400,1.4078134765625,2.6755032539367676,2.0911455154418945,-9.199955940246582
1763701036929894100,1.41789404296875,2.862290620803833,2.093380928039551,-9.143054008483887
1763701036939974700,1.427974609375,3.041583776473999,2.068169593811035,-9.090755462646484
1763701036950066000,1.43806591796875,3.2014968395233154,2.0108652114868164,-9.048603057861328
1763701036960146700,1.448146728515625,3.3178629875183105,1.9469857215881348,-9.020610809326172
1763701036970227200,1.458227294921875,3.385291337966919,1.8629909753799438,-9.013293266296387
1763701036980348000,1.468347900390625,3.431868553161621,1.7492632865905762,-9.01846694946289
1763701036990428400,1.478428466796875,3.464937210083008,1.6190344095230103,-9.030134201049805
1763701037000509000,1.488509033203125,3.4833202362060547,1.4692567586898804,-9.048654556274414
1763701037010584800,1.498584716796875,3.4829423427581787,1.3080648183822632,-9.073503494262695
1763701037020665600,1.50866552734375,3.465590000152588,1.1325597763061523,-9.1037015914917
1763701037030746000,1.51874609375,3.4404501914978027,0.9440515041351318,-9.134683609008789
1763701037040824300,1.52882421875,3.4063830375671387,0.745548665523529,-9.165757179260254
1763701037050905000,1.538905029296875,3.378556489944458,0.5403022170066833,-9.190420150756836
1763701037060985600,1.548985595703125,3.3600707054138184,0.3303932547569275,-9.207124710083008
1763701037071070500,1.559070556640625,3.355919599533081,0.11656316369771957,-9.213827133178711
1763701037081151200,1.569151123046875,3.3643929958343506,-0.09575439989566803,-9.210976600646973
1763701037091231700,1.579231689453125,3.3816118240356445,-0.30237019062042236,-9.200199127197266
1763701037101301800,1.5893017578125,3.397810697555542,-0.5051916837692261,-9.18531608581543
1763701037111382300,1.59938232421875,3.3976974487304688,-0.7075802087783813,-9.171988487243652
1763701037121462800,1.609462890625,3.3767247200012207,-0.9106764197349548,-9.161810874938965
1763701037131550000,1.619550048828125,3.337637424468994,-1.112148404121399,-9.153889656066895
1763701037141630700,1.629630615234375,3.262089490890503,-1.3007258176803589,-9.156269073486328
1763701037151711200,1.639711181640625,3.1753005981445312,-1.4919331073760986,-9.15761947631836
1763701037161769500,1.64976953125,3.104340076446533,-1.6723183393478394,-9.150782585144043
1763701037171850000,1.65985009765625,3.0332720279693604,-1.8338114023208618,-9.143674850463867
1763701037181930500,1.669930419921875,2.9595835208892822,-1.9774255752563477,-9.137890815734863
1763701037192008000,1.680008056640625,2.888068199157715,-2.106590509414673,-9.13190746307373
1763701037202088400,1.69008837890625,2.8312995433807373,-2.2249655723571777,-9.121603965759277
1763701037212169200,1.700169189453125,2.7971103191375732,-2.3350205421447754,-9.10462760925293
1763701037222282000,1.710281982421875,2.7876505851745605,-2.4379825592041016,-9.0805082321167
1763701037232362500,1.720362548828125,2.799618721008301,-2.530897855758667,-9.05135726928711
1763701037242443300,1.730443359375,2.8259668350219727,-2.609523296356201,-9.020792007446289
1763701037252517400,1.740517333984375,2.864147663116455,-2.669853925704956,-8.991046905517578
1763701037262598000,1.750597900390625,2.9191997051239014,-2.7105674743652344,-8.96111011505127
1763701037272678700,1.7606787109375,2.991624116897583,-2.733598232269287,-8.930173873901367
1763701037282742800,1.77074267578125,3.0796852111816406,-2.7433125972747803,-8.897199630737305
1763701037292823300,1.7808232421875,3.1823129653930664,-2.7458858489990234,-8.860213279724121
1763701037302904000,1.790904052734375,3.2974693775177,-2.747412919998169,-8.81752872467041
1763701037312983000,1.800983154296875,3.4204466342926025,-2.7525575160980225,-8.768943786621094
1763701037323063600,1.8110634765625,3.5467731952667236,-2.7630274295806885,-8.715300559997559
1763701037333144300,1.821144287109375,3.6723413467407227,-2.7776455879211426,-8.658461570739746
1763701037343227600,1.8312275390625,3.7944629192352295,-2.7937636375427246,-8.600424766540527
1763701037353308200,1.84130810546875,3.9071831703186035,-2.8098297119140625,-8.544540405273438
1763701037363389000,1.851388916015625,3.9993810653686523,-2.8179314136505127,-8.499094009399414
1763701037373469400,1.861469482421875,4.063729286193848,-2.818350315093994,-8.468376159667969
1763701037383550000,1.871550048828125,4.111752033233643,-2.81371808052063,-8.446707725524902
1763701037393630700,1.881630615234375,4.1569905281066895,-2.8068363666534424,-8.426831245422363
1763701037403690000,1.89168994140625,4.2104668617248535,-2.798478841781616,-8.403027534484863
1763701037413770500,1.9017705078125,4.282950401306152,-2.787210702896118,-8.370077133178711
1763701037423851000,1.91185107421875,4.378326892852783,-2.7740323543548584,-8.324986457824707
1763701037433927700,1.921927734375,4.482036590576172,-2.7590906620025635,-8.274609565734863
1763701037444008200,1.93200830078125,4.573873519897461,-2.741546154022217,-8.230066299438477
1763701037454088700,1.942088623046875,4.649278163909912,-2.7200746536254883,-8.194864273071289
1763701037464164000,1.9521640625,4.708889007568359,-2.6924259662628174,-8.169919967651367
1763701037474244900,1.962244873046875,4.755990982055664,-2.657855272293091,-8.153939247131348
1763701037484325400,1.972325439453125,4.796335220336914,-2.6179087162017822,-8.143224716186523
1763701037494403600,1.982403564453125,4.831076145172119,-2.5737369060516357,-8.13676643371582
1763701037504484400,1.992484375,4.86168909072876,-2.5249595642089844,-8.133814811706543
1763701037514564900,2.00256494140625,4.8921942710876465,-2.471111297607422,-8.132061958312988
1763701037524632600,2.012632568359375,4.9236650466918945,-2.4120521545410156,-8.130800247192383
1763701037534713000,2.022713134765625,4.957052707672119,-2.34755539894104,-8.129390716552734
1763701037544793900,2.0327939453125,4.9914984703063965,-2.2768728733062744,-8.128418922424316
1763701037554867200,2.0428671875,5.022574424743652,-2.1988019943237305,-8.130769729614258
1763701037564948000,2.052947998046875,5.045307636260986,-2.1126625537872314,-8.139527320861816
1763701037575028500,2.063028564453125,5.06093692779541,-2.019451856613159,-8.153472900390625
1763701037585139200,2.07313916015625,5.074196815490723,-1.9193603992462158,-8.169392585754395
1763701037595219700,2.0832197265625,5.087764263153076,-1.814226746559143,-8.18496322631836
1763701037615401200,2.103401123046875,5.129307746887207,-1.5971555709838867,-8.204248428344727
1763701037625481700,2.113481689453125,5.157569885253906,-1.4886436462402344,-8.20693588256836
1763701037635562500,2.1235625,5.188432693481445,-1.381712794303894,-8.206182479858398
1763701037645604000,2.13360400390625,5.223381996154785,-1.276686668395996,-8.201020240783691
1763701037655684600,2.1436845703125,5.264120578765869,-1.1715389490127563,-8.190659523010254
1763701037665765400,2.153765380859375,5.312849998474121,-1.0665148496627808,-8.173527717590332
1763701037675811600,2.1638115234375,5.368746757507324,-0.9606859683990479,-8.150094032287598
1763701037685892000,2.17389208984375,5.428144454956055,-0.850730299949646,-8.1229248046875
1763701037695972900,2.183972900390625,5.491485595703125,-0.7384343147277832,-8.091272354125977
1763701037706128000,2.1941279296875,5.55805778503418,-0.6244141459465027,-8.055338859558105
1763701037716208600,2.204208740234375,5.624634742736816,-0.5124899744987488,-8.01693344116211
1763701037726289200,2.2142890625,5.691428184509277,-0.4032730460166931,-7.975926399230957
1763701037736307000,2.224306884765625,5.758462429046631,-0.2983257472515106,-7.93230676651001
1763701037746387700,2.2343876953125,5.826256275177002,-0.1971013844013214,-7.885827541351318
1763701037756468200,2.24446826171875,5.890723705291748,-0.09958956390619278,-7.839632987976074
1763701037766538500,2.25453857421875,5.948741912841797,-0.0031126216053962708,-7.796335220336914
1763701037776618200,2.2646181640625,6.003633975982666,0.0957569032907486,-7.75355339050293
1763701037786698000,2.274697998046875,6.058114528656006,0.19758430123329163,-7.7091240882873535
1763701037796811500,2.2848115234375,6.109440803527832,0.3021538257598877,-7.665104866027832
1763701037806891300,2.294891357421875,6.1527099609375,0.40788140892982483,-7.625495433807373
1763701037816971000,2.304970947265625,6.18557596206665,0.5138720870018005,-7.592429161071777
1763701037827052000,2.315052001953125,6.208630561828613,0.6193599700927734,-7.565691947937012
1763701037837131800,2.3251318359375,6.2213521003723145,0.7220638394355774,-7.546111583709717
1763701037847211500,2.33521142578125,6.221179962158203,0.8183683156967163,-7.536416053771973
1763701037857259500,2.345259521484375,6.207901477813721,0.906886637210846,-7.537234306335449
1763701037867339300,2.35533935546875,6.1803297996521,0.9945739507675171,-7.54882287979126
1763701037877419000,2.3654189453125,6.13690710067749,1.0855247974395752,-7.571683883666992
1763701037887527700,2.375527587890625,6.092214107513428,1.164727807044983,-7.595967769622803
1763701037897607400,2.385607421875,6.070669174194336,1.1995611190795898,-7.607786655426025
1763701037907687200,2.395687255859375,6.081812858581543,1.1646376848220825,-7.604311466217041
1763701037917732000,2.405732177734375,6.127918720245361,1.0419673919677734,-7.585070610046387
1763701037927811800,2.415811767578125,6.201992034912109,0.8302410840988159,-7.550919532775879
1763701037937891600,2.4258916015625,6.281464576721191,0.5569971203804016,-7.51021671295166
1763701037948552400,2.436552490234375,6.349289417266846,0.257940411567688,-7.469295978546143
1763701037958632200,2.446632080078125,6.379256725311279,0.019031642004847527,-7.448162078857422
1763701037968712000,2.4567119140625,6.3666462898254395,-0.14150530099868774,-7.457625865936279
1763701037978791700,2.466791748046875,6.327986717224121,-0.21921972930431366,-7.488584995269775
1763701037988871400,2.476871337890625,6.2878098487854,-0.23924878239631653,-7.52174186706543
1763701037998951200,2.486951171875,6.253996849060059,-0.23116767406463623,-7.550130367279053
1763701038009012500,2.497012451171875,6.224136829376221,-0.21485283970832825,-7.575246334075928
1763701038029172000,2.517171875,6.160120010375977,-0.18328890204429626,-7.628217697143555
1763701038039264300,2.52726416015625,6.132329940795898,-0.16631054878234863,-7.650964260101318
1763701038049344000,2.537343994140625,6.113518238067627,-0.1501772552728653,-7.666337490081787
1763701038059423700,2.547423828125,6.102524757385254,-0.1377294808626175,-7.675324440002441
1763701038068959200,2.556959228515625,6.098545074462891,-0.13184836506843567,-7.678590774536133
1763701038079039000,2.5670390625,6.098109722137451,-0.13765397667884827,-7.678834438323975
1763701038089118700,2.57711865234375,6.097211837768555,-0.15814346075057983,-7.679152965545654
1763701038099186000,2.58718603515625,6.090080738067627,-0.19316667318344116,-7.684008598327637
1763701038109265700,2.597265625,6.070349216461182,-0.23770320415496826,-7.698359489440918
1763701038119345400,2.607345458984375,6.039929389953613,-0.2824951708316803,-7.720741271972656
1763701038129421600,2.617421630859375,6.0036301612854,-0.3228040933609009,-7.747425079345703
1763701038139501300,2.627501220703125,5.9602789878845215,-0.36055704951286316,-7.779168128967285
1763701038149581000,2.6375810546875,5.917222023010254,-0.40685123205184937,-7.809696197509766
1763701038159668500,2.64766845703125,5.897373676300049,-0.4885983467102051,-7.820015907287598
1763701038169748200,2.657748291015625,5.916997909545898,-0.6352242231369019,-7.794614315032959
1763701038179828000,2.667827880859375,5.959104537963867,-0.8512235283851624,-7.741762638092041
1763701038189900000,2.677900146484375,6.010058403015137,-1.112504005432129,-7.668892860412598
1763701038199979800,2.687979736328125,6.072601318359375,-1.3747633695602417,-7.576537609100342
1763701038210059500,2.6980595703125,6.139593124389648,-1.5939826965332031,-7.478971004486084
1763701038220134000,2.7081337890625,6.193527698516846,-1.7445693016052246,-7.400478839874268
1763701038230213600,2.718213623046875,6.219631671905518,-1.8153187036514282,-7.361466407775879
1763701038240293400,2.72829345703125,6.224348068237305,-1.8082301616668701,-7.35922384262085
1763701038250374400,2.73837451171875,6.221955299377441,-1.7461633682250977,-7.376216411590576
1763701038260454100,2.7484541015625,6.214900016784668,-1.6630216836929321,-7.401335716247559
1763701038270534000,2.758533935546875,6.204410552978516,-1.586875319480896,-7.426810264587402
1763701038280615200,2.768615234375,6.1904802322387695,-1.5324746370315552,-7.449822902679443
1763701038290695000,2.77869482421875,6.172184467315674,-1.5020893812179565,-7.471161365509033
1763701038300774700,2.788774658203125,6.152956485748291,-1.4906985759735107,-7.489280700683594
1763701038310851600,2.7988515625,6.140552520751953,-1.4916765689849854,-7.499259948730469
1763701038320931300,2.808931396484375,6.145669460296631,-1.49894380569458,-7.493618011474609
1763701038331011000,2.819010986328125,6.172482490539551,-1.508305311203003,-7.469663619995117
1763701038341084400,2.82908447265625,6.215780735015869,-1.5204670429229736,-7.4311933517456055
1763701038351164200,2.8391640625,6.268076419830322,-1.538081169128418,-7.383489608764648
1763701038361244000,2.849243896484375,6.321941375732422,-1.5643717050552368,-7.3318610191345215
1763701038371337000,2.8593369140625,6.372565269470215,-1.6016554832458496,-7.279801368713379
1763701038381416700,2.869416748046875,6.4182538986206055,-1.6489871740341187,-7.228916645050049
1763701038391496400,2.879496337890625,6.459136009216309,-1.7026563882827759,-7.179896354675293
1763701038401578000,2.889577880859375,6.496609210968018,-1.755143404006958,-7.133297443389893
1763701038411657700,2.89965771484375,6.530968189239502,-1.7977863550186157,-7.091177463531494
1763701038421737500,2.909737548828125,6.5621418952941895,-1.8236815929412842,-7.055697917938232
1763701038431844400,2.91984423828125,6.588091850280762,-1.830011010169983,-7.029828071594238
1763701038441924000,2.929924072265625,6.608362674713135,-1.81806218624115,-7.013885021209717
1763701038452003800,2.94000390625,6.625296592712402,-1.7915709018707275,-7.004720687866211
1763701038462068000,2.95006787109375,6.636541843414307,-1.7530884742736816,-7.003812313079834
1763701038472147700,2.960147705078125,6.635734558105469,-1.7038123607635498,-7.016726016998291
1763701038482227500,2.9702275390625,6.615021228790283,-1.6443746089935303,-7.050384044647217
1763701038492324000,2.980323974609375,6.5715203285217285,-1.574488639831543,-7.106791973114014
1763701038502403800,2.99040380859375,6.506391525268555,-1.4968832731246948,-7.183077812194824
1763701038512483600,3.000483642578125,6.426823139190674,-1.422991156578064,-7.269210338592529
1763701038522552000,3.010552001953125,6.350871562957764,-1.3814241886138916,-7.343601703643799
1763701038532631800,3.0206318359375,6.306222915649414,-1.409809947013855,-7.37661075592041
1763701038542711600,3.030711669921875,6.30264949798584,-1.5116093158721924,-7.3594865798950195
1763701038552733200,3.040733154296875,6.291536331176758,-1.625575065612793,-7.344690799713135
1763701038562813000,3.05081298828125,6.304705619812012,-1.730218529701233,-7.3094048500061035
1763701038572892700,3.060892578125,6.349812030792236,-1.793395757675171,-7.2549285888671875
1763701038583040800,3.071040771484375,6.36811637878418,-1.7863402366638184,-7.240612506866455
1763701038593120500,3.08112060546875,6.337841987609863,-1.7014633417129517,-7.287466049194336
1763701038603200300,3.0912001953125,6.267376899719238,-1.5554351806640625,-7.380446910858154
1763701038613254000,3.10125390625,6.172205448150635,-1.375961422920227,-7.495398044586182
1763701038623333600,3.111333740234375,6.064362049102783,-1.1872156858444214,-7.614749908447266
1763701038633413400,3.121413330078125,5.9557414054870605,-1.0082981586456299,-7.725468635559082
1763701038643438600,3.1314384765625,5.863327503204346,-0.8515288829803467,-7.814516544342041
1763701038653518300,3.141518310546875,5.804687976837158,-0.7178416848182678,-7.871510982513428
1763701038663598000,3.15159814453125,5.792707443237305,-0.6044742465019226,-7.889838695526123
1763701038673730000,3.16172998046875,5.827703952789307,-0.5052680373191833,-7.871020317077637
1763701038683809800,3.171809814453125,5.897188186645508,-0.4165082275867462,-7.824326038360596
1763701038703957200,3.191957275390625,6.072519779205322,-0.26168227195739746,-7.695870399475098
1763701038714036700,3.20203662109375,6.150916576385498,-0.19264601171016693,-7.635411739349365
1763701038724116500,3.212116455078125,6.2106170654296875,-0.12654224038124084,-7.588320732116699
1763701038734214100,3.222214111328125,6.24685001373291,-0.061563216149806976,-7.559328556060791
1763701038744294000,3.2322939453125,6.259162425994873,0.0030800967942923307,-7.5493879318237305
1763701038754373600,3.24237353515625,6.248550891876221,0.07049018889665604,-7.557845592498779
1763701038764423400,3.25242333984375,6.217006683349609,0.1426914483308792,-7.582799434661865
1763701038774503200,3.262503173828125,6.168429374694824,0.21941587328910828,-7.620545387268066
1763701038784583000,3.2725830078125,6.108981609344482,0.2965787351131439,-7.665687561035156
1763701038804750600,3.29275048828125,6.014367580413818,0.4327852725982666,-7.733722686767578
1763701038814830300,3.302830322265625,5.999546051025391,0.48770496249198914,-7.74196195602417
1763701038824922600,3.312922607421875,6.002016067504883,0.5333879590034485,-7.737033843994141
1763701038835002400,3.32300244140625,6.016439437866211,0.5670281052589417,-7.723426818847656
1763701038845082000,3.33308203125,6.0452470779418945,0.5861079692840576,-7.699470043182373
1763701038855107300,3.343107421875,6.087154388427734,0.5907464027404785,-7.6660261154174805
1763701038865187000,3.35318701171875,6.135647296905518,0.5890898108482361,-7.6273980140686035
1763701038875266800,3.363266845703125,6.181077480316162,0.5952990651130676,-7.590144157409668
1763701038885447200,3.373447265625,6.214587211608887,0.6206806898117065,-7.560690402984619
1763701038895527000,3.38352685546875,6.235597133636475,0.6678147315979004,-7.539346218109131
1763701038905606700,3.393606689453125,6.255982875823975,0.7337112426757812,-7.516298294067383
1763701038915633700,3.403633544921875,6.287928581237793,0.8110460638999939,-7.481613636016846
1763701038925713400,3.41371337890625,6.334163665771484,0.8908638954162598,-7.433378219604492
1763701038935793200,3.423793212890625,6.384053707122803,0.9634189605712891,-7.381468296051025
1763701038945872600,3.43387255859375,6.432666778564453,1.0226033926010132,-7.331129550933838
1763701038955952400,3.443952392578125,6.472218990325928,1.0734306573867798,-7.288931369781494
1763701038966032100,3.4540322265625,6.492827892303467,1.1202149391174316,-7.2635178565979
1763701038976147000,3.46414697265625,6.492142200469971,1.1635488271713257,-7.257315635681152
1763701038986226700,3.474226806640625,6.474405288696289,1.2117884159088135,-7.265263080596924
1763701038996306400,3.484306396484375,6.446709156036377,1.271361231803894,-7.2796950340271
1763701039016420400,3.50442041015625,6.3743205070495605,1.427085041999817,-7.3144965171813965
1763701039026500000,3.5145,6.333031177520752,1.5189045667648315,-7.331850051879883
1763701039036579600,3.52457958984375,6.2932281494140625,1.613426923751831,-7.34591817855835
1763701039046659300,3.534659423828125,6.256377220153809,1.702951431274414,-7.357179164886475
1763701039056739000,3.544739013671875,6.226466655731201,1.7829562425613403,-7.363597393035889
1763701039066875100,3.554875244140625,6.2066779136657715,1.851025938987732,-7.36350679397583
1763701039076955000,3.564954833984375,6.194976806640625,1.904901146888733,-7.359620094299316
1763701039087034600,3.57503466796875,6.189219951629639,1.9474910497665405,-7.353312969207764
1763701039097068500,3.585068603515625,6.186548233032227,1.979569911956787,-7.346993446350098
1763701039107148300,3.595148193359375,6.186341285705566,1.9985274076461792,-7.342033386230469
1763701039117228000,3.60522802734375,6.1990556716918945,1.9942865371704102,-7.332456111907959
1763701039127320600,3.615320556640625,6.246115684509277,1.949108600616455,-7.3046159744262695
1763701039137400000,3.625400146484375,6.338902473449707,1.8474164009094238,-7.250913619995117
1763701039147479800,3.635479736328125,6.464132785797119,1.690348505973816,-7.178307056427002
1763701039157559600,3.6455595703125,6.60676383972168,1.498103141784668,-7.090609073638916
1763701039167611000,3.65561083984375,6.730396747589111,1.309126615524292,-7.0112996101379395
1763701039177690600,3.665690673828125,6.820287704467773,1.137252688407898,-6.954187870025635
1763701039187770400,3.675770263671875,6.8682403564453125,0.9988866448402405,-6.928194999694824
1763701039197845000,3.685844970703125,6.8700337409973145,0.9011251926422119,-6.939812660217285
1763701039207924700,3.6959248046875,6.835263252258301,0.8356354832649231,-6.982211589813232
1763701039218004500,3.70600439453125,6.7812275886535645,0.7855842113494873,-7.040468692779541
1763701039228738600,3.716738525390625,6.7204694747924805,0.7336589097976685,-7.104043483734131
1763701039238818300,3.726818359375,6.674205780029297,0.6777388453483582,-7.1530442237854
1763701039248898000,3.73689794921875,6.648480415344238,0.6096826195716858,-7.1830620765686035
1763701039258944800,3.74694482421875,6.642446517944336,0.529841959476471,-7.194968223571777
1763701039269024500,3.7570244140625,6.653957366943359,0.441186785697937,-7.190310955047607
1763701039279104000,3.76710400390625,6.679511547088623,0.3525325059890747,-7.171487808227539
1763701039288606500,3.7766064453125,6.710931301116943,0.2745853364467621,-7.145514011383057
1763701039298686200,3.786686279296875,6.744232654571533,0.19651465117931366,-7.116677761077881
1763701039308765700,3.796765625,6.775935649871826,0.12550301849842072,-7.088112831115723
1763701039318845400,3.806845458984375,6.81095552444458,0.0674261525273323,-7.055262088775635
1763701039339008300,3.82700830078125,6.899282455444336,-0.0035551972687244415,-6.969237327575684
1763701039349088000,3.837087890625,6.94906759262085,-0.027584616094827652,-6.919543743133545
1763701039359166200,3.847166259765625,7.001482963562012,-0.05696892365813255,-6.866322040557861
1763701039369246000,3.857245849609375,7.065506935119629,-0.10276342928409576,-6.799885272979736
1763701039379325700,3.86732568359375,7.1460041999816895,-0.1722370982170105,-6.713817596435547
1763701039389399600,3.877399658203125,7.231207847595215,-0.2599303424358368,-6.61909818649292
1763701039399479300,3.887479248046875,7.308948993682861,-0.35186877846717834,-6.528846740722656
1763701039409559000,3.89755908203125,7.3752641677856445,-0.4319124221801758,-6.448977947235107
1763701039419600400,3.907600341796875,7.4276556968688965,-0.4843246042728424,-6.384805679321289
1763701039429680000,3.91768017578125,7.468207359313965,-0.5014866590499878,-6.335989475250244
1763701039439760000,3.927759765625,7.4972381591796875,-0.48288625478744507,-6.303065776824951
1763701039449847800,3.937847900390625,7.513947486877441,-0.44243207573890686,-6.286114692687988
1763701039459927600,3.947927490234375,7.515953063964844,-0.3972557783126831,-6.286734580993652
1763701039470007300,3.95800732421875,7.503968715667725,-0.35706010460853577,-6.303439140319824
1763701039480094200,3.96809423828125,7.480724811553955,-0.32266607880592346,-6.332852363586426
1763701039490174000,3.978174072265625,7.4486260414123535,-0.2902190685272217,-6.37213659286499
1763701039500253700,3.988253662109375,7.4094648361206055,-0.2560587227344513,-6.4190850257873535
1763701039510330400,3.998330322265625,7.365684986114502,-0.22020672261714935,-6.470592498779297
1763701039520410000,4.00841015625,7.319841384887695,-0.18636682629585266,-6.523463249206543
1763701039530489900,4.01848974609375,7.275890350341797,-0.15940815210342407,-6.573157787322998
1763701039540565800,4.028565673828125,7.2372050285339355,-0.14413300156593323,-6.616076946258545
1763701039550645500,4.0386455078125,7.203083038330078,-0.145216703414917,-6.653186321258545
1763701039560725200,4.048725341796875,7.17304801940918,-0.1657009720802307,-6.685081481933594
1763701039570848800,4.058848876953125,7.14872932434082,-0.20476703345775604,-6.710002422332764
1763701039580928500,4.068928466796875,7.134590148925781,-0.2576081156730652,-6.723217964172363
1763701039591008300,4.07900830078125,7.131737232208252,-0.3191143572330475,-6.723606109619141
1763701039601073200,4.0890732421875,7.139877796173096,-0.38448262214660645,-6.7115349769592285
1763701039611153000,4.09915283203125,7.153770923614502,-0.4476121962070465,-6.692802429199219
1763701039621232600,4.109232666015625,7.165497779846191,-0.49796149134635925,-6.676679611206055
1763701039631273200,4.119273193359375,7.172633171081543,-0.5255971550941467,-6.666893005371094
1763701039641353000,4.12935302734375,7.171570301055908,-0.5269150733947754,-6.667932510375977
1763701039651432700,4.1394326171875,7.159623146057129,-0.5057727098464966,-6.6823930740356445
1763701039661532000,4.149531982421875,7.148725509643555,-0.4796227812767029,-6.695974826812744
1763701039671611600,4.159611572265625,7.15427827835083,-0.4758949279785156,-6.6903076171875
1763701039681691400,4.16969140625,7.180017948150635,-0.5234234929084778,-6.659111499786377
1763701039691756000,4.179756103515625,7.23604154586792,-0.643329381942749,-6.587581157684326
1763701039701835800,4.189835693359375,7.317931652069092,-0.807815432548523,-6.478093147277832
1763701039711915500,4.19991552734375,7.403765678405762,-0.9702858328819275,-6.357135772705078
1763701039721992200,4.2099921875,7.475632667541504,-1.112187147140503,-6.248867988586426
1763701039732072000,4.220072021484375,7.511081218719482,-1.2214218378067017,-6.185641765594482
1763701039742151700,4.230151611328125,7.501340389251709,-1.2872101068496704,-6.184122562408447
1763701039752259800,4.240259765625,7.456613540649414,-1.3174737691879272,-6.231658458709717
1763701039762339600,4.250339599609375,7.389334678649902,-1.3325673341751099,-6.3081207275390625
1763701039772419300,4.26041943359375,7.309943199157715,-1.3519092798233032,-6.395893573760986
1763701039782485000,4.270485107421875,7.227965831756592,-1.387986660003662,-6.480771064758301
1763701039792564700,4.280564697265625,7.149875640869141,-1.4459985494613647,-6.554293155670166
1763701039802644500,4.29064453125,7.083923816680908,-1.5226472616195679,-6.6083245277404785
1763701039812728600,4.300728515625,7.036333084106445,-1.6079578399658203,-6.63889217376709
1763701039822808300,4.310808349609375,7.00968074798584,-1.6916065216064453,-6.646294593811035
1763701039832888000,4.32088818359375,7.002775192260742,-1.7683302164077759,-6.633592128753662
1763701039842980600,4.330980712890625,7.007800579071045,-1.8383793830871582,-6.609195709228516
1763701039853060400,4.341060302734375,7.018354892730713,-1.9034157991409302,-6.5795207023620605
1763701039863140000,4.35114013671875,7.030186653137207,-1.9658482074737549,-6.548457145690918
1763701039873196800,4.36119677734375,7.037013053894043,-2.028398036956787,-6.521996021270752
1763701039883276500,4.371276611328125,7.034072399139404,-2.091371536254883,-6.5052571296691895
1763701039893356300,4.381356201171875,7.021899223327637,-2.1513431072235107,-6.498849868774414
1763701039903445500,4.391445556640625,7.001272678375244,-2.2042152881622314,-6.503385066986084
1763701039913525500,4.401525390625,6.972495079040527,-2.2474234104156494,-6.519493103027344
1763701039923605200,4.411605224609375,6.938450813293457,-2.2801969051361084,-6.544386386871338
1763701039933671700,4.421671630859375,6.901951313018799,-2.3052802085876465,-6.574126720428467
1763701039943751400,4.43175146484375,6.865199089050293,-2.3284871578216553,-6.604360580444336
1763701039953831200,4.4418310546875,6.82979679107666,-2.3548898696899414,-6.63164758682251
1763701039963923200,4.451923095703125,6.798697471618652,-2.387547731399536,-6.651894569396973
1763701039974003200,4.462003173828125,6.775732517242432,-2.4248502254486084,-6.661827087402344
1763701039984083000,4.4720830078125,6.761362552642822,-2.462475299835205,-6.662626266479492
1763701039994156500,4.482156494140625,6.752499103546143,-2.4951584339141846,-6.659455299377441
1763701040004236300,4.492236328125,6.75163459777832,-2.521181583404541,-6.650524139404297
1763701040014316000,4.50231591796875,6.7646164894104,-2.5450310707092285,-6.628210544586182
1763701040024415200,4.512415283203125,6.794878005981445,-2.5776450634002686,-6.58450984954834
1763701040034495000,4.522494873046875,6.83802604675293,-2.6301887035369873,-6.518734455108643
1763701040044574700,4.53257470703125,6.891290187835693,-2.7141788005828857,-6.427576541900635
1763701040054638300,4.542638427734375,6.949345111846924,-2.8320353031158447,-6.313206195831299
1763701040064718000,4.552718017578125,7.001394271850586,-2.972374439239502,-6.189980506896973
1763701040074797800,4.5627978515625,7.046153545379639,-3.1168370246887207,-6.066912651062012
1763701040084882200,4.572882080078125,7.0869245529174805,-3.2496631145477295,-5.948578357696533
1763701040094962000,4.5829619140625,7.123754501342773,-3.3586485385894775,-5.843113899230957
1763701040105041700,4.593041748046875,7.157153129577637,-3.436598777770996,-5.7563300132751465
1763701040115114200,4.6031142578125,7.188505172729492,-3.48690128326416,-5.686590194702148
1763701040125194000,4.613194091796875,7.215278625488281,-3.522245407104492,-5.630624294281006
1763701040135273700,4.623273681640625,7.235105991363525,-3.5532727241516113,-5.585505962371826
1763701040145401300,4.6334013671875,7.2504401206970215,-3.582404851913452,-5.546880722045898
1763701040155481300,4.6434814453125,7.262679100036621,-3.6065261363983154,-5.515148162841797
1763701040165561000,4.65356103515625,7.2696332931518555,-3.622647523880005,-5.49538516998291
1763701040175578400,4.663578369140625,7.27040433883667,-3.6286723613739014,-5.490386486053467
1763701040185658000,4.673658203125,7.265527725219727,-3.622897148132324,-5.500646114349365
1763701040195737900,4.68373779296875,7.255901336669922,-3.6040122509002686,-5.525700569152832
1763701040205824300,4.69382421875,7.243326663970947,-3.5706124305725098,-5.563751697540283
1763701040215904000,4.703904052734375,7.2297773361206055,-3.5232656002044678,-5.611355781555176
1763701040225983700,4.713983642578125,7.216097831726074,-3.4664058685302734,-5.664128303527832
1763701040236156400,4.724156494140625,7.205320358276367,-3.4069430828094482,-5.713710308074951
1763701040246236200,4.734236083984375,7.201340198516846,-3.3532819747924805,-5.750354290008545
1763701040256316000,4.74431591796875,7.205122947692871,-3.3113620281219482,-5.769876480102539
1763701040266296800,4.754296875,7.2168426513671875,-3.2873997688293457,-5.768931865692139
1763701040276376600,4.76437646484375,7.235720634460449,-3.283493995666504,-5.747468948364258
1763701040286456300,4.774456298828125,7.261033535003662,-3.2971930503845215,-5.707564353942871
1763701040296563000,4.78456298828125,7.2922515869140625,-3.323385000228882,-5.65230655670166
1763701040306642700,4.794642578125,7.325417995452881,-3.3576207160949707,-5.588829517364502
1763701040316722400,4.804722412109375,7.355189323425293,-3.396674633026123,-5.525773525238037
1763701040326772200,4.814772216796875,7.38076114654541,-3.4370241165161133,-5.466407775878906
1763701040336852200,4.824852294921875,7.404629707336426,-3.4760916233062744,-5.40912389755249
1763701040346932000,4.834931884765625,7.428462982177734,-3.510770797729492,-5.353766441345215
1763701040357005800,4.845005859375,7.455513954162598,-3.538897752761841,-5.297348499298096
1763701040367085600,4.85508544921875,7.490047454833984,-3.5590357780456543,-5.234772205352783
1763701040377165300,4.865165283203125,7.533260345458984,-3.569098711013794,-5.1654534339904785
1763701040387263700,4.875263671875,7.586024284362793,-3.5658342838287354,-5.089935779571533
1763701040397343500,4.885343505859375,7.6475300788879395,-3.547461748123169,-5.010107517242432
1763701040407423200,4.89542333984375,7.713472366333008,-3.515123128890991,-4.931190013885498
1763701040417518600,4.9055185546875,7.777113914489746,-3.47050142288208,-4.8623552322387695
1763701040427598300,4.915598388671875,7.832094669342041,-3.415203094482422,-4.8130106925964355
1763701040437678000,4.925677978515625,7.874655246734619,-3.351165771484375,-4.788515567779541
1763701040447738600,4.935738525390625,7.902981758117676,-3.2818000316619873,-4.789891719818115
1763701040457818400,4.945818359375,7.915228843688965,-3.2086284160614014,-4.819154739379883
1763701040467898000,4.955898193359375,7.911531925201416,-3.1317148208618164,-4.875492095947266
1763701040478602200,4.966602294921875,7.894894599914551,-3.047179698944092,-4.955374240875244
1763701040488682200,4.97668212890625,7.8696513175964355,-2.9705867767333984,-5.041289329528809
1763701040498762000,4.986761962890625,7.838315010070801,-2.9047513008117676,-5.127730846405029
1763701040508805000,4.99680517578125,7.8044962882995605,-2.8564834594726562,-5.205835342407227
1763701040518885000,5.006885009765625,7.773240089416504,-2.827845335006714,-5.267866611480713
1763701040528964900,5.01696484375,7.748099327087402,-2.8201024532318115,-5.308894634246826
1763701040539016400,5.027016357421875,7.730067253112793,-2.8334901332855225,-5.328018665313721
1763701040549096200,5.03709619140625,7.7189178466796875,-2.8668718338012695,-5.326325416564941
1763701040559176000,5.047176025390625,7.711755752563477,-2.915635824203491,-5.310206413269043
1763701040569254100,5.057254150390625,7.703035831451416,-2.971567153930664,-5.291825771331787
1763701040579334000,5.067333984375,7.69324254989624,-3.027174234390259,-5.274526119232178
1763701040589413600,5.07741357421875,7.683173656463623,-3.078228712081909,-5.259632587432861
1763701040598942000,5.08694189453125,7.669616222381592,-3.1218173503875732,-5.253725051879883
1763701040609021700,5.097021728515625,7.6479878425598145,-3.1638214588165283,-5.260125160217285
1763701040619101400,5.107101318359375,7.620995998382568,-3.2010233402252197,-5.276766300201416
1763701040629185300,5.117185302734375,7.5929670333862305,-3.231837272644043,-5.298346042633057
1763701040639265000,5.12726513671875,7.566426753997803,-3.2549848556518555,-5.3220906257629395
1763701040649344800,5.1373447265625,7.541690826416016,-3.2707676887512207,-5.347463607788086
1763701040659405600,5.147405517578125,7.517402648925781,-3.2798309326171875,-5.376034736633301
1763701040669485300,5.1574853515625,7.494635105133057,-3.2820522785186768,-5.406382083892822
1763701040679565000,5.16756494140625,7.473637580871582,-3.278430938720703,-5.43755578994751
1763701040689656800,5.17765673828125,7.451433181762695,-3.272125005722046,-5.471721649169922
1763701040699736600,5.187736572265625,7.4258809089660645,-3.2659382820129395,-5.5100202560424805
1763701040709816300,5.19781640625,7.397861003875732,-3.260765552520752,-5.550625801086426
1763701040719912000,5.207911865234375,7.370377540588379,-3.2556746006011963,-5.590036869049072
1763701040729991700,5.21799169921875,7.344625473022461,-3.2500293254852295,-5.6270928382873535
1763701040740071400,5.228071533203125,7.319341659545898,-3.2450196743011475,-5.662816047668457
1763701040750129400,5.23812939453125,7.294497966766357,-3.241791009902954,-5.696619510650635
1763701040760209200,5.248209228515625,7.26932954788208,-3.240542411804199,-5.7294087409973145
1763701040770289000,5.258288818359375,7.244403839111328,-3.2406506538391113,-5.760831832885742
1763701040780366600,5.26836669921875,7.2216997146606445,-3.241081714630127,-5.78902530670166
1763701040790446300,5.2784462890625,7.2022705078125,-3.2407965660095215,-5.813340187072754
1763701040800526000,5.288526123046875,7.1855974197387695,-3.2392051219940186,-5.83482027053833
1763701040810600200,5.29860009765625,7.170413494110107,-3.235910415649414,-5.855291843414307
1763701040820680000,5.308679931640625,7.156119346618652,-3.230827808380127,-5.875550270080566
1763701040830759700,5.318759765625,7.142095565795898,-3.2237355709075928,-5.896472454071045
1763701040850915600,5.33891552734375,7.108425617218018,-3.213360071182251,-5.942641735076904
1763701040860995000,5.3489951171875,7.084040641784668,-3.217869520187378,-5.969259738922119
1763701040871074300,5.35907421875,7.04901647567749,-3.232053279876709,-6.002964973449707
1763701040881153800,5.36915380859375,7.001954555511475,-3.2570502758026123,-6.044389724731445
1763701040891233300,5.3792333984375,6.947246551513672,-3.2958106994628906,-6.08635950088501
1763701040901325600,5.38932568359375,6.890756130218506,-3.34979510307312,-6.12100887298584
1763701040911405000,5.399405029296875,6.837952613830566,-3.4149885177612305,-6.144155025482178
1763701040921484500,5.409484619140625,6.79395055770874,-3.4841086864471436,-6.154154300689697
1763701040931560400,5.419560546875,6.764260768890381,-3.550919771194458,-6.148669242858887
1763701040941640000,5.429639892578125,6.752554416656494,-3.6119496822357178,-6.125946044921875
1763701040951719700,5.4397197265625,6.758487224578857,-3.6649646759033203,-6.08779764175415
1763701040961798700,5.449798583984375,6.7798919677734375,-3.7083449363708496,-6.03751802444458
1763701040971878100,5.459878173828125,6.813252925872803,-3.739783763885498,-5.980299949645996
1763701040981957600,5.46995751953125,6.855521202087402,-3.7561943531036377,-5.921420097351074
1763701040992042800,5.480042724609375,6.90167760848999,-3.756235122680664,-5.867532730102539
1763701041002122500,5.49012255859375,6.945383071899414,-3.7412185668945312,-5.825404644012451
1763701041012202000,5.500201904296875,6.981083869934082,-3.714010238647461,-5.800085544586182
1763701041022275300,5.510275390625,7.00558614730835,-3.6783716678619385,-5.793248653411865
1763701041032354800,5.520354736328125,7.017102241516113,-3.637371063232422,-5.805187225341797
1763701041042434600,5.5304345703125,7.0157389640808105,-3.593508720397949,-5.834080219268799
1763701041052518700,5.5405185546875,7.002333164215088,-3.547605037689209,-5.878114223480225
1763701041062598100,5.55059814453125,6.981263637542725,-3.4985790252685547,-5.932308673858643
1763701041072677600,5.560677734375,6.9589715003967285,-3.444061517715454,-5.990119457244873
1763701041082754800,5.5707548828125,6.939456462860107,-3.3830363750457764,-6.0472636222839355
1763701041092834300,5.580834228515625,6.924455642700195,-3.3160452842712402,-6.101324081420898
1763701041102913800,5.590913818359375,6.91615104675293,-3.244745969772339,-6.148890495300293
1763701041113018600,5.6010185546875,6.916473388671875,-3.1713905334472656,-6.186684608459473
1763701041123098000,5.61109814453125,6.925713539123535,-3.098881721496582,-6.213034629821777
1763701041133177900,5.621177734375,6.942251205444336,-3.0303831100463867,-6.2283477783203125
1763701041143233000,5.63123291015625,6.964316368103027,-2.9689977169036865,-6.233275890350342
1763701041153312500,5.6413125,6.990810394287109,-2.914689302444458,-6.229249000549316
1763701041163392300,5.651392333984375,7.019847869873047,-2.8666200637817383,-6.218892574310303
1763701041173467400,5.66146728515625,7.049703121185303,-2.8240461349487305,-6.2045817375183105
1763701041183547000,5.671546875,7.077846527099609,-2.7867250442504883,-6.189396858215332
1763701041193626400,5.68162646484375,7.102402687072754,-2.7525835037231445,-6.17653226852417
1763701041203711500,5.69171142578125,7.122413635253906,-2.719444751739502,-6.168163299560547
1763701041213791200,5.701791259765625,7.138369560241699,-2.684448480606079,-6.165046691894531
1763701041223870700,5.71187060546875,7.151416778564453,-2.642972946166992,-6.167844295501709
1763701041233941800,5.721941650390625,7.161861419677734,-2.590733289718628,-6.177882671356201
1763701041244021200,5.732021240234375,7.170987129211426,-2.525583028793335,-6.1942524909973145
1763701041254100700,5.742100830078125,7.179184436798096,-2.4488048553466797,-6.215549468994141
1763701041264193300,5.752193359375,7.185134410858154,-2.3645572662353516,-6.241241455078125
1763701041274272800,5.762272705078125,7.187132835388184,-2.2809979915618896,-6.269972324371338
1763701041284352500,5.7723525390625,7.1837968826293945,-2.203746795654297,-6.3013458251953125
1763701041294455300,5.782455322265625,7.174996376037598,-2.1312286853790283,-6.33621883392334
1763701041304534800,5.79253466796875,7.156257629394531,-2.058380126953125,-6.381333351135254
1763701041314614300,5.8026142578125,7.126072883605957,-1.9817540645599365,-6.439108848571777
1763701041324685300,5.812685302734375,7.097983360290527,-1.9065078496932983,-6.492630958557129
1763701041334765000,5.82276513671875,7.0788044929504395,-1.841906189918518,-6.5320963859558105
1763701041344844500,5.832844482421875,7.059686660766602,-1.8013267517089844,-6.56402587890625
1763701041354940400,5.8429404296875,7.044515609741211,-1.7872756719589233,-6.584135055541992
1763701041365020000,5.85302001953125,7.031199932098389,-1.7959184646606445,-6.596005916595459
1763701041375099400,5.863099365234375,7.028686046600342,-1.8224494457244873,-6.591406345367432
1763701041385102800,5.873102783203125,7.031479358673096,-1.8483246564865112,-6.581214904785156
1763701041395182600,5.8831826171875,7.034544944763184,-1.8579198122024536,-6.575234413146973
1763701041405262000,5.893261962890625,7.033743858337402,-1.8415765762329102,-6.580686092376709
1763701041415441000,5.90344091796875,7.028409957885742,-1.794014811515808,-6.599495887756348
1763701041425520400,5.913520263671875,7.018893241882324,-1.7199403047561646,-6.629278659820557
1763701041435600000,5.923599853515625,7.003550052642822,-1.6289466619491577,-6.668374061584473
1763701041445621200,5.933621337890625,6.981879711151123,-1.531900405883789,-6.713942527770996
1763701041455700700,5.94370068359375,6.9572529792785645,-1.4370228052139282,-6.760324478149414
1763701041465780200,5.9537802734375,6.932575225830078,-1.3521732091903687,-6.80304479598999
1763701041475861500,5.963861572265625,6.90989875793457,-1.2821974754333496,-6.839566230773926
1763701041485941000,5.97394091796875,6.8937153816223145,-1.2282737493515015,-6.865741729736328
1763701041496020500,5.9840205078125,6.885266304016113,-1.1909716129302979,-6.880776405334473
1763701041506150000,5.99414990234375,6.880695343017578,-1.170459270477295,-6.888864040374756
1763701041516229400,6.0042294921875,6.872842788696289,-1.165221095085144,-6.897584915161133
1763701041526309000,6.01430908203125,6.859628200531006,-1.168901801109314,-6.910104274749756
1763701041536347400,6.024347412109375,6.840966701507568,-1.1763031482696533,-6.927328109741211
1763701041546427100,6.03442724609375,6.8140153884887695,-1.186267614364624,-6.952147006988525
1763701041556506600,6.044506591796875,6.786052703857422,-1.2049353122711182,-6.976246356964111
1763701041566582500,6.05458251953125,6.767608642578125,-1.242446780204773,-6.987574100494385
1763701041576662300,6.064662353515625,6.759624481201172,-1.2998887300491333,-6.984850883483887
1763701041586741800,6.07474169921875,6.7677001953125,-1.3694868087768555,-6.9636993408203125
1763701041596789200,6.084789306640625,6.799201488494873,-1.4386680126190186,-6.91892147064209
1763701041606868700,6.09486865234375,6.847489356994629,-1.492287278175354,-6.859690189361572
1763701041616948500,6.104948486328125,6.900705814361572,-1.5170038938522339,-6.800685882568359
1763701041627050500,6.115050537109375,6.94763708114624,-1.5074944496154785,-6.754863739013672
1763701041637130200,6.125130126953125,6.976481914520264,-1.46721613407135,-6.733970642089844
1763701041647209700,6.135209716796875,6.98796272277832,-1.402771234512329,-6.735799789428711
1763701041657287700,6.14528759765625,6.991314888000488,-1.3211764097213745,-6.748806476593018
1763701041667367400,6.155367431640625,6.992570400238037,-1.230566143989563,-6.764617919921875
1763701041677447000,6.165447021484375,6.991195201873779,-1.1397713422775269,-6.781924724578857
1763701041687552000,6.175552001953125,6.983706474304199,-1.0550538301467896,-6.80331563949585
1763701041697631700,6.1856318359375,6.970850467681885,-0.9804137945175171,-6.827621936798096
1763701041707711200,6.195711181640625,6.956653118133545,-0.9152942299842834,-6.851102352142334
1763701041717802800,6.205802734375,6.946009159088135,-0.856248140335083,-6.869511127471924
1763701041727882200,6.21588232421875,6.941235065460205,-0.8003234267234802,-6.881070137023926
1763701041737961700,6.225961669921875,6.943671226501465,-0.7468242645263672,-6.8846259117126465
1763701041748637400,6.236637451171875,6.955393314361572,-0.6947930455207825,-6.878237724304199
1763701041758717000,6.246717041015625,6.976282119750977,-0.6513548493385315,-6.861311435699463
1763701041768796400,6.25679638671875,7.003782749176025,-0.6106926202774048,-6.836991786956787
1763701041778816500,6.26681640625,7.036253929138184,-0.5737596154212952,-6.806784629821777
1763701041788896000,6.27689599609375,7.074251651763916,-0.5451618432998657,-6.769649028778076
1763701041798975500,6.2869755859375,7.1116814613342285,-0.5297826528549194,-6.731545448303223
1763701041809075700,6.29707568359375,7.143108367919922,-0.5294361710548401,-6.698215007781982
1763701041819155200,6.3071552734375,7.166858196258545,-0.5410341620445251,-6.671867370605469
1763701041829234700,6.317234619140625,7.183202743530273,-0.5581714510917664,-6.652851581573486
1763701041839301000,6.327301025390625,7.190511226654053,-0.5698130130767822,-6.643963813781738
1763701041849380600,6.337380615234375,7.186668395996094,-0.5661283135414124,-6.648435592651367
1763701041859460400,6.34746044921875,7.16557502746582,-0.5402118563652039,-6.673312664031982
1763701041868989400,6.356989501953125,7.124195098876953,-0.4951270520687103,-6.720943450927734
1763701041879069400,6.3670693359375,7.068912029266357,-0.443408340215683,-6.782644271850586
1763701041889149200,6.377149169921875,7.018783092498779,-0.4212980568408966,-6.835903167724609
1763701041899218400,6.387218505859375,6.9732346534729,-0.45802709460258484,-6.880013942718506
1763701041919378200,6.407378173828125,6.925684928894043,-0.664596438407898,-6.911121368408203
1763701041929442800,6.41744287109375,6.937291622161865,-0.7973689436912537,-6.885387897491455
1763701041939522600,6.4275224609375,6.951324939727783,-0.9144005179405212,-6.856627941131592
1763701041949602600,6.4376025390625,6.943576335906982,-0.9918370246887207,-6.853714466094971
1763701041959704000,6.4477041015625,6.904808521270752,-1.020586371421814,-6.888571262359619
1763701041969784000,6.4577841796875,6.840958595275879,-1.0061557292938232,-6.9540863037109375
1763701041979863800,6.46786376953125,6.765167236328125,-0.9641446471214294,-7.033727169036865
1763701041989922600,6.477922607421875,6.686126232147217,-0.9144397974014282,-7.115468502044678
1763701042000002600,6.48800244140625,6.61021614074707,-0.8744880557060242,-7.191014289855957
1763701042010082300,6.498082275390625,6.545327663421631,-0.8550125360488892,-7.2524495124816895
1763701042020161800,6.508161865234375,6.502086162567139,-0.8609451055526733,-7.290544509887695
1763701042030241800,6.51824169921875,6.485570430755615,-0.8940601944923401,-7.301260471343994
1763701042040321500,6.528321533203125,6.4901909828186035,-0.9525274038314819,-7.289752960205078
1763701042050399500,6.5383994140625,6.505520820617676,-1.0301196575164795,-7.265496253967285
1763701042070559000,6.55855908203125,6.521689414978027,-1.2035658359527588,-7.224222183227539
1763701042080644600,6.56864453125,6.512976169586182,-1.2794674634933472,-7.21903657913208
1763701042090724600,6.578724609375,6.4957451820373535,-1.3386385440826416,-7.2238311767578125
1763701042100804400,6.588804443359375,6.472023963928223,-1.380289077758789,-7.237271308898926
1763701042110882800,6.5988828125,6.444054126739502,-1.406395435333252,-7.257175922393799
1763701042120962800,6.608962890625,6.417087554931641,-1.4221280813217163,-7.2779765129089355
1763701042131042600,6.61904248046875,6.393911361694336,-1.4348679780960083,-7.2958502769470215
1763701042141124000,6.6291240234375,6.3723039627075195,-1.4512054920196533,-7.311506271362305
1763701042151204000,6.6392041015625,6.360152244567871,-1.4800492525100708,-7.316303730010986
1763701042161283800,6.649283935546875,6.372472286224365,-1.54048490524292,-7.293071269989014
1763701042171361800,6.65936181640625,6.406163692474365,-1.6495106220245361,-7.23951530456543
1763701042181441800,6.66944189453125,6.442355155944824,-1.7973219156265259,-7.1718950271606445
1763701042191521500,6.679521484375,6.488286018371582,-1.9549869298934937,-7.08876371383667
1763701042201608700,6.689608642578125,6.555190563201904,-2.0888381004333496,-6.988319396972656
1763701042211688700,6.699688720703125,6.626469612121582,-2.1745264530181885,-6.894324779510498
1763701042221768400,6.7097685546875,6.687892913818359,-2.1994781494140625,-6.826768398284912
1763701042231841300,6.71984130859375,6.73774528503418,-2.1626999378204346,-6.789397239685059
1763701042241921300,6.72992138671875,6.773290634155273,-2.077932834625244,-6.780494213104248
1763701042252001000,6.7400009765625,6.791712760925293,-1.96902596950531,-6.794553279876709
1763701042262073600,6.750073486328125,6.792562484741211,-1.857627511024475,-6.825004577636719
1763701042272153600,6.760153564453125,6.777372360229492,-1.7559666633605957,-6.866890907287598
1763701042282233300,6.7702333984375,6.747080326080322,-1.669704794883728,-6.918046474456787
1763701042292318700,6.780318603515625,6.706402778625488,-1.5992375612258911,-6.974021911621094
1763701042302398700,6.790398681640625,6.662904262542725,-1.5413967370986938,-7.02852725982666
1763701042312478500,6.800478515625,6.615927219390869,-1.486232876777649,-7.084561824798584
1763701042322559000,6.81055908203125,6.5798234939575195,-1.4422930479049683,-7.127138137817383
1763701042332639000,6.820638916015625,6.563024520874023,-1.4045590162277222,-7.150127410888672
1763701042342718700,6.83071875,6.555780410766602,-1.36624276638031,-7.164182186126709
1763701042352791300,6.840791259765625,6.556375026702881,-1.3288227319717407,-7.170673370361328
1763701042362871000,6.85087109375,6.563967227935791,-1.2930269241333008,-7.1702728271484375
1763701042372951000,6.860950927734375,6.574028968811035,-1.2603696584701538,-7.166869163513184
1763701042383032600,6.871032470703125,6.5838398933410645,-1.2338513135910034,-7.162475109100342
1763701042393112600,6.881112548828125,6.589962959289551,-1.2099109888076782,-7.1609272956848145
1763701042403192300,6.8911923828125,6.591836929321289,-1.1840732097625732,-7.163521766662598
1763701042413271300,6.901271240234375,6.592571258544922,-1.151059627532959,-7.168224811553955
1763701042423351000,6.91135107421875,6.5886945724487305,-1.1000171899795532,-7.179795265197754
1763701042433431000,6.92143115234375,6.578054904937744,-1.0281248092651367,-7.200176239013672
1763701042443510500,6.931510498046875,6.568310260772705,-0.9450227618217468,-7.220430850982666
1763701042453590500,6.941590576171875,6.571117401123047,-0.8697565793991089,-7.22733211517334
1763701042463670300,6.951670166015625,6.606329441070557,-0.8356468677520752,-7.1992011070251465
1763701042473749000,6.9617490234375,6.673222064971924,-0.871922492980957,-7.132898330688477
1763701042483828700,6.971828857421875,6.734719753265381,-0.9675955772399902,-7.062414169311523
1763701042493908700,6.98190869140625,6.794895648956299,-1.1180915832519531,-6.982095718383789
1763701042503989500,6.991989501953125,6.857237815856934,-1.290789246559143,-6.8907575607299805
1763701042514069500,7.002069580078125,6.8996663093566895,-1.4377973079681396,-6.818924427032471
1763701042524149200,7.012149169921875,6.9168572425842285,-1.5248050689697266,-6.782509803771973
1763701042534232800,7.02223291015625,6.91155481338501,-1.5362145900726318,-6.785340785980225
1763701042544312800,7.032312744140625,6.888326168060303,-1.4837229251861572,-6.820550441741943
1763701042554392600,7.042392578125,6.849465847015381,-1.3949741125106812,-6.878172874450684
1763701042564460800,7.052460693359375,6.799320697784424,-1.2939212322235107,-6.947329044342041
1763701042574540500,7.06254052734375,6.744753360748291,-1.1954975128173828,-7.017797470092773
1763701042584620500,7.07262060546875,6.6928510665893555,-1.1108115911483765,-7.081118106842041
1763701042594704600,7.08270458984375,6.648526191711426,-1.0464274883270264,-7.1324944496154785
1763701042604784600,7.09278466796875,6.615265846252441,-1.005095362663269,-7.169270038604736
1763701042614864400,7.102864501953125,6.5926408767700195,-0.9790920615196228,-7.193668365478516
1763701042624975000,7.11297509765625,6.576306343078613,-0.9512436985969543,-7.212331771850586
1763701042635054800,7.123054931640625,6.560495853424072,-0.9077796936035156,-7.232303619384766
1763701042645134800,7.133134765625,6.5450520515441895,-0.8432369232177734,-7.254077911376953
1763701042655184000,7.143183837890625,6.535285949707031,-0.7643387317657471,-7.271603107452393
1763701042665263900,7.153263916015625,6.542487144470215,-0.6887888312339783,-7.272676944732666
1763701042675343600,7.163343505859375,6.578291416168213,-0.6452894806861877,-7.2443132400512695
1763701042685479200,7.173479248046875,6.650541305541992,-0.6560043692588806,-7.177070140838623
1763701042695559200,7.18355908203125,6.725616455078125,-0.705498456954956,-7.102024555206299
1763701042705639000,7.193638916015625,6.811070919036865,-0.777219831943512,-7.012533664703369
1763701042715648000,7.20364794921875,6.914462566375732,-0.8507167100906372,-6.901947021484375
1763701042725727700,7.213727783203125,7.020314693450928,-0.9083666205406189,-6.7867841720581055
1763701042735807700,7.223807861328125,7.119423866271973,-0.9363356828689575,-6.678882122039795
1763701042746009300,7.23400927734375,7.21475887298584,-0.9316495656967163,-6.576448440551758
1763701042756089300,7.24408935546875,7.302405834197998,-0.9024796485900879,-6.483114719390869
1763701042766169000,7.254169189453125,7.382055759429932,-0.858700692653656,-6.39830207824707
1763701042776140300,7.264140380859375,7.452742099761963,-0.8105634450912476,-6.322184085845947
1763701042786220300,7.27422021484375,7.5133585929870605,-0.7655988931655884,-6.255693435668945
1763701042796300000,7.284300048828125,7.565178394317627,-0.7303447127342224,-6.197181701660156
1763701042806390300,7.294390380859375,7.610566139221191,-0.7082090973854065,-6.143949031829834
1763701042816470000,7.304469970703125,7.651368141174316,-0.7002941370010376,-6.093976020812988
1763701042826550000,7.314550048828125,7.6891303062438965,-0.7059420347213745,-6.045600891113281
1763701042836628500,7.32462841796875,7.725421905517578,-0.7228478193283081,-5.9971442222595215
1763701042846708500,7.33470849609375,7.762053489685059,-0.7479076981544495,-5.946557998657227
1763701042856788200,7.344788330078125,7.798025608062744,-0.7793128490447998,-5.895238876342773
1763701042866880800,7.354880859375,7.831280708312988,-0.818162739276886,-5.8456854820251465
1763701042876960800,7.364960693359375,7.863138198852539,-0.8666331171989441,-5.795721530914307
1763701042887040500,7.37504052734375,7.8930792808532715,-0.9241422414779663,-5.745924949645996
1763701042897066200,7.385066162109375,7.92040491104126,-0.9833342432975769,-5.698299884796143
1763701042907145700,7.395145751953125,7.943777084350586,-1.0325841903686523,-5.656905174255371
1763701042917225000,7.405224853515625,7.960329055786133,-1.0590118169784546,-5.62868070602417
1763701042927332000,7.41533203125,7.977485656738281,-1.059242844581604,-5.604295253753662
1763701042937411300,7.425411376953125,8.006278991699219,-1.0562422275543213,-5.563652515411377
1763701042947490800,7.43549072265625,8.045465469360352,-1.0958237648010254,-5.499094486236572
1763701042957591800,7.445591796875,8.088033676147461,-1.2153698205947876,-5.410821437835693
1763701042967671000,7.455671142578125,8.11760425567627,-1.3780041933059692,-5.326912879943848
1763701042977750300,7.465750244140625,8.15128231048584,-1.5583930015563965,-5.22478723526001
1763701042987835100,7.475835205078125,8.192588806152344,-1.7260557413101196,-5.106133937835693
1763701042997914400,7.485914306640625,8.219544410705566,-1.8437225818634033,-5.020971775054932
1763701043007993900,7.495993896484375,8.232222557067871,-1.8792442083358765,-4.986917495727539
1763701043018631000,7.506630859375,8.249207496643066,-1.8221864700317383,-4.980021953582764
1763701043028710100,7.516710205078125,8.27790355682373,-1.7084192037582397,-4.972723960876465
1763701043038789600,7.52678955078125,8.315937042236328,-1.5757709741592407,-4.953032970428467
1763701043048865800,7.53686572265625,8.358301162719727,-1.4529019594192505,-4.919173717498779
1763701043058945000,7.546945068359375,8.40151596069336,-1.3550097942352295,-4.873281478881836
1763701043069024500,7.5570244140625,8.44573974609375,-1.287075161933899,-4.814905166625977
1763701043079125800,7.567125732421875,8.492823600769043,-1.2444335222244263,-4.7427544593811035
1763701043089205000,7.577205078125,8.543047904968262,-1.21724534034729,-4.658864974975586
1763701043099284500,7.587284423828125,8.594425201416016,-1.1965839862823486,-4.568854331970215
1763701043109352400,7.5973525390625,8.64189338684082,-1.1776257753372192,-4.483443260192871
1763701043119432000,7.607431884765625,8.680901527404785,-1.1587356328964233,-4.412443161010742
1763701043129511200,7.61751123046875,8.709081649780273,-1.1404316425323486,-4.361388683319092
1763701043139019300,7.627019287109375,8.724224090576172,-1.12398362159729,-4.335315704345703
1763701043149098800,7.6370986328125,8.728400230407715,-1.106886386871338,-4.3313093185424805
1763701043159178000,7.647177978515625,8.72097396850586,-1.0889947414398193,-4.350757122039795
1763701043169258000,7.657258056640625,8.704853057861328,-1.0702035427093506,-4.387547016143799
1763701043179337200,7.667337158203125,8.682840347290039,-1.0520734786987305,-4.435293674468994
1763701043189416700,7.677416748046875,8.657417297363281,-1.03717839717865,-4.488180160522461
1763701043199497000,7.6874970703125,8.629645347595215,-1.0271984338760376,-4.543620586395264
1763701043209576200,7.697576171875,8.609819412231445,-1.0308650732040405,-4.5802531242370605
1763701043219655400,7.707655517578125,8.596327781677246,-1.0488289594650269,-4.601467132568359
1763701043229681700,7.717681640625,8.587288856506348,-1.08145272731781,-4.610782146453857
1763701043239761000,7.727760986328125,8.583205223083496,-1.1262867450714111,-4.6076507568359375
1763701043249840000,7.737840087890625,8.584705352783203,-1.1787022352218628,-4.591718673706055
1763701043259961600,7.747961669921875,8.58989143371582,-1.2360941171646118,-4.566862106323242
1763701043270040800,7.758040771484375,8.595808029174805,-1.296108365058899,-4.539005756378174
1763701043280120300,7.768120361328125,8.601628303527832,-1.3594942092895508,-4.509340763092041
1763701043290196700,7.77819677734375,8.611068725585938,-1.4367693662643433,-4.467167854309082
1763701043300276000,7.78827587890625,8.625008583068848,-1.5504958629608154,-4.401769638061523
1763701043310355500,7.79835546875,8.633035659790039,-1.719044804573059,-4.322726249694824
1763701043320432600,7.8084326171875,8.626328468322754,-1.932724118232727,-4.245165824890137
1763701043330512000,7.818511962890625,8.608329772949219,-2.157529830932617,-4.172783374786377
1763701043340591000,7.828591064453125,8.584723472595215,-2.3542919158935547,-4.114635944366455
1763701043350680300,7.838680419921875,8.561779022216797,-2.4924707412719727,-4.080920219421387
1763701043360759600,7.848759521484375,8.545470237731934,-2.55908203125,-4.073872089385986
1763701043370838800,7.8588388671875,8.536190032958984,-2.5646722316741943,-4.089779376983643
1763701043380917800,7.868917724609375,8.529646873474121,-2.532458543777466,-4.123369216918945
1763701043390997200,7.878997314453125,8.523209571838379,-2.4793481826782227,-4.168706893920898
1763701043401076500,7.889076416015625,8.51685619354248,-2.4124460220336914,-4.220621585845947
1763701043411162400,7.899162353515625,8.511534690856934,-2.332923412322998,-4.275702953338623
1763701043421241900,7.909241943359375,8.507905960083008,-2.2381930351257324,-4.333176136016846
1763701043431321000,7.919321044921875,8.507452011108398,-2.1255342960357666,-4.390416145324707
1763701043441396500,7.929396484375,8.510766983032227,-1.9963703155517578,-4.444293022155762
1763701043451475700,7.939475830078125,8.51700496673584,-1.8558323383331299,-4.492983818054199
1763701043461555200,7.94955517578125,8.526106834411621,-1.7091329097747803,-4.533735275268555
1763701043471639300,7.959639404296875,8.537886619567871,-1.5619206428527832,-4.564568519592285
1763701043481718800,7.96971875,8.55048942565918,-1.4208604097366333,-4.587010860443115
1763701043491798000,7.979798095703125,8.562461853027344,-1.290398359298706,-4.60320520401001
1763701043501886200,7.98988623046875,8.574843406677246,-1.1730602979660034,-4.6115498542785645
1763701043511965400,7.99996533203125,8.588043212890625,-1.0705931186676025,-4.611911296844482
1763701043522044700,8.010044677734374,8.601521492004395,-0.9831059575080872,-4.606270790100098
1763701043532118000,8.020117919921875,8.616012573242188,-0.9103071689605713,-4.594132900238037
1763701043542197500,8.030197509765625,8.632665634155273,-0.852003812789917,-4.574008941650391
1763701043552276700,8.04027685546875,8.653132438659668,-0.8066573143005371,-4.543456077575684
1763701043562353400,8.050353515625,8.678581237792969,-0.7714194655418396,-4.500836372375488
1763701043572432600,8.0604326171875,8.708263397216797,-0.7421332001686096,-4.448121070861816
1763701043582512000,8.07051220703125,8.740128517150879,-0.7133540511131287,-4.389950275421143
1763701043592591600,8.080591552734376,8.77276611328125,-0.6785845160484314,-4.329952716827393
1763701043602670800,8.0906708984375,8.804409980773926,-0.6331489086151123,-4.272222518920898
1763701043612750000,8.10075,8.83239459991455,-0.5759772062301636,-4.222253799438477
1763701043622832000,8.11083203125,8.855923652648926,-0.5079898834228516,-4.181501865386963
1763701043632911400,8.120911376953124,8.875155448913574,-0.43199992179870605,-4.149141788482666
1763701043642990600,8.130990478515624,8.889744758605957,-0.35400766134262085,-4.12522554397583
1763701043653073400,8.141073486328125,8.899240493774414,-0.28268396854400635,-4.1102294921875
1763701043663152600,8.151152587890625,8.90246868133545,-0.22438102960586548,-4.10683536529541
1763701043673232100,8.161232177734375,8.89773941040039,-0.18254369497299194,-4.119138240814209
1763701043683307300,8.171307373046876,8.885636329650879,-0.1612255722284317,-4.1460676193237305
1763701043693386500,8.181386474609376,8.867887496948242,-0.1645105928182602,-4.1837663650512695
1763701043703465700,8.1914658203125,8.845229148864746,-0.1907193809747696,-4.2303595542907715
1763701043713542000,8.2015419921875,8.817693710327148,-0.23263728618621826,-4.285386562347412
1763701043723621000,8.21162109375,8.786855697631836,-0.28330063819885254,-4.345261573791504
1763701043733700600,8.22170068359375,8.755708694458008,-0.3386329412460327,-4.403781414031982
1763701043743810000,8.23181005859375,8.726568222045898,-0.39609062671661377,-4.456511497497559
1763701043753889500,8.2418896484375,8.701537132263184,-0.45432206988334656,-4.499690532684326
1763701043763968800,8.25196875,8.68192195892334,-0.5159159302711487,-4.5308332443237305
1763701043774040800,8.262040771484376,8.667160987854004,-0.5845125317573547,-4.550720691680908
1763701043784120000,8.2721201171875,8.655421257019043,-0.6640892624855042,-4.562134265899658
1763701043794199300,8.28219921875,8.64647388458252,-0.7568849921226501,-4.564647674560547
1763701043804262700,8.2922626953125,8.640555381774902,-0.8630324006080627,-4.557013034820557
1763701043814342100,8.302342041015624,8.636502265930176,-0.9811592102050781,-4.540765762329102
1763701043824421400,8.31242138671875,8.631316184997559,-1.1084065437316895,-4.521304130554199
1763701043834516200,8.32251611328125,8.622507095336914,-1.240356206893921,-4.5038065910339355
1763701043844595500,8.332595458984375,8.609282493591309,-1.3695387840270996,-4.491660118103027
1763701043854674700,8.3426748046875,8.59132194519043,-1.4905568361282349,-4.487517356872559
1763701043864755700,8.352755615234376,8.568208694458008,-1.6005208492279053,-4.493832588195801
1763701043874835000,8.3628349609375,8.541914939880371,-1.6975570917129517,-4.508255958557129
1763701043884914400,8.37291455078125,8.516719818115234,-1.7798020839691162,-4.524177551269531
1763701043895004000,8.38300390625,8.496573448181152,-1.8484114408493042,-4.534533977508545
1763701043905083100,8.393083251953126,8.48218822479248,-1.9074023962020874,-4.53703498840332
1763701043915162400,8.403162353515626,8.471342086791992,-1.960331678390503,-4.534738540649414
1763701043925208600,8.41320849609375,8.46070384979248,-2.008185863494873,-4.533658981323242
1763701043935288300,8.423288330078124,8.447410583496094,-2.050722122192383,-4.539402008056641
1763701043945368000,8.4333681640625,8.430081367492676,-2.0885894298553467,-4.554327964782715
1763701043955487500,8.443487548828125,8.409699440002441,-2.122729539871216,-4.576172828674316
1763701043965567200,8.453567138671875,8.38521957397461,-2.1528048515319824,-4.6069416999816895
1763701043975647000,8.46364697265625,8.355199813842773,-2.1784770488739014,-4.649221420288086
1763701043985699800,8.473699951171875,8.32107925415039,-2.1990725994110107,-4.700435161590576
1763701043995779600,8.483779541015625,8.285395622253418,-2.216362953186035,-4.755031585693359
1763701044005859300,8.493859375,8.24966049194336,-2.233522891998291,-4.808833122253418
1763701044016036400,8.504036376953126,8.212634086608887,-2.251321792602539,-4.863597393035889
1763701044026116000,8.5141162109375,8.174205780029297,-2.2667720317840576,-4.9208245277404785
1763701044036195800,8.52419580078125,8.134978294372559,-2.276876211166382,-4.980799674987793
1763701044046187000,8.53418701171875,8.097489356994629,-2.2799808979034424,-5.04011344909668
1763701044056266800,8.544266845703126,8.06202220916748,-2.2750513553619385,-5.098855018615723
1763701044066346500,8.554346435546876,8.027527809143066,-2.2605249881744385,-5.1593804359436035
1763701044076410000,8.56441015625,7.9935622215271,-2.236588954925537,-5.222165584564209
1763701044086489900,8.57448974609375,7.960152626037598,-2.206256628036499,-5.285715579986572
1763701044096569600,8.584569580078124,7.925778865814209,-2.174206495285034,-5.35025691986084
1763701044106685700,8.594685791015625,7.886606216430664,-2.1450881958007812,-5.419449329376221
1763701044116765400,8.604765380859375,7.841984272003174,-2.1237988471984863,-5.492098808288574
1763701044126845200,8.61484521484375,7.7912163734436035,-2.114004135131836,-5.56761360168457
1763701044136910800,8.624910888671875,7.733160018920898,-2.115842819213867,-5.647286415100098
1763701044146990600,8.634990478515626,7.669256210327148,-2.129363775253296,-5.728760242462158
1763701044157070300,8.6450703125,7.602635860443115,-2.154970645904541,-5.807446002960205
1763701044167074600,8.655074462890624,7.536043643951416,-2.1959903240203857,-5.878439426422119
1763701044177154300,8.665154296875,7.470479488372803,-2.2565369606018066,-5.938887119293213
1763701044187234000,8.675234130859375,7.408322811126709,-2.33366060256958,-5.986748695373535
1763701044197361700,8.685361572265625,7.35538911819458,-2.4174256324768066,-6.01869535446167
1763701044207441400,8.69544140625,7.319441795349121,-2.4954981803894043,-6.030642032623291
1763701044217521200,8.705521240234376,7.303867816925049,-2.559621572494507,-6.022644519805908
1763701044227616000,8.715615966796875,7.30783224105835,-2.605086088180542,-5.998291015625
1763701044237695700,8.72569580078125,7.326756954193115,-2.6304514408111572,-5.9640374183654785
1763701044247775500,8.735775390625,7.356678009033203,-2.63451886177063,-5.925283908843994
1763701044257864200,8.7458642578125,7.393362522125244,-2.617018938064575,-5.887256145477295
1763701044267944000,8.75594384765625,7.430144309997559,-2.581101655960083,-5.8567280769348145
1763701044278023700,8.766023681640625,7.4610090255737305,-2.5314598083496094,-5.83912992477417
1763701044288644000,8.77664404296875,7.484902858734131,-2.470090627670288,-5.834832668304443
1763701044298723800,8.786723876953126,7.4974589347839355,-2.4069221019744873,-5.845101833343506
1763701044308803600,8.796803466796876,7.498378753662109,-2.3408238887786865,-5.8707098960876465
1763701044318926300,8.80692626953125,7.488256931304932,-2.272876501083374,-5.910195827484131
1763701044329006000,8.817006103515626,7.468390464782715,-2.2049572467803955,-5.960845947265625
1763701044339085800,8.8270859375,7.439499855041504,-2.138192892074585,-6.020993232727051
1763701044349132500,8.837132568359374,7.404065132141113,-2.075200319290161,-6.086358547210693
1763701044359212300,8.84721240234375,7.366582870483398,-2.0189735889434814,-6.150413990020752
1763701044369292000,8.8572919921875,7.332581043243408,-1.9731212854385376,-6.205678462982178
1763701044379378000,8.8673779296875,7.306528091430664,-1.937553882598877,-6.24747371673584
1763701044389457700,8.877457763671876,7.2920379638671875,-1.9095110893249512,-6.272984981536865
1763701044399537400,8.887537353515626,7.2915849685668945,-1.8851374387741089,-6.280878067016602
1763701044409060600,8.897060546875,7.302878379821777,-1.8633519411087036,-6.274254322052002
1763701044419140400,8.907140380859374,7.3220038414001465,-1.8403716087341309,-6.258729457855225
1763701044429220000,8.91722021484375,7.344501972198486,-1.816519856452942,-6.239305019378662
1763701044439286500,8.92728662109375,7.367513656616211,-1.78936767578125,-6.219991207122803
1763701044449366300,8.9373662109375,7.38815450668335,-1.756011962890625,-6.204995155334473
1763701044459446000,8.947446044921875,7.405587673187256,-1.7145615816116333,-6.195798873901367
1763701044469531000,8.95753076171875,7.419934272766113,-1.6636546850204468,-6.1925129890441895
1763701044479610600,8.967610595703125,7.431929111480713,-1.6041955947875977,-6.193817138671875
1763701044489690400,8.9776904296875,7.443028450012207,-1.5410517454147339,-6.196522235870361
1763701044499768300,8.987768310546874,7.454904079437256,-1.4794747829437256,-6.1972527503967285
1763701044509848000,8.99784814453125,7.469987392425537,-1.4225451946258545,-6.192418575286865
1763701044519927800,9.007927734375,7.4888129234313965,-1.3709897994995117,-6.18129825592041
1763701044530004200,9.018004150390626,7.510952949523926,-1.3223692178726196,-6.165006637573242
1763701044540084000,9.028083984375,7.534287929534912,-1.2753512859344482,-6.146410942077637
1763701044550163700,9.038163818359376,7.554081439971924,-1.230369210243225,-6.131267070770264
1763701044560242700,9.04824267578125,7.56307315826416,-1.1895442008972168,-6.128236770629883
1763701044570322400,9.058322509765626,7.556148529052734,-1.1524018049240112,-6.143856525421143
1763701044580402200,9.068402099609376,7.5326690673828125,-1.1144850254058838,-6.1795783042907715
1763701044590480000,9.07847998046875,7.492565631866455,-1.0685360431671143,-6.236190319061279
1763701044600559600,9.0885595703125,7.440518379211426,-1.010098934173584,-6.307834625244141
1763701044610639400,9.098639404296875,7.3836894035339355,-0.9371479749679565,-6.385395050048828
1763701044620727000,9.10872705078125,7.323446750640869,-0.8515594601631165,-6.466248512268066
1763701044630806800,9.118806884765625,7.2680864334106445,-0.7685040831565857,-6.538708209991455
1763701044640886500,9.128886474609375,7.234793663024902,-0.718804121017456,-6.5811448097229
1763701044650960100,9.138960205078124,7.225576400756836,-0.7335589528083801,-6.589637756347656
1763701044661039900,9.149039794921874,7.233269691467285,-0.8267297744750977,-6.570138931274414
1763701044671119600,9.15911962890625,7.247642993927002,-0.9855549335479736,-6.532284736633301
1763701044681204700,9.169204833984375,7.260151386260986,-1.1699421405792236,-6.487821578979492
1763701044691284500,9.179284423828125,7.254870891571045,-1.3283073902130127,-6.463190078735352
1763701044701364200,9.1893642578125,7.215763092041016,-1.413822054862976,-6.488780498504639
1763701044711454700,9.199454833984374,7.146273136138916,-1.4021369218826294,-6.567737102508545
1763701044721534500,9.209534423828124,7.059973239898682,-1.3093913793563843,-6.679271697998047
1763701044731614200,9.2196142578125,6.965931415557861,-1.1793357133865356,-6.801129341125488
1763701044741681400,9.229681396484375,6.868216514587402,-1.0480493307113647,-6.920951843261719
1763701044751761200,9.23976123046875,6.770750045776367,-0.9354957938194275,-7.032224178314209
1763701044761841000,9.2498408203125,6.6805100440979,-0.8511276841163635,-7.128586769104004
1763701044771921000,9.2599208984375,6.605359077453613,-0.794274091720581,-7.20477294921875
1763701044782000600,9.270000732421876,6.551591873168945,-0.7585516571998596,-7.257522106170654
1763701044792080400,9.280080322265626,6.522678375244141,-0.738304078578949,-7.285600185394287
1763701044802167000,9.2901669921875,6.5163798332214355,-0.7307702302932739,-7.291993141174316
1763701044812246800,9.300246826171875,6.525767803192139,-0.7336059212684631,-7.2833075523376465
1763701044822326500,9.310326416015625,6.541489124298096,-0.7446371912956238,-7.268069267272949
1763701044832406000,9.320406005859375,6.555752754211426,-0.7618143558502197,-7.253421306610107
1763701044842485800,9.33048583984375,6.563371181488037,-0.7826359272003174,-7.2443108558654785
1763701044852565500,9.3405654296875,6.561623573303223,-0.8005233407020569,-7.2439374923706055
1763701044862638800,9.350638916015624,6.5521674156188965,-0.8060427308082581,-7.251881122589111
1763701044872718600,9.360718505859374,6.5404791831970215,-0.7943539023399353,-7.2637128829956055
1763701044882798300,9.37079833984375,6.5287322998046875,-0.7689095735549927,-7.27700662612915
1763701044892875800,9.380875732421876,6.511098384857178,-0.7369897961616516,-7.296083927154541
1763701044902955500,9.39095556640625,6.483767509460449,-0.7048489451408386,-7.323546409606934
1763701044913035300,9.40103515625,6.451179504394531,-0.6791173815727234,-7.354689598083496
1763701044923119600,9.41111962890625,6.428705215454102,-0.671708881855011,-7.375021934509277
1763701044933199400,9.421199462890625,6.423597812652588,-0.6962247490882874,-7.377198219299316
1763701044943279000,9.431279052734375,6.423791885375977,-0.7503425478935242,-7.371722221374512
1763701044953357800,9.44135791015625,6.438669204711914,-0.8200998902320862,-7.351283550262451
1763701044963437600,9.4514375,6.486807346343994,-0.8862112760543823,-7.301119804382324
1763701044973517300,9.461517333984375,6.5553131103515625,-0.9281677007675171,-7.234414577484131
1763701044983600000,9.47160009765625,6.621554374694824,-0.9312191605567932,-7.173439979553223
1763701044993680000,9.481679931640626,6.666238784790039,-0.8886861801147461,-7.137357711791992
1763701045003759900,9.491759765625,6.682772636413574,-0.8067761659622192,-7.131623268127441
1763701045013857800,9.50185791015625,6.677330017089844,-0.7036588191986084,-7.147623062133789
1763701045023937800,9.511937744140624,6.659780025482178,-0.5988741517066956,-7.173497200012207
1763701045034017500,9.522017578125,6.639130592346191,-0.5056692361831665,-7.199765682220459
1763701045044078800,9.532078857421874,6.624989032745361,-0.42890724539756775,-7.217752933502197
1763701045054158800,9.542158935546874,6.625948905944824,-0.36736658215522766,-7.220264911651611
1763701045064238600,9.552238525390624,6.644273281097412,-0.31895264983177185,-7.20571231842041
1763701045074335200,9.562335205078124,6.680463790893555,-0.2809767723083496,-7.173761367797852
1763701045084415200,9.572415283203124,6.729548931121826,-0.2506929039955139,-7.12886381149292
1763701045094495000,9.582494873046874,6.7870354652404785,-0.22394207119941711,-7.075054168701172
1763701045104582400,9.59258251953125,6.846499443054199,-0.19574274122714996,-7.018370151519775
1763701045114662100,9.602662109375,6.901185512542725,-0.16452763974666595,-6.96541166305542
1763701045124742100,9.6127421875,6.946041107177734,-0.1312926709651947,-6.921391010284424
1763701045134783700,9.62278369140625,6.979984283447266,-0.09710436314344406,-6.887726783752441
1763701045144863500,9.632863525390626,7.0068464279174805,-0.062251631170511246,-6.860802173614502
1763701045154943500,9.642943603515626,7.029034614562988,-0.026861809194087982,-6.838298797607422
1763701045165042700,9.653042724609374,7.043969631195068,0.004245412070304155,-6.822965145111084
1763701045175122700,9.663122802734375,7.056581497192383,0.02448105625808239,-6.809877872467041
1763701045185202400,9.673202392578125,7.068913459777832,0.03792509064078331,-6.7970147132873535
1763701045195272400,9.6832724609375,7.077231407165527,0.057069145143032074,-6.788219928741455
1763701045205352400,9.6933525390625,7.076149940490723,0.0931880995631218,-6.788948059082031
1763701045215432200,9.70343212890625,7.061068534851074,0.15577498078346252,-6.803487300872803
1763701045225522700,9.713522705078125,7.028083324432373,0.24925872683525085,-6.8347859382629395
1763701045235602400,9.7236025390625,6.976031303405762,0.36339643597602844,-6.882828235626221
1763701045245682400,9.733682373046875,6.914262294769287,0.4723302721977234,-6.938319683074951
1763701045255728600,9.743728759765625,6.855096340179443,0.5422515869140625,-6.991709232330322
1763701045265808400,9.753808349609375,6.8159098625183105,0.5436868667602539,-7.029805660247803
1763701045275888400,9.763888427734376,6.811585426330566,0.46417003870010376,-7.039690971374512
1763701045286058800,9.774058837890625,6.842652797698975,0.31788259744644165,-7.01765251159668
1763701045296138500,9.784138427734375,6.891826629638672,0.147274911403656,-6.9750566482543945
1763701045306218500,9.794218505859375,6.9373931884765625,0.0002833510807249695,-6.931303024291992
1763701045316245800,9.804245849609375,6.961702823638916,-0.08411241322755814,-6.906374454498291
1763701045326325800,9.81432568359375,6.9576191902160645,-0.09039279073476791,-6.910408973693848
1763701045336405500,9.824405517578125,6.928637504577637,-0.029489271342754364,-6.939993381500244
1763701045346487000,9.834487060546875,6.8821306228637695,0.06779596954584122,-6.985847473144531
1763701045356567000,9.844567138671875,6.822794437408447,0.17361685633659363,-7.041996955871582
1763701045366646800,9.854646728515625,6.756849765777588,0.2702881097793579,-7.1022748947143555
1763701045376724200,9.86472412109375,6.692439079284668,0.34879985451698303,-7.159607887268066
1763701045386804000,9.874803955078125,6.636600494384766,0.40576186776161194,-7.20841646194458
1763701045396884000,9.884884033203125,6.595986366271973,0.44020411372184753,-7.243588447570801
1763701045406904000,9.894904052734375,6.574239730834961,0.45562419295310974,-7.262379169464111
1763701045416983800,9.90498388671875,6.565701007843018,0.45809754729270935,-7.26994514465332
1763701045437185300,9.925185302734375,6.546028137207031,0.4492393732070923,-7.2882161140441895
1763701045447265300,9.935265380859375,6.51820182800293,0.46219494938850403,-7.3123064041137695
1763701045457345000,9.945344970703125,6.487951278686523,0.49203237891197205,-7.33721923828125
1763701045467417600,9.95541748046875,6.455238342285156,0.5401637554168701,-7.362643241882324
1763701045477497600,9.96549755859375,6.435060024261475,0.5878242254257202,-7.37664270401001
1763701045487577300,9.975577392578124,6.4425153732299805,0.6121236681938171,-7.3681535720825195
1763701045497675500,9.985675537109374,6.482846736907959,0.5974007844924927,-7.333907604217529
1763701045507755500,9.995755615234375,6.564862251281738,0.5391063094139099,-7.265145301818848
1763701045517835300,10.005835205078125,6.686255931854248,0.45151376724243164,-7.15964412689209
1763701045527902000,10.01590185546875,6.828526496887207,0.35259756445884705,-7.029742240905762
1763701045537982000,10.02598193359375,6.964191436767578,0.2590419352054596,-6.899515151977539
1763701045548061700,10.036061767578126,7.074519157409668,0.1913774162530899,-6.788589000701904
1763701045558780700,10.04678076171875,7.163796424865723,0.16162648797035217,-6.695093154907227
1763701045568860400,10.0568603515625,7.221032619476318,0.16773056983947754,-6.633171081542969
1763701045578940400,10.0669404296875,7.253466606140137,0.1941126137971878,-6.596963882446289
1763701045588952800,10.076952880859375,7.267685890197754,0.2296946495771408,-6.580149173736572
1763701045599032800,10.08703271484375,7.271584510803223,0.2672085762023926,-6.574423789978027
1763701045609112600,10.097112548828125,7.268446445465088,0.30367380380630493,-6.576310634613037
1763701045619172600,10.107172607421875,7.257736682891846,0.3398453891277313,-6.586361885070801
1763701045629252400,10.11725244140625,7.241324424743652,0.37915122509002686,-6.602261543273926
1763701045639332400,10.127332275390625,7.224343776702881,0.4287070631980896,-6.617813587188721
1763701045649438000,10.13743798828125,7.209873676300049,0.4919549822807312,-6.629183769226074
1763701045659517700,10.147517578125,7.200016021728516,0.568120539188385,-6.63380765914917
1763701045669597700,10.15759765625,7.195587635040283,0.6550225019454956,-6.630600452423096
1763701045679120400,10.167120361328125,7.198757648468018,0.7427627444267273,-6.617898941040039
1763701045689200400,10.177200439453125,7.210956573486328,0.8338066339492798,-6.593729496002197
1763701045699280100,10.187280029296875,7.227700710296631,0.9195218086242676,-6.563932418823242
1763701045709346800,10.197346923828125,7.243593692779541,1.0027692317962646,-6.534154891967773
1763701045719426800,10.2074267578125,7.254571437835693,1.0856188535690308,-6.508688449859619
1763701045729506600,10.217506591796875,7.252875804901123,1.1657893657684326,-6.496700286865234
1763701045739597300,10.227597412109375,7.23407506942749,1.2402586936950684,-6.503868579864502
1763701045749677000,10.237677001953125,7.200125217437744,1.3033146858215332,-6.529162883758545
1763701045759757000,10.247757080078125,7.170839786529541,1.3334819078445435,-6.555247783660889
1763701045769817600,10.257817626953125,7.167403221130371,1.3009997606277466,-6.565524578094482
1763701045779897300,10.2678974609375,7.181910037994385,1.200674057006836,-6.568785667419434
1763701045789977300,10.277977294921875,7.207335472106934,1.0492205619812012,-6.566874980926514
1763701045800056800,10.288056884765625,7.240961074829102,0.879554808139801,-6.554788589477539
1763701045810136800,10.29813671875,7.265508651733398,0.7328459620475769,-6.545663356781006
1763701045820216600,10.308216552734375,7.273417949676514,0.6415722966194153,-6.546462535858154
1763701045830328300,10.318328369140625,7.259537220001221,0.6255425214767456,-6.563398838043213
1763701045840408300,10.328408203125,7.226834774017334,0.6742730736732483,-6.5945892333984375
1763701045850488000,10.338488037109375,7.188242435455322,0.7549139857292175,-6.627946376800537
1763701045860533000,10.348532958984375,7.152928352355957,0.8429332971572876,-6.655483245849609
1763701045870613000,10.358613037109375,7.120999813079834,0.9282658100128174,-6.678328990936279
1763701045880692700,10.368692626953125,7.093691349029541,1.0053585767745972,-6.696208477020264
1763701045890796300,10.37879638671875,7.072473526000977,1.0706866979599,-6.708512306213379
1763701045900876000,10.3888759765625,7.0601725578308105,1.125252604484558,-6.712536811828613
1763701045910956000,10.3989560546875,7.056934833526611,1.1719791889190674,-6.707943916320801
1763701045921009000,10.4090087890625,7.0615973472595215,1.212386131286621,-6.6958465576171875
1763701045931088600,10.419088623046875,7.071653366088867,1.2486648559570312,-6.678543567657471
1763701045941168600,10.429168701171875,7.082376480102539,1.2872065305709839,-6.65983772277832
1763701045951260700,10.4392607421875,7.085133075714111,1.339464545249939,-6.646585941314697
1763701045961340700,10.449340576171876,7.0779805183410645,1.4150149822235107,-6.638546466827393
1763701045971420400,10.45942041015625,7.06205415725708,1.5171149969100952,-6.63295841217041
1763701045981500400,10.46950048828125,7.0464582443237305,1.6337454319000244,-6.621834754943848
1763701045991580400,10.479580322265624,7.0549798011779785,1.7343372106552124,-6.587088108062744
1763701046001660200,10.48966015625,7.098700046539307,1.7857418060302734,-6.526098728179932
1763701046011736000,10.499736083984375,7.166689395904541,1.7653687000274658,-6.456966876983643
1763701046021815800,10.50981591796875,7.244106292724609,1.67672860622406,-6.393894195556641
1763701046031895800,10.519895751953126,7.315476417541504,1.5535287857055664,-6.3435587882995605
1763701046041983700,10.529983642578125,7.360995769500732,1.4350016117095947,-6.3187737464904785
1763701046052063500,10.5400634765625,7.368452072143555,1.3630021810531616,-6.326019763946533
1763701046072223000,10.560222900390626,7.2825164794921875,1.4691500663757324,-6.401323318481445
1763701046082303000,10.570302978515626,7.211023807525635,1.6187940835952759,-6.446008205413818
1763701046092382700,10.5803828125,7.137238025665283,1.7820323705673218,-6.484949588775635
1763701046102446800,10.59044677734375,7.065914154052734,1.9366589784622192,-6.5186333656311035
1763701046112526600,10.600526611328124,6.999978542327881,2.076775074005127,-6.546578407287598
1763701046122606600,10.610606689453125,6.939931869506836,2.2003092765808105,-6.570112228393555
1763701046132693500,10.620693603515624,6.888213157653809,2.306295394897461,-6.58816385269165
1763701046142773500,10.6307734375,6.848206520080566,2.395315647125244,-6.598099231719971
1763701046152853200,10.640853271484374,6.820899486541748,2.472642421722412,-6.597860336303711
1763701046162934800,10.650934814453125,6.804609775543213,2.541813850402832,-6.588388442993164
1763701046173014800,10.661014892578125,6.795465469360352,2.6027159690856934,-6.574032783508301
1763701046183094500,10.671094482421875,6.788601398468018,2.653688430786133,-6.560732841491699
1763701046193171500,10.68117138671875,6.782966613769531,2.690211296081543,-6.551681041717529
1763701046203251500,10.69125146484375,6.782588005065918,2.707793951034546,-6.544824600219727
1763701046213331200,10.701331298828125,6.792198181152344,2.703903913497925,-6.536462306976318
1763701046223419000,10.7114189453125,6.816137790679932,2.6801435947418213,-6.5213093757629395
1763701046233498600,10.72149853515625,6.853349685668945,2.6430344581604004,-6.497412204742432
1763701046243578400,10.731578369140625,6.898885250091553,2.604771137237549,-6.464591979980469
1763701046253649200,10.741649169921875,6.9423508644104,2.5788190364837646,-6.4283623695373535
1763701046263729000,10.75172900390625,6.9730987548828125,2.577011823654175,-6.395724296569824
1763701046273809000,10.761808837890625,6.981220722198486,2.6052896976470947,-6.375375747680664
1763701046283903500,10.771903564453124,6.966951847076416,2.6613845825195312,-6.367809772491455
1763701046293983500,10.7819833984375,6.9502105712890625,2.717289447784424,-6.362491607666016
1763701046304063200,10.792063232421874,6.9593281745910645,2.716050624847412,-6.3530473709106445
1763701046314131200,10.802131103515626,6.9904093742370605,2.6238412857055664,-6.3576741218566895
1763701046324211200,10.812211181640626,7.029319763183594,2.448911190032959,-6.384502410888672
1763701046334291000,10.822291015625,7.065872669219971,2.2348082065582275,-6.422573089599609
1763701046344373000,10.832373046875,7.0751752853393555,2.0336110591888428,-6.478943824768066
1763701046354452700,10.84245263671875,7.032387733459473,1.8935366868972778,-6.567376136779785
1763701046364532700,10.85253271484375,6.943785190582275,1.8371708393096924,-6.676753520965576
1763701046374601000,10.86260107421875,6.826609134674072,1.8663268089294434,-6.788565635681152
1763701046384680700,10.8726806640625,6.7080979347229,1.941582441329956,-6.884915828704834
1763701046394760700,10.8827607421875,6.607370376586914,2.0174331665039062,-6.960100173950195
1763701046404839700,10.892839599609376,6.5295586585998535,2.06746506690979,-7.018606662750244
1763701046414919400,10.90291943359375,6.472967147827148,2.0829482078552246,-7.066286563873291
1763701046424999200,10.912999267578124,6.437559604644775,2.0682907104492188,-7.102843284606934
1763701046435121200,10.92312109375,6.424737930297852,2.036008358001709,-7.123748779296875
1763701046445201000,10.933200927734376,6.433920383453369,1.9987088441848755,-7.12602424621582
1763701046455281000,10.943281005859374,6.462045192718506,1.9610239267349243,-7.111029624938965
1763701046465372000,10.953371826171875,6.504958629608154,1.9263274669647217,-7.081324100494385
1763701046475452000,10.963451904296875,6.555330276489258,1.898959994316101,-7.0421576499938965
1763701046485531600,10.97353173828125,6.6046857833862305,1.8823641538619995,-7.000372409820557
1763701046505654300,10.993654296875,6.666727066040039,1.8871464729309082,-6.940016269683838
1763701046515734000,11.003734130859375,6.672418594360352,1.9066660404205322,-6.929202556610107
1763701046525796000,11.013796142578125,6.662600994110107,1.9332456588745117,-6.931283950805664
1763701046535875800,11.023875732421875,6.640658378601074,1.9653410911560059,-6.943305015563965
1763701046545955800,11.033955810546875,6.610702037811279,2.004376173019409,-6.960709571838379
1763701046556154600,11.044154541015626,6.580250263214111,2.0489768981933594,-6.976559162139893
1763701046566234600,11.054234619140624,6.558564186096191,2.0957915782928467,-6.9830708503723145
1763701046576314400,11.064314453125,6.546838283538818,2.14300799369812,-6.979742527008057
1763701046586284000,11.074283935546875,6.542165756225586,2.186621904373169,-6.9705915451049805
1763701046596363800,11.08436376953125,6.542674541473389,2.2282497882843018,-6.956918239593506
1763701046606443500,11.094443603515625,6.556285858154297,2.257658004760742,-6.934586524963379
1763701046616516900,11.104516845703126,6.585056304931641,2.273169994354248,-6.9021830558776855
1763701046626596600,11.1145966796875,6.61911153793335,2.280764102935791,-6.867012977600098
1763701046636676600,11.124676513671876,6.654408931732178,2.2865545749664307,-6.830878734588623
1763701046646776300,11.1347763671875,6.6859025955200195,2.2994959354400635,-6.795690059661865
1763701046656856000,11.14485595703125,6.70927619934082,2.3285059928894043,-6.762696743011475
1763701046666936000,11.15493603515625,6.724764823913574,2.3741893768310547,-6.731355667114258
1763701046677039000,11.1650390625,6.733962535858154,2.4280197620391846,-6.702898025512695
1763701046687118800,11.175118896484374,6.741274356842041,2.4736759662628174,-6.678812026977539
1763701046697198800,11.18519873046875,6.7577924728393555,2.4900288581848145,-6.656004428863525
1763701046707278600,11.195278564453124,6.789403438568115,2.460608959197998,-6.63474178314209
1763701046727418400,11.21541845703125,6.872043609619141,2.290273904800415,-6.61060094833374
1763701046737498000,11.225498046875,6.914153575897217,2.195244789123535,-6.598921298980713
1763701046747553300,11.23555322265625,6.945499420166016,2.124368667602539,-6.589194297790527
1763701046757633000,11.245633056640624,6.963223934173584,2.088094711303711,-6.582078456878662
1763701046767713000,11.255713134765625,6.977638244628906,2.087742328643799,-6.56690788269043
1763701046777833200,11.265833251953126,6.991456031799316,2.11558198928833,-6.543259620666504
1763701046787913200,11.275913330078126,7.00514554977417,2.1518824100494385,-6.516726970672607
1763701046797993000,11.285992919921876,7.019115924835205,2.1803877353668213,-6.4921722412109375
1763701046808050700,11.29605078125,7.030229568481445,2.198052406311035,-6.474165916442871
1763701046818130700,11.306130615234375,7.0332136154174805,2.210644245147705,-6.466633319854736
1763701046828210400,11.31621044921875,7.023698806762695,2.2229325771331787,-6.472758769989014
1763701046838839300,11.32683935546875,7.000514984130859,2.238543748855591,-6.492465019226074
1763701046848919000,11.3369189453125,6.966165542602539,2.258358955383301,-6.522479057312012
1763701046858999000,11.3469990234375,6.921827793121338,2.2869343757629395,-6.559619903564453
1763701046869107700,11.357107666015626,6.870221138000488,2.3289148807525635,-6.598984241485596
1763701046879187500,11.3671875,6.815953254699707,2.386721611022949,-6.634509563446045
1763701046889267500,11.377267333984374,6.76444149017334,2.4562900066375732,-6.661782264709473
1763701046899336000,11.3873359375,6.71979284286499,2.5289998054504395,-6.679740905761719
1763701046909415700,11.397415771484376,6.684882164001465,2.596346855163574,-6.688924789428711
1763701046919495700,11.40749560546875,6.663218021392822,2.6529204845428467,-6.688342094421387
1763701046929001000,11.4170009765625,6.657402515411377,2.6935651302337646,-6.67788028717041
1763701046939080700,11.427080810546874,6.6663994789123535,2.7247376441955566,-6.656223297119141
1763701046949160700,11.43716064453125,6.688165187835693,2.7460293769836426,-6.6255693435668945
1763701046959231200,11.447231201171874,6.718801975250244,2.760197639465332,-6.588581562042236
1763701046969311000,11.45731103515625,6.7558979988098145,2.769773006439209,-6.546494483947754
1763701046979391000,11.467390869140624,6.7991251945495605,2.7754461765289307,-6.4991679191589355
1763701046989509000,11.477509033203125,6.8476667404174805,2.7776474952697754,-6.447054862976074
1763701046999589000,11.487589111328125,6.898264408111572,2.777650833129883,-6.392885684967041
1763701047009669000,11.497669189453125,6.949099063873291,2.7778048515319824,-6.337523937225342
1763701047019672300,11.50767236328125,6.999137878417969,2.7797348499298096,-6.2813639640808105
1763701047039832600,11.52783251953125,7.099565029144287,2.786097526550293,-6.16475772857666
1763701047049970700,11.537970703125,7.152749538421631,2.7862982749938965,-6.10287618637085
1763701047060050700,11.54805078125,7.208913803100586,2.7825634479522705,-6.038153648376465
1763701047070130700,11.558130615234376,7.270923614501953,2.7753074169158936,-5.966717720031738
1763701047080211500,11.56821142578125,7.3409528732299805,2.7637548446655273,-5.88578462600708
1763701047090291500,11.57829150390625,7.4162774085998535,2.746180295944214,-5.798941135406494
1763701047100371500,11.588371337890624,7.491149425506592,2.7212955951690674,-5.713809490203857
1763701047110463200,11.598463134765625,7.557173728942871,2.687406301498413,-5.642460823059082
1763701047120543200,11.608543212890625,7.610385894775391,2.642571210861206,-5.59188985824585
1763701047130623200,11.618623291015625,7.64929723739624,2.5833795070648193,-5.566397666931152
1763701047140675600,11.628675537109375,7.673220157623291,2.5103042125701904,-5.566908836364746
1763701047150755600,11.638755615234375,7.683600425720215,2.4285385608673096,-5.5888166427612305
1763701047160835600,11.648835693359375,7.681655406951904,2.346454620361328,-5.626430511474609
1763701047170929700,11.6589296875,7.666306972503662,2.273609161376953,-5.677044868469238
1763701047181009700,11.669009765625,7.6385602951049805,2.216655731201172,-5.7366557121276855
1763701047191089700,11.679089599609375,7.60439920425415,2.176474094390869,-5.797109127044678
1763701047201174300,11.68917431640625,7.568365573883057,2.147822141647339,-5.854663848876953
1763701047211254300,11.699254150390624,7.53774356842041,2.1172120571136475,-5.905101776123047
1763701047221334300,11.709334228515624,7.517486095428467,2.074833631515503,-5.945826530456543
1763701047231410400,11.719410400390625,7.507473945617676,2.0200388431549072,-5.9772629737854
1763701047241490400,11.729490478515626,7.506590366363525,1.9580564498901367,-5.998959541320801
1763701047251570400,11.7395703125,7.512302398681641,1.896331548690796,-6.011624336242676
1763701047261655800,11.74965576171875,7.522315502166748,1.8400580883026123,-6.0165886878967285
1763701047271735800,11.75973583984375,7.535294055938721,1.7919408082962036,-6.014872074127197
1763701047281815800,11.76981591796875,7.54960823059082,1.7509629726409912,-6.008987903594971
1763701047291894000,11.77989404296875,7.564829349517822,1.7151328325271606,-6.000172138214111
1763701047301974000,11.78997412109375,7.579311370849609,1.6830368041992188,-5.9909772872924805
1763701047312054000,11.800053955078125,7.590705394744873,1.6535190343856812,-5.984768390655518
1763701047322134500,11.810134521484375,7.597834587097168,1.6254727840423584,-5.983405113220215
1763701047332214500,11.820214599609375,7.600013256072998,1.59744393825531,-5.988184452056885
1763701047342294500,11.83029443359375,7.596653461456299,1.5701124668121338,-5.999666213989258
1763701047352373200,11.840373291015625,7.586974620819092,1.5455570220947266,-6.0182600021362305
1763701047362453200,11.850453369140626,7.571822166442871,1.5254642963409424,-6.042421817779541
1763701047372533200,11.860533203125,7.552693843841553,1.5117031335830688,-6.069758415222168
1763701047382612500,11.870612548828126,7.534985542297363,1.5059070587158203,-6.093161106109619
1763701047392692500,11.8806923828125,7.525259017944336,1.508965015411377,-6.104414939880371
1763701047402772700,11.890772705078126,7.526931285858154,1.521411657333374,-6.099262237548828
1763701047412832800,11.900832763671875,7.540908336639404,1.5403666496276855,-6.077200412750244
1763701047422912800,11.910912841796875,7.564969539642334,1.5595372915267944,-6.042307376861572
1763701047432992800,11.92099267578125,7.595844268798828,1.57316255569458,-5.99989128112793
1763701047443066600,11.931066650390624,7.63107442855835,1.577217936515808,-5.953945636749268
1763701047453146600,11.941146728515625,7.665289878845215,1.5708119869232178,-5.91153621673584
1763701047463227000,11.951226806640625,7.688502788543701,1.5577611923217773,-5.884784698486328
1763701047473332200,11.961332275390625,7.691259860992432,1.5471826791763306,-5.883973121643066
1763701047483412200,11.971412109375,7.671092987060547,1.5485515594482422,-5.909881591796875
1763701047493492200,11.9814921875,7.629588603973389,1.5670357942581177,-5.958536624908447
1763701047503575800,11.991575927734376,7.573699474334717,1.6008739471435547,-6.02052116394043
1763701047513655800,12.00165576171875,7.513937473297119,1.6403671503067017,-6.084433078765869
1763701047523735800,12.01173583984375,7.461393356323242,1.6714943647384644,-6.140367031097412
1763701047533793300,12.021793212890625,7.424717903137207,1.6810085773468018,-6.182084560394287
1763701047543873300,12.031873291015625,7.406313896179199,1.6633692979812622,-6.2088727951049805
1763701047553953300,12.041953369140625,7.401360511779785,1.6246001720428467,-6.225024223327637
1763701047564056600,12.052056640625,7.399829864501953,1.5791020393371582,-6.238536357879639
1763701047574136600,12.062136474609375,7.3920392990112305,1.5452238321304321,-6.256231307983398
1763701047584216600,12.072216552734375,7.374773025512695,1.538356900215149,-6.278261661529541
1763701047594293500,12.08229345703125,7.349628448486328,1.563415288925171,-6.301515102386475
1763701047604373500,12.09237353515625,7.3200507164001465,1.6114425659179688,-6.323803901672363
1763701047614453500,12.10245361328125,7.2902607917785645,1.6665199995040894,-6.343910217285156
1763701047624528100,12.112528076171875,7.26285982131958,1.714565634727478,-6.362509250640869
1763701047634608000,12.122608154296875,7.2373223304748535,1.7471967935562134,-6.382700443267822
1763701047644688100,12.132688232421875,7.210166931152344,1.763007402420044,-6.409032344818115
1763701047654742000,12.142741943359376,7.1779913902282715,1.7669070959091187,-6.443979263305664
1763701047664822000,12.152822021484376,7.139636516571045,1.7648805379867554,-6.486999988555908
1763701047674902000,12.162902099609376,7.095228672027588,1.7619616985321045,-6.536330223083496
1763701047684996000,12.17299609375,7.045238494873047,1.7627527713775635,-6.589969635009766
1763701047695076000,12.183076171875,6.990315914154053,1.7714574337005615,-6.645886421203613
1763701047705156000,12.193156005859375,6.9330153465271,1.7894924879074097,-6.700850963592529
1763701047715239000,12.203239013671874,6.8753180503845215,1.8172029256820679,-6.752641201019287
1763701047725319000,12.21331884765625,6.817615985870361,1.855264663696289,-6.800624847412109
1763701047735399000,12.22339892578125,6.760804176330566,1.9037657976150513,-6.843799114227295
1763701047745491700,12.23349169921875,6.706867694854736,1.9605281352996826,-6.880743980407715
1763701047755571700,12.24357177734375,6.657378673553467,2.0205435752868652,-6.911375522613525
1763701047765651700,12.253651611328126,6.6146955490112305,2.0774261951446533,-6.935451984405518
1763701047775696400,12.2636962890625,6.581056594848633,2.1265478134155273,-6.952545166015625
1763701047785776400,12.2737763671875,6.55720853805542,2.1671597957611084,-6.962528705596924
1763701047795856600,12.283856689453126,6.5456061363220215,2.1995270252227783,-6.963296890258789
1763701047806022400,12.2940224609375,6.550327301025391,2.224775552749634,-6.9508256912231445
1763701047816102400,12.304102294921876,6.574251174926758,2.2445390224456787,-6.921824932098389
1763701047826182400,12.314182373046876,6.612276554107666,2.2615983486175537,-6.879923343658447
1763701047836185000,12.32418505859375,6.656871318817139,2.2806038856506348,-6.830468654632568
1763701047846265000,12.33426513671875,6.70374870300293,2.308159589767456,-6.775140762329102
1763701047856345000,12.344344970703125,6.745497226715088,2.3480284214019775,-6.7197771072387695
1763701047866457000,12.35445703125,6.777900695800781,2.399613380432129,-6.668755054473877
1763701047876537000,12.364537109375,6.799808025360107,2.457777261734009,-6.625128269195557
1763701047886617000,12.3746171875,6.812856197357178,2.5131919384002686,-6.590845584869385
1763701047896726500,12.3847265625,6.822206974029541,2.5524189472198486,-6.566051959991455
1763701047906806500,12.394806640625,6.835319519042969,2.5607244968414307,-6.549160003662109
1763701047916886500,12.404886474609375,6.856227874755859,2.529149055480957,-6.539567947387695
1763701047926880800,12.414880859375,6.881876468658447,2.459228277206421,-6.539294242858887
1763701047936960800,12.424960693359376,6.903963088989258,2.361844062805176,-6.551898956298828
1763701047947040800,12.435040771484376,6.911912441253662,2.2584049701690674,-6.579928874969482
1763701047957182000,12.445181884765624,6.901937484741211,2.167811632156372,-6.620743274688721
1763701047967262000,12.455261962890624,6.87868595123291,2.101386785507202,-6.666201114654541
1763701047977342000,12.465342041015624,6.848728656768799,2.055553436279297,-6.711185455322266
1763701047987422000,12.475421875,6.816157341003418,2.017376184463501,-6.755781173706055
1763701047997461500,12.48546142578125,6.780130863189697,1.9746112823486328,-6.804492950439453
1763701048007541200,12.495541259765625,6.738206386566162,1.9230947494506836,-6.860660552978516
1763701048017621000,12.50562109375,6.69392728805542,1.862243413925171,-6.920533657073975
1763701048027721000,12.515720947265624,6.652209758758545,1.7920433282852173,-6.979045391082764
1763701048037800700,12.52580078125,6.615129470825195,1.7165701389312744,-7.033053398132324
1763701048047880400,12.53588037109375,6.583381652832031,1.643182396888733,-7.08021354675293
1763701048058510800,12.5465107421875,6.559041976928711,1.5766448974609375,-7.117832660675049
1763701048068590300,12.55659033203125,6.548924446105957,1.5307831764221191,-7.137133598327637
1763701048078670000,12.566670166015625,6.554741382598877,1.5053967237472534,-7.137194633483887
1763701048088780800,12.57678076171875,6.574895858764648,1.4995081424713135,-7.119874477386475
1763701048098860500,12.586860595703126,6.603947162628174,1.509103775024414,-7.090900421142578
1763701048108940300,12.596940185546876,6.635872840881348,1.5290210247039795,-7.056746959686279
1763701048119000300,12.607000244140625,6.665955543518066,1.552517056465149,-7.023184299468994
1763701048129079800,12.617079833984375,6.6917033195495605,1.5730327367782593,-6.994072914123535
1763701048139159600,12.62715966796875,6.709649562835693,1.5864284038543701,-6.973824501037598
1763701048158725600,12.6467255859375,6.717284679412842,1.589548945426941,-6.965759754180908
1763701048168805400,12.656805419921875,6.715481758117676,1.5798025131225586,-6.969714164733887
1763701048178930400,12.666930419921876,6.715939521789551,1.563230037689209,-6.97300910949707
1763701048189010200,12.67701025390625,6.724682331085205,1.5382168292999268,-6.970144748687744
1763701048199089700,12.687089599609376,6.7440290451049805,1.502171516418457,-6.959305763244629
1763701048209163000,12.6971630859375,6.771282196044922,1.4539599418640137,-6.943062782287598
1763701048219242500,12.707242431640625,6.80354642868042,1.3925617933273315,-6.924083232879639
1763701048229322200,12.717322265625,6.836738109588623,1.3170045614242554,-6.906149864196777
1763701048239382500,12.727382568359374,6.863996505737305,1.2295377254486084,-6.895228862762451
1763701048249462300,12.737462158203124,6.877664089202881,1.1372519731521606,-6.897447109222412
1763701048259541800,12.747541748046874,6.871328830718994,1.0510640144348145,-6.917404651641846
1763701048269632000,12.757632080078125,6.842450141906738,0.9795672297477722,-6.956415176391602
1763701048279711500,12.76771142578125,6.796482563018799,0.9221624732017517,-7.009123802185059
1763701048289791200,12.777791259765625,6.742685317993164,0.8696913719177246,-7.06754732131958
1763701048299883000,12.787883056640625,6.69049596786499,0.812334418296814,-7.1237473487854
1763701048309962500,12.79796240234375,6.647701740264893,0.7464673519134521,-7.17086124420166
1763701048320042200,12.808042236328125,6.61751127243042,0.6719799041748047,-7.2060651779174805
1763701048330094300,12.81809423828125,6.598483085632324,0.5924243330955505,-7.230452060699463
1763701048340173800,12.828173828125,6.58683443069458,0.5147989392280579,-7.2469987869262695
1763701048350253600,12.838253662109375,6.580349445343018,0.44832533597946167,-7.257298946380615
1763701048360339700,12.848339599609375,6.575789928436279,0.3993474245071411,-7.264289379119873
1763701048370419500,12.85841943359375,6.576512813568115,0.369610458612442,-7.265209197998047
1763701048380499000,12.8684990234375,6.5890655517578125,0.3573789596557617,-7.254439353942871
1763701048390576600,12.87857666015625,6.617201805114746,0.35848116874694824,-7.228729724884033
1763701048400656100,12.88865625,6.654985427856445,0.36809903383255005,-7.193472862243652
1763701048410735900,12.89873583984375,6.693908214569092,0.3839057683944702,-7.156437873840332
1763701048420815400,12.9088154296875,6.727774143218994,0.4036533534526825,-7.123517990112305
1763701048430894800,12.918894775390624,6.747429370880127,0.4286259114742279,-7.103439807891846
1763701048440974600,12.928974609375,6.7472028732299805,0.4633590579032898,-7.101475715637207
1763701048451068700,12.939068603515626,6.728030681610107,0.5115982294082642,-7.116336345672607
1763701048461148400,12.9491484375,6.694509983062744,0.575018048286438,-7.1430583000183105
1763701048471228000,12.959227783203126,6.6537275314331055,0.6524146795272827,-7.174444198608398
1763701048481297000,12.969296875,6.613999366760254,0.7399060726165771,-7.202634334564209
1763701048491376600,12.979376708984375,6.583952903747559,0.8367236852645874,-7.219545841217041
1763701048501456100,12.9894560546875,6.571287155151367,0.9453176259994507,-7.217684268951416
1763701048511529500,12.999529541015624,6.580368518829346,1.066609263420105,-7.192460536956787
1763701048521609200,13.009609130859374,6.610576629638672,1.1987473964691162,-7.143784999847412
1763701048531688700,13.019688720703124,6.658786773681641,1.338417649269104,-7.073866844177246
1763701048541781000,13.029781005859375,6.720706939697266,1.481216311454773,-6.986306190490723
1763701048551860700,13.03986083984375,6.7902936935424805,1.6239542961120605,-6.886585235595703
1763701048561940500,13.0499404296875,6.8622941970825195,1.764747977256775,-6.779747009277344
1763701048572006700,13.060006591796874,6.932606220245361,1.901700735092163,-6.6702985763549805
1763701048582086100,13.070086181640624,6.997165203094482,2.0340416431427,-6.56298303604126
1763701048592166000,13.080165771484374,7.0503249168396,2.1605677604675293,-6.464925765991211
1763701048602266600,13.0902666015625,7.089864730834961,2.2812747955322266,-6.379654407501221
1763701048612346000,13.10034619140625,7.116297721862793,2.397059679031372,-6.307360649108887
1763701048622425900,13.11042578125,7.132568836212158,2.510218381881714,-6.244649410247803
1763701048632508400,13.12050830078125,7.144460201263428,2.622248888015747,-6.184730529785156
1763701048642588200,13.130588134765626,7.156511306762695,2.734143018722534,-6.122025966644287
1763701048652667600,13.140667724609376,7.171529293060303,2.846017360687256,-6.053076267242432
1763701048662737200,13.150737060546875,7.191013336181641,2.9560515880584717,-5.976744174957275
1763701048672816600,13.160816650390625,7.2135796546936035,3.0673015117645264,-5.8929033279418945
1763701048682896400,13.170896484375,7.235989093780518,3.180196523666382,-5.804928302764893
1763701048692998000,13.180997802734375,7.258110523223877,3.2881553173065186,-5.716489791870117
1763701048703077600,13.19107763671875,7.279881000518799,3.3845736980438232,-5.631906986236572
1763701048713157400,13.201157470703125,7.299060821533203,3.4673869609832764,-5.556196689605713
1763701048723217400,13.211217529296874,7.313777446746826,3.5359535217285156,-5.4932756423950195
1763701048733297200,13.221297119140624,7.3209309577941895,3.592799663543701,-5.446664333343506
1763701048743376600,13.231376708984374,7.314882278442383,3.644059658050537,-5.4206767082214355
1763701048753469000,13.241468994140625,7.291844844818115,3.6978888511657715,-5.415256500244141
1763701048763548700,13.251548583984375,7.246891975402832,3.7633838653564453,-5.430457592010498
1763701048773628200,13.261628173828125,7.175342082977295,3.848531723022461,-5.46567964553833
1763701048783702800,13.271702880859374,7.075501441955566,3.9536030292510986,-5.520569324493408
1763701048793782500,13.281782470703124,6.950955390930176,4.064501762390137,-5.597716331481934
1763701048803862300,13.2918623046875,6.806315898895264,4.167720317840576,-5.69864559173584
1763701048813957600,13.30195751953125,6.650735378265381,4.242969989776611,-5.825401306152344
1763701048824037400,13.312037353515626,6.505541801452637,4.262102127075195,-5.973508834838867
