time,seconds_elapsed,z,y,x
1763701035760575000,0.248574951171875,10.145567893981934,2.309372901916504,0.1821536272764206
1763701035770654500,0.258654541015625,9.968199729919434,2.347957134246826,0.016749758273363113
1763701035780733700,0.268733642578125,9.671191215515137,2.5082762241363525,-0.23449662327766418
1763701035791519500,0.27951953125,9.625727653503418,2.6784658432006836,-1.1497513055801392
1763701035801598700,0.2895986328125,10.962417602539062,3.0281169414520264,-2.273181438446045
1763701035811678200,0.29967822265625,9.915557861328125,3.411566972732544,0.6613163352012634
1763701035821189000,0.309189208984375,9.187541961669922,2.6784658432006836,-0.34725838899612427
1763701035831268400,0.319268310546875,8.679664611816406,2.8339993953704834,-0.9963115453720093
1763701035841347800,0.329347900390625,9.10110092163086,3.638885021209717,-1.2550355195999146
1763701035851421000,0.3394208984375,9.333503723144531,3.873680830001831,-1.5305092334747314
1763701035861500200,0.349500244140625,9.060422897338867,3.921537160873413,-1.3869398832321167
1763701035871579400,0.359579345703125,8.866305351257324,3.809074640274048,-1.3319048881530762
1763701035881700600,0.36970068359375,8.897412300109863,3.6747772693634033,-1.4611172676086426
1763701035891780000,0.379780029296875,9.163313865661621,3.7683966159820557,-1.4659029245376587
1763701035901859300,0.389859375,9.194720268249512,3.801896095275879,-1.8203397989273071
1763701035911895800,0.399895751953125,9.060422897338867,3.9672999382019043,-2.0766708850860596
1763701035921975000,0.40997509765625,9.091529846191406,3.9936211109161377,-1.8900307416915894
1763701035932054500,0.420054443359375,9.338289260864258,3.66520619392395,-1.5185450315475464
1763701035942137000,0.43013720703125,9.422038078308105,3.399303674697876,-1.207179069519043
1763701035952216600,0.440216552734375,9.23300552368164,3.382553815841675,-1.1330015659332275
1763701035962295800,0.4502958984375,8.988637924194336,3.466601848602295,-1.0274182558059692
1763701035972376800,0.460376953125,8.98385238647461,3.5431721210479736,-0.8838488459587097
1763701035982456000,0.4704560546875,9.060422897338867,3.452244758605957,-0.6011967062950134
1763701035992535600,0.48053564453125,8.619544982910156,3.250948667526245,-0.3281157910823822
1763701036002611500,0.490611572265625,8.133502960205078,3.442673683166504,-0.6107679605484009
1763701036012690700,0.500690673828125,7.905886173248291,3.715754508972168,-0.8288139700889587
1763701036022770200,0.510770263671875,7.83410120010376,3.8234314918518066,-0.9005986452102661
1763701036032857900,0.52085791015625,7.8388872146606445,3.586242914199829,-0.7543373107910156
1763701036042937000,0.53093701171875,8.054241180419922,3.2676985263824463,-0.4453641176223755
1763701036053016300,0.541016357421875,8.404191017150879,3.155235767364502,-0.09571290761232376
1763701036063090000,0.55108984375,8.487939834594727,2.9826533794403076,0.11994023621082306
1763701036073169400,0.56116943359375,8.162217140197754,2.711965322494507,0.12233305722475052
1763701036083248600,0.57124853515625,7.6064839363098145,3.0137600898742676,0.20608185231685638
1763701036093361400,0.581361328125,7.007380962371826,3.2006993293762207,0.25393831729888916
1763701036103440600,0.591440673828125,6.504589080810547,3.241377353668213,-0.20578274130821228
1763701036113520000,0.60152001953125,6.03739070892334,3.3107693195343018,-0.8790631890296936
1763701036123575300,0.6115751953125,5.7786664962768555,3.4642090797424316,-1.5831513404846191
1763701036133654500,0.621654541015625,5.883950710296631,3.66520619392395,-2.3330020904541016
1763701036143734000,0.631734130859375,6.104389667510986,4.00319242477417,-3.667299747467041
1763701036153818400,0.641818359375,6.3631134033203125,4.52781867980957,-4.83888578414917
1763701036163897600,0.651897705078125,6.957131862640381,4.956432819366455,-5.732305526733398
1763701036173977000,0.66197705078125,7.836493968963623,5.229514122009277,-6.44387149810791
1763701036184042500,0.67204248046875,8.483154296875,5.14576530456543,-7.073781967163086
1763701036194121700,0.682121826171875,8.62193775177002,5.006682395935059,-7.294220924377441
1763701036204201200,0.692201171875,8.16700267791748,4.894219398498535,-7.785048484802246
1763701036214315300,0.702315185546875,7.632805347442627,5.038087844848633,-7.622336387634277
1763701036224394500,0.71239453125,7.46500825881958,5.248656272888184,-7.143173694610596
1763701036244543500,0.73254345703125,7.2732834815979,5.4403815269470215,-7.627122402191162
1763701036254622700,0.742622802734375,7.043572425842285,5.454738140106201,-7.960023403167725
1763701036264702000,0.752701904296875,6.787241458892822,5.466702461242676,-8.099106788635254
1763701036274755800,0.762755859375,6.437291145324707,5.399703502655029,-8.25703239440918
1763701036284835000,0.7728349609375,6.262615203857422,5.274977684020996,-8.348258972167969
1763701036294914600,0.78291455078125,6.042176246643066,5.337490081787109,-8.075178146362305
1763701036305039600,0.79303955078125,7.108178615570068,4.887041091918945,-6.870092868804932
1763701036315119000,0.803119140625,3.2467613220214844,4.9277191162109375,-7.440182685852051
1763701036325198300,0.8131982421875,-1.0821540355682373,7.488637447357178,-6.920341968536377
1763701036335242200,0.8232421875,4.693521499633789,6.3601226806640625,-6.491727828979492
1763701036345321700,0.83332177734375,4.324728012084961,3.2605199813842773,-7.653443336486816
1763701036355401000,0.84340087890625,2.5567309856414795,3.840181350708008,-6.831807613372803
1763701036365485300,0.8534853515625,0.4749752879142761,4.578067779541016,-7.057032108306885
1763701036375564500,0.863564453125,-3.920639991760254,5.5722856521606445,-9.576973915100098
1763701036385643800,0.873643798828125,6.3224358558654785,7.009474754333496,-7.799704551696777
1763701036395698000,0.883697998046875,2.8944180011749268,5.715855121612549,-8.685946464538574
1763701036405777200,0.893777099609375,3.768695592880249,5.850152492523193,-7.500003337860107
1763701036415856400,0.9038564453125,4.451547622680664,5.1050872802734375,-7.282256603240967
1763701036426176800,0.9141767578125,4.032205104827881,4.908576488494873,-7.866703510284424
1763701036436256000,0.924256103515625,3.471686601638794,4.9277191162109375,-7.468896865844727
1763701036446335500,0.93433544921875,3.19860577583313,4.654638290405273,-7.552944660186768
1763701036456204800,0.944204833984375,3.191427230834961,4.625924587249756,-7.09292459487915
1763701036466284000,0.954283935546875,2.9566314220428467,4.611567497253418,-6.309574127197266
1763701036476363300,0.96436328125,2.6452653408050537,4.192225456237793,-5.943173408508301
1763701036486474500,0.974474609375,2.5806591510772705,3.809074640274048,-5.655735492706299
1763701036496553700,0.9845537109375,2.8369903564453125,3.5096726417541504,-5.756234169006348
1763701036516708400,1.004708251953125,3.625126361846924,4.295415878295898,-6.496513366699219
1763701036526787800,1.014787841796875,3.905385732650757,4.395914077758789,-6.740880489349365
1763701036536867000,1.0248671875,3.402294635772705,4.168296813964844,-6.724130630493164
1763701036546934300,1.034934326171875,2.528017044067383,4.441378116607666,-7.447361469268799
1763701036557013500,1.045013427734375,1.8523437976837158,4.779364109039307,-7.739584922790527
1763701036567092700,1.0550927734375,1.4093725681304932,4.532604217529297,-8.273782730102539
1763701036577138400,1.065138427734375,1.4452649354934692,4.2332024574279785,-9.33739185333252
1763701036587218000,1.075218017578125,1.4715858697891235,4.324129581451416,-8.534899711608887
1763701036597297200,1.085297119140625,0.997208833694458,3.4307093620300293,-7.758727550506592
1763701036607398100,1.095398193359375,1.3591232299804688,4.146761417388916,-8.556434631347656
1763701036617477600,1.1054775390625,1.4811571836471558,4.218845367431641,-8.973383903503418
1763701036627556900,1.115556884765625,1.4069796800613403,4.594817638397217,-9.634401321411133
1763701036637659600,1.12565966796875,1.2487542629241943,4.633102893829346,-10.27896785736084
1763701036647739000,1.13573876953125,0.8297112584114075,5.193621635437012,-10.506585121154785
1763701036657818000,1.145818115234375,0.5757729411125183,4.077369689941406,-10.434501647949219
1763701036667856400,1.1558564453125,1.3902299404144287,3.9696927070617676,-9.22253704071045
1763701036677935600,1.165935546875,2.4705893993377686,4.700101852416992,-9.172286987304688
1763701036688015000,1.17601513671875,3.675375461578369,4.5828537940979,-9.653543472290039
1763701036698712600,1.186712646484375,4.257429599761963,4.223630905151367,-9.596116065979004
1763701036708791800,1.196791748046875,3.9580278396606445,3.828217029571533,-8.899206161499023
1763701036718871300,1.206871337890625,3.565305709838867,3.5479576587677,-7.641479015350342
1763701036739002600,1.227002685546875,2.8034908771514893,2.8701908588409424,-5.863911151885986
1763701036749082000,1.23708203125,2.360220432281494,2.3336002826690674,-5.382654666900635
1763701036758585600,1.246585693359375,1.775773525238037,1.3800604343414307,-4.9704909324646
1763701036768666000,1.256666015625,0.8799605369567871,1.0256235599517822,-6.972984313964844
1763701036778747000,1.266746826171875,0.7073782086372375,1.2290135622024536,-8.489435195922852
1763701036788827400,1.276827392578125,1.313360571861267,1.090229868888855,-7.859525203704834
1763701036798928000,1.286927978515625,2.326720952987671,0.9104689955711365,-8.087141990661621
1763701036809008600,1.297008544921875,3.2778680324554443,0.5703890919685364,-8.726624488830566
1763701036819089200,1.307089111328125,3.579662561416626,0.6828517913818359,-8.855836868286133
1763701036829181000,1.317180908203125,3.5461630821228027,0.7836494445800781,-9.03799057006836
1763701036839261700,1.32726171875,3.0526435375213623,0.5608177781105042,-9.643972396850586
1763701036859372500,1.34737255859375,1.802094578742981,0.6828517913818359,-10.276575088500977
1763701036869453000,1.357453125,1.495514154434204,0.5584250092506409,-10.041779518127441
1763701036879533600,1.367533447265625,1.6202399730682373,0.40259242057800293,-9.495617866516113
1763701036889641200,1.37764111328125,1.7997016906738281,0.17527425289154053,-8.556434631347656
1763701036899721700,1.3877216796875,2.12542462348938,0.04336991161108017,-7.572087287902832
1763701036909802500,1.397802490234375,2.405683994293213,-0.15314064919948578,-6.714559555053711
1763701036919813400,1.4078134765625,2.5974090099334717,-0.524327278137207,-5.943173408508301
1763701036929894100,1.41789404296875,2.583052158355713,-0.6442674994468689,-5.351248741149902
1763701036939974700,1.427974609375,2.6596224308013916,-0.5291129350662231,-5.2507500648498535
1763701036950066000,1.43806591796875,2.6835505962371826,-0.9173483848571777,-5.725127220153809
1763701036960146700,1.448146728515625,2.784348249435425,-0.34695929288864136,-6.1899333000183105
1763701036970227200,1.458227294921875,2.6021945476531982,-0.002093719784170389,-6.218647003173828
1763701036980348000,1.468347900390625,2.5710878372192383,-0.12442677468061447,-5.943173408508301
1763701036990428400,1.478428466796875,2.7029922008514404,0.3332005441188812,-5.976672649383545
1763701037000509000,1.488509033203125,2.714956283569336,0.20159530639648438,-6.369394779205322
1763701037010584800,1.498584716796875,2.623729944229126,0.20159530639648438,-6.537191390991211
1763701037020665600,1.50866552734375,2.848954439163208,-0.0690927505493164,-6.8533430099487305
1763701037030746000,1.51874609375,3.184248685836792,0.05054837837815285,-7.519145965576172
1763701037040824300,1.52882421875,3.0000014305114746,0.1534397453069687,-8.077570915222168
1763701037050905000,1.538905029296875,2.8752756118774414,0.44356951117515564,-8.745766639709473
1763701037060985600,1.548985595703125,2.695514678955078,0.39062830805778503,-9.342177391052246
1763701037071070500,1.559070556640625,2.465803623199463,0.25423741340637207,-10.269396781921387
1763701037081151200,1.569151123046875,2.506481647491455,0.20159530639648438,-10.928021430969238
1763701037091231700,1.579231689453125,2.583052158355713,0.47706902027130127,-11.383255958557129
1763701037101301800,1.5893017578125,2.5232315063476562,0.8051848411560059,-11.857632637023926
1763701037111382300,1.59938232421875,2.3315064907073975,1.0806585550308228,-12.322139739990234
1763701037121462800,1.609462890625,2.24057936668396,1.339382529258728,-12.798909187316895
1763701037131550000,1.619550048828125,2.4008984565734863,1.5550355911254883,-12.84915828704834
1763701037141630700,1.629630615234375,2.142174482345581,1.5861423015594482,-13.884054183959961
1763701037151711200,1.639711181640625,1.8714864253997803,1.5430715084075928,-15.199209213256836
1763701037161769500,1.64976953125,1.8738791942596436,2.043470621109009,-14.557334899902344
1763701037171850000,1.65985009765625,1.7255241870880127,1.911865234375,-14.763117790222168
1763701037181930500,1.669930419921875,1.68484628200531,1.5981063842773438,-14.58604907989502
1763701037192008000,1.680008056640625,1.6345969438552856,1.4901303052902222,-14.140385627746582
1763701037202088400,1.69008837890625,1.8116658926010132,1.3465609550476074,-13.730913162231445
1763701037212169200,1.700169189453125,2.2860429286956787,0.9774680733680725,-13.41446304321289
1763701037222282000,1.710281982421875,2.865704298019409,0.4507479667663574,-13.206287384033203
1763701037232362500,1.720362548828125,3.354438304901123,0.03858426585793495,-13.306785583496094
1763701037242443300,1.730443359375,3.672982692718506,-0.2153540402650833,-13.503296852111816
1763701037252517400,1.740517333984375,3.8623149394989014,-0.45254257321357727,-13.634902000427246
1763701037262598000,1.750597900390625,4.161716938018799,-0.7447660565376282,-13.757234573364258
1763701037272678700,1.7606787109375,4.595416069030762,-1.2646067142486572,-13.750056266784668
1763701037282742800,1.77074267578125,5.059922695159912,-1.8753747940063477,-13.49611759185791
1763701037292823300,1.7808232421875,5.431408405303955,-2.407179594039917,-13.12702465057373
1763701037302904000,1.790904052734375,5.757131099700928,-2.7927231788635254,-12.844372749328613
1763701037312983000,1.800983154296875,6.008676528930664,-2.960519790649414,-12.669696807861328
1763701037323063600,1.8110634765625,6.133103370666504,-2.898306369781494,-12.698410987854004
1763701037333144300,1.821144287109375,6.006283760070801,-2.567797899246216,-12.64307689666748
1763701037343227600,1.8312275390625,5.869594097137451,-2.1245274543762207,-12.506686210632324
1763701037353308200,1.84130810546875,5.48883581161499,-1.949552297592163,-12.362817764282227
1763701037363389000,1.851388916015625,5.093421936035156,-1.6597216129302979,-12.171391487121582
1763701037373469400,1.861469482421875,4.508975028991699,-1.4898312091827393,-11.697014808654785
1763701037383550000,1.871550048828125,4.19282341003418,-1.4416756629943848,-11.059925079345703
1763701037393630700,1.881630615234375,4.133002758026123,-1.628614902496338,-10.535299301147461
1763701037403690000,1.89168994140625,4.233501434326172,-2.00727915763855,-10.209277153015137
1763701037413770500,1.9017705078125,4.47068977355957,-2.431107759475708,-9.845269203186035
1763701037423851000,1.91185107421875,5.045565605163574,-3.061018466949463,-9.584152221679688
1763701037433927700,1.921927734375,5.558228015899658,-3.681656837463379,-9.620044708251953
1763701037444008200,1.93200830078125,5.625226974487305,-3.9810585975646973,-9.713663101196289
1763701037454088700,1.942088623046875,5.591727256774902,-3.791726589202881,-9.5291166305542
1763701037464164000,1.9521640625,5.4266228675842285,-3.2814571857452393,-9.217751502990723
1763701037474244900,1.962244873046875,5.093421936035156,-2.6898317337036133,-8.791230201721191
1763701037484325400,1.972325439453125,4.870889663696289,-2.1005992889404297,-8.285746574401855
1763701037494403600,1.982403564453125,4.727021217346191,-1.6477575302124023,-7.849953651428223
1763701037504484400,1.992484375,4.571188449859619,-1.3722838163375854,-7.521838188171387
1763701037514564900,2.00256494140625,4.5568318367004395,-1.3100703954696655,-7.275078296661377
1763701037524632600,2.012632568359375,4.473083019256592,-1.3100703954696655,-7.10010290145874
1763701037534713000,2.022713134765625,4.367798805236816,-1.3148560523986816,-7.013961315155029
1763701037544793900,2.0327939453125,4.37019157409668,-1.4416756629943848,-7.023532867431641
1763701037554867200,2.0428671875,4.413262367248535,-1.6501502990722656,-7.0546393394470215
1763701037564948000,2.052947998046875,4.341477394104004,-1.8993029594421387,-7.140780925750732
1763701037575028500,2.063028564453125,4.264608383178711,-2.0814566612243652,-7.080960273742676
1763701037585139200,2.07313916015625,4.3295135498046875,-2.1939191818237305,-6.949056148529053
1763701037595219700,2.0832197265625,4.5185465812683105,-2.4047868251800537,-6.795915603637695
1763701037605300500,2.093300537109375,4.686343193054199,-2.639582395553589,-6.6831536293029785
1763701037625481700,2.113481689453125,5.316253662109375,-3.4683964252471924,-6.405287265777588
1763701037635562500,2.1235625,5.4194440841674805,-3.712763547897339,-6.271288871765137
1763701037645604000,2.13360400390625,5.500800132751465,-3.7558343410491943,-6.103492259979248
1763701037655684600,2.1436845703125,5.531907081604004,-3.681656837463379,-6.029314994812012
1763701037665765400,2.153765380859375,5.486443042755127,-3.568894863128662,-6.002993583679199
1763701037675811600,2.1638115234375,5.429015636444092,-3.5401811599731445,-5.986244201660156
1763701037685892000,2.17389208984375,5.1343994140625,-3.377469062805176,-6.053243160247803
1763701037695972900,2.183972900390625,4.758127689361572,-3.0804600715637207,-6.041278839111328
1763701037706128000,2.1941279296875,4.427618980407715,-2.7783660888671875,-5.878267765045166
1763701037716208600,2.204208740234375,4.183252334594727,-2.4981069564819336,-5.578866004943848
1763701037726289200,2.2142890625,3.8455650806427,-2.2345972061157227,-5.119144916534424
1763701037736307000,2.224306884765625,3.541377544403076,-1.8658034801483154,-4.6423749923706055
1763701037746387700,2.2343876953125,3.2033913135528564,-1.456331729888916,-4.292723655700684
1763701037756468200,2.24446826171875,2.7340989112854004,-1.0226325988769531,-4.000201225280762
1763701037766538500,2.25453857421875,2.063211441040039,-0.37836506962776184,-3.602693557739258
1763701037776618200,2.2646181640625,1.428515076637268,0.3236292600631714,-3.082852840423584
1763701037786698000,2.274697998046875,0.9278169870376587,0.865005373954773,-2.546262502670288
1763701037796811500,2.2848115234375,0.43190449476242065,1.3058829307556152,-2.095813512802124
1763701037806891300,2.294891357421875,0.0726819857954979,1.6722838878631592,-1.9091733694076538
1763701037816971000,2.304970947265625,-0.07118647545576096,1.8472590446472168,-1.918744683265686
1763701037827052000,2.315052001953125,0.015254244208335876,1.911865234375,-2.0216360092163086
1763701037837131800,2.3251318359375,0.3361915946006775,1.892722725868225,-2.3979074954986572
1763701037847211500,2.33521142578125,1.1099705696105957,1.7321045398712158,-3.5069806575775146
1763701037857259500,2.345259521484375,2.623729944229126,1.1931211948394775,-5.272285461425781
1763701037867339300,2.35533935546875,4.252644062042236,0.251844584941864,-6.9705915451049805
1763701037877419000,2.3654189453125,5.752345561981201,-1.5616158246994019,-7.7180495262146
1763701037887527700,2.375527587890625,7.608876705169678,-4.5391845703125,-7.572087287902832
1763701037897607400,2.385607421875,9.139386177062988,-7.583752155303955,-7.27747106552124
1763701037907687200,2.395687255859375,9.376574516296387,-8.230711936950684,-7.751548767089844
1763701037917732000,2.405732177734375,8.408976554870605,-6.113063812255859,-9.610472679138184
1763701037927811800,2.415811767578125,8.279465675354004,-2.775973320007324,-13.244572639465332
1763701037937891600,2.4258916015625,9.304789543151855,-0.349352091550827,-17.41257095336914
1763701037948552400,2.436552490234375,10.751550674438477,0.13668999075889587,-20.354246139526367
1763701037958632200,2.446632080078125,11.865408897399902,0.4217349886894226,-21.362821578979492
1763701037968712000,2.4567119140625,11.388938903808594,1.181157112121582,-19.508682250976562
1763701037978791700,2.466791748046875,9.46301555633545,2.082054853439331,-15.932310104370117
1763701037988871400,2.476871337890625,7.2661051750183105,2.4388844966888428,-12.626326560974121
1763701037998951200,2.486951171875,5.749952793121338,2.1418752670288086,-10.051350593566895
1763701038009012500,2.497012451171875,5.107779026031494,1.4997016191482544,-7.854739665985107
1763701038019092200,2.50709228515625,4.8828535079956055,0.8889335989952087,-5.859125137329102
1763701038039264300,2.52726416015625,4.590630054473877,0.6373881101608276,-2.0264217853546143
1763701038049344000,2.537343994140625,4.549653053283691,0.8219345808029175,-0.5676971673965454
1763701038059423700,2.547423828125,4.372584342956543,1.1715857982635498,0.4384847581386566
1763701038068959200,2.556959228515625,4.101896286010742,1.5311074256896973,1.058824062347412
1763701038079039000,2.5670390625,3.8168511390686035,1.7799609899520874,1.1261221170425415
1763701038089118700,2.57711865234375,3.6705899238586426,1.887937068939209,0.5437689423561096
1763701038099186000,2.58718603515625,3.9580278396606445,1.94297194480896,-0.5796613097190857
1763701038109265700,2.597265625,4.485046863555908,1.8664016723632812,-1.9402800798416138
1763701038119345400,2.607345458984375,4.875675201416016,1.6244274377822876,-3.379862070083618
1763701038129421600,2.617421630859375,5.392824172973633,1.0304092168807983,-5.100002288818359
1763701038139501300,2.627501220703125,6.142674922943115,-0.15553347766399384,-6.956234455108643
1763701038149581000,2.6375810546875,7.386045455932617,-2.7305097579956055,-8.52054214477539
1763701038159668500,2.64766845703125,9.426823616027832,-6.905985355377197,-10.391430854797363
1763701038169748200,2.657748291015625,11.729018211364746,-10.592427253723145,-13.028919219970703
1763701038179828000,2.667827880859375,13.326826095581055,-11.41645622253418,-15.889239311218262
1763701038189900000,2.677900146484375,13.70040512084961,-9.205488204956055,-18.59133529663086
1763701038199979800,2.687979736328125,13.803595542907715,-5.595615863800049,-20.902801513671875
1763701038210059500,2.6980595703125,14.184353828430176,-2.8600213527679443,-21.80340003967285
1763701038220134000,2.7081337890625,14.447863578796387,-1.3555340766906738,-21.2045955657959
1763701038230213600,2.718213623046875,13.973485946655273,-0.6658028960227966,-18.976879119873047
1763701038240293400,2.72829345703125,12.390035629272461,-0.6152545213699341,-15.625730514526367
1763701038250374400,2.73837451171875,9.977771759033203,-0.7591229677200317,-12.322139739990234
1763701038260454100,2.7484541015625,7.6136627197265625,-1.017846941947937,-9.701699256896973
1763701038270534000,2.758533935546875,5.98235559463501,-1.4416756629943848,-7.845168113708496
1763701038280615200,2.768615234375,5.163113117218018,-1.8801604509353638,-6.671189308166504
1763701038290695000,2.77869482421875,4.748556613922119,-1.973480463027954,-5.6533427238464355
1763701038300774700,2.788774658203125,4.497011184692383,-1.5759727954864502,-4.553840637207031
1763701038310851600,2.7988515625,4.211966037750244,-0.9795617461204529,-3.372683525085449
1763701038320931300,2.808931396484375,4.180859565734863,-0.45254257321357727,-2.2396819591522217
1763701038331011000,2.819010986328125,4.171288013458252,-0.040378883481025696,-1.3510475158691406
1763701038341084400,2.82908447265625,3.8862431049346924,0.31405797600746155,-0.7977072596549988
1763701038351164200,2.8391640625,3.5222349166870117,0.711864709854126,-0.3975076675415039
1763701038361244000,2.849243896484375,3.0789644718170166,1.090229868888855,-0.28504499793052673
1763701038371337000,2.8593369140625,2.664407968521118,1.394417405128479,-0.4621138870716095
1763701038381416700,2.869416748046875,2.480160713195801,1.6172490119934082,-0.7112665176391602
1763701038391496400,2.879496337890625,2.458625316619873,1.8400806188583374,-1.1258230209350586
1763701038401578000,2.889577880859375,2.583052158355713,2.05812668800354,-1.6767704486846924
1763701038411657700,2.89965771484375,2.7436702251434326,2.2447667121887207,-2.1053848266601562
1763701038421737500,2.909737548828125,2.7915267944335938,2.3213369846343994,-2.2947168350219727
1763701038431844400,2.91984423828125,2.599801778793335,2.278266191482544,-2.2947168350219727
1763701038441924000,2.929924072265625,2.374577283859253,2.256730794906616,-2.0694925785064697
1763701038452003800,2.94000390625,2.5016961097717285,2.295016050338745,-2.1053848266601562
1763701038462068000,2.95006787109375,2.6500511169433594,2.1155543327331543,-2.6973092555999756
1763701038472147700,2.960147705078125,2.5806591510772705,1.8496519327163696,-3.7175490856170654
1763701038482227500,2.9702275390625,2.7484560012817383,1.8448662757873535,-5.346463203430176
1763701038492324000,2.980323974609375,3.594019651412964,1.4111671447753906,-7.519145965576172
1763701038502403800,2.99040380859375,4.770092010498047,-0.38793638348579407,-10.25503921508789
1763701038512483600,3.000483642578125,6.571588516235352,-3.626621723175049,-12.758231163024902
1763701038522552000,3.010552001953125,9.594620704650879,-8.666504859924316,-14.816059112548828
1763701038532631800,3.0206318359375,11.997313499450684,-12.54018497467041,-17.120346069335938
1763701038542711600,3.030711669921875,14.61087417602539,-13.284951210021973,-19.089340209960938
1763701038552733200,3.040733154296875,15.226428031921387,-9.401998519897461,-20.771196365356445
1763701038562813000,3.05081298828125,15.080166816711426,-5.995516300201416,-22.268205642700195
1763701038572892700,3.060892578125,16.00977897644043,-3.473181962966919,-22.86701011657715
1763701038583040800,3.071040771484375,15.717555046081543,-1.8586249351501465,-21.564117431640625
1763701038593120500,3.08112060546875,13.652548789978027,-0.1052841991186142,-18.615262985229492
1763701038603200300,3.0912001953125,10.593624114990234,1.2699905633926392,-14.758332252502441
1763701038613254000,3.10125390625,7.699804306030273,1.8448662757873535,-11.124531745910645
1763701038623333600,3.111333740234375,5.484050273895264,1.6866408586502075,-8.163712501525879
1763701038633413400,3.121413330078125,4.195216178894043,1.2484551668167114,-5.931209087371826
1763701038643438600,3.1314384765625,3.649054527282715,0.8291130661964417,-4.311866283416748
1763701038653518300,3.141518310546875,3.672982692718506,0.6876373887062073,-3.2482566833496094
1763701038663598000,3.15159814453125,4.058825492858887,0.6110670566558838,-2.5582265853881836
1763701038673730000,3.16172998046875,4.719842433929443,0.3643072545528412,-2.179861545562744
1763701038683809800,3.171809814453125,5.268397331237793,0.1175474151968956,-2.196611166000366
1763701038693889500,3.1818896484375,5.651547908782959,0.20398813486099243,-2.258824586868286
1763701038714036700,3.20203662109375,6.04456901550293,0.6876373887062073,-2.426621198654175
1763701038724116500,3.212116455078125,6.075675964355469,0.7716853022575378,-2.7906293869018555
1763701038734214100,3.222214111328125,6.130710601806641,0.7980063557624817,-3.657728433609009
1763701038744294000,3.2322939453125,6.226722717285156,0.6302096843719482,-4.8436713218688965
1763701038754373600,3.24237353515625,6.255436420440674,0.16061821579933167,-6.148955821990967
1763701038764423400,3.25242333984375,6.03021240234375,-0.4405784606933594,-7.521838188171387
1763701038774503200,3.262503173828125,5.874379634857178,-0.9723833203315735,-8.71226692199707
1763701038784583000,3.2725830078125,6.217151641845703,-1.7964116334915161,-9.852447509765625
1763701038794670800,3.2826708984375,7.251748085021973,-3.137887716293335,-11.198709487915039
1763701038804750600,3.29275048828125,8.471190452575684,-4.984847545623779,-12.353245735168457
1763701038814830300,3.302830322265625,9.288040161132812,-6.3717875480651855,-13.04088306427002
1763701038824922600,3.312922607421875,9.465408325195312,-6.412465572357178,-13.280465126037598
1763701038835002400,3.32300244140625,8.554939270019531,-4.9776692390441895,-13.131811141967773
1763701038845082000,3.33308203125,7.486543655395508,-2.6108686923980713,-13.100704193115234
1763701038855107300,3.343107421875,7.1799635887146,-0.5673980712890625,-13.51286792755127
1763701038865187000,3.35318701171875,7.362117290496826,0.5632106065750122,-13.769198417663574
1763701038875266800,3.363266845703125,7.721339702606201,1.0088738203048706,-13.610973358154297
1763701038885447200,3.373447265625,7.82692289352417,1.114158034324646,-12.715160369873047
1763701038895527000,3.38352685546875,7.441080093383789,1.0758728981018066,-11.021341323852539
1763701038905606700,3.393606689453125,6.593123912811279,1.0639088153839111,-8.894420623779297
1763701038915633700,3.403633544921875,5.6685967445373535,1.1668001413345337,-6.889235496520996
1763701038925713400,3.41371337890625,4.997709274291992,1.2891331911087036,-5.348855972290039
1763701038935793200,3.423793212890625,4.173680782318115,1.3202399015426636,-4.309473514556885
1763701038945872600,3.43387255859375,3.651447296142578,1.5140584707260132,-3.698406457901001
1763701038955952400,3.443952392578125,2.949453115463257,2.347957134246826,-3.2865419387817383
1763701038966032100,3.4540322265625,2.3769702911376953,3.064009428024292,-2.7044878005981445
1763701038976147000,3.46414697265625,1.9507486820220947,3.435495138168335,-2.6371896266937256
1763701038986226700,3.474226806640625,1.5553346872329712,3.631706476211548,-2.3258235454559326
1763701038996306400,3.484306396484375,1.3348959684371948,3.5336008071899414,-1.810768485069275
1763701039006340600,3.494340576171875,1.277468204498291,3.212663412094116,-1.4324034452438354
1763701039016420400,3.50442041015625,1.0019944906234741,2.8172495365142822,-1.2406785488128662
1763701039026500000,3.5145,0.748056173324585,2.4125633239746094,-1.2550355195999146
1763701039036579600,3.52457958984375,0.7791628837585449,2.029113531112671,-1.2957134246826172
1763701039046659300,3.534659423828125,0.8392825126647949,1.6148561239242554,-1.6169499158859253
1763701039056739000,3.544739013671875,0.9493523836135864,1.2556337118148804,-2.1415762901306152
1763701039066875100,3.554875244140625,1.4069796800613403,0.9415757060050964,-2.9150562286376953
1763701039076955000,3.564954833984375,2.09431791305542,0.4049852192401886,-3.9523448944091797
1763701039087034600,3.57503466796875,2.9255247116088867,-0.32542386651039124,-4.7931227684021
1763701039097068500,3.585068603515625,3.6945180892944336,-1.111167073249817,-5.4759745597839355
1763701039107148300,3.595148193359375,4.458725929260254,-1.8658034801483154,-5.79691219329834
1763701039117228000,3.60522802734375,5.7164530754089355,-3.1187453269958496,-5.73469877243042
1763701039127320600,3.615320556640625,7.167999267578125,-4.4650068283081055,-6.017350673675537
1763701039137400000,3.625400146484375,8.811270713806152,-4.7596235275268555,-7.119245529174805
1763701039147479800,3.635479736328125,9.824630737304688,-3.784548044204712,-8.5133638381958
1763701039157559600,3.6455595703125,10.765907287597656,-2.905484914779663,-9.830911636352539
1763701039167611000,3.65561083984375,11.24746322631836,-1.0824531316757202,-10.810772895812988
1763701039177690600,3.665690673828125,11.180463790893555,-0.1818545162677765,-11.124531745910645
1763701039187770400,3.675770263671875,10.560124397277832,0.9032905697822571,-10.906485557556152
1763701039197845000,3.685844970703125,9.249754905700684,1.3968101739883423,-10.0704927444458
1763701039207924700,3.6959248046875,7.539186000823975,1.643570065498352,-8.70508861541748
1763701039218004500,3.70600439453125,6.013462543487549,1.705783486366272,-7.447361469268799
1763701039228738600,3.716738525390625,4.90199613571167,1.669891119003296,-6.712166786193848
1763701039238818300,3.726818359375,4.298107624053955,1.5981063842773438,-6.364609241485596
1763701039248898000,3.73689794921875,4.259822368621826,1.5957136154174805,-6.424429893493652
1763701039258944800,3.74694482421875,4.520939350128174,1.7799609899520874,-6.530013084411621
1763701039269024500,3.7570244140625,5.215754985809326,2.03629207611084,-6.532405853271484
1763701039279104000,3.76710400390625,5.958427429199219,2.4388844966888428,-6.613761901855469
1763701039288606500,3.7766064453125,6.81595516204834,2.9874391555786133,-6.661618232727051
1763701039298686200,3.786686279296875,7.601698398590088,3.5575289726257324,-6.482156753540039
1763701039308765700,3.796765625,8.435297966003418,4.108476638793945,-6.333502292633057
1763701039318845400,3.806845458984375,9.177969932556152,4.41266393661499,-6.233004093170166
1763701039328928500,3.816928466796875,9.565906524658203,4.161118507385254,-6.32153844833374
1763701039349088000,3.837087890625,9.692726135253906,2.6688945293426514,-7.552944660186768
1763701039359166200,3.847166259765625,9.894022941589355,1.643570065498352,-8.432007789611816
1763701039369246000,3.857245849609375,10.392328262329102,0.20159530639648438,-9.732806205749512
1763701039379325700,3.86732568359375,10.881061553955078,-0.7998009920120239,-11.63001537322998
1763701039389399600,3.877399658203125,11.21635627746582,-0.7734799385070801,-13.541581153869629
1763701039399479300,3.887479248046875,11.487044334411621,-0.10767702013254166,-14.696118354797363
1763701039409559000,3.89755908203125,11.9159574508667,0.6996015310287476,-14.839986801147461
1763701039419600400,3.907600341796875,11.903993606567383,1.3369896411895752,-13.989338874816895
1763701039429680000,3.91768017578125,11.381759643554688,1.1021939516067505,-12.552149772644043
1763701039439760000,3.927759765625,10.224531173706055,1.1333006620407104,-11.086246490478516
1763701039449847800,3.937847900390625,8.851948738098145,1.0758728981018066,-9.869196891784668
1763701039459927600,3.947927490234375,7.541578769683838,1.145264744758606,-8.918349266052246
1763701039470007300,3.95800732421875,6.576374053955078,1.2385848760604858,-8.247461318969727
1763701039480094200,3.96809423828125,6.0732831954956055,1.2098709344863892,-7.751548767089844
1763701039490174000,3.978174072265625,5.7164530754089355,0.9104689955711365,-7.3277201652526855
1763701039500253700,3.988253662109375,5.1774702072143555,0.5249254703521729,-6.841379165649414
1763701039510330400,3.998330322265625,4.465904235839844,0.28534409403800964,-6.187540054321289
1763701039520410000,4.00841015625,3.751945972442627,0.25423741340637207,-5.437689304351807
1763701039530489900,4.01848974609375,3.0215368270874023,0.29012975096702576,-4.841278553009033
1763701039540565800,4.028565673828125,2.5160529613494873,0.28534409403800964,-4.534399032592773
1763701039550645500,4.0386455078125,2.3171496391296387,0.2997010350227356,-4.445864677429199
1763701039560725200,4.048725341796875,2.4993033409118652,0.2925225794315338,-4.47697114944458
1763701039570848800,4.058848876953125,2.942274570465088,0.23030917346477509,-4.659124851226807
1763701039580928500,4.068928466796875,3.5294134616851807,0.22791635990142822,-5.0638108253479
1763701039591008300,4.07900830078125,4.216751575469971,0.2949153780937195,-5.856732368469238
1763701039601073200,4.0890732421875,5.0240302085876465,0.37148571014404297,-7.03788948059082
1763701039611153000,4.09915283203125,5.867201328277588,0.6158527135848999,-8.475078582763672
1763701039621232600,4.109232666015625,6.581159591674805,0.7812566161155701,-9.761520385742188
1763701039631273200,4.119273193359375,7.282855033874512,0.532103955745697,-10.822736740112305
1763701039641353000,4.12935302734375,7.721339702606201,-0.1339980661869049,-11.421540260314941
1763701039651432700,4.1394326171875,8.157431602478027,-1.5831513404846191,-11.340185165405273
1763701039661532000,4.149531982421875,8.986245155334473,-4.366602420806885,-11.105388641357422
1763701039671611600,4.159611572265625,10.164710998535156,-7.068696975708008,-11.378469467163086
1763701039681691400,4.16969140625,11.467901229858398,-8.704790115356445,-11.898310661315918
1763701039691756000,4.179756103515625,12.945768356323242,-9.193523406982422,-13.46740436553955
1763701039701835800,4.189835693359375,13.528121948242188,-7.3899335861206055,-15.685550689697266
1763701039711915500,4.19991552734375,13.528121948242188,-5.461318492889404,-17.30728530883789
1763701039721992200,4.2099921875,13.424931526184082,-4.486542224884033,-18.636798858642578
1763701039732072000,4.220072021484375,12.62722396850586,-4.095914363861084,-18.452251434326172
1763701039742151700,4.230151611328125,10.770692825317383,-3.7007992267608643,-16.804195404052734
1763701039752259800,4.240259765625,8.344071388244629,-3.123530864715576,-14.571691513061523
1763701039762339600,4.250339599609375,6.360720634460449,-2.6276183128356934,-12.24796199798584
1763701039772419300,4.26041943359375,4.947459697723389,-2.3234307765960693,-10.235897064208984
1763701039782485000,4.270485107421875,4.197608947753906,-2.055135488510132,-8.671588897705078
1763701039792564700,4.280564697265625,4.06121826171875,-1.9710876941680908,-7.53140926361084
1763701039802644500,4.29064453125,4.499403953552246,-1.9232312440872192,-6.606583118438721
1763701039812728600,4.300728515625,5.074279308319092,-1.8011972904205322,-5.842375755310059
1763701039822808300,4.310808349609375,5.405087471008301,-1.6262221336364746,-5.265107154846191
1763701039832888000,4.32088818359375,5.541478157043457,-1.3124631643295288,-4.877170562744141
1763701039842980600,4.330980712890625,5.440979480743408,-0.8859425783157349,-4.505684852600098
1763701039853060400,4.341060302734375,5.153541564941406,-0.33499518036842346,-4.309473514556885
1763701039863140000,4.35114013671875,4.844269275665283,0.22073788940906525,-4.508078098297119
1763701039873196800,4.36119677734375,4.662415027618408,0.6780661344528198,-4.66869592666626
1763701039883276500,4.371276611328125,4.506582260131836,0.9391828775405884,-4.889134883880615
1763701039893356300,4.381356201171875,4.441976070404053,1.1261221170425415,-5.162215709686279
1763701039903445500,4.391445556640625,4.374977111816406,1.2242279052734375,-5.358427047729492
1763701039913525500,4.401525390625,4.051646709442139,1.0686944723129272,-5.531009674072266
1763701039923605200,4.411605224609375,3.5820555686950684,0.7980063557624817,-5.5932230949401855
1763701039933671700,4.421671630859375,3.050250768661499,0.5129613280296326,-5.473581790924072
1763701039943751400,4.43175146484375,2.5974090099334717,0.21595224738121033,-5.408975601196289
1763701039953831200,4.4418310546875,2.3171496391296387,-0.02841476909816265,-5.574080467224121
1763701039963923200,4.451923095703125,2.298007011413574,-0.3807578980922699,-5.9264235496521
1763701039974003200,4.462003173828125,2.5495524406433105,-0.5913262963294983,-6.728916168212891
1763701039984083000,4.4720830078125,3.2491540908813477,-0.8189435601234436,-7.914559841156006
1763701039994156500,4.482156494140625,4.094717979431152,-1.4706885814666748,-8.982954978942871
1763701040004236300,4.492236328125,5.1343994140625,-2.797508716583252,-9.814162254333496
1763701040014316000,4.50231591796875,6.358327865600586,-4.900799751281738,-10.68126106262207
1763701040024415200,4.512415283203125,7.45782995223999,-7.226922512054443,-11.610873222351074
1763701040034495000,4.522494873046875,8.413763046264648,-9.260522842407227,-12.626326560974121
1763701040044574700,4.53257470703125,9.046066284179688,-10.460822105407715,-13.89123249053955
1763701040054638300,4.542638427734375,9.465408325195312,-10.257133483886719,-15.196816444396973
1763701040064718000,4.552718017578125,9.429216384887695,-8.86780071258545,-16.14766502380371
1763701040074797800,4.5627978515625,9.328718185424805,-7.272386074066162,-16.509578704833984
1763701040084882200,4.572882080078125,9.496515274047852,-6.127420425415039,-16.758731842041016
1763701040094962000,4.5829619140625,9.606584548950195,-5.633901119232178,-16.789838790893555
1763701040105041700,4.593041748046875,9.264111518859863,-5.50229549407959,-16.291532516479492
1763701040115114200,4.6031142578125,8.46161937713623,-5.341677665710449,-15.36461353302002
1763701040125194000,4.613194091796875,7.441080093383789,-5.0087761878967285,-14.248062133789062
1763701040135273700,4.623273681640625,6.43968391418457,-4.60139799118042,-13.122239112854004
1763701040145401300,4.6334013671875,5.5845489501953125,-4.0935211181640625,-12.082557678222656
1763701040155481300,4.6434814453125,4.8059844970703125,-3.451646566390991,-11.184351921081543
1763701040165561000,4.65356103515625,3.87667179107666,-2.797508716583252,-10.283753395080566
1763701040175578400,4.663578369140625,3.1387851238250732,-2.2010977268218994,-9.272786140441895
1763701040185658000,4.673658203125,2.6811578273773193,-1.8945173025131226,-8.259425163269043
1763701040195737900,4.68373779296875,2.3650059700012207,-1.8993029594421387,-7.198208808898926
1763701040205824300,4.69382421875,2.2429721355438232,-2.0431714057922363,-6.024528980255127
1763701040215904000,4.703904052734375,2.142174482345581,-2.2995026111602783,-4.795515537261963
1763701040225983700,4.713983642578125,1.8957136869430542,-2.673082113265991,-3.626621723175049
1763701040236156400,4.724156494140625,1.708774447441101,-3.0442686080932617,-2.7451658248901367
1763701040246236200,4.734236083984375,1.7255241870880127,-3.425325632095337,-2.203789710998535
1763701040256316000,4.74431591796875,1.8690935373306274,-3.8611185550689697,-1.968993902206421
1763701040266296800,4.754296875,2.1302103996276855,-4.256532192230225,-2.0288145542144775
1763701040276376600,4.76437646484375,2.422433853149414,-4.54636287689209,-2.4577279090881348
1763701040286456300,4.774456298828125,2.896811008453369,-4.824229717254639,-3.3511481285095215
1763701040296563000,4.78456298828125,3.4214372634887695,-5.18823766708374,-4.553840637207031
1763701040306642700,4.794642578125,3.869493246078491,-5.456532955169678,-5.79691219329834
1763701040316722400,4.804722412109375,4.2622151374816895,-5.509474277496338,-6.865307331085205
1763701040326772200,4.814772216796875,4.770092010498047,-5.4541401863098145,-7.706085205078125
1763701040336852200,4.824852294921875,5.385645389556885,-5.293820858001709,-8.25703239440918
1763701040346932000,4.834931884765625,6.066104412078857,-5.066203594207764,-8.463114738464355
1763701040357005800,4.845005859375,6.700800895690918,-4.907978534698486,-8.518149375915527
1763701040367085600,4.85508544921875,7.345367431640625,-4.764409065246582,-8.642875671386719
1763701040377165300,4.865165283203125,7.970492362976074,-4.695017337799072,-8.894420623779297
1763701040387263700,4.875263671875,8.406583786010742,-4.764409065246582,-9.232108116149902
1763701040397343500,4.885343505859375,8.763413429260254,-5.082953453063965,-9.672686576843262
1763701040407423200,4.89542333984375,8.928817749023438,-5.566901683807373,-10.068099975585938
1763701040417518600,4.9055185546875,8.547760963439941,-5.631507873535156,-10.27178955078125
1763701040427598300,4.915598388671875,7.599305629730225,-4.946263313293457,-10.211669921875
1763701040437678000,4.925677978515625,6.403791427612305,-3.9738802909851074,-9.926624298095703
1763701040447738600,4.935738525390625,5.66620397567749,-3.3655049800872803,-9.667901039123535
1763701040457818400,4.945818359375,5.323431968688965,-3.2048869132995605,-9.51476001739502
1763701040467898000,4.955898193359375,5.079065322875977,-3.434896945953369,-9.311071395874023
1763701040478602200,4.966602294921875,4.873282432556152,-3.978665828704834,-9.054739952087402
1763701040488682200,4.97668212890625,4.643272399902344,-4.548755645751953,-8.62612533569336
1763701040498762000,4.986761962890625,4.508975028991699,-5.0087761878967285,-8.312067985534668
1763701040508805000,4.99680517578125,4.508975028991699,-5.466104030609131,-8.158926963806152
1763701040518885000,5.006885009765625,4.523332118988037,-5.849554061889648,-8.029415130615234
1763701040528964900,5.01696484375,4.482654094696045,-5.950052738189697,-7.981558799743652
1763701040539016400,5.027016357421875,4.453940391540527,-5.755934715270996,-7.948059558868408
1763701040549096200,5.03709619140625,4.695914268493652,-5.279464244842529,-7.986344814300537
1763701040559176000,5.047176025390625,5.321039199829102,-4.776372909545898,-8.166105270385742
1763701040569254100,5.057254150390625,5.6563334465026855,-4.321138381958008,-8.190033912658691
1763701040579334000,5.067333984375,5.85284423828125,-3.8132619857788086,-7.943274021148682
1763701040589413600,5.07741357421875,6.018248081207275,-3.2216365337371826,-7.674978733062744
1763701040598942000,5.08694189453125,6.214758396148682,-2.6922245025634766,-7.392326354980469
1763701040609021700,5.097021728515625,6.351149559020996,-2.3712873458862305,-7.021139621734619
1763701040619101400,5.107101318359375,6.502196311950684,-2.2106690406799316,-6.58265495300293
1763701040629185300,5.117185302734375,6.636194705963135,-2.1556341648101807,-6.271288871765137
1763701040639265000,5.12726513671875,6.6577301025390625,-2.205883264541626,-6.1704912185668945
1763701040649344800,5.1373447265625,6.717550277709961,-2.306680917739868,-6.264110565185547
1763701040659405600,5.147405517578125,6.662515640258789,-2.4430718421936035,-6.350252151489258
1763701040669485300,5.1574853515625,6.473183631896973,-2.622832775115967,-6.378965854644775
1763701040679565000,5.16756494140625,6.255436420440674,-2.7687950134277344,-6.405287265777588
1763701040689656800,5.17765673828125,5.9799628257751465,-2.867199659347534,-6.378965854644775
1763701040699736600,5.187736572265625,5.747560024261475,-2.922234535217285,-6.32153844833374
1763701040709816300,5.19781640625,5.577370643615723,-2.919841766357422,-6.185147285461426
1763701040719912000,5.207911865234375,5.491229057312012,-2.967698335647583,-6.026922225952148
1763701040729991700,5.21799169921875,5.436193943023682,-3.0275187492370605,-5.80409049987793
1763701040740071400,5.228071533203125,5.2971110343933105,-3.008376359939575,-5.674878120422363
1763701040750129400,5.23812939453125,5.222933769226074,-2.960519790649414,-5.62672233581543
1763701040760209200,5.248209228515625,5.234897613525391,-3.063411235809326,-5.68684196472168
1763701040770289000,5.258288818359375,5.342574596405029,-3.1977083683013916,-5.725127220153809
1763701040780366600,5.26836669921875,5.498407363891602,-3.319742202758789,-5.751448154449463
1763701040790446300,5.2784462890625,5.6925249099731445,-3.5162527561187744,-5.839982986450195
1763701040800526000,5.288526123046875,5.84566593170166,-3.7749767303466797,-5.967101573944092
1763701040810600200,5.29860009765625,5.965605735778809,-3.9690945148468018,-6.096313953399658
1763701040820680000,5.308679931640625,6.1211395263671875,-4.136591911315918,-6.240182399749756
1763701040830759700,5.318759765625,6.204888343811035,-4.4721856117248535,-6.38375186920166
1763701040840836000,5.328836181640625,6.209972858428955,-4.929513931274414,-6.5491557121276855
1763701040850915600,5.33891552734375,6.140282154083252,-5.485246658325195,-6.843771934509277
1763701040860995000,5.3489951171875,5.931807518005371,-5.885446548461914,-7.226922512054443
1763701040871074300,5.35907421875,5.503192901611328,-5.820840358734131,-7.433004379272461
1763701040881153800,5.36915380859375,5.107779026031494,-5.5381879806518555,-7.332505702972412
1763701040891233300,5.3792333984375,5.0551371574401855,-5.4158549308776855,-7.193423271179199
1763701040901325600,5.38932568359375,5.479264736175537,-5.473282814025879,-7.308577537536621
1763701040911405000,5.399405029296875,6.03021240234375,-5.494818210601807,-7.603193759918213
1763701040921484500,5.409484619140625,6.511767864227295,-5.30339241027832,-7.881060600280762
1763701040931560400,5.419560546875,7.014858722686768,-5.2268218994140625,-8.11824893951416
1763701040941640000,5.429639892578125,7.4841508865356445,-5.300999641418457,-8.388936996459961
1763701040951719700,5.4397197265625,7.910671710968018,-5.396712303161621,-8.659625053405762
1763701040961798700,5.449798583984375,8.32253646850586,-5.394319534301758,-8.824729919433594
1763701040971878100,5.459878173828125,8.528617858886719,-5.291428089141846,-8.827122688293457
1763701040981957600,5.46995751953125,8.466404914855957,-5.0255255699157715,-8.638090133666992
1763701040992042800,5.480042724609375,8.09252643585205,-4.575077056884766,-8.278568267822266
1763701041002122500,5.49012255859375,7.4506516456604,-3.978665828704834,-7.804490089416504
1763701041012202000,5.500201904296875,6.707979202270508,-3.466003656387329,-7.275078296661377
1763701041022275300,5.510275390625,6.090032577514648,-3.068495988845825,-6.755237579345703
1763701041032354800,5.520354736328125,5.646762371063232,-2.9246275424957275,-6.331109523773193
1763701041042434600,5.5304345703125,5.405087471008301,-2.936591625213623,-6.031707763671875
1763701041052518700,5.5405185546875,5.280361175537109,-3.0275187492370605,-5.727519989013672
1763701041062598100,5.55059814453125,5.043172836303711,-3.022733211517334,-5.437689304351807
1763701041072677600,5.560677734375,4.880460739135742,-3.075674295425415,-5.138287544250488
1763701041082754800,5.5707548828125,4.7365922927856445,-3.2814571857452393,-4.814658164978027
1763701041092834300,5.580834228515625,4.595416069030762,-3.5401811599731445,-4.455435752868652
1763701041102913800,5.590913818359375,4.4635114669799805,-3.6960136890411377,-4.067499160766602
1763701041113018600,5.6010185546875,4.307679176330566,-3.7510485649108887,-3.6864423751831055
1763701041123098000,5.61109814453125,4.111467361450195,-3.67447829246521,-3.291327476501465
1763701041133177900,5.621177734375,4.013062477111816,-3.511467218399048,-2.881556749343872
1763701041143233000,5.63123291015625,3.874279022216797,-3.2048869132995605,-2.529512643814087
1763701041153312500,5.6413125,3.768695592880249,-2.836092948913574,-2.352144718170166
1763701041163392300,5.651392333984375,3.6849467754364014,-2.447857618331909,-2.258824586868286
1763701041173467400,5.66146728515625,3.565305709838867,-1.9953149557113647,-2.227717876434326
1763701041183547000,5.671546875,3.368795156478882,-1.475474238395691,-2.2372891902923584
1763701041193626400,5.68162646484375,3.1866414546966553,-0.9436694383621216,-2.3018953800201416
1763701041203711500,5.69171142578125,3.0693931579589844,-0.47647079825401306,-2.3330020904541016
1763701041213791200,5.701791259765625,3.1316065788269043,-0.03798605874180794,-2.4409782886505127
1763701041223870700,5.71187060546875,3.3209388256073,0.3044866919517517,-2.65633225440979
1763701041233941800,5.721941650390625,3.548556089401245,0.44835513830184937,-2.7690939903259277
1763701041244021200,5.732021240234375,3.7016966342926025,0.4265206456184387,-2.8384859561920166
1763701041254100700,5.742100830078125,3.7543387413024902,0.32602208852767944,-3.018246650695801
1763701041264193300,5.752193359375,3.929313898086548,0.22552353143692017,-3.4806597232818604
1763701041274272800,5.762272705078125,4.475475788116455,-0.1459621787071228,-4.644767761230469
1763701041284352500,5.7723525390625,5.496014595031738,-0.9101698994636536,-6.414858341217041
1763701041294455300,5.782455322265625,6.780063152313232,-1.8873388767242432,-8.534899711608887
1763701041304534800,5.79253466796875,8.200502395629883,-3.255136013031006,-10.700404167175293
1763701041314614300,5.8026142578125,9.917950630187988,-5.686542987823486,-12.125927925109863
1763701041324685300,5.812685302734375,11.697911262512207,-8.980263710021973,-13.22542953491211
1763701041334765000,5.82276513671875,12.643974304199219,-10.786545753479004,-14.008780479431152
1763701041344844500,5.832844482421875,11.935100555419922,-9.964909553527832,-13.22542953491211
1763701041354940400,5.8429404296875,11.012666702270508,-7.40907621383667,-11.816655158996582
1763701041365020000,5.85302001953125,9.771988868713379,-4.048057556152344,-11.102995872497559
1763701041375099400,5.863099365234375,9.630513191223145,-1.4273186922073364,-10.654940605163574
1763701041385102800,5.873102783203125,9.57787036895752,0.24945175647735596,-10.669297218322754
1763701041395182600,5.8831826171875,9.793523788452148,0.7980063557624817,-10.571191787719727
1763701041405262000,5.893261962890625,9.611370086669922,0.8434699773788452,-10.00110149383545
1763701041415441000,5.90344091796875,8.756235122680664,0.8769695162773132,-8.872885704040527
1763701041425520400,5.913520263671875,7.565805912017822,0.7525427341461182,-7.392326354980469
1763701041435600000,5.923599853515625,6.437291145324707,0.4746761918067932,-5.694020748138428
1763701041445621200,5.933621337890625,5.54387092590332,0.251844584941864,-3.830310821533203
1763701041455700700,5.94370068359375,4.817948341369629,0.1824527233839035,-2.095813512802124
1763701041465780200,5.9537802734375,4.142574310302734,0.28534409403800964,-0.7208378314971924
1763701041475861500,5.963861572265625,3.5461630821228027,0.5392823815345764,0.10319047421216965
1763701041485941000,5.97394091796875,3.191427230834961,0.7043871879577637,0.20608185231685638
1763701041496020500,5.9840205078125,3.119642496109009,0.5081757307052612,-0.33768710494041443
1763701041506150000,5.99414990234375,3.3640096187591553,0.026620151475071907,-1.5233306884765625
1763701041516229400,6.0042294921875,3.87667179107666,-0.5602195858955383,-3.276970624923706
1763701041526309000,6.01430908203125,4.554438591003418,-1.3411771059036255,-5.401797294616699
1763701041536347400,6.024347412109375,5.517549991607666,-2.649153709411621,-7.936095237731934
1763701041546427100,6.03442724609375,6.640980243682861,-4.673182487487793,-10.243075370788574
1763701041556506600,6.044506591796875,7.980063438415527,-7.260422229766846,-11.95334529876709
1763701041566582500,6.05458251953125,9.518050193786621,-9.411569595336914,-13.522439002990723
1763701041576662300,6.064662353515625,10.718050956726074,-10.005587577819824,-14.57647705078125
1763701041586741800,6.07474169921875,11.4080810546875,-8.95394229888916,-15.00987720489502
1763701041596789200,6.084789306640625,11.712268829345703,-6.836294174194336,-15.105889320373535
1763701041606868700,6.09486865234375,11.80319595336914,-4.646861553192139,-14.97159194946289
1763701041616948500,6.104948486328125,11.602198600769043,-3.061018466949463,-14.52353572845459
1763701041627050500,6.115050537109375,11.381759643554688,-2.2178475856781006,-13.48176097869873
1763701041637130200,6.125130126953125,11.000702857971191,-1.9663020372390747,-11.790334701538086
1763701041647209700,6.135209716796875,10.092926025390625,-1.9806588888168335,-9.7998046875
1763701041657287700,6.14528759765625,8.957531929016113,-1.9878374338150024,-8.127820014953613
1763701041667367400,6.155367431640625,7.788338661193848,-2.0383858680725098,-6.738487720489502
1763701041677447000,6.165447021484375,6.768098831176758,-1.9351953268051147,-5.329713344573975
1763701041687552000,6.175552001953125,5.7547383308410645,-1.5568302869796753,-3.8949170112609863
1763701041697631700,6.1856318359375,4.89481782913208,-1.0154540538787842,-2.53190541267395
1763701041707711200,6.195711181640625,4.113860130310059,-0.5123631358146667,-1.3462618589401245
1763701041717802800,6.205802734375,3.457329511642456,-0.11724831163883209,-0.4094717800617218
1763701041727882200,6.21588232421875,2.7652056217193604,0.2063809484243393,0.27786654233932495
1763701041737961700,6.225961669921875,2.1230318546295166,0.5009972453117371,0.7977072596549988
1763701041748637400,6.236637451171875,1.6250256299972534,0.745364248752594,1.173978567123413
1763701041758717000,6.246717041015625,1.4715858697891235,0.8721838593482971,1.3920245170593262
1763701041768796400,6.25679638671875,1.2008978128433228,1.2457633018493652,1.5619150400161743
1763701041778816500,6.26681640625,0.9996016621589661,1.430309772491455,1.705783486366272
1763701041788896000,6.27689599609375,0.99481600522995,1.1907284259796143,1.303191065788269
1763701041798975500,6.2869755859375,1.277468204498291,0.898504912853241,0.6326025128364563
1763701041809075700,6.29707568359375,1.826022744178772,0.8171489238739014,-0.35922250151634216
1763701041819155200,6.3071552734375,2.638087034225464,0.8937192559242249,-1.851446509361267
1763701041829234700,6.317234619140625,3.953242063522339,1.176371455192566,-3.8566319942474365
1763701041839301000,6.327301025390625,5.582156181335449,1.1859427690505981,-6.175576210021973
1763701041849380600,6.337380615234375,7.256533622741699,0.26141586899757385,-8.762516975402832
1763701041859460400,6.34746044921875,8.519046783447266,-1.3028919696807861,-11.318649291992188
1763701041868989400,6.356989501953125,9.302396774291992,-3.626621723175049,-12.868301391601562
1763701041879069400,6.3670693359375,10.30618667602539,-7.135995388031006,-13.72343635559082
1763701041889149200,6.377149169921875,11.903993606567383,-9.75643539428711,-14.688940048217773
1763701041899218400,6.387218505859375,12.533904075622559,-9.507282257080078,-14.425430297851562
1763701041909298200,6.397298095703125,13.144672393798828,-6.376573085784912,-13.366606712341309
1763701041919378200,6.407378173828125,12.902697563171387,-2.555833578109741,-13.32114315032959
1763701041929442800,6.41744287109375,13.939986228942871,-0.7447660565376282,-13.984552383422852
1763701041939522600,6.4275224609375,14.253745079040527,0.06729813665151596,-14.6937255859375
1763701041949602600,6.4376025390625,13.508979797363281,0.7956135272979736,-14.449358940124512
1763701041959704000,6.4477041015625,11.522936820983887,1.339382529258728,-12.892229080200195
1763701041969784000,6.4577841796875,9.06999397277832,1.3298112154006958,-10.353145599365234
1763701041979863800,6.46786376953125,6.952346324920654,0.8482556343078613,-7.5673017501831055
1763701041989922600,6.477922607421875,5.289932727813721,0.2590230405330658,-5.140680313110352
1763701042000002600,6.48800244140625,4.118646144866943,-0.1459621787071228,-3.243471145629883
1763701042010082300,6.498082275390625,3.368795156478882,-0.1986042857170105,-1.638485312461853
1763701042020161800,6.508161865234375,3.08135724067688,-0.042771704494953156,-0.5078766345977783
1763701042030241800,6.51824169921875,3.191427230834961,0.18963119387626648,-0.05503492057323456
1763701042040321500,6.528321533203125,3.5437703132629395,0.4097708761692047,-0.3975076675415039
1763701042050399500,6.5383994140625,4.039383888244629,0.7094719409942627,-1.1832507848739624
1763701042060479200,6.548479248046875,4.508975028991699,1.0351948738098145,-2.102992057800293
1763701042080644600,6.56864453125,5.189434051513672,2.0605194568634033,-3.626621723175049
1763701042090724600,6.578724609375,5.498407363891602,2.1969103813171387,-4.179962158203125
1763701042100804400,6.588804443359375,5.78345251083374,2.0554347038269043,-4.841278553009033
1763701042110882800,6.5988828125,5.900700569152832,1.5574284791946411,-5.473581790924072
1763701042120962800,6.608962890625,6.049354553222656,0.7262216806411743,-6.4941205978393555
1763701042131042600,6.61904248046875,6.50698184967041,-0.41904306411743164,-8.099106788635254
1763701042141124000,6.6291240234375,7.340581893920898,-2.2274186611175537,-9.82373332977295
1763701042151204000,6.6392041015625,8.739485740661621,-5.212165832519531,-11.414361953735352
1763701042161283800,6.649283935546875,10.667801856994629,-8.922835350036621,-13.249358177185059
1763701042171361800,6.65936181640625,12.629616737365723,-10.918449401855469,-15.306886672973633
1763701042181441800,6.66944189453125,13.731512069702148,-9.413962364196777,-16.650754928588867
1763701042191521500,6.679521484375,13.908880233764648,-5.705685615539551,-16.998313903808594
1763701042201608700,6.689608642578125,14.63240909576416,-2.4837498664855957,-17.14666748046875
1763701042211688700,6.699688720703125,15.600007057189941,-1.0058828592300415,-16.495222091674805
1763701042221768400,6.7097685546875,15.662519454956055,-0.7591229677200317,-14.382359504699707
1763701042231841300,6.71984130859375,14.419149398803711,-0.8380861282348633,-11.725728034973145
1763701042241921300,6.72992138671875,11.935100555419922,-0.9723833203315735,-9.30867862701416
1763701042252001000,6.7400009765625,9.024530410766602,-1.0082756280899048,-7.296613693237305
1763701042262073600,6.750073486328125,6.648158550262451,-0.9436694383621216,-5.725127220153809
1763701042272153600,6.760153564453125,4.878067970275879,-0.8045865893363953,-4.474578380584717
1763701042282233300,6.7702333984375,3.555734395980835,-0.4334000051021576,-3.4806597232818604
1763701042292318700,6.780318603515625,2.630908489227295,0.13190434873104095,-2.678166627883911
1763701042302398700,6.790398681640625,2.3243281841278076,0.22552353143692017,-2.1149561405181885
1763701042312478500,6.800478515625,1.9268203973770142,1.1069796085357666,-1.6552350521087646
1763701042322559000,6.81055908203125,1.4835500717163086,1.363310694694519,-1.1617153882980347
1763701042332639000,6.820638916015625,1.7853448390960693,1.425524115562439,-1.0154540538787842
1763701042342718700,6.83071875,1.7925232648849487,1.4039887189865112,-1.2502498626708984
1763701042352791300,6.840791259765625,1.7877376079559326,1.277169108390808,-1.425225019454956
1763701042362871000,6.85087109375,1.8044873476028442,1.1979068517684937,-1.602592945098877
1763701042372951000,6.860950927734375,1.7183457612991333,1.3202399015426636,-1.8948163986206055
1763701042383032600,6.871032470703125,1.8547366857528687,1.4374881982803345,-2.2923240661621094
1763701042393112600,6.881112548828125,2.168794631958008,1.6244274377822876,-3.1091740131378174
1763701042403192300,6.8911923828125,2.6811578273773193,1.6603198051452637,-4.4650068283081055
1763701042413271300,6.901271240234375,3.6681971549987793,1.2508480548858643,-6.0747785568237305
1763701042423351000,6.91135107421875,4.789234638214111,0.5392823815345764,-7.598408222198486
1763701042433431000,6.92143115234375,5.888736724853516,-0.7758727669715881,-8.5133638381958
1763701042443510500,6.931510498046875,6.935596466064453,-2.7161529064178467,-8.685946464538574
1763701042453590500,6.941590576171875,7.953742504119873,-5.202594757080078,-8.532505989074707
1763701042463670300,6.951670166015625,8.303393363952637,-6.558427810668945,-8.683553695678711
1763701042473749000,6.9617490234375,8.447261810302734,-6.381359100341797,-9.112167358398438
1763701042483828700,6.971828857421875,8.100004196166992,-3.255136013031006,-10.18774127960205
1763701042493908700,6.98190869140625,8.200502395629883,-0.35413774847984314,-12.044272422790527
1763701042503989500,6.991989501953125,9.508479118347168,1.6220346689224243,-13.807483673095703
1763701042514069500,7.002069580078125,10.368399620056152,2.845963478088379,-14.839986801147461
1763701042524149200,7.012149169921875,10.207781791687012,3.5096726417541504,-14.485251426696777
1763701042534232800,7.02223291015625,8.756235122680664,3.73250412940979,-12.892229080200195
1763701042544312800,7.032312744140625,6.712764739990234,3.3394830226898193,-10.635797500610352
1763701042554392600,7.042392578125,4.762913703918457,2.8435707092285156,-8.280961036682129
1763701042564460800,7.052460693359375,3.13639235496521,2.345564365386963,-6.362216472625732
1763701042574540500,7.06254052734375,2.032104730606079,1.7847466468811035,-4.987240791320801
1763701042584620500,7.07262060546875,1.5433706045150757,1.2074781656265259,-4.072285175323486
1763701042594704600,7.08270458984375,1.5601203441619873,0.8602197170257568,-3.8087754249572754
1763701042604784600,7.09278466796875,2.3147568702697754,0.7716853022575378,-4.393222332000732
1763701042614864400,7.102864501953125,3.6299118995666504,0.711864709854126,-5.890232086181641
1763701042624975000,7.11297509765625,5.153541564941406,0.5512465238571167,-7.588837146759033
1763701042635054800,7.123054931640625,6.418148517608643,-0.1339980661869049,-8.887242317199707
1763701042645134800,7.133134765625,7.4506516456604,-1.6453646421432495,-9.766305923461914
1763701042655184000,7.143183837890625,8.339285850524902,-3.923630952835083,-10.508977890014648
1763701042665263900,7.153263916015625,8.9910306930542,-6.251847267150879,-11.225029945373535
1763701042675343600,7.163343505859375,9.426823616027832,-7.825726509094238,-12.049057960510254
1763701042685479200,7.173479248046875,10.780263900756836,-8.800801277160645,-12.592827796936035
1763701042695559200,7.18355908203125,10.572088241577148,-6.493821620941162,-12.930813789367676
1763701042705639000,7.193638916015625,10.138389587402344,-3.4995031356811523,-12.71755313873291
1763701042715648000,7.20364794921875,10.205389022827148,-1.4009976387023926,-12.681660652160645
1763701042725727700,7.213727783203125,10.205389022827148,-0.15553347766399384,-12.257533073425293
1763701042735807700,7.223807861328125,9.57069206237793,0.4289134442806244,-11.124531745910645
1763701042746009300,7.23400927734375,8.444869041442871,0.6493522524833679,-9.873982429504395
1763701042756089300,7.24408935546875,7.122535705566406,0.6852445602416992,-8.61176872253418
1763701042766169000,7.254169189453125,6.023033618927002,0.651745080947876,-7.234101295471191
1763701042776140300,7.264140380859375,5.493621826171875,0.4411766827106476,-5.689234733581543
1763701042786220300,7.27422021484375,5.076672554016113,0.2638086974620819,-4.218247413635254
1763701042796300000,7.284300048828125,4.667200565338135,0.3188436031341553,-3.0469605922698975
1763701042806390300,7.294390380859375,4.144967079162598,0.4746761918067932,-2.251646041870117
1763701042816470000,7.304469970703125,3.6370904445648193,0.7262216806411743,-1.8035900592803955
1763701042826550000,7.314550048828125,3.177070379257202,0.9655039310455322,-1.6217355728149414
1763701042836628500,7.32462841796875,2.949453115463257,1.2290135622024536,-1.6217355728149414
1763701042846708500,7.33470849609375,2.8848466873168945,1.3920245170593262,-1.851446509361267
1763701042856788200,7.344788330078125,3.1746773719787598,1.3489537239074707,-2.3808584213256836
1763701042866880800,7.354880859375,3.4525439739227295,1.1404790878295898,-3.1043882369995117
1763701042876960800,7.364960693359375,3.960420608520508,1.054337501525879,-3.9284164905548096
1763701042887040500,7.37504052734375,4.945066928863525,1.2433704137802124,-5.281857013702393
1763701042897066200,7.385066162109375,6.3463640213012695,1.4446666240692139,-7.047461032867432
1763701042907145700,7.395145751953125,8.025527000427246,1.2819547653198242,-9.150752067565918
1763701042917225000,7.405224853515625,9.898808479309082,-0.014057832770049572,-11.36650562286377
1763701042927332000,7.41533203125,12.205788612365723,-3.839582920074463,-13.632509231567383
1763701042937411300,7.425411376953125,14.687444686889648,-9.46181869506836,-15.783656120300293
1763701042947490800,7.43549072265625,16.31635856628418,-13.038191795349121,-17.2040958404541
1763701042957591800,7.445591796875,16.670795440673828,-13.002299308776855,-17.211275100708008
1763701042967671000,7.455671142578125,15.461223602294922,-7.638787269592285,-17.453248977661133
1763701042977750300,7.465750244140625,15.123536109924316,-3.487539052963257,-18.29402732849121
1763701042987835100,7.475835205078125,16.9630184173584,-1.8083757162094116,-19.89422607421875
1763701042997914400,7.485914306640625,18.35982894897461,-1.456331729888916,-20.502901077270508
1763701043007993900,7.495993896484375,17.87348747253418,-1.6094722747802734,-18.746868133544922
1763701043018631000,7.506630859375,15.564114570617676,-2.086242198944092,-15.505789756774902
1763701043028710100,7.516710205078125,12.586545944213867,-2.4765713214874268,-12.466008186340332
1763701043038789600,7.52678955078125,10.100104331970215,-2.8049862384796143,-10.058528900146484
1763701043048865800,7.53686572265625,8.442476272583008,-2.9940192699432373,-7.9887375831604
1763701043058945000,7.546945068359375,7.455437183380127,-2.850450038909912,-6.350252151489258
1763701043069024500,7.5570244140625,6.904489517211914,-2.3808584213256836,-4.917848587036133
1763701043079125800,7.567125732421875,6.672086715698242,-1.7413766384124756,-3.768097400665283
1763701043089205000,7.577205078125,6.504589080810547,-1.0633105039596558,-3.1163523197174072
1763701043099284500,7.587284423828125,6.241079807281494,-0.40229329466819763,-2.948854923248291
1763701043109352400,7.5973525390625,5.807380676269531,0.2063809484243393,-3.0254251956939697
1763701043119432000,7.607431884765625,5.230112075805664,0.620638370513916,-3.229114055633545
1763701043129511200,7.61751123046875,4.633700847625732,0.9631111025810242,-3.5380873680114746
1763701043139019300,7.627019287109375,4.041776657104492,1.3800604343414307,-3.868596076965332
1763701043149098800,7.6370986328125,3.5844483375549316,1.6770695447921753,-4.295116424560547
1763701043159178000,7.647177978515625,3.059821844100952,1.7153546810150146,-4.817050933837891
1763701043169258000,7.657258056640625,2.583052158355713,1.6196417808532715,-5.164608478546143
1763701043179337200,7.667337158203125,2.1903300285339355,1.3872389793395996,-5.327320575714111
1763701043189416700,7.677416748046875,2.1302103996276855,0.9487541913986206,-5.535795211791992
1763701043199497000,7.6874970703125,1.4452649354934692,1.1333006620407104,-5.682056427001953
1763701043209576200,7.697576171875,1.3878371715545654,0.8841479420661926,-5.765805244445801
1763701043219655400,7.707655517578125,1.5170495510101318,0.7740781307220459,-6.242575168609619
1763701043229681700,7.717681640625,1.8810577392578125,0.6948158740997314,-6.704689025878906
1763701043239761000,7.727760986328125,2.7819554805755615,0.4579264223575592,-7.2559356689453125
1763701043249840000,7.737840087890625,4.307679176330566,-0.2225325107574463,-8.038987159729004
1763701043259961600,7.747961669921875,6.078068733215332,-1.5448660850524902,-8.975776672363281
1763701043270040800,7.758040771484375,7.8026957511901855,-3.2216365337371826,-9.701699256896973
1763701043280120300,7.768120361328125,9.06281566619873,-5.061418056488037,-10.060921669006348
1763701043290196700,7.77819677734375,9.767203330993652,-6.556035041809082,-10.568798065185547
1763701043300276000,7.78827587890625,10.289436340332031,-7.011269569396973,-11.713764190673828
1763701043310355500,7.79835546875,11.218749046325684,-6.148955821990967,-13.134203910827637
1763701043320432600,7.8084326171875,12.493226051330566,-4.4482574462890625,-14.557334899902344
1763701043330512000,7.818511962890625,13.925629615783691,-3.039483070373535,-15.843477249145508
1763701043340591000,7.828591064453125,15.152250289916992,-2.236989974975586,-16.54786491394043
1763701043350680300,7.838680419921875,15.43490219116211,-1.724626898765564,-16.418352127075195
1763701043360759600,7.848759521484375,14.45025634765625,-1.4611172676086426,-15.546467781066895
1763701043370838800,7.8588388671875,12.720843315124512,-1.3411771059036255,-13.977374076843262
1763701043380917800,7.868917724609375,10.981560707092285,-1.3603196144104004,-12.219247817993164
1763701043390997200,7.878997314453125,9.690333366394043,-1.3124631643295288,-10.820343971252441
1763701043401076500,7.889076416015625,8.804091453552246,-1.2215359210968018,-9.852447509765625
1763701043411162400,7.899162353515625,8.253144264221191,-1.1231311559677124,-9.157930374145508
1763701043421241900,7.909241943359375,7.683054447174072,-1.0992028713226318,-8.391329765319824
1763701043431321000,7.919321044921875,6.959524631500244,-1.1374880075454712,-7.526623725891113
1763701043441396500,7.929396484375,6.214758396148682,-1.1904292106628418,-6.606583118438721
1763701043451475700,7.939475830078125,5.431408405303955,-1.2717852592468262,-5.801697731018066
1763701043461555200,7.94955517578125,4.8059844970703125,-1.384247899055481,-5.159822940826416
1763701043471639300,7.959639404296875,4.314857482910156,-1.657328724861145,-4.704588413238525
1763701043481718800,7.96971875,4.003491401672363,-1.9905292987823486,-4.383651256561279
1763701043491798000,7.979798095703125,3.8024942874908447,-2.335394859313965,-4.208675861358643
1763701043501886200,7.98988623046875,3.883850336074829,-2.843271493911743,-4.208675861358643
1763701043511965400,7.99996533203125,4.109074592590332,-3.387040376663208,-4.390829563140869
1763701043522044700,8.010044677734374,4.343870639801025,-3.7558343410491943,-4.4482574462890625
1763701043532118000,8.020117919921875,4.549653053283691,-3.9834516048431396,-4.4482574462890625
1763701043542197500,8.030197509765625,4.8227338790893555,-4.019343852996826,-4.429114818572998
1763701043552276700,8.04027685546875,5.309075355529785,-4.036093711853027,-4.570590496063232
1763701043562353400,8.050353515625,5.98235559463501,-4.225425720214844,-4.951348304748535
1763701043572432600,8.0604326171875,6.710371971130371,-4.40967321395874,-5.559723377227783
1763701043582512000,8.07051220703125,7.297510623931885,-4.584648132324219,-6.228218078613281
1763701043592591600,8.080591552734376,7.58734130859375,-4.812265396118164,-6.76002311706543
1763701043602670800,8.0906708984375,7.769196033477783,-5.035097122192383,-7.251150131225586
1763701043612750000,8.10075,7.848458290100098,-5.221737384796143,-7.643871784210205
1763701043622832000,8.11083203125,7.764410495758057,-5.439783096313477,-7.876275062561035
1763701043632911400,8.120911376953124,7.543971538543701,-5.801697731018066,-7.897810459136963
1763701043642990600,8.130990478515624,7.4123663902282715,-6.359823703765869,-7.8403825759887695
1763701043653073400,8.141073486328125,7.455437183380127,-7.020840644836426,-7.842775344848633
1763701043663152600,8.151152587890625,7.398009300231934,-7.411468982696533,-7.814061641693115
1763701043673232100,8.161232177734375,6.897311210632324,-7.106982231140137,-7.65583610534668
1763701043683307300,8.171307373046876,6.3152570724487305,-6.196812629699707,-7.40907621383667
1763701043693386500,8.181386474609376,6.1139607429504395,-5.193023204803467,-7.27747106552124
1763701043703465700,8.1914658203125,6.255436420440674,-4.304388999938965,-7.289434909820557
1763701043713542000,8.2015419921875,6.487839698791504,-3.544966697692871,-7.4138617515563965
1763701043723621000,8.21162109375,6.74147891998291,-2.950948476791382,-7.35404109954834
1763701043733700600,8.22170068359375,7.177570819854736,-2.601297378540039,-7.22452974319458
1763701043743810000,8.23181005859375,7.570591926574707,-2.5797619819641113,-6.982854843139648
1763701043753889500,8.2418896484375,7.89631462097168,-2.9341988563537598,-6.714559555053711
1763701043763968800,8.25196875,7.941778182983398,-3.3535408973693848,-6.58265495300293
1763701043774040800,8.262040771484376,7.738089561462402,-3.4923245906829834,-6.297610282897949
1763701043784120000,8.2721201171875,7.400402069091797,-3.339184045791626,-5.7634124755859375
1763701043794199300,8.28219921875,7.120142936706543,-3.0131618976593018,-5.152644634246826
1763701043804262700,8.2922626953125,6.997809886932373,-2.5510480403900146,-4.687838554382324
1763701043814342100,8.302342041015624,7.060322284698486,-1.9977078437805176,-4.498506546020508
1763701043824421400,8.31242138671875,7.287939548492432,-1.3268201351165771,-4.623232364654541
1763701043834516200,8.32251611328125,7.584948539733887,-0.7495517134666443,-4.956133842468262
1763701043844595500,8.332595458984375,7.89631462097168,-0.2847459018230438,-5.334498882293701
1763701043854674700,8.3426748046875,8.234002113342285,0.033798620104789734,-5.703591823577881
1763701043864755700,8.352755615234376,8.497511863708496,0.1824527233839035,-5.943173408508301
1763701043874835000,8.3628349609375,8.63659381866455,0.2805584669113159,-5.969494342803955
1763701043884914400,8.37291455078125,8.562117576599121,0.3284149169921875,-5.899803161621094
1763701043895004000,8.38300390625,8.348856925964355,0.357128769159317,-5.974279880523682
1763701043905083100,8.393083251953126,8.138288497924805,0.30209386348724365,-6.25932502746582
1763701043915162400,8.403162353515626,8.082955360412598,0.13190434873104095,-6.709474563598633
1763701043925208600,8.41320849609375,7.963313579559326,-0.04755735024809837,-7.135995388031006
1763701043935288300,8.423288330078124,7.680661678314209,-0.16749759018421173,-7.423433303833008
1763701043945368000,8.4333681640625,7.275676250457764,-0.2105683982372284,-7.596015453338623
1763701043955487500,8.443487548828125,7.120142936706543,-0.2273181527853012,-7.727620601654053
1763701043965567200,8.453567138671875,7.263712406158447,-0.33738797903060913,-7.660621643066406
1763701043975647000,8.46364697265625,7.383652687072754,-0.4405784606933594,-7.3899335861206055
1763701043985699800,8.473699951171875,7.254140853881836,-0.4980062246322632,-7.0546393394470215
1763701043995779600,8.483779541015625,7.045965194702148,-0.45254257321357727,-6.865307331085205
1763701044005859300,8.493859375,6.945167541503906,-0.37836506962776184,-6.882057189941406
1763701044016036400,8.504036376953126,6.945167541503906,-0.35892340540885925,-7.040282249450684
1763701044026116000,8.5141162109375,6.959524631500244,-0.4668995141983032,-7.088139057159424
1763701044036195800,8.52419580078125,6.988238334655762,-0.5315057039260864,-6.886842727661133
1763701044046187000,8.53418701171875,7.196712970733643,-0.5913262963294983,-6.733702182769775
1763701044056266800,8.544266845703126,7.568199157714844,-0.7543373107910156,-6.618547439575195
1763701044066346500,8.554346435546876,7.836493968963623,-1.0322039127349854,-6.338288307189941
1763701044076410000,8.56441015625,7.76680326461792,-1.3148560523986816,-5.995815277099609
1763701044086489900,8.57448974609375,7.433901786804199,-1.5903297662734985,-5.631507873535156
1763701044096569600,8.584569580078124,7.014858722686768,-1.8059829473495483,-5.373083114624023
1763701044106685700,8.594685791015625,6.5165534019470215,-1.9423737525939941,-5.279464244842529
1763701044116765400,8.604765380859375,6.3224358558654785,-2.4191436767578125,-5.399404525756836
1763701044126845200,8.61484521484375,6.355935096740723,-3.1594231128692627,-5.892624855041504
1763701044136910800,8.624910888671875,6.430112838745117,-3.712763547897339,-6.448657035827637
1763701044146990600,8.634990478515626,6.410970211029053,-4.086342811584473,-6.920341968536377
1763701044157070300,8.6450703125,6.343971252441406,-4.330709934234619,-7.342077255249023
1763701044167074600,8.655074462890624,6.391827583312988,-4.385744571685791,-7.837989807128906
1763701044177154300,8.665154296875,6.768098831176758,-4.325924396514893,-8.42722225189209
1763701044187234000,8.675234130859375,7.417151927947998,-4.184747695922852,-8.980562210083008
1763701044197361700,8.685361572265625,8.339285850524902,-4.038486480712891,-9.370891571044922
1763701044207441400,8.69544140625,9.4028959274292,-4.117449760437012,-9.718449592590332
1763701044217521200,8.705521240234376,10.34207820892334,-4.46979284286499,-10.003494262695312
1763701044227616000,8.715615966796875,11.02463150024414,-4.860121726989746,-10.051350593566895
1763701044237695700,8.72569580078125,11.386545181274414,-5.047060966491699,-9.627223014831543
1763701044247775500,8.735775390625,11.180463790893555,-4.857728958129883,-8.89681339263916
1763701044257864200,8.7458642578125,10.562517166137695,-4.4721856117248535,-7.991130352020264
1763701044267944000,8.75594384765625,9.55633544921875,-3.9571304321289062,-7.028318405151367
1763701044278023700,8.766023681640625,8.449654579162598,-3.5258240699768066,-6.067600250244141
1763701044288644000,8.77664404296875,7.472187042236328,-3.2910284996032715,-5.3368916511535645
1763701044298723800,8.786723876953126,6.69362211227417,-3.2766714096069336,-4.834099769592285
1763701044308803600,8.796803466796876,6.149853229522705,-3.5569307804107666,-4.460221290588379
1763701044318926300,8.80692626953125,5.737988471984863,-4.086342811584473,-4.218247413635254
1763701044329006000,8.817006103515626,5.342574596405029,-4.627718925476074,-4.16799783706665
1763701044339085800,8.8270859375,4.9761738777160645,-5.015954494476318,-3.9690945148468018
1763701044349132500,8.837132568359374,4.609772682189941,-5.245964527130127,-3.698406457901001
1763701044359212300,8.84721240234375,4.363012790679932,-5.387141227722168,-3.5069806575775146
1763701044369292000,8.8572919921875,4.31007194519043,-5.430212020874023,-3.449253797531128
1763701044379378000,8.8673779296875,4.451547622680664,-5.298606872558594,-3.533301830291748
1763701044389457700,8.877457763671876,4.537689208984375,-5.078167915344238,-3.6553356647491455
1763701044399537400,8.887537353515626,4.516153812408447,-4.797908306121826,-3.882952928543091
1763701044409060600,8.897060546875,4.473083019256592,-4.460221290588379,-4.096213340759277
1763701044419140400,8.907140380859374,4.413262367248535,-4.127020835876465,-4.211068630218506
1763701044429220000,8.91722021484375,4.324728012084961,-3.8204405307769775,-4.366901397705078
1763701044439286500,8.92728662109375,4.195216178894043,-3.487539052963257,-4.491328239440918
1763701044449366300,8.9373662109375,4.034597873687744,-3.099602699279785,-4.488935470581055
1763701044459446000,8.947446044921875,3.9915273189544678,-2.6826531887054443,-4.29033088684082
1763701044469531000,8.95753076171875,3.8814573287963867,-2.321038007736206,-3.8422749042510986
1763701044479610600,8.967610595703125,3.696911096572876,-2.000100612640381,-3.1187453269958496
1763701044489690400,8.9776904296875,3.292224884033203,-1.573580026626587,-2.2540390491485596
1763701044499768300,8.987768310546874,2.8465616703033447,-0.9580263495445251,-1.5137593746185303
1763701044509848000,8.99784814453125,2.6045875549316406,-0.2560320198535919,-1.046859860420227
1763701044519927800,9.007927734375,2.458625316619873,0.3595215976238251,-0.8192426562309265
1763701044530004200,9.018004150390626,2.381755828857422,0.8937192559242249,-0.8934201598167419
1763701044540084000,9.028083984375,2.3482563495635986,1.339382529258728,-1.3247264623641968
1763701044550163700,9.038163818359376,2.298007011413574,1.7416757345199585,-2.1415762901306152
1763701044560242700,9.04824267578125,2.3697917461395264,2.12751841545105,-3.183351516723633
1763701044570322400,9.058322509765626,2.5639095306396484,2.5393829345703125,-4.438685894012451
1763701044580402200,9.068402099609376,3.07417893409729,2.8435707092285156,-5.780162334442139
1763701044590480000,9.07847998046875,4.063611030578613,2.7957141399383545,-7.116852760314941
1763701044600559600,9.0885595703125,5.333003520965576,1.825723648071289,-8.297710418701172
1763701044610639400,9.098639404296875,6.4085774421691895,0.40259242057800293,-9.189037322998047
1763701044620727000,9.10872705078125,7.213462829589844,-1.2191431522369385,-9.63918685913086
1763701044630806800,9.118806884765625,8.435297966003418,-3.9212381839752197,-9.747162818908691
1763701044640886500,9.128886474609375,10.279865264892578,-7.2436723709106445,-10.233504295349121
1763701044650960100,9.138960205078124,11.491829872131348,-8.450851440429688,-11.122138977050781
1763701044661039900,9.149039794921874,11.491829872131348,-5.50229549407959,-12.399008750915527
1763701044671119600,9.15911962890625,11.743375778198242,-0.8500502705574036,-14.657833099365234
1763701044681204700,9.169204833984375,13.547264099121094,1.7081762552261353,-17.302499771118164
1763701044691284500,9.179284423828125,15.899409294128418,1.9334007501602173,-19.228424072265625
1763701044701364200,9.1893642578125,16.797914505004883,1.059123158454895,-19.027128219604492
1763701044711454700,9.199454833984374,15.274284362792969,0.16779668629169464,-16.466508865356445
1763701044721534500,9.209534423828124,11.982956886291504,-0.37597227096557617,-12.760623931884766
1763701044731614200,9.2196142578125,8.717949867248535,-0.8045865893363953,-9.325428009033203
1763701044741681400,9.229681396484375,6.389434814453125,-1.1183454990386963,-6.381359100341797
1763701044751761200,9.23976123046875,4.88763952255249,-1.1374880075454712,-4.091427803039551
1763701044761841000,9.2498408203125,4.137788772583008,-0.9891330599784851,-2.3569302558898926
1763701044771921000,9.2599208984375,4.003491401672363,-0.8428717851638794,-1.0971091985702515
1763701044782000600,9.270000732421876,3.9891345500946045,-0.5745765566825867,-0.39990049600601196
1763701044792080400,9.280080322265626,3.8240296840667725,-0.13639089465141296,-0.246759831905365
1763701044802167000,9.2901669921875,3.720839262008667,0.38344982266426086,-0.46450668573379517
1763701044812246800,9.300246826171875,3.759124279022217,0.7334001660346985,-0.768694281578064
1763701044822326500,9.310326416015625,3.87667179107666,0.8506484627723694,-1.0226325988769531
1763701044832406000,9.320406005859375,3.962813377380371,0.9750752449035645,-1.23589289188385
1763701044842485800,9.33048583984375,4.164109706878662,1.231406331062317,-1.6241283416748047
1763701044852565500,9.3405654296875,4.535296440124512,1.607677698135376,-2.249253273010254
1763701044862638800,9.350638916015624,4.705485820770264,1.8089739084243774,-2.7355945110321045
1763701044872718600,9.360718505859374,4.777270317077637,1.6268203258514404,-3.3607194423675537
1763701044882798300,9.37079833984375,4.925924301147461,1.176371455192566,-4.54636287689209
1763701044892875800,9.380875732421876,5.313860893249512,0.4698905348777771,-6.314359664916992
1763701044902955500,9.39095556640625,6.03021240234375,-0.9101698994636536,-8.245068550109863
1763701044913035300,9.40103515625,7.2732834815979,-3.317349433898926,-10.1183500289917
1763701044923119600,9.41111962890625,8.979066848754883,-6.441179275512695,-12.338889122009277
1763701044933199400,9.421199462890625,10.619945526123047,-8.723932266235352,-14.420644760131836
1763701044943279000,9.431279052734375,11.925528526306152,-8.623434066772461,-15.510575294494629
1763701044953357800,9.44135791015625,12.548260688781738,-6.486643314361572,-15.745370864868164
1763701044963437600,9.4514375,13.379467964172363,-4.074378967285156,-16.00409507751465
1763701044973517300,9.461517333984375,14.114961624145508,-2.50289249420166,-16.169498443603516
1763701044983600000,9.47160009765625,14.217852592468262,-1.5496517419815063,-15.814763069152832
1763701044993680000,9.481679931640626,13.429717063903809,-1.135095238685608,-14.458930015563965
1763701045003759900,9.491759765625,11.81037425994873,-1.207179069519043,-12.259925842285156
1763701045013857800,9.50185791015625,9.807881355285645,-1.5448660850524902,-10.082457542419434
1763701045023937800,9.511937744140624,7.975277900695801,-1.9160526990890503,-8.494221687316895
1763701045034017500,9.522017578125,6.595516681671143,-2.2250258922576904,-7.483253479003906
1763701045044078800,9.532078857421874,5.541478157043457,-2.273181438446045,-6.704689025878906
1763701045054158800,9.542158935546874,4.851448059082031,-1.9543378353118896,-5.995815277099609
1763701045064238600,9.552238525390624,4.346263408660889,-1.3770694732666016,-5.176572799682617
1763701045074335200,9.562335205078124,4.1521453857421875,-0.7304090857505798,-4.208675861358643
1763701045084415200,9.572415283203124,4.010669708251953,-0.023629123345017433,-3.2171499729156494
1763701045094495000,9.582494873046874,3.759124279022217,0.7334001660346985,-2.304288148880005
1763701045104582400,9.59258251953125,3.3281171321868896,1.4901303052902222,-1.609771490097046
1763701045114662100,9.602662109375,2.8465616703033447,2.2256240844726562,-1.0274182558059692
1763701045124742100,9.6127421875,2.3865413665771484,2.752643346786499,-0.5341976284980774
1763701045134783700,9.62278369140625,2.032104730606079,2.9874391555786133,-0.16031911969184875
1763701045144863500,9.632863525390626,2.048854351043701,2.8869404792785645,-0.04546362906694412
1763701045154943500,9.642943603515626,1.9938194751739502,2.8531417846679688,-0.20817556977272034
1763701045165042700,9.653042724609374,1.9962122440338135,2.862713098526001,-0.5198407173156738
1763701045175122700,9.663122802734375,2.5471596717834473,2.862713098526001,-1.4347963333129883
1763701045185202400,9.673202392578125,3.4669008255004883,2.9204399585723877,-3.1331021785736084
1763701045195272400,9.6832724609375,4.707878589630127,2.939582586288452,-5.128716468811035
1763701045205352400,9.6933525390625,6.147460460662842,2.4675984382629395,-7.361219882965088
1763701045215432200,9.70343212890625,7.2661051750183105,1.236191987991333,-9.34457015991211
1763701045225522700,9.713522705078125,7.8317084312438965,-0.5865406394004822,-10.520941734313965
1763701045235602400,9.7236025390625,7.987242221832275,-2.8145575523376465,-10.841879844665527
1763701045245682400,9.733682373046875,8.169395446777344,-5.289035320281982,-10.626226425170898
1763701045255728600,9.743728759765625,8.552546501159668,-6.889235496520996,-10.274182319641113
1763701045265808400,9.753808349609375,8.715557098388672,-6.424429893493652,-10.092028617858887
1763701045275888400,9.763888427734376,8.701200485229492,-3.6960136890411377,-10.590333938598633
1763701045286058800,9.774058837890625,9.96580696105957,-0.45972105860710144,-12.250354766845703
1763701045296138500,9.784138427734375,11.968599319458008,1.205085277557373,-14.10688591003418
1763701045306218500,9.794218505859375,13.604692459106445,1.5669996738433838,-15.043376922607422
1763701045316245800,9.804245849609375,13.899308204650879,1.6148561239242554,-14.50200080871582
1763701045326325800,9.81432568359375,12.370893478393555,1.820937991142273,-12.420543670654297
1763701045336405500,9.824405517578125,9.546764373779297,1.9286150932312012,-9.431011199951172
1763701045346487000,9.834487060546875,6.768098831176758,1.8041882514953613,-6.594619274139404
1763701045356567000,9.844567138671875,4.4946184158325195,1.6555341482162476,-4.314259052276611
1763701045366646800,9.854646728515625,2.9928228855133057,1.5191432237625122,-2.598904609680176
1763701045376724200,9.86472412109375,2.0584256649017334,1.48055899143219,-1.4970096349716187
1763701045386804000,9.874803955078125,1.7303098440170288,1.3298112154006958,-0.9101698994636536
1763701045396884000,9.884884033203125,1.7805591821670532,0.9750752449035645,-0.9891330599784851
1763701045406904000,9.894904052734375,1.9770697355270386,0.6900302171707153,-1.6959130764007568
1763701045416983800,9.90498388671875,2.2669003009796143,0.8243274092674255,-3.0948169231414795
1763701045427063800,9.915063720703126,2.9832515716552734,0.9176474809646606,-5.047060966491699
1763701045447265300,9.935265380859375,4.566402912139893,0.587138831615448,-9.464510917663574
1763701045457345000,9.945344970703125,5.675775527954102,-0.8045865893363953,-10.77966594696045
1763701045467417600,9.95541748046875,6.538088798522949,-2.919841766357422,-11.179566383361816
1763701045477497600,9.96549755859375,7.5897345542907715,-5.1906304359436035,-11.383255958557129
1763701045487577300,9.975577392578124,8.883054733276367,-6.685546398162842,-11.378469467163086
1763701045497675500,9.985675537109374,10.04985523223877,-6.719046115875244,-11.045568466186523
1763701045507755500,9.995755615234375,10.869097709655762,-5.193023204803467,-10.633404731750488
1763701045517835300,10.005835205078125,11.479866027832031,-2.646760940551758,-10.513763427734375
1763701045527902000,10.01590185546875,12.258430480957031,-0.5338985323905945,-10.803594589233398
1763701045537982000,10.02598193359375,12.92184066772461,0.7597211599349976,-10.961520195007324
1763701045548061700,10.036061767578126,12.689736366271973,1.1644073724746704,-10.446465492248535
1763701045558780700,10.04678076171875,11.467901229858398,1.1213364601135254,-9.397212982177734
1763701045568860400,10.0568603515625,9.68794059753418,0.9801599979400635,-8.348258972167969
1763701045578940400,10.0669404296875,7.809874057769775,0.9801599979400635,-7.358827114105225
1763701045588952800,10.076952880859375,6.1139607429504395,1.1548360586166382,-6.3239312171936035
1763701045599032800,10.08703271484375,4.868496894836426,1.6316059827804565,-5.37069034576416
1763701045609112600,10.097112548828125,4.264608383178711,2.311765670776367,-4.295116424560547
1763701045619172600,10.107172607421875,4.0803608894348145,3.0137600898742676,-3.1259236335754395
1763701045629252400,10.11725244140625,3.936492443084717,3.4809587001800537,-2.598904609680176
1763701045639332400,10.127332275390625,4.039383888244629,3.6604204177856445,-2.2229323387145996
1763701045649438000,10.13743798828125,4.1282172203063965,3.524029493331909,-2.0048863887786865
1763701045659517700,10.147517578125,4.18564510345459,3.3251261711120605,-1.827518343925476
1763701045669597700,10.15759765625,4.149752616882324,3.1504502296447754,-1.5185450315475464
1763701045679120400,10.167120361328125,4.180859565734863,2.9659037590026855,-1.4419747591018677
1763701045689200400,10.177200439453125,4.398905277252197,2.6138596534729004,-1.8323038816452026
1763701045699280100,10.187280029296875,4.973781108856201,2.2112672328948975,-2.709273338317871
1763701045709346800,10.197346923828125,5.622834205627441,1.643570065498352,-3.554837226867676
1763701045719426800,10.2074267578125,6.358327865600586,0.6445665955543518,-4.7596235275268555
1763701045729506600,10.217506591796875,6.8997039794921875,-0.5410770177841187,-6.39810848236084
1763701045739597300,10.227597412109375,7.39561653137207,-1.5807584524154663,-7.435397148132324
1763701045749677000,10.237677001953125,7.927421569824219,-2.7687950134277344,-7.720442295074463
1763701045759757000,10.247757080078125,8.602795600891113,-4.026522159576416,-8.079963684082031
1763701045769817600,10.257817626953125,9.27846908569336,-3.870689630508423,-9.373284339904785
1763701045779897300,10.2678974609375,9.414859771728516,-1.3148560523986816,-11.031211853027344
1763701045789977300,10.277977294921875,10.399506568908691,1.2604193687438965,-12.978670120239258
1763701045800056800,10.288056884765625,11.930315017700195,2.649751901626587,-15.00269889831543
1763701045810136800,10.29813671875,13.264612197875977,2.814856767654419,-15.800406455993652
1763701045820216600,10.308216552734375,13.757832527160645,2.400599241256714,-15.184852600097656
1763701045830328300,10.318328369140625,12.435798645019531,2.5944180488586426,-12.985848426818848
1763701045840408300,10.328408203125,9.707083702087402,3.126222848892212,-9.953245162963867
1763701045850488000,10.338488037109375,7.352545738220215,3.1070802211761475,-7.200601577758789
1763701045860533000,10.348532958984375,5.907878875732422,2.7311079502105713,-5.080560684204102
1763701045870613000,10.358613037109375,4.782055854797363,2.6401805877685547,-3.6696925163269043
1763701045880692700,10.368692626953125,4.111467361450195,2.7550361156463623,-2.368894338607788
1763701045890796300,10.37879638671875,3.641875982284546,2.8100709915161133,-1.688734531402588
1763701045900876000,10.3888759765625,3.340081214904785,2.7861428260803223,-1.4874383211135864
1763701045910956000,10.3989560546875,3.184248685836792,2.793321371078491,-1.5376876592636108
1763701045921009000,10.4090087890625,3.251546859741211,2.9970104694366455,-2.1053848266601562
1763701045931088600,10.419088623046875,3.627519130706787,3.241377353668213,-3.315255880355835
1763701045941168600,10.429168701171875,4.31007194519043,3.445066452026367,-4.960919380187988
1763701045951260700,10.4392607421875,5.021637439727783,3.4498519897460938,-6.367002010345459
1763701045961340700,10.449340576171876,5.601298809051514,3.0209386348724365,-7.466504096984863
1763701045971420400,10.45942041015625,6.149853229522705,2.12751841545105,-7.859525203704834
1763701045981500400,10.46950048828125,6.978667259216309,-0.06669992953538895,-8.09671401977539
1763701045991580400,10.479580322265624,8.011170387268066,-3.061018466949463,-9.160323143005371
1763701046001660200,10.48966015625,8.648558616638184,-4.773980140686035,-11.059925079345703
1763701046011736000,10.499736083984375,9.204291343688965,-3.7103705406188965,-13.548760414123535
1763701046021815800,10.50981591796875,9.692726135253906,-0.7782655358314514,-16.095022201538086
1763701046031895800,10.519895751953126,11.070393562316895,1.9692929983139038,-18.298812866210938
1763701046041983700,10.529983642578125,12.993924140930176,3.1432716846466064,-19.625930786132812
1763701046052063500,10.5400634765625,14.3330078125,2.690429925918579,-19.13031768798828
1763701046062143500,10.5501435546875,14.328222274780273,2.1011974811553955,-16.842479705810547
1763701046072223000,10.560222900390626,12.378071784973145,2.2112672328948975,-13.476975440979004
1763701046082303000,10.570302978515626,9.807881355285645,2.5609183311462402,-10.08006477355957
1763701046092382700,10.5803828125,8.00638484954834,2.2495524883270264,-7.210172653198242
1763701046102446800,10.59044677734375,6.897311210632324,1.6268203258514404,-5.174180030822754
1763701046112526600,10.600526611328124,6.231508255004883,1.1883355379104614,-3.5835509300231934
1763701046122606600,10.610606689453125,5.601298809051514,0.9128618240356445,-2.476870536804199
1763701046132693500,10.620693603515624,5.151148796081543,0.8027920126914978,-1.3677972555160522
1763701046142773500,10.6307734375,4.71744966506958,0.8386843204498291,-0.5796613097190857
1763701046152853200,10.640853271484374,4.240679740905762,0.9439685344696045,-0.246759831905365
1763701046162934800,10.650934814453125,3.6849467754364014,1.0136594772338867,-0.01196411345154047
1763701046173014800,10.661014892578125,3.0143582820892334,1.1093723773956299,0.1055833026766777
1763701046183094500,10.671094482421875,2.305185556411743,1.3992030620574951,0.3858426511287689
1763701046193171500,10.68117138671875,1.7901304960250854,1.705783486366272,0.6062814593315125
1763701046203251500,10.69125146484375,1.552941918373108,1.9621145725250244,0.6589235067367554
1763701046213331200,10.701331298828125,1.6657036542892456,2.328814744949341,0.25393831729888916
1763701046223419000,10.7114189453125,2.2764716148376465,2.664108991622925,-0.7567301392555237
1763701046233498600,10.72149853515625,3.3592238426208496,2.9515466690063477,-2.4170498847961426
1763701046243578400,10.731578369140625,4.614558696746826,3.476173162460327,-4.616054058074951
1763701046253649200,10.741649169921875,5.804987907409668,4.168296813964844,-7.4210405349731445
1763701046263729000,10.75172900390625,7.060322284698486,4.7024946212768555,-9.680164337158203
1763701046273809000,10.761808837890625,8.432905197143555,4.621138572692871,-11.344970703125
1763701046283903500,10.771903564453124,9.968199729919434,2.6090738773345947,-11.948559761047363
1763701046293983500,10.7819833984375,11.611769676208496,-1.389033555984497,-11.610873222351074
1763701046304063200,10.792063232421874,12.79023551940918,-4.23021125793457,-12.583255767822266
1763701046314131200,10.802131103515626,13.151850700378418,-2.529512643814087,-15.192030906677246
1763701046324211200,10.812211181640626,13.619049072265625,0.5344967842102051,-18.229419708251953
1763701046334291000,10.822291015625,15.355640411376953,3.5192439556121826,-21.899412155151367
1763701046344373000,10.832373046875,17.11167335510254,4.685744762420654,-24.182165145874023
1763701046354452700,10.84245263671875,18.002700805664062,4.340879440307617,-23.372493743896484
1763701046364532700,10.85253271484375,17.190635681152344,2.4388844966888428,-20.4140682220459
1763701046374601000,10.86260107421875,13.815559387207031,2.089233160018921,-16.403995513916016
1763701046384680700,10.8726806640625,10.176674842834473,1.7560327053070068,-12.712767601013184
1763701046394760700,10.8827607421875,7.5463643074035645,1.3441680669784546,-10.163813591003418
1763701046404839700,10.892839599609376,6.058926105499268,1.2747762203216553,-8.52054214477539
1763701046414919400,10.90291943359375,5.503192901611328,1.4039887189865112,-7.4377899169921875
1763701046424999200,10.912999267578124,5.634798049926758,1.5068800449371338,-6.738487720489502
1763701046435121200,10.92312109375,5.876772403717041,1.612463355064392,-6.532405853271484
1763701046445201000,10.933200927734376,5.8719868659973145,2.0267207622528076,-6.565905570983887
1763701046455281000,10.943281005859374,5.773880958557129,2.544168710708618,-6.781558513641357
1763701046465372000,10.953371826171875,5.644369602203369,3.016152858734131,-7.047461032867432
1763701046475452000,10.963451904296875,5.596513271331787,3.5120654106140137,-7.164709091186523
1763701046485531600,10.97353173828125,5.589334487915039,3.955335855484009,-7.028318405151367
1763701046495574300,10.98357421875,5.417051315307617,4.228416919708252,-6.7193450927734375
1763701046515734000,11.003734130859375,4.358227252960205,4.422235488891602,-5.68684196472168
1763701046525796000,11.013796142578125,3.656233072280884,4.28823709487915,-5.289035320281982
1763701046535875800,11.023875732421875,3.0382864475250244,3.9672999382019043,-5.037489891052246
1763701046545955800,11.033955810546875,2.2525434494018555,3.840181350708008,-4.766801834106445
1763701046556154600,11.044154541015626,1.5337992906570435,3.708575963973999,-4.4410786628723145
1763701046566234600,11.054234619140624,0.8919246196746826,3.562314748764038,-4.187140464782715
1763701046576314400,11.064314453125,0.4366901218891144,3.4809587001800537,-3.835096597671509
1763701046586284000,11.074283935546875,0.4414757788181305,3.1743783950805664,-3.456432342529297
1763701046596363800,11.08436376953125,0.5757729411125183,3.7301113605499268,-3.2171499729156494
1763701046606443500,11.094443603515625,0.6308078765869141,3.7827534675598145,-3.2506494522094727
1763701046616516900,11.104516845703126,1.3878371715545654,3.9335012435913086,-3.9260237216949463
1763701046626596600,11.1145966796875,1.9818553924560547,4.511068820953369,-5.003990173339844
1763701046636676600,11.124676513671876,2.935096025466919,4.96839714050293,-6.2760748863220215
1763701046646776300,11.1347763671875,3.7833516597747803,5.203192710876465,-7.342077255249023
1763701046656856000,11.14485595703125,4.341477394104004,5.0979084968566895,-8.060821533203125
1763701046666936000,11.15493603515625,4.705485820770264,4.601995944976807,-8.52772045135498
1763701046677039000,11.1650390625,4.966602325439453,3.70139741897583,-8.855836868286133
1763701046687118800,11.175118896484374,5.02642297744751,2.558525562286377,-9.397212982177734
1763701046697198800,11.18519873046875,4.832305431365967,2.120339870452881,-10.813165664672852
1763701046707278600,11.195278564453124,4.753342151641846,2.688037157058716,-13.182060241699219
1763701046717338400,11.20533837890625,5.306682586669922,3.4785659313201904,-15.831512451171875
1763701046727418400,11.21541845703125,6.509375095367432,3.801896095275879,-17.975481033325195
1763701046737498000,11.225498046875,8.037490844726562,3.514458179473877,-19.386350631713867
1763701046747553300,11.23555322265625,9.134600639343262,3.0305099487304688,-19.5397891998291
1763701046757633000,11.245633056640624,9.771988868713379,1.9812572002410889,-18.440288543701172
1763701046767713000,11.255713134765625,9.728918075561523,1.0878369808197021,-16.866409301757812
1763701046777833200,11.265833251953126,8.974281311035156,0.8769695162773132,-15.367006301879883
1763701046787913200,11.275913330078126,8.082955360412598,0.7716853022575378,-14.118849754333496
1763701046797993000,11.285992919921876,7.680661678314209,0.4579264223575592,-13.242179870605469
1763701046808050700,11.29605078125,7.539186000823975,0.16540385782718658,-12.777374267578125
1763701046818130700,11.306130615234375,7.419544696807861,0.055334024131298065,-12.3942232131958
1763701046828210400,11.31621044921875,7.026822566986084,0.08165507018566132,-11.864810943603516
1763701046838839300,11.32683935546875,6.542874336242676,0.18005990982055664,-11.213066101074219
1763701046848919000,11.3369189453125,6.16181755065918,0.24945175647735596,-10.523334503173828
1763701046858999000,11.3469990234375,5.970391750335693,0.27337998151779175,-9.90987491607666
1763701046869107700,11.357107666015626,5.735595703125,0.06969095766544342,-9.047561645507812
1763701046879187500,11.3671875,5.412265777587891,-0.3278166949748993,-7.847560882568359
1763701046889267500,11.377267333984374,4.961816787719727,-0.7447660565376282,-6.642475605010986
1763701046899336000,11.3873359375,4.561617374420166,-1.1207382678985596,-5.682056427001953
1763701046909415700,11.397415771484376,4.327120780944824,-1.5137593746185303,-5.015954494476318
1763701046919495700,11.40749560546875,4.207180500030518,-1.8418751955032349,-4.594518661499023
1763701046929001000,11.4170009765625,4.283750534057617,-2.0288145542144775,-4.419543266296387
1763701046939080700,11.427080810546874,4.513761043548584,-2.0455641746520996,-4.4482574462890625
1763701046949160700,11.43716064453125,4.832305431365967,-2.1005992889404297,-4.59212589263916
1763701046959231200,11.447231201171874,5.14875602722168,-2.086242198944092,-4.675874710083008
1763701046969311000,11.45731103515625,5.352146148681641,-1.9830517768859863,-4.608875751495361
1763701046979391000,11.467390869140624,5.496014595031738,-1.815554141998291,-4.568197727203369
1763701046989509000,11.477509033203125,5.615655422210693,-1.6142579317092896,-4.711766719818115
1763701046999589000,11.487589111328125,5.7164530754089355,-1.4635101556777954,-4.889134883880615
1763701047009669000,11.497669189453125,5.723631858825684,-1.3244273662567139,-5.023132801055908
1763701047019672300,11.50767236328125,5.641976833343506,-1.080060362815857,-5.020740032196045
1763701047029752300,11.51775244140625,5.507978439331055,-0.859621524810791,-4.913063049316406
1763701047039832600,11.52783251953125,5.325825214385986,-0.7088736891746521,-4.73090934753418
1763701047049970700,11.537970703125,5.151148796081543,-0.5315057039260864,-4.59212589263916
1763701047060050700,11.54805078125,4.983352184295654,-0.3613162338733673,-4.548755645751953
1763701047070130700,11.558130615234376,5.033601760864258,-0.06669992953538895,-4.59212589263916
1763701047080211500,11.56821142578125,5.4433722496032715,0.10797612369060516,-4.577768802642822
1763701047090291500,11.57829150390625,6.03739070892334,-0.0930209830403328,-4.788337230682373
1763701047100371500,11.588371337890624,6.69362211227417,-0.31106695532798767,-5.111966609954834
1763701047110463200,11.598463134765625,7.120142936706543,-0.12442677468061447,-5.849554061889648
1763701047120543200,11.608543212890625,7.438687324523926,0.5560321807861328,-6.601797580718994
1763701047130623200,11.618623291015625,7.695018291473389,1.5263217687606812,-7.617550849914551
1763701047140675600,11.628675537109375,7.960920810699463,2.5465614795684814,-9.02841854095459
1763701047150755600,11.638755615234375,8.59322452545166,3.1576285362243652,-10.528120994567871
1763701047160835600,11.648835693359375,9.460622787475586,3.3729825019836426,-11.76162052154541
1763701047170929700,11.6589296875,9.905986785888672,3.411566972732544,-12.489935874938965
1763701047181009700,11.669009765625,9.932307243347168,3.2868409156799316,-12.583255767822266
1763701047191089700,11.679089599609375,9.410074234008789,3.0831520557403564,-12.274282455444336
1763701047201174300,11.68917431640625,8.317750930786133,3.2676985263824463,-11.725728034973145
1763701047211254300,11.699254150390624,7.393223762512207,3.5575289726257324,-11.253744125366211
1763701047221334300,11.709334228515624,6.949953556060791,3.8210387229919434,-10.980663299560547
1763701047231410400,11.719410400390625,6.859025955200195,4.0558342933654785,-10.68126106262207
1763701047241490400,11.729490478515626,6.9690961837768555,4.161118507385254,-10.19491958618164
1763701047251570400,11.7395703125,7.134500026702881,4.1970109939575195,-9.502796173095703
1763701047261655800,11.74965576171875,7.086643218994141,4.240380764007568,-8.664410591125488
1763701047271735800,11.75973583984375,6.964310169219971,4.271487712860107,-7.569694519042969
1763701047281815800,11.76981591796875,6.68644380569458,4.271487712860107,-6.656832695007324
1763701047291894000,11.77989404296875,6.248258113861084,4.269094467163086,-5.907280921936035
1763701047301974000,11.78997412109375,5.737988471984863,4.302594184875488,-5.315356254577637
1763701047312054000,11.800053955078125,5.1343994140625,4.245166301727295,-5.039882659912109
1763701047322134500,11.810134521484375,4.626522541046143,4.194618225097656,-4.936991214752197
1763701047332214500,11.820214599609375,4.211966037750244,4.1659040451049805,-4.862813949584961
1763701047342294500,11.83029443359375,3.905385732650757,4.086941242218018,-4.8915276527404785
1763701047352373200,11.840373291015625,3.7833516597747803,3.955335855484009,-5.080560684204102
1763701047362453200,11.850453369140626,3.737588882446289,3.840181350708008,-5.30339241027832
1763701047372533200,11.860533203125,3.730410575866699,3.79471755027771,-5.2411789894104
1763701047382612500,11.870612548828126,3.819244146347046,3.8138601779937744,-4.913063049316406
1763701047392692500,11.8806923828125,4.056432723999023,3.88803768157959,-4.500899314880371
1763701047402772700,11.890772705078126,4.231108665466309,3.880859136581421,-4.232604026794434
1763701047412832800,11.900832763671875,4.214358806610107,3.880859136581421,-4.177569389343262
1763701047422912800,11.910912841796875,4.092324733734131,3.955335855484009,-4.374079704284668
1763701047432992800,11.92099267578125,4.133002758026123,4.067798614501953,-4.7835516929626465
1763701047443066600,11.931066650390624,4.305285930633545,4.264308929443359,-5.535795211791992
1763701047453146600,11.941146728515625,4.813162803649902,4.5684967041015625,-6.716952323913574
1763701047463227000,11.951226806640625,5.510371208190918,4.78175687789917,-8.324031829833984
1763701047473332200,11.961332275390625,6.171388626098633,4.891826629638672,-9.603294372558594
1763701047483412200,11.971412109375,6.700800895690918,5.033302307128906,-10.147063255310059
1763701047493492200,11.9814921875,6.937989234924316,4.85114860534668,-10.250253677368164
1763701047503575800,11.991575927734376,6.847062110900879,4.395914077758789,-10.068099975585938
1763701047513655800,12.00165576171875,6.542874336242676,3.8473596572875977,-10.096814155578613
1763701047523735800,12.01173583984375,6.185745716094971,3.3155548572540283,-10.597512245178223
1763701047533793300,12.021793212890625,5.96799898147583,3.0065815448760986,-11.708978652954102
1763701047543873300,12.031873291015625,6.075675964355469,2.906083106994629,-13.14377498626709
1763701047553953300,12.041953369140625,6.521338939666748,2.9036903381347656,-14.513964653015137
1763701047564056600,12.052056640625,7.321439266204834,2.845963478088379,-15.448362350463867
1763701047574136600,12.062136474609375,8.164609909057617,2.673680305480957,-15.601502418518066
1763701047584216600,12.072216552734375,8.739485740661621,2.1801605224609375,-14.743974685668945
1763701047594293500,12.08229345703125,8.830412864685059,1.5020943880081177,-13.170095443725586
1763701047604373500,12.09237353515625,8.492725372314453,0.9607182741165161,-11.395219802856445
1763701047614453500,12.10245361328125,8.059026718139648,0.6996015310287476,-9.866804122924805
1763701047624528100,12.112528076171875,7.817052364349365,0.45553362369537354,-8.803194046020508
1763701047634608000,12.122608154296875,7.824530124664307,0.268594354391098,-8.314460754394531
1763701047644688100,12.132688232421875,7.776374340057373,0.3044866919517517,-8.297710418701172
1763701047654742000,12.142741943359376,7.718946933746338,0.4651049077510834,-8.451150894165039
1763701047664822000,12.152822021484376,7.5463643074035645,0.5081757307052612,-8.597112655639648
1763701047674902000,12.162902099609376,7.285546779632568,0.4794618487358093,-8.772088050842285
1763701047684996000,12.17299609375,7.004988193511963,0.37148571014404297,-8.8438720703125
1763701047695076000,12.183076171875,6.703193664550781,0.2470589429140091,-8.70508861541748
1763701047705156000,12.193156005859375,6.305685997009277,0.11994023621082306,-8.393722534179688
1763701047715239000,12.203239013671874,6.018248081207275,0.026620151475071907,-7.857132434844971
1763701047725319000,12.21331884765625,5.634798049926758,-0.11246266216039658,-7.258328437805176
1763701047735399000,12.22339892578125,5.160720348358154,-0.27756741642951965,-6.620940208435059
1763701047745491700,12.23349169921875,4.660022258758545,-0.33738797903060913,-5.86630392074585
1763701047755571700,12.24357177734375,4.183252334594727,-0.35892340540885925,-5.183751106262207
1763701047765651700,12.253651611328126,3.8312082290649414,-0.4046861231327057,-4.735694885253906
1763701047775696400,12.2636962890625,3.625126361846924,-0.38793638348579407,-4.596911430358887
1763701047785776400,12.2737763671875,3.481257915496826,-0.2512463629245758,-4.628017902374268
1763701047795856600,12.283856689453126,3.4621152877807617,-0.00687936507165432,-4.738088130950928
1763701047806022400,12.2940224609375,3.507878065109253,0.24945175647735596,-5.111966609954834
1763701047816102400,12.304102294921876,3.6227335929870605,0.37866419553756714,-5.631507873535156
1763701047826182400,12.314182373046876,3.797708749771118,0.6804589629173279,-6.105885028839111
1763701047836185000,12.32418505859375,4.346263408660889,1.0088738203048706,-6.530013084411621
1763701047846265000,12.33426513671875,5.009673118591309,1.3154542446136475,-6.805486679077148
1763701047856345000,12.344344970703125,5.531907081604004,1.3824533224105835,-6.872485637664795
1763701047866457000,12.35445703125,5.934200286865234,1.051944613456726,-6.695117950439453
1763701047876537000,12.364537109375,6.16181755065918,0.6445665955543518,-6.429215431213379
1763701047886617000,12.3746171875,6.082854270935059,0.3116651475429535,-6.316752910614014
1763701047896726500,12.3847265625,5.630012512207031,0.25423741340637207,-6.601797580718994
1763701047906806500,12.394806640625,5.170291423797607,0.5847460627555847,-7.464111328125
1763701047916886500,12.404886474609375,5.32821798324585,1.0112667083740234,-8.666803359985352
1763701047926880800,12.414880859375,6.243472576141357,1.339382529258728,-10.013065338134766
1763701047936960800,12.424960693359376,7.505686283111572,1.6339987516403198,-11.1676025390625
1763701047947040800,12.435040771484376,8.497511863708496,1.9286150932312012,-11.701800346374512
1763701047957182000,12.445181884765624,8.88544750213623,2.254338026046753,-11.431112289428711
1763701047967262000,12.455261962890624,8.602795600891113,2.5489542484283447,-10.678868293762207
1763701047977342000,12.465342041015624,7.843672752380371,2.656930446624756,-9.804591178894043
1763701047987422000,12.475421875,6.961917400360107,2.5800609588623047,-9.069096565246582
1763701047997461500,12.48546142578125,6.224329948425293,2.441277265548706,-8.793622970581055
1763701048007541200,12.495541259765625,5.694917678833008,2.292623281478882,-8.522934913635254
1763701048017621000,12.50562109375,5.4266228675842285,2.254338026046753,-8.23549747467041
1763701048027721000,12.515720947265624,5.333003520965576,2.383849620819092,-7.971987724304199
1763701048037800700,12.52580078125,5.558228015899658,2.4987051486968994,-7.627122402191162
1763701048047880400,12.53588037109375,5.927021503448486,2.6521449089050293,-7.152745246887207
1763701048058510800,12.5465107421875,6.276971817016602,2.882154941558838,-6.558726787567139
1763701048068590300,12.55659033203125,6.478268146514893,3.073580741882324,-5.971887111663818
1763701048078670000,12.566670166015625,6.480660915374756,3.1600213050842285,-5.430510997772217
1763701048088780800,12.57678076171875,6.28415060043335,3.1432716846466064,-4.996811866760254
1763701048098860500,12.586860595703126,5.862415313720703,3.1166515350341797,-4.6974101066589355
1763701048108940300,12.596940185546876,5.237290382385254,3.0209386348724365,-4.563411712646484
1763701048119000300,12.607000244140625,4.767699241638184,2.68325138092041,-4.5391845703125
1763701048129079800,12.617079833984375,4.47068977355957,2.323729991912842,-4.601696968078613
1763701048139159600,12.62715966796875,4.302893161773682,1.9884356260299683,-4.8074798583984375
1763701048158725600,12.6467255859375,4.422833442687988,1.051944613456726,-5.0255255699157715
1763701048168805400,12.656805419921875,4.585545539855957,0.5177469849586487,-5.164608478546143
1763701048178930400,12.666930419921876,4.796412944793701,0.04576273262500763,-5.30339241027832
1763701048189010200,12.67701025390625,4.983352184295654,-0.33020952343940735,-5.454439163208008
1763701048199089700,12.687089599609376,5.076672554016113,-0.5937191247940063,-5.753840923309326
1763701048209163000,12.6971630859375,5.045565605163574,-0.5458626747131348,-6.091528415679932
1763701048219242500,12.707242431640625,5.004887580871582,-0.46450668573379517,-6.362216472625732
1763701048229322200,12.717322265625,5.208576679229736,-0.42382872104644775,-6.714559555053711
1763701048239382500,12.727382568359374,5.653940677642822,-0.25363919138908386,-7.222136974334717
1763701048249462300,12.737462158203124,6.360720634460449,0.1704886108636856,-7.804490089416504
1763701048259541800,12.747541748046874,7.038786888122559,0.6254240274429321,-8.063214302062988
1763701048269632000,12.757632080078125,7.6304121017456055,0.7692924737930298,-7.93370246887207
1763701048279711500,12.76771142578125,8.068597793579102,0.5584250092506409,-7.59362268447876
1763701048289791200,12.777791259765625,8.248358726501465,0.12711870670318604,-7.6151580810546875
1763701048299883000,12.787883056640625,8.202895164489746,-0.17228323221206665,-7.938488006591797
1763701048309962500,12.79796240234375,7.829315662384033,-0.07627122104167938,-8.602197647094727
1763701048320042200,12.808042236328125,7.421937465667725,0.3403790295124054,-9.667901039123535
1763701048330094300,12.81809423828125,7.488936901092529,0.4651049077510834,-10.990234375
1763701048340173800,12.828173828125,7.848458290100098,0.0026919255033135414,-12.319746017456055
1763701048350253600,12.838253662109375,8.497511863708496,-0.9101698994636536,-13.213465690612793
1763701048360339700,12.848339599609375,9.132207870483398,-1.913659930229187,-13.34985637664795
1763701048370419500,12.85841943359375,9.494122505187988,-2.752045154571533,-12.906586647033691
1763701048380499000,12.8684990234375,9.57069206237793,-3.240779161453247,-12.288640022277832
1763701048390576600,12.87857666015625,9.5802640914917,-3.348755359649658,-11.618051528930664
1763701048400656100,12.88865625,9.170493125915527,-3.0251259803771973,-11.018948554992676
1763701048410735900,12.89873583984375,8.456833839416504,-2.1699910163879395,-10.36510944366455
1763701048420815400,12.9088154296875,8.039883613586426,-1.1614162921905518,-9.885947227478027
1763701048430894800,12.918894775390624,8.0350980758667,-0.36610186100006104,-9.526723861694336
1763701048440974600,12.928974609375,8.078168869018555,0.21595224738121033,-9.066703796386719
1763701048451068700,12.939068603515626,8.080561637878418,0.6469594240188599,-8.460721969604492
1763701048461148400,12.9491484375,7.936992645263672,0.9583254456520081,-7.8403825759887695
1763701048471228000,12.959227783203126,7.817052364349365,1.0016953945159912,-7.3899335861206055
1763701048481297000,12.969296875,7.675876140594482,0.8602197170257568,-7.351648330688477
1763701048491376600,12.979376708984375,7.536793231964111,0.7166503667831421,-7.684549808502197
1763701048501456100,12.9894560546875,7.441080093383789,0.4627120792865753,-8.094321250915527
1763701048511529500,12.999529541015624,7.407580852508545,0.057726845145225525,-8.432007789611816
1763701048521609200,13.009609130859374,7.505686283111572,-0.44775694608688354,-8.695517539978027
1763701048531688700,13.019688720703124,7.678268909454346,-0.9293124675750732,-8.700303077697754
1763701048541781000,13.029781005859375,7.829315662384033,-1.3866406679153442,-8.506185531616211
1763701048551860700,13.03986083984375,7.8628153800964355,-1.5017952919006348,-8.134998321533203
1763701048561940500,13.0499404296875,7.730910778045654,-1.2143574953079224,-7.511967658996582
1763701048572006700,13.060006591796874,7.383652687072754,-0.7639086246490479,-6.8294148445129395
1763701048582086100,13.070086181640624,6.942774772644043,-0.20817556977272034,-6.218647003173828
1763701048592166000,13.080165771484374,6.341578006744385,0.4145565330982208,-5.780162334442139
1763701048602266600,13.0902666015625,5.706881999969482,0.8889335989952087,-5.43290376663208
1763701048612346000,13.10034619140625,5.232504844665527,1.2433704137802124,-5.039882659912109
1763701048622425900,13.11042578125,4.861318111419678,1.5335001945495605,-4.35254430770874
1763701048632508400,13.12050830078125,4.408476829528809,1.9094724655151367,-3.401397466659546
1763701048642588200,13.130588134765626,4.056432723999023,2.431705951690674,-2.3736801147460938
1763701048652667600,13.140667724609376,3.696911096572876,3.0209386348724365,-1.1186445951461792
1763701048662737200,13.150737060546875,3.433401346206665,3.5431721210479736,-0.11006984114646912
1763701048672816600,13.160816650390625,2.918346405029297,4.3911285400390625,0.4336991012096405
1763701048682896400,13.170896484375,2.3171496391296387,5.255835056304932,1.1237293481826782
1763701048692998000,13.180997802734375,1.833201289176941,5.857330799102783,1.41834557056427
1763701048703077600,13.19107763671875,1.466800332069397,6.173482418060303,1.2816556692123413
1763701048713157400,13.201157470703125,1.2032907009124756,6.2500529289245605,0.8383852243423462
1763701048723217400,13.211217529296874,1.2607184648513794,6.118447303771973,0.09840483218431473
1763701048733297200,13.221297119140624,1.550549030303955,5.909972667694092,-1.0516455173492432
1763701048743376600,13.231376708984374,2.1664018630981445,5.742176055908203,-2.328216314315796
