time,seconds_elapsed,z,y,x
1763692624868996400,0.278996337890625,9.66640567779541,2.63449764251709,-0.4378865361213684
1763692624889011200,0.29901123046875,9.709476470947266,2.7110681533813477,-0.380458801984787
1763692624898975500,0.3089755859375,9.594620704650879,2.7349963188171387,-0.33738797903060913
1763692624908970200,0.31897021484375,9.379266738891602,2.778067111968994,-0.3517449200153351
1763692624918881300,0.32888134765625,9.187840461730957,2.840280532836914,-0.32303106784820557
1763692624928972000,0.338971923828125,9.101698875427246,2.9934210777282715,-0.2512463629245758
1763692624938959000,0.348958984375,9.120841979980469,3.1561331748962402,-0.0933200865983963
1763692624948954600,0.35895458984375,9.120841979980469,3.2757742404937744,0.064606212079525
1763692624958945300,0.3689453125,9.038887977600098,3.31884503364563,0.26141586899757385
1763692624968987400,0.3789873046875,8.995817184448242,3.290131092071533,0.3858426511287689
1763692624978999800,0.388999755859375,8.933603286743164,3.0652058124542236,0.1459621787071228
1763692624988993300,0.3989931640625,8.632107734680176,2.940778970718384,-0.4139583110809326
1763692624998997500,0.40899755859375,8.86660385131836,3.4959139823913574,-0.031106693670153618
1763692625008990200,0.418990234375,9.120841979980469,3.586841106414795,0.035892341285943985
1763692625018989600,0.428989501953125,9.106484413146973,3.304488182067871,0.21296121180057526
1763692625029003500,0.43900341796875,9.09691333770752,2.5334010124206543,-0.4666004180908203
1763692625039008800,0.4490087890625,9.465408325195312,3.1274192333221436,-0.6915257573127747
1763692625049014300,0.45901416015625,9.69511890411377,3.7022948265075684,-0.8261220455169678
1763692625059019500,0.46901953125,9.814760208129883,3.562912940979004,-0.3852444589138031
1763692625069009700,0.479009765625,9.628120422363281,3.428914785385132,0.46719861030578613
1763692625079008500,0.489008544921875,9.130413055419922,3.5294134616851807,1.017547845840454
1763692625089022200,0.499022216796875,8.301898002624512,3.8458642959594727,1.1515458822250366
1763692625099027200,0.509027099609375,7.4877400398254395,4.238286972045898,0.9074779748916626
1763692625109030700,0.51903076171875,7.1958160400390625,4.2000017166137695,0.6681957244873047
1763692625119035000,0.529034912109375,7.425527095794678,3.9320058822631836,0.4336991012096405
1763692625129068800,0.53906884765625,7.846663475036621,3.8219358921051025,0.1986042857170105
1763692625139085600,0.54908544921875,8.39282512664795,3.769293785095215,0.05024927482008934
1763692625149079300,0.559079345703125,8.93838882446289,3.668795347213745,-0.09810572862625122
1763692625159086300,0.56908642578125,9.470193862915039,3.4719855785369873,-0.2273181527853012
1763692625169063000,0.57906298828125,9.824331283569336,3.2709884643554688,-0.31824541091918945
1763692625179057200,0.58905712890625,10.01575756072998,3.1417760848999023,-0.29431718587875366
1763692625189070600,0.599070556640625,10.068399429321289,3.13220477104187,-0.11724831163883209
1763692625199072800,0.60907275390625,9.771689414978027,3.3332018852233887,0.06939185410737991
1763692625209072000,0.619072021484375,9.41755199432373,3.6496527194976807,0.3236292600631714
1763692625219073000,0.629072998046875,9.283554077148438,3.548556089401245,0.9601200819015503
1763692625229080000,0.639080078125,9.3457670211792,3.376272678375244,1.4536397457122803
1763692625239081700,0.649081787109375,9.65683364868164,3.266202926635742,1.6307085752487183
1763692625249106200,0.659106201171875,8.622536659240723,3.0556344985961914,1.6307085752487183
1763692625259110100,0.669110107421875,8.053044319152832,3.3858439922332764,0.7734799385070801
1763692625269122000,0.6791220703125,7.966304779052734,3.0029923915863037,0.34277185797691345
1763692625279126800,0.689126708984375,7.679165840148926,2.1409780979156494,-0.3086741268634796
1763692625289124000,0.6991240234375,8.14397144317627,3.2231321334838867,0.13639089465141296
1763692625299128000,0.709128173828125,8.316255569458008,3.9942193031311035,0.5868397355079651
1763692625309130800,0.719130859375,8.349754333496094,3.9080774784088135,1.165902853012085
1763692625319134700,0.729134765625,8.636893272399902,3.572484254837036,1.7407784461975098
1763692625329149000,0.73914892578125,8.904889106750488,3.366701364517212,2.056631088256836
1763692625339154000,0.74915380859375,9.058030128479004,3.232703447341919,2.0614166259765625
1763692625349163000,0.7591630859375,9.058030128479004,3.0269205570220947,1.7886348962783813
1763692625359168300,0.769168212890625,9.18305492401123,2.9838497638702393,1.3100703954696655
1763692625369154600,0.779154541015625,9.407979965209961,3.0556344985961914,0.7782655358314514
1763692625379158000,0.789157958984375,9.460622787475586,3.1513473987579346,0.4863412082195282
1763692625389174500,0.799174560546875,9.29312515258789,3.1657042503356934,0.47676992416381836
1763692625399179300,0.80917919921875,9.302696228027344,3.13220477104187,0.5581258535385132
1763692625409184500,0.8191845703125,9.498908042907715,3.0939197540283203,0.706480860710144
1763692625419189200,0.829189208984375,9.80518913269043,3.022135019302368,0.9361918568611145
1763692625429182500,0.839182373046875,10.140782356262207,2.8929226398468018,1.1850453615188599
1763692625439186000,0.84918603515625,10.475777626037598,2.801995277404785,1.3914263248443604
1763692625449205200,0.859205322265625,10.614561080932617,2.744567632675171,1.5302101373672485
1763692625459210500,0.86921044921875,10.48534870147705,2.720639228820801,1.6115660667419434
1763692625469211000,0.8792109375,10.17428207397461,2.610569477081299,1.5541383028030396
1763692625479215600,0.889215576171875,9.972686767578125,2.586043119430542,1.4057832956314087
1763692625489209000,0.899208984375,9.771689414978027,2.6775684356689453,1.506281852722168
1763692625499212500,0.909212646484375,9.675976753234863,2.7014968395233154,1.5158531665802002
1763692625509227300,0.919227294921875,9.652048110961914,2.7876384258270264,1.6450655460357666
1763692625519232000,0.92923193359375,9.470193862915039,2.864208698272705,1.7790635824203491
1763692625529231600,0.939231689453125,9.355338096618652,2.9168508052825928,1.8843477964401245
1763692625539235800,0.94923583984375,9.235696792602539,3.036491870880127,1.8939191102981567
1763692625549241900,0.959241943359375,8.96231746673584,3.108276605606079,1.841277003288269
1763692625559246000,0.96924609375,8.71346378326416,3.1417760848999023,1.6307085752487183
1763692625569227500,0.9792275390625,8.632107734680176,3.218346357345581,1.4679967164993286
1763692625579229700,0.989229736328125,8.632107734680176,3.2614171504974365,1.333998680114746
1763692625589261000,0.999260986328125,8.718249320983887,3.160918712615967,1.357926845550537
1763692625599266000,1.00926611328125,8.823533058166504,3.13220477104187,1.357926845550537
1763692625609259800,1.019259765625,8.947959899902344,3.1752755641937256,1.3674981594085693
1763692625619263700,1.029263671875,8.97667407989502,3.290131092071533,1.511067509651184
1763692625629275400,1.039275390625,9.019744873046875,3.3619158267974854,1.6115660667419434
1763692625639279900,1.04927978515625,9.101698875427246,3.4193434715270996,1.7024933099746704
1763692625649285000,1.05928515625,9.120841979980469,3.4480574131011963,1.688136339187622
1763692625659289900,1.069289794921875,9.173483848571777,3.4193434715270996,1.6450655460357666
1763692625669285400,1.079285400390625,9.116056442260742,3.414557933807373,1.5254244804382324
1763692625679289000,1.0892890625,9.09691333770752,3.5198421478271484,1.3770694732666016
1763692625689276400,1.0992763671875,9.072386741638184,3.644867181777954,1.4249259233474731
1763692625699278600,1.109278564453125,9.081958770751953,3.731008768081665,1.5780665874481201
1763692625709300500,1.119300537109375,9.034101486206055,3.7645082473754883,1.8077775239944458
1763692625719304700,1.1293046875,8.995817184448242,3.716651678085327,1.9752750396728516
1763692625729308400,1.139308349609375,8.995817184448242,3.6400814056396484,2.090130567550659
1763692625739312600,1.149312744140625,9.058030128479004,3.5772697925567627,2.090130567550659
1763692625749338400,1.15933837890625,9.116056442260742,3.5198421478271484,2.0135602951049805
1763692625759344400,1.169344482421875,9.09691333770752,3.486342668533325,1.8939191102981567
1763692625769342700,1.1793427734375,8.981459617614746,3.510270833969116,1.8699909448623657
1763692625779348200,1.18934814453125,8.914461135864258,3.500699520111084,1.8508483171463013
1763692625789337600,1.199337646484375,8.885746955871582,3.4576287269592285,1.8077775239944458
1763692625799341300,1.20934130859375,8.895318031311035,3.3332018852233887,1.683350682258606
1763692625809354200,1.219354248046875,9.034101486206055,3.2470602989196777,1.6115660667419434
1763692625819359000,1.22935888671875,9.135198593139648,3.1417760848999023,1.5445669889450073
1763692625829353000,1.23935302734375,9.288339614868164,3.036491870880127,1.4488540887832642
1763692625839356400,1.2493564453125,9.412766456604004,2.9790642261505127,1.3148560523986816
1763692625849360600,1.259360595703125,9.460622787475586,2.950350284576416,1.2185449600219727
1763692625859364400,1.2693642578125,9.451051712036133,2.926422119140625,1.1467602252960205
1763692625869369600,1.27936962890625,9.384052276611328,2.9359934329986572,1.103689432144165
1763692625879373600,1.28937353515625,9.297910690307617,2.950350284576416,1.1467602252960205
1763692625889389000,1.29938916015625,9.187840461730957,2.964707374572754,1.252044439315796
1763692625899394000,1.30939404296875,9.135198593139648,3.0173492431640625,1.3866406679153442
1763692625909389000,1.31938916015625,9.106484413146973,3.050848960876465,1.4249259233474731
1763692625919393000,1.32939306640625,9.058030128479004,3.046063184738159,1.3962119817733765
1763692625929408800,1.33940869140625,9.125627517700195,3.06999135017395,1.3722838163375854
1763692625939414000,1.3494140625,9.211769104003906,3.146561861038208,1.4488540887832642
1763692625949388500,1.359388427734375,9.259625434875488,3.184846878051758,1.5589239597320557
1763692625959390500,1.369390380859375,9.254839897155762,3.218346357345581,1.6546368598937988
1763692625969416000,1.379416015625,9.18305492401123,3.280559778213501,1.726421594619751
1763692625979420400,1.38942041015625,9.101698875427246,3.294916868209839,1.683350682258606
1763692625989427200,1.39942724609375,9.092127799987793,3.2470602989196777,1.5828521251678467
1763692625999431700,1.409431640625,9.144769668579102,3.2279176712036133,1.4536397457122803
1763692626009429500,1.419429443359375,9.245268821716309,3.1992039680480957,1.3674981594085693
1763692626019433500,1.42943359375,9.384052276611328,3.13220477104187,1.2951152324676514
1763692626029440300,1.439440185546875,9.5324068069458,3.1034910678863525,1.3004990816116333
1763692626039444500,1.449444580078125,9.647262573242188,3.1130621433258057,1.353141188621521
1763692626049460500,1.45946044921875,9.699904441833496,3.136990547180176,1.3962119817733765
1763692626059466000,1.469466064453125,9.723833084106445,3.1274192333221436,1.3962119817733765
1763692626069464600,1.479464599609375,9.738189697265625,3.1752755641937256,1.420140266418457
1763692626079469000,1.489468994140625,9.723833084106445,3.1896326541900635,1.4584254026412964
1763692626089466000,1.499466064453125,9.704689979553223,3.218346357345581,1.4775680303573608
1763692626099469800,1.5094697265625,9.65683364868164,3.2518460750579834,1.5302101373672485
1763692626109473500,1.5194736328125,9.55633544921875,3.3475589752197266,1.5397813320159912
1763692626119477500,1.5294775390625,9.489336013793945,3.4002010822296143,1.5589239597320557
1763692626129491500,1.539491455078125,9.41755199432373,3.4719855785369873,1.5876377820968628
1763692626139496200,1.54949609375,9.355338096618652,3.4815568923950195,1.6163517236709595
1763692626149508400,1.55950830078125,9.326624870300293,3.5294134616851807,1.659422516822815
1763692626159513900,1.569513916015625,9.278767585754395,3.5533416271209717,1.6977076530456543
1763692626169514500,1.579514404296875,9.197412490844727,3.5676984786987305,1.7838492393493652
1763692626179519500,1.58951953125,9.09691333770752,3.5437703132629395,1.841277003288269
1763692626189515000,1.599514892578125,9.029315948486328,3.5054850578308105,1.8891334533691406
1763692626199519000,1.60951904296875,8.96231746673584,3.4672000408172607,1.8843477964401245
1763692626209516500,1.6195166015625,9.000602722167969,3.3954153060913086,1.8269200325012207
1763692626219520000,1.62952001953125,9.139984130859375,3.290131092071533,1.7647067308425903
1763692626229524200,1.639524169921875,9.302696228027344,3.122633457183838,1.7216359376907349
1763692626239527700,1.649527587890625,9.527621269226074,2.8689942359924316,1.664208173751831
1763692626249534200,1.6595341796875,9.757332801818848,2.720639228820801,1.592423439025879
1763692626259538000,1.669537841796875,9.853045463562012,2.6249263286590576,1.5014961957931519
1763692626269556700,1.679556640625,9.924830436706543,2.5286152362823486,1.4536397457122803
1763692626279562200,1.689562255859375,9.881759643554688,2.5429723262786865,1.4775680303573608
1763692626289569500,1.699569580078125,9.68076229095459,2.562114953994751,1.6019947528839111
1763692626299575000,1.709574951171875,9.43190860748291,2.5812573432922363,1.6211373805999756
1763692626309576700,1.71957666015625,9.130413055419922,2.6392834186553955,1.511067509651184
1763692626319582000,1.72958203125,8.842676162719727,2.644068956375122,1.3435698747634888
1763692626329550000,1.739550048828125,8.507680892944336,2.6249263286590576,1.1994023323059082
1763692626339551500,1.749551513671875,8.139185905456543,2.644068956375122,1.0654042959213257
1763692626349566500,1.75956640625,7.932805061340332,2.682354211807251,1.0462616682052612
1763692626359569400,1.7695693359375,7.966304779052734,2.6727828979492188,1.0462616682052612
1763692626369593000,1.779593017578125,8.201399803161621,2.6727828979492188,0.8979067206382751
1763692626379597800,1.789597900390625,8.402397155761719,2.706282377243042,0.6634100675582886
1763692626389595000,1.799594970703125,8.47896671295166,2.8594231605529785,0.4815555512905121
1763692626399598800,1.809598876953125,7.8658061027526855,2.073979139328003,-0.4139583110809326
1763692626409617000,1.819616943359375,8.569893836975098,2.523829698562622,0.08374879509210587
1763692626419622400,1.829622314453125,9.187840461730957,2.912065267562866,0.6203392744064331
1763692626429612500,1.839612548828125,8.86660385131836,2.6009981632232666,0.9026923179626465
1763692626439616500,1.849616455078125,7.961519241333008,2.744567632675171,2.0470597743988037
1763692626449628700,1.859628662109375,8.225327491760254,1.9926230907440186,1.534995675086975
1763692626459633400,1.86963330078125,8.785248756408691,1.1258230209350586,1.9369899034500122
1763692626469631000,1.879630859375,8.067401885986328,2.3611178398132324,2.2576282024383545
1763692626479635000,1.889635009765625,7.861020565032959,3.0556344985961914,1.6977076530456543
1763692626489654000,1.899654052734375,7.63609504699707,3.218346357345581,1.165902853012085
1763692626499659500,1.909659423828125,7.444669246673584,2.825923442840576,0.7639086246490479
1763692626509646300,1.919646240234375,7.631309509277344,2.169692039489746,0.15553347766399384
1763692626519649800,1.92964990234375,8.249256134033203,1.7437695264816284,-0.5958128571510315
1763692626529673000,1.9396728515625,9.014959335327148,1.7629120349884033,-1.3286148309707642
1763692626539678700,1.9496787109375,9.57069206237793,1.877767562866211,-1.80717933177948
1763692626549653000,1.959653076171875,9.833903312683105,1.882553219795227,-1.80717933177948
1763692626559655200,1.9696552734375,9.594620704650879,1.7629120349884033,-1.4243277311325073
1763692626569671700,1.979671630859375,9.297910690307617,1.7437695264816284,-0.9170492887496948
1763692626579675400,1.98967529296875,9.675976753234863,1.6528422832489014,-0.08853443711996078
1763692626589697800,1.99969775390625,9.55633544921875,1.7964116334915161,1.2281162738800049
1763692626599703300,2.009703369140625,8.799605369567871,2.0069799423217773,1.7168502807617188
1763692626609701600,2.01970166015625,8.397610664367676,2.222334146499634,1.353141188621521
1763692626619706600,2.02970654296875,8.249256134033203,2.475973129272461,1.6259230375289917
1763692626629693400,2.039693359375,8.100900650024414,2.050050735473633,1.994417667388916
1763692626639696400,2.0496962890625,8.191828727722168,1.7198412418365479,2.1714866161346436
1763692626649707300,2.059707275390625,8.641678810119629,1.7629120349884033,2.5357937812805176
1763692626659711200,2.069711181640625,9.163912773132324,1.8011972904205322,2.190629243850708
1763692626669725400,2.079725341796875,9.317052841186523,1.8394824266433716,1.9417755603790283
1763692626679730200,2.089730224609375,9.776474952697754,1.724626898765564,2.0997018814086914
1763692626689720600,2.099720458984375,10.552348136901855,1.2023934125900269,1.659422516822815
1763692626699724000,2.10972412109375,11.050054550170898,0.8003991842269897,1.597209095954895
1763692626709741300,2.1197412109375,11.567502975463867,0.6999006271362305,2.0709879398345947
1763692626719746000,2.12974609375,11.797213554382324,0.5850451588630676,2.3198416233062744
1763692626729753300,2.13975341796875,12.041281700134277,0.5324030518531799,2.2815563678741455
1763692626739758300,2.14975830078125,12.247662544250488,0.5419743061065674,2.3294129371643066
1763692626749759500,2.159759521484375,12.122637748718262,0.5563312768936157,2.334198474884033
1763692626759764200,2.16976416015625,11.56271743774414,0.5659025311470032,2.3635106086730957
1763692626769757400,2.17975732421875,10.925628662109375,0.7334001660346985,2.430509567260742
1763692626779761200,2.18976123046875,10.356136322021484,0.9966106414794922,2.4400808811187744
1763692626789777200,2.199777099609375,9.920044898986816,1.2263215780258179,2.5597219467163086
1763692626799782000,2.209781982421875,9.733404159545898,1.412961721420288,2.7463622093200684
1763692626809757700,2.2197578125,9.65683364868164,1.7198412418365479,2.7846474647521973
1763692626819759600,2.229759521484375,9.623334884643555,1.5954145193099976,2.971287488937378
1763692626829790700,2.239790771484375,8.397610664367676,1.3028919696807861,3.263211965560913
1763692626839795500,2.24979541015625,7.932805061340332,1.8394824266433716,2.7176482677459717
1763692626849793500,2.25979345703125,9.982257843017578,1.705484390258789,2.2337000370025635
1763692626859797500,2.269797607421875,10.475777626037598,1.077966570854187,2.38265323638916
1763692626869800400,2.279800537109375,10.796415328979492,1.0061819553375244,2.4400808811187744
1763692626879804400,2.289804443359375,11.164910316467285,1.0683952569961548,2.349153518676758
1763692626889822700,2.29982275390625,11.102697372436523,0.8913264274597168,2.2959132194519043
1763692626899828000,2.309827880859375,10.700702667236328,0.6711867451667786,2.2815563678741455
1763692626909803300,2.31980322265625,10.198209762573242,0.6903293132781982,2.4017956256866455
1763692626919805700,2.3298056640625,9.685547828674316,1.0444670915603638,2.7559335231781006
1763692626929827800,2.339827880859375,9.336195945739746,1.2215359210968018,3.067000389099121
1763692626939832000,2.34983203125,8.9910306930542,1.2598211765289307,2.9904301166534424
1763692626949826800,2.359826904296875,8.943174362182617,1.322034478187561,2.712862730026245
1763692626959830000,2.369830078125,9.067601203918457,1.389033555984497,2.430509567260742
1763692626969851400,2.379851318359375,9.441479682922363,1.2693923711776733,2.1475582122802734
1763692626979856600,2.389856689453125,9.934401512145996,0.9535398483276367,1.8556339740753174
1763692626989855500,2.39985546875,10.269994735717773,0.6185446381568909,1.6067804098129272
1763692626999860000,2.40985986328125,10.557133674621582,0.4217349886894226,1.4009976387023926
1763692627009849600,2.419849609375,10.729416847229004,0.4456632137298584,1.2329018115997314
1763692627019852500,2.4298525390625,10.753344535827637,0.35473597049713135,1.165902853012085
1763692627029869000,2.439869140625,10.681560516357422,0.23988047242164612,1.1324033737182617
1763692627039873500,2.44987353515625,10.657631874084473,0.2350948303937912,1.079761266708374
1763692627049875000,2.459875,10.657631874084473,0.12502498924732208,0.9984052777290344
1763692627059879000,2.46987890625,10.561919212341309,0.1537388563156128,0.8883354067802429
1763692627069887000,2.479886962890625,10.370492935180664,0.2925225794315338,0.8548358678817749
1763692627079891500,2.489891357421875,10.159924507141113,0.4743770956993103,0.9553344249725342
1763692627089911000,2.4999111328125,10.039685249328613,0.49351966381073,1.1276177167892456
1763692627099917000,2.5099169921875,10.058828353881836,0.537188708782196,1.2951152324676514
1763692627109921300,2.51992138671875,10.049257278442383,0.5994020700454712,1.4584254026412964
1763692627119927000,2.529927001953125,9.977472305297852,0.6137589812278748,1.7072789669036865
1763692627129919500,2.53991943359375,9.896116256713867,0.623330295085907,1.970489501953125
1763692627139923700,2.549923828125,9.80518913269043,0.6472585201263428,2.0374884605407715
1763692627149939700,2.559939697265625,9.7669038772583,0.6807580590248108,1.8795621395111084
1763692627159945200,2.5699453125,9.757332801818848,0.714257538318634,1.683350682258606
1763692627169937000,2.57993701171875,9.776474952697754,0.8051848411560059,1.6019947528839111
1763692627179941000,2.589941162109375,9.642477035522461,0.8291130661964417,1.7359927892684937
1763692627189958100,2.599958251953125,9.407979965209961,0.9822536706924438,1.9657038450241089
1763692627199963600,2.609963623046875,9.18305492401123,1.2454642057418823,2.286342144012451
1763692627209954000,2.6199541015625,8.86660385131836,1.475175142288208,2.507079839706421
1763692627219958000,2.6299580078125,8.718249320983887,1.5810575485229492,2.688934564590454
1763692627229955300,2.639955322265625,8.689535140991211,1.633699655532837,2.7224340438842773
1763692627239958500,2.64995849609375,8.703892707824707,1.72941255569458,2.727219581604004
1763692627249966300,2.65996630859375,8.766105651855469,1.8921245336532593,2.6362924575805664
1763692627259970000,2.669969970703125,9.053244590759277,1.7916259765625,1.7312071323394775
1763692627269981000,2.67998095703125,9.762118339538574,1.6049858331680298,1.1228320598602295
1763692627279985400,2.6899853515625,9.752547264099121,1.3316057920455933,1.7359927892684937
1763692627289978000,2.69997802734375,9.977472305297852,0.9152546525001526,1.750349760055542
1763692627299981300,2.709981201171875,9.953543663024902,0.714257538318634,1.9992033243179321
1763692627310002700,2.720002685546875,9.843474388122559,0.7812566161155701,2.066202402114868
1763692627320008000,2.730008056640625,9.991828918457031,0.8530412912368774,1.8029918670654297
1763692627330001700,2.740001708984375,10.29870891571045,0.9583254456520081,1.4632110595703125
1763692627340005600,2.750005615234375,10.925628662109375,1.1736794710159302,1.6977076530456543
1763692627350018800,2.760018798828125,11.237293243408203,1.2837493419647217,1.8317056894302368
1763692627360023800,2.77002392578125,10.949556350708008,0.7429714202880859,1.9848463535308838
1763692627370000600,2.780000732421875,10.710273742675781,1.1114661693572998,1.7838492393493652
1763692627380002800,2.7900029296875,10.226923942565918,1.700698733329773,1.726421594619751
1763692627390014200,2.80001416015625,9.565906524658203,1.8394824266433716,2.1475582122802734
1763692627400017200,2.81001708984375,9.159127235412598,1.8490537405014038,2.5597219467163086
1763692627410017000,2.82001708984375,8.924032211303711,1.9016958475112915,2.894717216491699
1763692627420019700,2.830019775390625,8.636893272399902,2.050050735473633,2.8516464233398438
1763692627430025500,2.840025390625,8.507680892944336,2.1026928424835205,2.7846474647521973
1763692627440028400,2.8500283203125,8.407182693481445,2.0404794216156006,2.8037898540496826
1763692627450068000,2.86006787109375,8.411968231201172,1.9591234922409058,2.8755745887756348
1763692627460074800,2.87007470703125,8.383254051208496,1.705484390258789,2.9904301166534424
1763692627470077000,2.880076904296875,8.431110382080078,1.4847464561462402,2.9665019512176514
1763692627480083200,2.890083251953125,8.579465866088867,1.3555340766906738,2.861217737197876
1763692627490081800,2.900081787109375,8.191828727722168,1.3363914489746094,2.899502754211426
1763692627500087000,2.910087158203125,8.344968795776367,1.2502498626708984,3.1100711822509766
1763692627510088400,2.92008837890625,8.565108299255371,1.077966570854187,3.1866414546966553
1763692627520093400,2.930093505859375,8.97667407989502,0.867398202419281,3.191427230834961
1763692627530087700,2.940087646484375,9.460622787475586,0.7381857633590698,3.0861430168151855
1763692627540091600,2.950091552734375,9.915258407592773,0.5994020700454712,3.191427230834961
1763692627550105900,2.96010595703125,10.116255760192871,0.6903293132781982,3.3930225372314453
1763692627560110800,2.97011083984375,10.308279991149902,0.833898663520813,3.751945972442627
1763692627570116000,2.9801162109375,10.327422142028809,0.8626125454902649,3.9050865173339844
1763692627580121000,2.99012109375,10.159924507141113,0.8386843204498291,3.7806596755981445
1763692627590110200,3.000110107421875,9.723833084106445,1.0061819553375244,3.4983067512512207
1763692627600113700,3.01011376953125,9.067601203918457,1.2598211765289307,3.2201411724090576
1763692627610135600,3.020135498046875,8.541180610656738,1.389033555984497,3.10528564453125
1763692627620140800,3.030140869140625,8.344968795776367,1.456032633781433,3.090928554534912
1763692627630148600,3.040148681640625,8.426324844360352,1.5134602785110474,3.1627132892608643
1763692627640154000,3.050154052734375,8.526823043823242,1.451246976852417,3.224926710128784
1763692627650153000,3.060153076171875,8.622536659240723,1.3603196144104004,3.2057840824127197
1763692627660157700,3.07015771484375,8.679964065551758,1.3363914489746094,2.9760732650756836
1763692627670157000,3.080156982421875,8.785248756408691,1.3363914489746094,2.8037898540496826
1763692627680161300,3.090161376953125,8.790034294128418,1.3459627628326416,2.712862730026245
1763692627690169900,3.100169921875,8.368897438049316,1.3938192129135132,2.7463622093200684
1763692627700174600,3.110174560546875,8.096115112304688,1.5038890838623047,2.8420751094818115
1763692627710172000,3.120171875,8.057829856872559,1.6049858331680298,2.8516464233398438
1763692627720175900,3.13017578125,8.397610664367676,1.6049858331680298,2.8085756301879883
1763692627730188000,3.14018798828125,8.842676162719727,1.5858432054519653,2.7846474647521973
1763692627740192800,3.15019287109375,9.192625999450684,1.4991034269332886,2.7463622093200684
1763692627750183400,3.160183349609375,9.522835731506348,1.4895321130752563,2.8516464233398438
1763692627760186600,3.1701865234375,9.585049629211426,1.4608181715011597,2.9186453819274902
1763692627770201900,3.180201904296875,9.503693580627441,1.475175142288208,3.1148569583892822
1763692627780206300,3.190206298828125,9.403194427490234,1.5038890838623047,3.301496982574463
1763692627790211300,3.20021142578125,9.302696228027344,1.451246976852417,3.315854072570801
1763692627800215800,3.2102158203125,9.254839897155762,1.3555340766906738,3.224926710128784
1763692627810218800,3.22021875,9.317052841186523,1.322034478187561,3.2105698585510254
1763692627820223200,3.23022314453125,9.489336013793945,1.2263215780258179,3.1387851238250732
1763692627830220800,3.240220703125,9.699904441833496,1.1880364418029785,3.200998544692993
1763692627840224300,3.250224365234375,9.800403594970703,1.1210373640060425,3.4408788681030273
1763692627850238500,3.260238525390625,9.618548393249512,1.0827522277832031,3.469592809677124
1763692627860243000,3.270242919921875,9.474979400634766,1.1210373640060425,3.248854875564575
1763692627870248000,3.280248046875,9.474979400634766,1.2215359210968018,3.1148569583892822
1763692627880252700,3.290252685546875,9.441479682922363,1.2598211765289307,3.1627132892608643
1763692627890254000,3.300254150390625,9.479764938354492,1.1306086778640747,3.0957143306732178
1763692627900258600,3.310258544921875,9.522835731506348,1.073180913925171,3.009572744369507
1763692627910249000,3.3202490234375,9.451051712036133,1.1018948554992676,2.9425735473632812
1763692627920252000,3.330251953125,9.250054359436035,1.1880364418029785,2.9282166957855225
1763692627930272800,3.340272705078125,9.029315948486328,1.317248821258545,3.04307222366333
1763692627940277500,3.350277587890625,8.804390907287598,1.384247899055481,3.0717861652374268
1763692627950276900,3.36027685546875,8.751749038696289,1.0444670915603638,2.933002471923828
1763692627960281000,3.370281005859375,9.829116821289062,1.1114661693572998,3.0382864475250244
1763692627970288600,3.38028857421875,9.144769668579102,1.3124631643295288,2.9856443405151367
1763692627980293000,3.390293212890625,10.868200302124023,0.07238288223743439,2.7320053577423096
1763692627990299000,3.400298828125,12.069995880126953,1.3651052713394165,3.0239295959472656
1763692628000303600,3.4103037109375,10.753344535827637,1.3363914489746094,3.2105698585510254
1763692628010303700,3.4203037109375,8.995817184448242,1.1210373640060425,3.339782238006592
1763692628020308000,3.430307861328125,8.359326362609863,1.9351953268051147,3.067000389099121
1763692628030303500,3.440303466796875,8.249256134033203,2.3946173191070557,2.870789051055908
1763692628040307000,3.450306884765625,8.00937557220459,2.246262311935425,2.956930637359619
1763692628050314500,3.460314453125,8.110472679138184,2.026122570037842,2.9282166957855225
1763692628060318200,3.470318115234375,8.694320678710938,1.949552297592163,2.885145902633667
1763692628070332700,3.480332763671875,9.197412490844727,1.7916259765625,2.7942185401916504
1763692628080337400,3.49033740234375,9.55633544921875,1.6576279401779175,2.712862730026245
1763692628090342100,3.500342041015625,9.857831001281738,1.638485312461853,2.617149829864502
1763692628100347000,3.510346923828125,10.15035343170166,1.6002001762390137,2.6841487884521484
1763692628110318800,3.52031884765625,10.159924507141113,1.638485312461853,2.7320053577423096
1763692628120320300,3.5303203125,10.010972023010254,1.1832507848739624,1.8891334533691406
1763692628130332200,3.540332275390625,10.849058151245117,1.8394824266433716,1.8604196310043335
1763692628140334600,3.55033447265625,10.341779708862305,1.6145570278167725,1.4632110595703125
1763692628150364400,3.560364501953125,10.336994171142578,1.7868403196334839,1.7599210739135742
1763692628160369700,3.57036962890625,10.226923942565918,2.131406784057617,1.6450655460357666
1763692628170381300,3.58038134765625,10.470992088317871,2.294118642807007,2.104487419128418
1763692628180387000,3.590386962890625,10.571490287780762,2.5334010124206543,2.5357937812805176
1763692628190356500,3.6003564453125,10.418350219726562,2.720639228820801,3.004786968231201
1763692628200358700,3.610358642578125,9.824331283569336,2.9838497638702393,3.2727832794189453
1763692628210388000,3.620387939453125,8.096115112304688,3.3092737197875977,4.72881555557251
1763692628220393000,3.63039306640625,0.8847461938858032,5.545366287231445,6.27996301651001
1763692628230397000,3.64039697265625,3.36969256401062,5.339583873748779,2.48315167427063
1763692628240401700,3.650401611328125,7.612166881561279,2.0309081077575684,1.6067804098129272
1763692628250375200,3.660375244140625,9.269196510314941,2.9072794914245605,3.1627132892608643
1763692628260376800,3.670376953125,9.1112699508667,3.5581271648406982,4.230510234832764
1763692628270415000,3.6804150390625,8.321041107177734,2.5573291778564453,4.292723655700684
1763692628280420600,3.690420654296875,7.813164234161377,2.988635540008545,3.617947816848755
1763692628290421500,3.70042138671875,8.263612747192383,3.6735808849334717,2.6985056400299072
1763692628300426500,3.710426513671875,8.541180610656738,3.817150354385376,2.703291416168213
1763692628310407200,3.7204072265625,8.536395072937012,3.697509288787842,3.1722846031188965
1763692628320409600,3.73040966796875,8.517251968383789,3.596412420272827,3.555734395980835
1763692628330447400,3.740447265625,8.665607452392578,3.4432718753814697,3.799802303314209
1763692628340453000,3.750453125,9.379266738891602,3.1992039680480957,3.751945972442627
1763692628350450000,3.760449951171875,10.96869945526123,2.950350284576416,3.5509488582611084
1763692628360455200,3.770455078125,11.921640396118164,2.8450660705566406,2.4400808811187744
1763692628370431000,3.780430908203125,10.801201820373535,2.940778970718384,2.2911276817321777
1763692628380433000,3.790432861328125,9.465408325195312,3.208775281906128,2.894717216491699
1763692628390467300,3.80046728515625,8.723034858703613,3.4241292476654053,2.349153518676758
1763692628400472600,3.81047265625,7.454240798950195,3.8697924613952637,3.6083765029907227
1763692628410468400,3.82046826171875,-30.125038146972656,6.522236347198486,1.4775680303573608
1763692628420472600,3.83047265625,-3.0179476737976074,5.861817359924316,0.0023928226437419653
1763692628430501600,3.840501708984375,20.531614303588867,-0.4061816334724426,8.679366111755371
1763692628440508400,3.85050830078125,11.304292678833008,1.470389485359192,7.740781307220459
1763692628450500400,3.860500244140625,8.349754333496094,3.6640095710754395,2.406581401824951
1763692628460505600,3.870505615234375,8.928817749023438,3.160918712615967,2.8899314403533936
1763692628470495700,3.880495849609375,10.41356372833252,2.499901533126831,4.043870449066162
1763692628480499700,3.890499755859375,11.13619613647461,2.7828526496887207,3.541377544403076
1763692628490533400,3.900533447265625,10.753344535827637,3.0795626640319824,2.679363250732422
1763692628500540200,3.9105400390625,10.442277908325195,2.806781053543091,3.6945180892944336
1763692628510492000,3.920491943359375,10.006186485290527,2.6967110633850098,4.1347975730896
1763692628520493000,3.9304931640625,9.652048110961914,2.7397818565368652,3.10528564453125
1763692628530500000,3.9405,9.197412490844727,2.8737800121307373,3.3445677757263184
1763692628540502000,3.950501953125,8.890532493591309,3.060420274734497,4.201796531677246
1763692628550551000,3.960551025390625,8.9910306930542,3.146561861038208,4.091726779937744
1763692628560557600,3.9705576171875,9.283554077148438,3.218346357345581,3.1004998683929443
1763692628570519300,3.980519287109375,9.393623352050781,3.3092737197875977,2.166700839996338
1763692628580521500,3.990521484375,9.312267303466797,3.3475589752197266,2.1619153022766113
1763692628590560800,4.000560791015625,9.04845905303955,3.572484254837036,2.6697919368743896
1763692628600566500,4.01056640625,8.703892707824707,3.7980077266693115,3.0717861652374268
1763692628610597600,4.02059765625,8.258827209472656,3.586841106414795,3.3206396102905273
1763692628620606000,4.03060595703125,8.330612182617188,3.802793502807617,3.421736478805542
1763692628630570500,4.040570556640625,8.790034294128418,4.013361930847168,3.627519130706787
1763692628640574500,4.050574462890625,9.20698356628418,3.8123645782470703,3.531806230545044
1763692628650587000,4.0605869140625,9.269196510314941,3.160918712615967,3.277568817138672
1763692628660591600,4.070591552734375,8.9910306930542,3.074777126312256,3.0622148513793945
1763692628670573000,4.080572998046875,8.545966148376465,3.050848960876465,3.10528564453125
1763692628680575500,4.090575439453125,8.316255569458008,2.9072794914245605,3.507878065109253
1763692628690589700,4.100589599609375,8.210970878601074,3.0029923915863037,3.8428730964660645
1763692628700593200,4.11059326171875,8.244470596313477,3.022135019302368,4.000799655914307
1763692628710607600,4.120607666015625,8.612964630126953,2.6057839393615723,3.737588882446289
1763692628720612400,4.1306123046875,8.536395072937012,2.6057839393615723,4.130012035369873
1763692628730606300,4.1406064453125,8.440681457519531,2.5573291778564453,3.737588882446289
1763692628740609800,4.15060986328125,8.718249320983887,2.026122570037842,2.626721143722534
1763692628750628000,4.160628173828125,9.814760208129883,0.9631111025810242,1.4967105388641357
1763692628760633000,4.170633056640625,7.3776702880859375,1.8346967697143555,3.8811583518981934
1763692628770626600,4.18062646484375,7.526025295257568,2.667997360229492,5.140381336212158
1763692628780630300,4.19063037109375,9.072386741638184,1.322034478187561,4.771886348724365
1763692628790593500,4.200593505859375,9.757332801818848,1.23589289188385,4.513461589813232
1763692628800593400,4.210593505859375,7.913662910461426,2.294118642807007,4.7958149909973145
1763692628810643500,4.2206435546875,7.200601577758789,2.428116798400879,6.8309102058410645
1763692628850622500,4.26062255859375,7.966304779052734,2.8689942359924316,4.422534465789795
1763692628860623000,4.270623046875,7.856235027313232,2.6536402702331543,3.680161237716675
1763692628870674200,4.280674072265625,8.158329010009766,2.466402053833008,3.215355396270752
1763692628880680000,4.290679931640625,8.368897438049316,2.2749760150909424,3.7567315101623535
1763692628890687000,4.30068701171875,8.210970878601074,1.949552297592163,2.861217737197876
1763692628900693000,4.31069287109375,8.47896671295166,1.8490537405014038,2.2337000370025635
1763692628910642700,4.320642578125,8.6033935546875,1.8394824266433716,2.459223508834839
1763692628920642800,4.330642822265625,8.684749603271484,1.7724833488464355,2.569293260574341
1763692628930696000,4.340696044921875,8.890532493591309,1.7198412418365479,2.5022943019866943
1763692628940701400,4.350701416015625,9.135198593139648,1.6959130764007568,2.430509567260742
1763692628950688800,4.360688720703125,9.460622787475586,1.700698733329773,2.3635106086730957
1763692628960692500,4.3706923828125,9.896116256713867,1.7820546627044678,1.6977076530456543
1763692628970723000,4.38072314453125,10.039685249328613,1.6289139986038208,1.1180464029312134
1763692628980729600,4.3907294921875,9.79083251953125,1.5565310716629028,1.439282774925232
1763692628990720500,4.400720458984375,9.66640567779541,1.3794622421264648,1.7312071323394775
1763692629000725500,4.4107255859375,9.814760208129883,1.231107234954834,1.6211373805999756
1763692629010730200,4.420730224609375,9.79083251953125,1.0492527484893799,1.688136339187622
1763692629020735200,4.4307353515625,9.589835166931152,0.8913264274597168,1.7838492393493652
1763692629030755300,4.44075537109375,9.384052276611328,0.9200403094291687,1.8747764825820923
1763692629040761600,4.45076171875,9.29312515258789,0.9200403094291687,2.1236300468444824
1763692629050760000,4.460760009765625,9.436694145202637,0.9966106414794922,1.9896320104599
1763692629060765400,4.470765380859375,9.479764938354492,0.5946164131164551,2.3922245502471924
1763692629070763800,4.480763671875,9.714262008666992,0.43130627274513245,2.8085756301879883
1763692629080768800,4.490768798828125,10.077970504760742,0.49351966381073,2.8037898540496826
1763692629090779400,4.500779296875,10.332208633422852,0.43609192967414856,2.8803603649139404
1763692629100784600,4.51078466796875,10.403992652893066,0.24945175647735596,2.9665019512176514
1763692629110773000,4.52077294921875,10.418350219726562,0.10588239878416061,2.9425735473632812
1763692629120776700,4.530776611328125,10.451848983764648,0.048454657196998596,2.789433002471924
1763692629130782200,4.5407822265625,10.432706832885742,0.06759724020957947,2.6458635330200195
1763692629160773000,4.570773193359375,10.188638687133789,0.23030917346477509,2.459223508834839
1763692629170799900,4.5807998046875,10.077970504760742,0.4743770956993103,2.30069899559021
1763692629180804400,4.590804443359375,9.843474388122559,0.6137589812278748,2.1954147815704346
1763692629190807000,4.60080712890625,9.618548393249512,0.7668996453285217,2.008774518966675
1763692629200811300,4.610811279296875,9.412766456604004,0.98703932762146,1.8269200325012207
1763692629210797800,4.6207978515625,9.230911254882812,1.0923235416412354,1.7599210739135742
1763692629220800300,4.63080029296875,9.317052841186523,1.058824062347412,1.7455641031265259
1763692629230822400,4.640822509765625,9.508479118347168,1.054038405418396,1.7790635824203491
1763692629240827000,4.650826904296875,9.795618057250977,1.0205388069152832,1.8269200325012207
1763692629250812700,4.660812744140625,9.479764938354492,0.8721838593482971,1.9226330518722534
1763692629260815000,4.670815185546875,9.690333366394043,0.6759724020957947,2.1475582122802734
1763692629270820400,4.6808203125,9.470193862915039,0.5994020700454712,2.406581401824951
1763692629280823000,4.690822998046875,10.389636039733887,1.0444670915603638,2.104487419128418
1763692629290853400,4.700853271484375,10.03011417388916,1.1018948554992676,1.908276081085205
1763692629300859000,4.71085888671875,9.833903312683105,1.077966570854187,1.8987047672271729
1763692629310862300,4.7208623046875,10.087542533874512,1.0923235416412354,1.9178473949432373
1763692629320867600,4.73086767578125,10.159924507141113,1.0396814346313477,1.7599210739135742
1763692629330876700,4.740876708984375,10.116255760192871,0.9343972206115723,1.7982062101364136
1763692629340882400,4.75088232421875,10.183853149414062,0.9726824164390564,1.817348837852478
1763692629350888400,4.760888427734375,10.087542533874512,1.0301101207733154,1.8460626602172852
1763692629360894000,4.77089404296875,10.049257278442383,0.9918249845504761,1.750349760055542
1763692629370887000,4.780886962890625,10.116255760192871,0.9918249845504761,1.6163517236709595
1763692629380891100,4.79089111328125,10.657631874084473,0.9439685344696045,1.5206388235092163
1763692629390884000,4.800884033203125,9.910472869873047,0.8147560954093933,1.4009976387023926
1763692629400887000,4.810886962890625,10.490134239196777,0.8961120843887329,1.2185449600219727
1763692629410901200,4.8209013671875,10.595418930053711,0.8865407705307007,1.0558329820632935
1763692629420905500,4.830905517578125,11.011770248413086,0.747757077217102,0.9170492887496948
1763692629430914600,4.84091455078125,11.002198219299316,0.6424728631973267,1.0654042959213257
1763692629440919300,4.850919189453125,11.078768730163574,0.43609192967414856,1.280758261680603
1763692629450929400,4.860929443359375,10.801201820373535,-0.01375873014330864,1.3483555316925049
1763692629460934700,4.8709345703125,10.786844253540039,-0.1908276081085205,1.1850453615188599
1763692629470908400,4.880908447265625,10.52363395690918,-0.28175488114356995,0.7591229677200317
1763692629480910300,4.890910400390625,10.518848419189453,-0.3248256742954254,0.4336991012096405
1763692629490937600,4.9009375,10.475777626037598,-0.41575294733047485,0.3523431420326233
1763692629510949000,4.92094921875,9.972686767578125,-0.4253242313861847,1.2711870670318604
1763692629520953900,4.930953857421875,10.246066093444824,-0.5066801905632019,1.4584254026412964
1763692629530956500,4.94095654296875,10.681560516357422,-0.22911277413368225,0.2560320198535919
1763692629560977700,4.970977783203125,10.155138969421387,0.14895321428775787,-1.6109678745269775
1763692629570954800,4.980954833984375,9.829116821289062,0.37866419553756714,-0.2847459018230438
1763692629580957200,4.990957275390625,9.66640567779541,0.5706881880760193,0.4815555512905121
1763692629590988500,5.000988525390625,9.57069206237793,0.7525427341461182,0.6777670383453369
1763692629600994000,5.010994140625,9.728618621826172,0.8291130661964417,0.23210379481315613
1763692629611003000,5.0210029296875,9.671191215515137,0.8626125454902649,-0.45224347710609436
1763692629621008600,5.031008544921875,9.340981483459473,1.0253244638442993,-0.09810572862625122
1763692629630997000,5.0409970703125,8.9910306930542,1.077966570854187,0.04546362906694412
1763692629641001000,5.0510009765625,8.708678245544434,1.164108157157898,0.15074782073497772
1763692629651020500,5.0610205078125,8.48853874206543,1.1545369625091553,0.4911268353462219
1763692629661026000,5.071026123046875,8.25404167175293,1.1545369625091553,0.7974081635475159
1763692629671026000,5.08102587890625,8.167900085449219,1.168893814086914,1.012762188911438
1763692629681031000,5.091031005859375,8.153543472290039,1.2550355195999146,1.017547845840454
1763692629691010800,5.1010107421875,8.225327491760254,1.3076776266098022,1.0654042959213257
1763692629701013200,5.11101318359375,8.421539306640625,1.322034478187561,1.103689432144165
1763692629711016200,5.12101611328125,8.71346378326416,1.293320655822754,1.1132607460021973
1763692629721018600,5.1310185546875,8.900103569030762,1.3028919696807861,1.0271191596984863
1763692629731028700,5.14102880859375,9.038887977600098,1.3028919696807861,0.9649057388305664
1763692629741032000,5.151031982421875,9.144769668579102,1.2406785488128662,0.9170492887496948
1763692629751065000,5.161065185546875,9.178269386291504,1.2502498626708984,0.8739784955978394
1763692629761071400,5.1710712890625,9.187840461730957,1.3603196144104004,0.8979067206382751
1763692629771068400,5.181068359375,9.283554077148438,1.384247899055481,1.0079765319824219
1763692629781073700,5.19107373046875,9.364909172058105,1.3076776266098022,1.1754741668701172
1763692629791078400,5.201078369140625,9.384052276611328,1.3268201351165771,1.2376874685287476
1763692629801083600,5.211083740234375,9.494122505187988,1.412961721420288,1.2233306169509888
1763692629811076900,5.221076904296875,9.537193298339844,1.475175142288208,1.1371889114379883
1763692629821080800,5.231080810546875,9.460622787475586,1.5326029062271118,1.0701899528503418
1763692629831096300,5.241096435546875,9.508479118347168,1.5086746215820312,1.0845468044281006
1763692629841101600,5.2511015625,9.484550476074219,1.4991034269332886,1.1132607460021973
1763692629851105500,5.26110546875,9.479764938354492,1.6241283416748047,1.0845468044281006
1763692629861110500,5.271110595703125,9.403194427490234,1.700698733329773,1.1180464029312134
1763692629871110700,5.281110595703125,9.269196510314941,1.7437695264816284,1.1850453615188599
1763692629881115100,5.291115234375,9.254839897155762,1.7868403196334839,1.2424731254577637
1763692629891118800,5.301118896484375,9.278767585754395,1.7964116334915161,1.2472587823867798
1763692629901123300,5.311123291015625,9.32183837890625,1.7964116334915161,1.2233306169509888
1763692629911123000,5.321123046875,9.374481201171875,1.85383939743042,1.1994023323059082
1763692629921127000,5.331126953125,9.398408889770508,1.9112670421600342,1.1324033737182617
1763692629931133400,5.341133544921875,9.436694145202637,1.944766640663147,1.1515458822250366
1763692629941137700,5.3511376953125,9.474979400634766,1.877767562866211,1.189831018447876
1763692629951130400,5.36113037109375,9.5802640914917,1.8059829473495483,1.2903295755386353
1763692629961133600,5.371133544921875,9.704689979553223,1.7820546627044678,1.3818551301956177
1763692629971159600,5.38115966796875,9.872187614440918,1.8011972904205322,1.4536397457122803
1763692629981165000,5.3911650390625,9.982257843017578,1.85383939743042,1.5445669889450073
1763692629991147300,5.401147216796875,10.077970504760742,1.9543378353118896,2.0039889812469482
1763692630001150200,5.411150146484375,10.13599681854248,2.0404794216156006,1.8269200325012207
1763692630011167500,5.42116748046875,10.03011417388916,2.1122641563415527,1.8987047672271729
1763692630021171700,5.431171630859375,9.795618057250977,2.3563320636749268,2.2193429470062256
1763692630031183000,5.44118310546875,9.546764373779297,2.5286152362823486,2.3150558471679688
1763692630041188400,5.451188232421875,9.379266738891602,2.682354211807251,2.4400808811187744
1763692630051167500,5.46116748046875,9.250054359436035,2.8929226398468018,2.276770830154419
1763692630061170200,5.471170166015625,9.1112699508667,2.998206853866577,2.2337000370025635
1763692630071200000,5.481199951171875,9.08674430847168,3.060420274734497,2.166700839996338
1763692630081205500,5.49120556640625,9.043673515319824,3.0173492431640625,2.080559253692627
1763692630091205600,5.50120556640625,9.092127799987793,2.806781053543091,1.908276081085205
1763692630101210400,5.51121044921875,9.235696792602539,2.610569477081299,1.688136339187622
1763692630111195400,5.5211953125,9.312267303466797,2.437688112258911,1.5014961957931519
1763692630121198000,5.531197998046875,9.340981483459473,2.32761812210083,1.3770694732666016
1763692630131196400,5.541196533203125,9.393623352050781,2.2654049396514893,1.256830096244812
1763692630141198600,5.551198486328125,9.317052841186523,2.3132612705230713,1.1180464029312134
1763692630151237000,5.561237060546875,9.422337532043457,2.3371894359588623,1.079761266708374
1763692630161243000,5.571242919921875,9.470193862915039,2.279761791229248,1.098903775215149
1763692630171224000,5.58122412109375,9.575477600097656,2.3371894359588623,1.1419745683670044
1763692630181227500,5.5912275390625,9.647262573242188,2.428116798400879,1.194616675376892
1763692630191247000,5.6012470703125,9.565906524658203,2.4951157569885254,1.2185449600219727
1763692630201252000,5.611252197265625,9.5324068069458,2.5429723262786865,1.2281162738800049
1763692630211258600,5.621258544921875,9.94397258758545,2.9455647468566895,1.1515458822250366
1763692630221263600,5.631263671875,10.451848983764648,2.816352367401123,1.3148560523986816
1763692630231261000,5.641260986328125,8.746963500976562,2.169692039489746,1.6977076530456543
1763692630241265200,5.65126513671875,8.177471160888672,2.523829698562622,1.6977076530456543
1763692630251244000,5.661244140625,6.879364967346191,3.6299118995666504,1.5254244804382324
1763692630261245700,5.67124560546875,7.923233985900879,3.9080774784088135,1.6354942321777344
1763692630271272400,5.6812724609375,8.067401885986328,2.9312076568603516,2.17627215385437
1763692630281276700,5.691276611328125,8.617751121520996,2.5764718055725098,2.4113669395446777
1763692630291269400,5.701269287109375,9.245268821716309,2.8689942359924316,2.190629243850708
1763692630301272300,5.711272216796875,9.800403594970703,2.8929226398468018,2.1475582122802734
1763692630311304000,5.721303955078125,9.728618621826172,2.63449764251709,2.152343988418579
1763692630321309700,5.731309814453125,9.178269386291504,2.4233310222625732,2.444866418838501
1763692630331315000,5.74131494140625,9.230911254882812,2.4807589054107666,1.836491346359253
1763692630341320700,5.75132080078125,9.312267303466797,3.5772697925567627,1.2329018115997314
1763692630351308000,5.76130810546875,9.043673515319824,3.314059257507324,1.2137593030929565
1763692630361312000,5.77131201171875,9.235696792602539,2.902493953704834,2.11405873298645
1763692630371325200,5.7813251953125,9.451051712036133,2.8450660705566406,2.4735803604125977
1763692630381330200,5.791330078125,9.953543663024902,3.13220477104187,2.2576282024383545
1763692630391336200,5.801336181640625,9.65683364868164,2.4185454845428467,2.4496521949768066
1763692630401341200,5.811341064453125,9.54197883605957,2.0404794216156006,2.0853450298309326
1763692630411324000,5.821323974609375,9.685547828674316,2.8689942359924316,1.280758261680603
1763692630421326800,5.831326904296875,9.671191215515137,3.108276605606079,1.2903295755386353
1763692630431358000,5.84135791015625,9.57069206237793,3.0077781677246094,1.6450655460357666
1763692630441363500,5.851363525390625,9.235696792602539,2.9168508052825928,1.9896320104599
1763692630461352000,5.87135205078125,8.416753768920898,3.0652058124542236,1.7934205532073975
1763692630471344600,5.8813447265625,8.26839828491211,3.050848960876465,1.683350682258606
1763692630481347000,5.89134716796875,8.383254051208496,2.974278450012207,1.568495273590088
1763692630501384000,5.911384033203125,8.995817184448242,2.888136863708496,1.3244273662567139
1763692630511373000,5.921373046875,9.187840461730957,2.9312076568603516,1.2903295755386353
1763692630521376800,5.931376708984375,9.302696228027344,2.964707374572754,1.3244273662567139
1763692630531389200,5.94138916015625,9.41755199432373,3.012563705444336,1.3483555316925049
1763692630541394000,5.951393798828125,9.494122505187988,3.050848960876465,1.2759727239608765
1763692630551402500,5.961402587890625,9.527621269226074,3.060420274734497,1.189831018447876
1763692630561407700,5.97140771484375,9.54197883605957,3.06999135017395,1.1802598237991333
1763692630571402800,5.98140283203125,9.54197883605957,3.084348440170288,1.1754741668701172
1763692630581406700,5.99140673828125,9.546764373779297,3.074777126312256,1.2041879892349243
1763692630591402200,6.00140234375,9.55633544921875,3.0652058124542236,1.0893324613571167
1763692630601405200,6.0114052734375,9.647262573242188,2.998206853866577,0.8261220455169678
1763692630611429400,6.021429443359375,9.675976753234863,2.926422119140625,0.6777670383453369
1763692630621435000,6.031434814453125,9.809974670410156,2.8689942359924316,0.6011967062950134
1763692630631439000,6.041439208984375,9.843474388122559,2.912065267562866,0.5868397355079651
1763692630641444000,6.051444091796875,9.853045463562012,2.9168508052825928,0.5054838061332703
1763692630651447300,6.061447265625,9.771689414978027,3.012563705444336,0.4145565330982208
1763692630661452300,6.071452392578125,9.589835166931152,3.160918712615967,0.3858426511287689
1763692630671452200,6.0814521484375,9.412766456604004,3.3571300506591797,0.3332005441188812
1763692630681456600,6.09145654296875,9.302696228027344,3.4337005615234375,0.23210379481315613
1763692630691463700,6.101463623046875,9.139984130859375,3.5294134616851807,0.12681959569454193
1763692630701468400,6.111468505859375,9.09691333770752,3.601198196411133,0.05503492057323456
1763692630711461600,6.121461669921875,9.038887977600098,3.5054850578308105,0.031106693670153618
1763692630721465000,6.131465087890625,9.058030128479004,3.2853455543518066,-0.13639089465141296
1763692630731458600,6.14145849609375,9.014959335327148,3.0029923915863037,-0.10767702013254166
1763692630741461000,6.1514609375,8.995817184448242,2.8354947566986084,-0.10289137065410614
1763692630751470800,6.161470947265625,9.120841979980469,2.7493531703948975,-0.08853443711996078
1763692630761474000,6.17147412109375,9.254839897155762,2.6536402702331543,-0.040677983313798904
1763692630771500300,6.181500244140625,9.43190860748291,2.6967110633850098,0.035892341285943985
1763692630781506000,6.191506103515625,9.489336013793945,2.8211379051208496,0.07896314561367035
1763692630791479600,6.2014794921875,9.479764938354492,3.0317063331604004,0.13639089465141296
1763692630801482000,6.21148193359375,9.340981483459473,3.2039895057678223,0.21774685382843018
1763692630811491300,6.2214912109375,9.130413055419922,3.3475589752197266,0.24167509377002716
1763692630831526100,6.241526123046875,8.660821914672852,3.3619158267974854,0.2949153780937195
1763692630851509000,6.261509033203125,8.383254051208496,3.242274761199951,0.08374879509210587
1763692630861512000,6.271511962890625,8.402397155761719,3.1274192333221436,0.08853443711996078
1763692630871542800,6.281542724609375,8.50289535522461,2.912065267562866,0.11724831163883209
1763692630881548500,6.291548583984375,8.751749038696289,2.825923442840576,0.1698904037475586
1763692630891534800,6.301534912109375,8.909674644470215,2.720639228820801,0.1746760457754135
1763692630901538800,6.311538818359375,9.043673515319824,2.475973129272461,0.05503492057323456
1763692630911560700,6.321560791015625,9.235696792602539,2.3802602291107178,-0.05024927482008934
1763692630921566500,6.33156640625,9.360123634338379,2.3371894359588623,-0.1698904037475586
1763692630931573500,6.341573486328125,9.388837814331055,2.2749760150909424,-0.23688943684101105
1763692630941579300,6.351579345703125,9.369695663452148,2.279761791229248,-0.2512463629245758
1763692630951578600,6.36157861328125,9.451051712036133,2.2749760150909424,-0.27038896083831787
1763692630961583600,6.37158349609375,9.494122505187988,2.2366909980773926,-0.0933200865983963
1763692630971588900,6.3815888671875,9.441479682922363,2.241476535797119,-0.031106693670153618
1763692630981593900,6.39159375,9.460622787475586,2.3515465259552,-0.1698904037475586
1763692630991591700,6.401591796875,9.355338096618652,2.4233310222625732,-0.26081767678260803
1763692631001596200,6.41159619140625,9.144769668579102,2.4951157569885254,-0.26081767678260803
1763692631011594800,6.4215947265625,9.029315948486328,2.586043119430542,-0.33738797903060913
1763692631021598500,6.431598388671875,9.010173797607422,2.730210542678833,-0.1986042857170105
1763692631031607300,6.441607177734375,8.947959899902344,2.854637384414673,-0.09810572862625122
1763692631041611500,6.451611572265625,8.9910306930542,2.9216363430023193,0.0023928226437419653
1763692631051615700,6.46161572265625,8.995817184448242,2.902493953704834,0.04546362906694412
1763692631061620000,6.471619873046875,9.029315948486328,2.8211379051208496,-0.040677983313798904
1763692631071612000,6.48161181640625,9.197412490844727,2.706282377243042,0.007178467698395252
1763692631081614800,6.49161474609375,9.29312515258789,2.5429723262786865,0.04546362906694412
1763692631091633200,6.501633056640625,9.503693580627441,2.3946173191070557,0.1459621787071228
1763692631101638000,6.511637939453125,9.623334884643555,2.145763635635376,0.2949153780937195
1763692631111640800,6.521640869140625,9.546764373779297,1.973480463027954,0.36670008301734924
1763692631121645300,6.531645263671875,9.762118339538574,1.9016958475112915,0.3762713670730591
1763692631131640600,6.541640625,9.699904441833496,1.973480463027954,0.28534409403800964
1763692631141644000,6.55164404296875,9.661619186401367,2.083550214767456,0.23688943684101105
1763692631151642000,6.56164208984375,9.632905960083008,2.155334949493408,0.19381862878799438
1763692631161645000,6.57164501953125,9.652048110961914,2.2271196842193604,-0.08374879509210587
1763692631171677200,6.58167724609375,9.661619186401367,2.2366909980773926,0.040677983313798904
1763692631181683000,6.591682861328125,9.479764938354492,2.475973129272461,0.15074782073497772
1763692631191671000,6.601671142578125,9.379266738891602,2.499901533126831,-0.035892341285943985
1763692631201675000,6.611675048828125,9.235696792602539,2.620140790939331,0.13160525262355804
1763692631211664400,6.621664306640625,9.139984130859375,2.562114953994751,-0.21774685382843018
1763692631221667000,6.6316669921875,9.043673515319824,2.490330219268799,-0.34695929288864136
1763692631231708200,6.641708251953125,8.818747520446777,2.3563320636749268,-0.2560320198535919
1763692631241714400,6.65171435546875,8.469395637512207,2.241476535797119,0.4001995921134949
1763692631251698700,6.66169873046875,9.04845905303955,2.4424736499786377,0.9505487680435181
1763692631261703000,6.671702880859375,9.269196510314941,2.2606191635131836,0.7591229677200317
1763692631271721500,6.681721435546875,9.173483848571777,2.3084757328033447,0.5054838061332703
1763692631281727200,6.691727294921875,9.187840461730957,2.0931215286254883,0.5916253924369812
1763692631291724000,6.70172412109375,9.489336013793945,1.9016958475112915,0.49591249227523804
1763692631301728800,6.711728759765625,9.78126049041748,1.6432709693908691,0.21296121180057526
1763692631311715800,6.7217158203125,9.81954574584961,1.4943177700042725,0.7016952633857727
1763692631321718800,6.73171875,9.795618057250977,1.3459627628326416,1.0462616682052612
1763692631331743000,6.741742919921875,9.661619186401367,1.3268201351165771,1.5828521251678467
1763692631341748000,6.751748046875,9.920044898986816,1.470389485359192,1.6402798891067505
1763692631351754200,6.761754150390625,9.65683364868164,1.5278172492980957,1.4105689525604248
1763692631361759500,6.771759521484375,9.537193298339844,1.456032633781433,1.2472587823867798
1763692631371763200,6.78176318359375,9.690333366394043,1.4656038284301758,1.2041879892349243
1763692631381768400,6.7917685546875,9.594620704650879,1.4416756629943848,1.2759727239608765
1763692631391776300,6.8017763671875,9.57069206237793,1.2741780281066895,1.2376874685287476
1763692631401781800,6.81178173828125,9.68076229095459,1.144965648651123,1.3627125024795532
1763692631411779600,6.821779541015625,9.809974670410156,1.0923235416412354,1.726421594619751
1763692631421784000,6.8317841796875,10.001399993896484,1.058824062347412,1.9657038450241089
1763692631431764200,6.84176416015625,10.159924507141113,1.0348957777023315,2.17627215385437
1763692631441766400,6.851766357421875,10.231709480285645,0.98703932762146,2.2815563678741455
1763692631451788300,6.861788330078125,10.265209197998047,0.9631111025810242,2.334198474884033
1763692631461792500,6.87179248046875,10.341779708862305,0.9631111025810242,2.3198416233062744
1763692631471791000,6.881791015625,10.370492935180664,1.0253244638442993,2.2241287231445312
1763692631481794600,6.891794677734375,10.389636039733887,1.1545369625091553,2.1571295261383057
1763692631491813400,6.9018134765625,10.408778190612793,1.2167502641677856,2.1332013607025146
1763692631501818400,6.911818359375,10.408778190612793,1.2215359210968018,2.200200319290161
1763692631511822800,6.92182275390625,10.389636039733887,1.231107234954834,2.286342144012451
1763692631521827800,6.931827880859375,10.423135757446289,1.1976077556610107,2.373081922531128
1763692631531824600,6.94182470703125,10.380064964294434,1.0875378847122192,2.349153518676758
1763692631541828900,6.951828857421875,10.308279991149902,1.0253244638442993,2.2576282024383545
1763692631551827000,6.961826904296875,10.39920711517334,0.9966106414794922,2.090130567550659
1763692631561830400,6.971830322265625,10.494919776916504,0.9104689955711365,1.9561325311660767
1763692631571849000,6.981848876953125,10.576275825500488,0.900897741317749,1.755135416984558
1763692631581854000,6.99185400390625,10.628918647766113,0.8482556343078613,1.6211373805999756
1763692631591855400,7.00185546875,9.953543663024902,0.3930211067199707,1.8460626602172852
1763692631601859800,7.01185986328125,10.767702102661133,0.5706881880760193,1.3818551301956177
1763692631611854600,7.0218544921875,10.60977554321289,1.2885349988937378,0.9744769930839539
1763692631621858300,7.0318583984375,10.533205032348633,1.1353943347930908,0.9505487680435181
1763692631631877600,7.041877685546875,10.466206550598145,0.9966106414794922,1.0606186389923096
1763692631641883000,7.0518828125,10.432706832885742,0.9726824164390564,0.9744769930839539
1763692631651885600,7.061885498046875,10.360921859741211,0.9535398483276367,0.8644071817398071
1763692631661890600,7.071890625,10.279565811157227,1.0444670915603638,0.7734799385070801
1763692631671875600,7.08187548828125,10.332208633422852,1.077966570854187,0.6921239495277405
1763692631681878500,7.09187841796875,10.322636604309082,0.9822536706924438,0.8165507316589355
1763692631691896800,7.101896728515625,10.313065528869629,0.8913264274597168,0.9649057388305664
1763692631701901300,7.1119013671875,10.475777626037598,0.8386843204498291,1.1515458822250366
1763692631711879000,7.12187890625,10.456634521484375,0.7046862840652466,1.357926845550537
1763692631721880600,7.131880615234375,10.466206550598145,0.6041877269744873,1.5158531665802002
1763692631731897000,7.14189697265625,10.370492935180664,0.5946164131164551,1.7312071323394775
1763692631741900300,7.151900390625,10.034899711608887,0.5324030518531799,1.8795621395111084
1763692631751896600,7.161896484375,9.800403594970703,0.48394837975502014,1.573280930519104
1763692631761899000,7.17189892578125,9.704689979553223,0.48394837975502014,1.333998680114746
1763692631771926800,7.1819267578125,9.45583724975586,0.5174478888511658,1.256830096244812
1763692631781931800,7.191931884765625,9.067601203918457,0.7046862840652466,1.4297115802764893
1763692631791940600,7.201940673828125,9.014959335327148,1.0013962984085083,1.4488540887832642
1763692631801945900,7.21194580078125,9.06281566619873,0.8195417523384094,1.506281852722168
1763692631811938600,7.2219384765625,9.254839897155762,0.7716853022575378,0.9457631707191467
1763692631821942500,7.231942626953125,9.18305492401123,0.9631111025810242,0.8691928386688232
1763692631831932700,7.2419326171875,8.93838882446289,1.2598211765289307,0.8835497498512268
1763692631841935000,7.25193505859375,8.842676162719727,1.3124631643295288,0.7304090857505798
1763692631851975400,7.261975341796875,8.804390907287598,1.384247899055481,0.6969096064567566
1763692631861981700,7.271981689453125,8.761320114135742,1.5230315923690796,0.7926225066184998
1763692631871950800,7.281950927734375,8.770891189575195,1.5619150400161743,1.1132607460021973
1763692631881953500,7.29195361328125,8.804390907287598,1.6193426847457886,0.5868397355079651
1763692631891968500,7.301968505859375,8.785248756408691,1.6863417625427246,0.39062830805778503
1763692631901972500,7.311972412109375,8.703892707824707,1.7341982126235962,0.7208378314971924
1763692631911967700,7.3219677734375,8.670392990112305,1.7437695264816284,0.8356932997703552
1763692631921970700,7.331970703125,8.703892707824707,1.7629120349884033,0.7782655358314514
1763692631932008400,7.342008544921875,8.770891189575195,1.7916259765625,0.6394818425178528
1763692631942015000,7.352014892578125,8.833105087280273,1.8681962490081787,0.5198407173156738
1763692631952001300,7.362001220703125,9.010173797607422,1.9208383560180664,0.4911268353462219
1763692631962005800,7.372005859375,9.139984130859375,1.9591234922409058,0.5006981492042542
1763692631972004600,7.382004638671875,9.245268821716309,2.0069799423217773,0.6107679605484009
1763692631982008600,7.392008544921875,9.326624870300293,2.0548365116119385,0.7160521745681763
1763692631992003000,7.402003173828125,9.41755199432373,2.1026928424835205,0.8165507316589355
1763692632002006000,7.412006103515625,9.474979400634766,2.1409780979156494,0.8356932997703552
1763692632012037400,7.422037353515625,9.522835731506348,2.169692039489746,0.8979067206382751
1763692632022043100,7.432043212890625,9.594620704650879,2.131406784057617,1.0558329820632935
1763692632032042000,7.4420419921875,9.608977317810059,2.121835470199585,1.1802598237991333
1763692632042047000,7.452046875,9.57069206237793,2.1505494117736816,1.1994023323059082
1763692632052053800,7.4620537109375,9.503693580627441,2.2271196842193604,1.1419745683670044
1763692632062059000,7.47205908203125,9.451051712036133,2.2893331050872803,1.1276177167892456
1763692632072036600,7.48203662109375,9.364909172058105,2.341975212097168,1.2329018115997314
1763692632082039000,7.4920390625,9.29312515258789,2.3611178398132324,1.3244273662567139
1763692632092056000,7.50205615234375,9.302696228027344,2.3802602291107178,1.4057832956314087
1763692632102059800,7.512059814453125,9.350552558898926,2.4089741706848145,1.4967105388641357
1763692632112089000,7.522089111328125,9.393623352050781,2.4185454845428467,1.5541383028030396
1763692632122095600,7.532095703125,9.412766456604004,2.38983154296875,1.6354942321777344
1763692632132083700,7.542083740234375,9.422337532043457,2.3994028568267822,1.7168502807617188
1763692632142088200,7.552088134765625,9.451051712036133,2.41375994682312,1.7790635824203491
1763692632152075500,7.562075439453125,9.465408325195312,2.4329023361206055,1.8077775239944458
1763692632162078200,7.572078125,9.508479118347168,2.38983154296875,1.9369899034500122
1763692632172105700,7.582105712890625,9.561120986938477,2.2654049396514893,1.9513468742370605
1763692632182111000,7.592111083984375,9.66640567779541,1.973480463027954,1.9226330518722534
1763692632192120600,7.60212060546875,9.709476470947266,1.7533408403396606,1.5828521251678467
1763692632202126300,7.612126220703125,9.824331283569336,2.586043119430542,1.5014961957931519
1763692632212109000,7.622109130859375,9.89133071899414,2.1409780979156494,1.7886348962783813
1763692632222112300,7.6321123046875,9.742975234985352,1.6002001762390137,2.200200319290161
1763692632232124200,7.642124267578125,9.723833084106445,1.6049858331680298,2.0135602951049805
1763692632242128400,7.65212841796875,9.963115692138672,1.7389838695526123,1.8317056894302368
1763692632252145200,7.662145263671875,10.106684684753418,1.7198412418365479,1.7407784461975098
1763692632262150700,7.672150634765625,10.116255760192871,1.5565310716629028,1.7024933099746704
1763692632272143400,7.682143310546875,10.198209762573242,1.3938192129135132,1.812563180923462
1763692632282147600,7.692147705078125,10.365707397460938,1.2215359210968018,1.9369899034500122
1763692632292161000,7.7021611328125,10.380064964294434,1.1258230209350586,1.908276081085205
1763692632302166000,7.712166015625,10.29870891571045,1.1018948554992676,1.7072789669036865
1763692632312164400,7.722164306640625,10.17428207397461,1.1784651279449463,1.5445669889450073
1763692632322168800,7.7321689453125,10.01575756072998,1.2454642057418823,1.4536397457122803
1763692632332169700,7.742169677734375,9.824331283569336,1.29810631275177,1.420140266418457
1763692632342173700,7.752173583984375,9.5802640914917,1.389033555984497,1.2903295755386353
1763692632352185900,7.762185791015625,9.388837814331055,1.412961721420288,0.9314061999320984
1763692632362190600,7.772190673828125,9.460622787475586,1.5278172492980957,1.074975609779358
1763692632372202000,7.782201904296875,9.489336013793945,1.5858432054519653,1.1371889114379883
1763692632382207500,7.79220751953125,9.494122505187988,1.5810575485229492,1.1611171960830688
1763692632392175900,7.80217578125,9.43190860748291,1.633699655532837,1.1563315391540527
1763692632402177500,7.812177490234375,9.427123069763184,1.6863417625427246,1.0414760112762451
1763692632412205000,7.822205078125,9.369695663452148,1.7629120349884033,0.9266205430030823
1763692632422209500,7.83220947265625,9.312267303466797,1.8442680835723877,0.8117650747299194
1763692632432218600,7.842218505859375,9.240483283996582,1.9112670421600342,0.735194742679596
1763692632442223400,7.852223388671875,9.159127235412598,1.9926230907440186,0.6586244106292725
1763692632452220000,7.862219970703125,9.144769668579102,2.145763635635376,0.6681957244873047
1763692632462224000,7.872223876953125,9.106484413146973,2.207977056503296,0.7447660565376282
1763692632472228600,7.882228515625,9.053244590759277,2.2271196842193604,0.8548358678817749
1763692632482232600,7.892232666015625,9.019744873046875,2.2271196842193604,1.017547845840454
1763692632492247600,7.90224755859375,9.043673515319824,2.2845473289489746,1.1515458822250366
1763692632502252500,7.91225244140625,9.000602722167969,2.3228325843811035,1.2664014101028442
1763692632512251600,7.922251708984375,8.919246673583984,2.3467607498168945,1.3004990816116333
1763692632522256100,7.932256103515625,8.93838882446289,2.490330219268799,1.3196417093276978
1763692632532268500,7.9422685546875,8.957531929016113,2.595614433288574,1.3100703954696655
1763692632542273800,7.952273681640625,9.029315948486328,2.6632115840911865,1.2855439186096191
1763692632552277500,7.962277587890625,9.125627517700195,2.691925525665283,1.3148560523986816
1763692632562282500,7.972282470703125,9.197412490844727,2.6009981632232666,1.439282774925232
1763692632572252700,7.982252685546875,9.374481201171875,2.63449764251709,1.4536397457122803
1763692632582254300,7.99225439453125,9.422337532043457,2.035693883895874,1.688136339187622
1763692632592291800,8.002291748046876,9.57069206237793,2.0931215286254883,1.511067509651184
1763692632602297000,8.012297119140625,9.604191780090332,1.6911274194717407,1.7120646238327026
1763692632612291800,8.022291748046875,9.637691497802734,1.7868403196334839,1.3435698747634888
1763692632622296000,8.032296142578126,9.699904441833496,1.6767704486846924,1.353141188621521
1763692632632297200,8.042297119140626,9.69511890411377,1.638485312461853,1.3004990816116333
1763692632642301000,8.052301025390625,9.771689414978027,1.7150555849075317,1.165902853012085
1763692632652319500,8.062319580078125,9.757332801818848,1.7916259765625,1.012762188911438
1763692632662324700,8.07232470703125,9.704689979553223,1.7533408403396606,0.9074779748916626
1763692632672324900,8.082324951171875,9.738189697265625,1.7341982126235962,0.802193820476532
1763692632682329600,8.09232958984375,9.747760772705078,1.700698733329773,0.7304090857505798
1763692632692336400,8.10233642578125,9.728618621826172,1.6767704486846924,0.6729813814163208
1763692632702341400,8.11234130859375,9.757332801818848,1.638485312461853,0.5676971673965454
1763692632712336100,8.122336181640625,9.795618057250977,1.6002001762390137,0.47676992416381836
1763692632722339800,8.13233984375,9.78126049041748,1.5667005777359009,0.47676992416381836
1763692632732323600,8.142323486328126,9.809974670410156,1.4991034269332886,0.5150550603866577
1763692632742325500,8.152325439453126,9.881759643554688,1.412961721420288,0.5724828243255615
1763692632752363300,8.16236328125,9.991828918457031,1.3076776266098022,0.7208378314971924
1763692632762368800,8.17236865234375,10.101899147033691,1.211964726448059,0.859621524810791
1763692632772371500,8.182371337890626,10.179067611694336,1.1066805124282837,1.0271191596984863
1763692632782376700,8.192376708984375,10.188638687133789,1.0061819553375244,1.1419745683670044
1763692632792366600,8.20236669921875,10.164710998535156,0.9391828775405884,1.2137593030929565
1763692632802370000,8.2123701171875,10.145567893981934,0.8961120843887329,1.1994023323059082
1763692632812375300,8.222375244140625,10.116255760192871,0.9248259663581848,1.1228320598602295
1763692632822379000,8.23237890625,10.179067611694336,0.9391828775405884,1.0701899528503418
1763692632832391000,8.242390869140625,10.13599681854248,0.9248259663581848,1.0893324613571167
1763692632842395600,8.252395751953125,10.068399429321289,0.9583254456520081,1.098903775215149
1763692632852406000,8.262406005859376,9.996614456176758,0.9774680733680725,1.103689432144165
1763692632862411000,8.272410888671875,9.896116256713867,0.9774680733680725,1.1276177167892456
1763692632872409600,8.28240966796875,9.795618057250977,0.98703932762146,1.1180464029312134
1763692632882414000,8.2924140625,9.65683364868164,1.0205388069152832,1.1228320598602295
1763692632892414700,8.302414794921875,9.451051712036133,1.0109676122665405,1.165902853012085
1763692632902418700,8.312418701171875,9.55633544921875,1.0827522277832031,1.0414760112762451
1763692632912430000,8.32243017578125,9.78126049041748,1.1162517070770264,0.9170492887496948
1763692632922434800,8.332434814453125,9.398408889770508,1.0683952569961548,0.9074779748916626
1763692632932445400,8.342445556640625,9.30748176574707,0.9631111025810242,1.0893324613571167
1763692632942451000,8.352450927734376,9.364909172058105,1.0348957777023315,1.165902853012085
1763692632952427500,8.362427490234374,9.384052276611328,1.0348957777023315,1.2185449600219727
1763692632962430000,8.372429931640625,9.407979965209961,1.0971091985702515,1.1850453615188599
1763692632972455700,8.38245556640625,9.369695663452148,1.077966570854187,1.189831018447876
1763692632992464400,8.40246435546875,9.451051712036133,0.9774680733680725,1.2424731254577637
1763692633002469000,8.41246923828125,9.45583724975586,0.9104689955711365,1.2329018115997314
1763692633012476700,8.4224765625,9.436694145202637,0.8482556343078613,1.256830096244812
1763692633022481700,8.432481689453125,9.427123069763184,0.8626125454902649,1.256830096244812
1763692633032489200,8.4424892578125,9.427123069763184,0.8721838593482971,1.2472587823867798
1763692633042494500,8.452494384765625,9.44626522064209,0.8865407705307007,1.2233306169509888
1763692633052495000,8.4624951171875,9.470193862915039,0.900897741317749,1.1563315391540527
1763692633062499800,8.472499755859374,9.479764938354492,0.9343972206115723,1.0845468044281006
1763692633072472800,8.482472900390626,9.489336013793945,1.0061819553375244,0.9888339638710022
1763692633082474500,8.492474609375,9.518050193786621,1.058824062347412,0.9026923179626465
1763692633092483000,8.502483154296876,9.57069206237793,1.1162517070770264,0.8452646136283875
1763692633102485500,8.512485595703126,9.561120986938477,1.1545369625091553,0.8165507316589355
1763692633112525000,8.522525146484375,9.55633544921875,1.1976077556610107,0.7974081635475159
1763692633122531000,8.532531005859376,9.551549911499023,1.2789636850357056,0.6777670383453369
1763692633132533200,8.542533203125,9.57069206237793,1.3268201351165771,0.615553617477417
1763692633142539000,8.5525390625,9.575477600097656,1.3459627628326416,0.6059823632240295
1763692633152537000,8.562537109375,9.57069206237793,1.3746765851974487,0.6203392744064331
1763692633162542000,8.5725419921875,9.5324068069458,1.384247899055481,0.6538388133049011
1763692633172533200,8.582533203125,9.518050193786621,1.3698909282684326,0.6634100675582886
1763692633182536700,8.59253662109375,9.527621269226074,1.3316057920455933,0.6681957244873047
1763692633192553700,8.6025537109375,9.594620704650879,1.322034478187561,0.6346961855888367
1763692633202558500,8.612558349609374,9.704689979553223,1.2789636850357056,0.6299105882644653
1763692633212547600,8.622547607421875,9.857831001281738,1.1880364418029785,0.615553617477417
1763692633222550800,8.63255078125,10.025328636169434,1.1210373640060425,0.582054078578949
1763692633232566000,8.64256591796875,10.169496536254883,1.0971091985702515,0.5581258535385132
1763692633242570500,8.652570556640624,10.279565811157227,1.0875378847122192,0.5485545992851257
1763692633252586000,8.6625859375,10.332208633422852,1.073180913925171,0.5485545992851257
1763692633262591700,8.672591796875,10.360921859741211,1.0636097192764282,0.5437689423561096
1763692633272590000,8.682590087890626,10.327422142028809,1.1258230209350586,0.5198407173156738
1763692633282594800,8.6925947265625,10.269994735717773,1.144965648651123,0.4911268353462219
1763692633292588000,8.702588134765625,10.193424224853516,1.1784651279449463,0.4384847581386566
1763692633302591700,8.712591796875,10.13599681854248,1.1976077556610107,0.4145565330982208
1763692633312608300,8.722608154296875,10.063613891601562,1.2502498626708984,0.39541393518447876
1763692633322613200,8.73261328125,10.01575756072998,1.2789636850357056,0.3810569941997528
1763692633332609300,8.742609375,9.924830436706543,1.29810631275177,0.41934216022491455
1763692633342613200,8.75261328125,9.915258407592773,1.3411771059036255,0.4815555512905121
1763692633352607200,8.762607177734376,9.872187614440918,1.3459627628326416,0.5724828243255615
1763692633362610400,8.7726103515625,9.829116821289062,1.3603196144104004,0.615553617477417
1763692633372620500,8.78262060546875,9.838688850402832,1.3651052713394165,0.6299105882644653
1763692633382624300,8.792624267578125,9.838688850402832,1.3986048698425293,0.5964110493659973
1763692633392635000,8.802634765625,9.872187614440918,1.3651052713394165,0.6059823632240295
1763692633402639000,8.81263916015625,9.857831001281738,1.3268201351165771,0.5581258535385132
1763692633412633900,8.8226337890625,9.872187614440918,1.29810631275177,0.5246263742446899
1763692633422637000,8.832636962890625,9.94397258758545,1.293320655822754,0.47198426723480225
1763692633432660200,8.84266015625,9.967901229858398,1.1976077556610107,0.41934216022491455
1763692633442665500,8.85266552734375,10.001399993896484,1.1162517070770264,0.36191442608833313
1763692633452670500,8.86267041015625,10.039685249328613,1.0923235416412354,0.28534409403800964
1763692633462675700,8.87267578125,10.034899711608887,1.1114661693572998,0.13639089465141296
1763692633472662500,8.88266259765625,10.006186485290527,1.1880364418029785,0.02632104977965355
1763692633482666000,8.892666015625,9.89133071899414,1.2837493419647217,-0.09810572862625122
1763692633492684300,8.902684326171874,9.79083251953125,1.3603196144104004,-0.21774685382843018
1763692633502689300,8.912689208984375,9.699904441833496,1.4225330352783203,-0.3278166949748993
1763692633512678000,8.922677978515624,9.613762855529785,1.456032633781433,-0.4043870270252228
1763692633522681300,8.932681396484375,9.527621269226074,1.451246976852417,-0.47617170214653015
1763692633532703700,8.942703857421876,9.498908042907715,1.5278172492980957,-0.5240281820297241
1763692633542708700,8.952708740234375,9.45583724975586,1.5619150400161743,-0.4953143000602722
1763692633552713000,8.962712890625,9.398408889770508,1.5810575485229492,-0.4618147611618042
1763692633562718200,8.97271826171875,9.32183837890625,1.5906288623809814,-0.37088751792907715
1763692633572717000,8.982717041015626,9.29312515258789,1.6049858331680298,-0.26560330390930176
1763692633582721500,8.992721435546875,9.29312515258789,1.5906288623809814,-0.1746760457754135
1763692633592712000,9.0027119140625,9.33141040802002,1.609771490097046,-0.12203395366668701
1763692633602715000,9.01271484375,9.412766456604004,1.576271891593933,-0.10289137065410614
1763692633612724200,9.02272412109375,9.527621269226074,1.537388563156128,-0.0933200865983963
1763692633622728000,9.03272802734375,9.618548393249512,1.5230315923690796,-0.059820566326379776
1763692633632720600,9.042720703125,9.733404159545898,1.4943177700042725,-0.04546362906694412
1763692633642723000,9.05272314453125,9.800403594970703,1.3986048698425293,-0.0023928226437419653
1763692633652738600,9.062738525390625,9.915258407592773,1.3076776266098022,0.04546362906694412
1763692633662742300,9.0727421875,10.063613891601562,1.2693923711776733,0.05024927482008934
1763692633672760000,9.082760009765625,10.226923942565918,1.2550355195999146,0.08374879509210587
1763692633682765300,9.092765380859374,10.408778190612793,1.1880364418029785,0.08374879509210587
1763692633692760600,9.102760498046875,10.552348136901855,1.1210373640060425,0.11724831163883209
1763692633702764800,9.112764892578125,10.686346054077148,1.1210373640060425,0.15553347766399384
1763692633712765400,9.122765380859375,10.801201820373535,1.0971091985702515,0.29012975096702576
1763692633722769400,9.132769287109374,10.815558433532715,1.0971091985702515,0.4049852192401886
1763692633732795600,9.142795654296876,10.753344535827637,1.1545369625091553,0.5198407173156738
1763692633742802000,9.152802001953125,10.60977554321289,1.207179069519043,0.615553617477417
1763692633752800000,9.162800048828124,10.351350784301758,1.3076776266098022,0.6681957244873047
1763692633762805500,9.172805419921875,10.058828353881836,1.4416756629943848,0.6203392744064331
1763692633772796400,9.18279638671875,9.709476470947266,1.5858432054519653,0.5341976284980774
1763692633782800400,9.19280029296875,9.451051712036133,1.6193426847457886,0.44327038526535034
1763692633792802800,9.202802734375,9.269196510314941,1.6671991348266602,0.39062830805778503
1763692633802806500,9.212806640625,9.130413055419922,1.6959130764007568,0.28534409403800964
1763692633812815000,9.222815185546875,9.034101486206055,1.6815561056137085,0.18903298676013947
1763692633822819300,9.2328193359375,8.952746391296387,1.6528422832489014,0.07896314561367035
1763692633832839400,9.24283935546875,8.909674644470215,1.609771490097046,0.05503492057323456
1763692633842845200,9.25284521484375,8.904889106750488,1.5278172492980957,0.059820566326379776
1763692633852831200,9.262831298828125,8.890532493591309,1.4368900060653687,0.05503492057323456
1763692633862835000,9.2728349609375,8.96231746673584,1.3124631643295288,0.016749758273363113
1763692633872841700,9.282841796875,9.1112699508667,1.1976077556610107,-0.05503492057323456
1763692633882846000,9.292845947265626,9.317052841186523,1.1114661693572998,-0.1698904037475586
1763692633892845800,9.302845703125,9.608977317810059,1.058824062347412,-0.3038884699344635
1763692633902849500,9.312849609375,9.934401512145996,0.9918249845504761,-0.4139583110809326
1763692633912859400,9.322859375,10.188638687133789,0.9535398483276367,-0.4426721930503845
1763692633922863600,9.332863525390625,10.332208633422852,0.9631111025810242,-0.4905286431312561
1763692633932868900,9.342868896484376,10.442277908325195,0.9487541913986206,-0.4139583110809326
1763692633942873300,9.352873291015625,10.461421012878418,0.9152546525001526,-0.2799602448940277
1763692633952883500,9.362883544921875,10.490134239196777,0.9200403094291687,-0.16031911969184875
1763692633962888400,9.372888427734376,10.533205032348633,0.9343972206115723,-0.059820566326379776
1763692633972865800,9.38286572265625,10.60977554321289,0.9822536706924438,-0.064606212079525
1763692633982867700,9.39286767578125,10.547562599182129,0.98703932762146,0.12203395366668701
1763692633992894200,9.402894287109374,10.236495018005371,0.9343972206115723,1.2711870670318604
1763692634002898700,9.412898681640625,10.313065528869629,1.073180913925171,0.9218349456787109
1763692634012897000,9.42289697265625,10.222138404846191,1.1545369625091553,0.6538388133049011
1763692634022901000,9.43290087890625,9.81954574584961,0.9535398483276367,0.7878368496894836
1763692634032915700,9.442915771484374,9.690333366394043,1.0109676122665405,0.8739784955978394
1763692634042920700,9.452920654296875,9.589835166931152,1.0971091985702515,0.9649057388305664
1763692634052924200,9.462924072265626,9.436694145202637,1.1497513055801392,1.0654042959213257
1763692634062929200,9.47292919921875,9.278767585754395,1.168893814086914,1.1515458822250366
1763692634072923600,9.482923583984375,9.06281566619873,1.168893814086914,1.1994023323059082
1763692634082927600,9.492927734375,8.833105087280273,1.1832507848739624,1.165902853012085
1763692634092934400,9.502934326171875,8.684749603271484,1.1976077556610107,1.0510473251342773
1763692634102938400,9.5129384765625,8.632107734680176,1.2741780281066895,0.8452646136283875
1763692634112946700,9.52294677734375,8.646464347839355,1.3363914489746094,0.6251249313354492
1763692634122951200,9.532951171875,8.742177963256836,1.4033905267715454,0.46719861030578613
1763692634132968700,9.54296875,8.828319549560547,1.4081761837005615,0.42412781715393066
1763692634142974500,9.552974365234375,8.924032211303711,1.3794622421264648,0.4624129831790924
1763692634152977700,9.562977783203126,9.029315948486328,1.29810631275177,0.5341976284980774
1763692634162983200,9.572983154296875,9.092127799987793,1.2598211765289307,0.582054078578949
1763692634172987600,9.582987548828125,9.149555206298828,1.2454642057418823,0.6059823632240295
1763692634182993200,9.5929931640625,9.187840461730957,1.2406785488128662,0.5629115104675293
1763692634192994300,9.602994384765625,9.20698356628418,1.29810631275177,0.4863412082195282
1763692634202999300,9.612999267578125,9.226125717163086,1.3555340766906738,0.4049852192401886
1763692634213001500,9.62300146484375,9.235696792602539,1.4177473783493042,0.3523431420326233
1763692634223006200,9.633006103515624,9.192625999450684,1.475175142288208,0.34277185797691345
1763692634233012200,9.64301220703125,9.197412490844727,1.5230315923690796,0.3475574851036072
1763692634243017200,9.653017333984375,9.135198593139648,1.6002001762390137,0.33798620104789734
1763692634253021700,9.663021728515625,9.173483848571777,1.6959130764007568,0.3236292600631714
1763692634263026400,9.6730263671875,9.16869831085205,1.8011972904205322,0.31405797600746155
1763692634273032000,9.683031982421875,9.259625434875488,1.8634105920791626,0.2757728099822998
1763692634283037000,9.693036865234374,9.407979965209961,1.944766640663147,0.26141586899757385
1763692634293016800,9.703016845703125,9.55633544921875,1.968694806098938,0.24167509377002716
1763692634303019000,9.71301904296875,9.69511890411377,1.944766640663147,0.33798620104789734
1763692634313027000,9.723027099609375,9.800403594970703,1.8969101905822754,0.41934216022491455
1763692634323030000,9.733030029296875,9.92961597442627,1.8586249351501465,0.5389832854270935
1763692634333041700,9.743041748046876,10.05404281616211,1.8586249351501465,0.6299105882644653
1763692634343045400,9.75304541015625,10.179067611694336,1.906481385231018,0.7447660565376282
1763692634353060900,9.763060791015626,10.279565811157227,1.944766640663147,0.802193820476532
1763692634363065900,9.77306591796875,10.346565246582031,1.9639091491699219,0.893121063709259
1763692634373059600,9.7830595703125,10.418350219726562,1.9160526990890503,1.0079765319824219
1763692634383063600,9.7930634765625,10.514062881469727,1.8586249351501465,1.0845468044281006
1763692634393074400,9.803074462890624,10.604990005493164,1.7820546627044678,1.1754741668701172
1763692634403079200,9.8130791015625,10.667202949523926,1.6911274194717407,1.2424731254577637
1763692634413076200,9.823076171875,10.767702102661133,1.542174220085144,1.3196417093276978
1763692634423080000,9.833079833984375,10.805987358093262,1.3651052713394165,1.357926845550537
1763692634433087200,9.843087158203126,10.892128944396973,1.2215359210968018,1.3100703954696655
1763692634443091500,9.853091552734375,10.916056632995605,1.1114661693572998,1.1754741668701172
1763692634453092900,9.8630927734375,10.944770812988281,1.0205388069152832,1.0319048166275024
1763692634463096800,9.873096923828125,10.935199737548828,0.9774680733680725,0.8883354067802429
1763692634473103000,9.88310302734375,10.906485557556152,0.9583254456520081,0.7447660565376282
1763692634483107300,9.893107421875,10.84427261352539,0.9583254456520081,0.6299105882644653
1763692634493107200,9.903107177734375,10.71984577178955,0.9487541913986206,0.5341976284980774
1763692634503111000,9.91311083984375,10.561919212341309,0.9200403094291687,0.4384847581386566
1763692634513118000,9.923117919921875,10.351350784301758,0.9248259663581848,0.33798620104789734
1763692634523122000,9.933121826171876,10.101899147033691,0.9104689955711365,0.2560320198535919
1763692634533128700,9.943128662109375,9.896116256713867,0.9631111025810242,0.1698904037475586
1763692634543133200,9.95313330078125,9.69511890411377,1.0636097192764282,0.07417750358581543
1763692634553138000,9.963137939453125,9.451051712036133,1.1880364418029785,0.0023928226437419653
1763692634563142400,9.973142333984375,9.235696792602539,1.2598211765289307,-0.064606212079525
1763692634573145300,9.983145263671876,9.130413055419922,1.317248821258545,-0.13160525262355804
1763692634583149600,9.993149658203125,9.053244590759277,1.3698909282684326,-0.19381862878799438
1763692634593152500,10.003152587890625,8.995817184448242,1.412961721420288,-0.275174617767334
1763692634603156500,10.013156494140626,8.928817749023438,1.3986048698425293,-0.28953152894973755
1763692634613159400,10.023159423828124,8.871390342712402,1.4033905267715454,-0.2512463629245758
1763692634623163400,10.033163330078125,8.780462265014648,1.470389485359192,-0.2847459018230438
1763692634633173800,10.043173828125,8.69910717010498,1.5810575485229492,-0.34217363595962524
1763692634643178200,10.05317822265625,8.69910717010498,1.7485551834106445,-0.39481574296951294
1763692634653179600,10.0631796875,8.69910717010498,1.877767562866211,-0.4953143000602722
1763692634663184000,10.073183837890625,8.641678810119629,2.002194404602051,-0.605384111404419
1763692634673188000,10.08318798828125,8.569893836975098,2.073979139328003,-0.6867401003837585
1763692634683192600,10.093192626953124,8.522037506103516,2.121835470199585,-0.7106683254241943
1763692634693201200,10.103201171875,8.469395637512207,2.1409780979156494,-0.7345965504646301
1763692634703206000,10.113205810546875,8.47896671295166,2.1649062633514404,-0.7250252366065979
1763692634713203000,10.123202880859376,8.550751686096191,2.179263114929199,-0.7010970115661621
1763692634723206700,10.13320654296875,8.723034858703613,2.169692039489746,-0.6484549641609192
1763692634733211100,10.143211181640625,8.904889106750488,2.1409780979156494,-0.6101697683334351
1763692634743215000,10.153215087890626,9.101698875427246,2.1361923217773438,-0.5814558863639832
1763692634753223000,10.163222900390625,9.30748176574707,2.0883359909057617,-0.5288137793540955
1763692634763227100,10.17322705078125,9.474979400634766,2.0691933631896973,-0.4953143000602722
1763692634773233700,10.183233642578125,9.589835166931152,2.059622049331665,-0.44745782017707825
1763692634783238100,10.193238037109374,9.699904441833496,2.035693883895874,-0.39481574296951294
1763692634793237800,10.20323779296875,9.742975234985352,2.050050735473633,-0.34695929288864136
1763692634803241700,10.21324169921875,9.771689414978027,2.0931215286254883,-0.24646073579788208
1763692634813250600,10.22325048828125,9.747760772705078,2.0787646770477295,-0.1459621787071228
1763692634823255000,10.233255126953125,9.661619186401367,2.050050735473633,-0.05503492057323456
1763692634833261000,10.243260986328124,9.613762855529785,2.0404794216156006,-0.01196411345154047
1763692634843265800,10.253265869140625,9.613762855529785,2.035693883895874,-0.04546362906694412
1763692634853268700,10.263268798828125,9.647262573242188,2.050050735473633,-0.10289137065410614
1763692634863273000,10.27327294921875,9.762118339538574,2.097907304763794,-0.1986042857170105
1763692634873277400,10.28327734375,9.900901794433594,2.1888344287872314,-0.2799602448940277
1763692634883282000,10.293281982421876,10.111470222473145,2.246262311935425,-0.2799602448940277
1763692634893284600,10.30328466796875,10.2747802734375,2.241476535797119,-0.1986042857170105
1763692634903288800,10.313288818359375,10.403992652893066,2.155334949493408,0.007178467698395252
1763692634913295400,10.32329541015625,10.504491806030273,2.0165512561798096,0.2273181527853012
1763692634923299800,10.3332998046875,10.576275825500488,1.8586249351501465,0.4097708761692047
1763692634933305300,10.343305419921874,10.691131591796875,1.705484390258789,0.615553617477417
1763692634943309800,10.353309814453125,10.825129508972168,1.470389485359192,0.8261220455169678
1763692634953321000,10.363321044921875,10.944770812988281,1.2885349988937378,1.0031908750534058
1763692634963326200,10.373326171875,11.040483474731445,1.1210373640060425,1.1276177167892456
1763692634973319700,10.383319580078124,11.069197654724121,0.9966106414794922,1.2376874685287476
1763692634983324000,10.393323974609375,11.035697937011719,0.8913264274597168,1.3004990816116333
1763692634993335600,10.40333544921875,10.973484992980957,0.8530412912368774,1.2855439186096191
1763692635003340500,10.413340576171874,10.8969144821167,0.8386843204498291,1.1802598237991333
1763692635013344300,10.42334423828125,10.753344535827637,0.8386843204498291,1.0558329820632935
1763692635023349000,10.433348876953126,10.514062881469727,0.8482556343078613,0.8835497498512268
1763692635033343000,10.443343017578124,10.202995300292969,0.8961120843887329,0.6825526356697083
1763692635043346700,10.4533466796875,9.94397258758545,0.9678967595100403,0.529412031173706
1763692635053357800,10.46335791015625,9.661619186401367,1.0923235416412354,0.36191442608833313
1763692635063362000,10.473362060546876,9.44626522064209,1.211964726448059,0.2757728099822998
1763692635073365800,10.48336572265625,9.202198028564453,1.3411771059036255,0.11246266216039658
1763692635083370000,10.493369873046875,9.038887977600098,1.4608181715011597,-0.04546362906694412
1763692635093372000,10.503371826171875,8.890532493591309,1.5326029062271118,-0.2225325107574463
1763692635103376000,10.5133759765625,8.804390907287598,1.6145570278167725,-0.41874396800994873
1763692635113382700,10.523382568359375,8.780462265014648,1.6576279401779175,-0.5718846321105957
1763692635123387000,10.533386962890624,8.809176445007324,1.6528422832489014,-0.6915257573127747
1763692635133391000,10.54339111328125,8.943174362182617,1.6289139986038208,-0.7776673436164856
1763692635143395600,10.5533955078125,9.125627517700195,1.6241283416748047,-0.8165507316589355
1763692635153395200,10.563395263671875,9.369695663452148,1.5858432054519653,-0.802193820476532
1763692635163399200,10.573399169921874,9.589835166931152,1.542174220085144,-0.6771687865257263
1763692635173407200,10.5834072265625,9.747760772705078,1.4991034269332886,-0.47617170214653015
1763692635183411500,10.593411376953124,9.829116821289062,1.4081761837005615,-0.27038896083831787
1763692635193420500,10.603420654296874,9.896116256713867,1.3411771059036255,-0.08853443711996078
1763692635203425300,10.61342529296875,9.963115692138672,1.2502498626708984,0.07417750358581543
1763692635213419800,10.623419677734375,9.958329200744629,1.2454642057418823,0.1746760457754135
1763692635223423200,10.63342333984375,9.958329200744629,1.2167502641677856,0.2225325107574463
1763692635233443000,10.643443115234374,9.915258407592773,1.2167502641677856,0.2805584669113159
1763692635243448300,10.6534482421875,9.78126049041748,1.1880364418029785,0.33798620104789734
1763692635253452800,10.663452880859374,9.690333366394043,1.2167502641677856,0.3762713670730591
1763692635263457800,10.673457763671875,9.618548393249512,1.2263215780258179,0.4001995921134949
1763692635273465000,10.683465087890625,9.55633544921875,1.2454642057418823,0.4576273262500763
1763692635283470300,10.69347021484375,9.551549911499023,1.23589289188385,0.4576273262500763
1763692635293444000,10.703444091796875,9.613762855529785,1.2502498626708984,0.4097708761692047
1763692635303446300,10.7134462890625,9.690333366394043,1.23589289188385,0.36670008301734924
1763692635313453800,10.723453857421875,9.714262008666992,1.231107234954834,0.3332005441188812
1763692635323456300,10.733456298828125,9.752547264099121,1.168893814086914,0.3236292600631714
1763692635333496300,10.743496337890624,9.81954574584961,1.1593226194381714,0.3188436031341553
1763692635343502600,10.753502685546875,9.872187614440918,1.207179069519043,0.3044866919517517
1763692635353468200,10.76346826171875,9.94397258758545,1.2693923711776733,0.2949153780937195
1763692635363470600,10.773470703125,9.963115692138672,1.317248821258545,0.2512463629245758
1763692635373512000,10.783511962890625,9.972686767578125,1.3411771059036255,0.18424734473228455
1763692635383518200,10.793518310546874,10.025328636169434,1.384247899055481,0.12681959569454193
1763692635393517000,10.80351708984375,10.087542533874512,1.3411771059036255,0.08853443711996078
1763692635403522600,10.8135224609375,10.097113609313965,1.2789636850357056,0.06939185410737991
1763692635413514800,10.8235146484375,10.164710998535156,1.2215359210968018,0.02632104977965355
1763692635423519000,10.83351904296875,10.293923377990723,1.1258230209350586,0.035892341285943985
1763692635433517600,10.843517578125,10.389636039733887,1.054038405418396,0.016749758273363113
1763692635443521000,10.85352099609375,10.466206550598145,1.0061819553375244,-0.01196411345154047
1763692635453528800,10.86352880859375,10.427921295166016,1.0157532691955566,0.007178467698395252
1763692635463532800,10.87353271484375,10.313065528869629,1.0827522277832031,0.031106693670153618
1763692635473537800,10.883537841796874,10.049257278442383,1.2023934125900269,0.0023928226437419653
1763692635483542000,10.8935419921875,9.709476470947266,1.322034478187561,-0.07417750358581543
1763692635493548300,10.90354833984375,9.264410972595215,1.4847464561462402,-0.26081767678260803
1763692635503552500,10.913552490234375,8.804390907287598,1.6863417625427246,-0.42352959513664246
1763692635513559600,10.9235595703125,8.526823043823242,1.8011972904205322,-0.44745782017707825
1763692635523564000,10.93356396484375,8.26839828491211,1.85383939743042,-0.5288137793540955
1763692635533566500,10.94356640625,8.153543472290039,1.9351953268051147,-0.638883650302887
1763692635543570700,10.95357080078125,8.134400367736816,2.0165512561798096,-0.7441678643226624
1763692635553581300,10.963581298828124,8.172685623168945,2.0691933631896973,-0.8069794178009033
1763692635563586300,10.97358642578125,8.234899520874023,2.107478618621826,-0.7830511927604675
1763692635573582600,10.98358251953125,8.25404167175293,2.1170499324798584,-0.7106683254241943
1763692635583586600,10.993586669921875,8.35453987121582,2.083550214767456,-0.6197410821914673
1763692635593590300,11.00359033203125,8.6033935546875,1.9926230907440186,-0.5623133182525635
1763692635603594200,11.01359423828125,8.981459617614746,1.9399809837341309,-0.5335994362831116
1763692635613601300,11.023601318359376,9.3457670211792,1.9016958475112915,-0.5527420043945312
1763692635623605500,11.03360546875,9.675976753234863,1.7772690057754517,-0.4426721930503845
1763692635633609500,11.043609375,9.862616539001465,1.638485312461853,-0.2847459018230438
1763692635643613700,11.05361376953125,9.991828918457031,1.5038890838623047,-0.08374879509210587
1763692635653629200,11.063629150390625,10.082756042480469,1.4416756629943848,0.035892341285943985
1763692635663634700,11.073634765625,10.131211280822754,1.4177473783493042,0.10767702013254166
1763692635673623600,11.08362353515625,10.131211280822754,1.451246976852417,0.0933200865983963
1763692635683627300,11.093627197265626,10.04447078704834,1.5134602785110474,0.031106693670153618
1763692635693630500,11.10363037109375,9.967901229858398,1.6049858331680298,-0.05024927482008934
1763692635703634200,11.11363427734375,9.872187614440918,1.633699655532837,-0.10289137065410614
1763692635713645300,11.123645263671875,9.81954574584961,1.700698733329773,-0.13639089465141296
1763692635723649500,11.1336494140625,9.838688850402832,1.7820546627044678,-0.1746760457754135
1763692635733656800,11.14365673828125,9.915258407592773,1.8586249351501465,-0.12681959569454193
1763692635743661600,11.15366162109375,9.94397258758545,1.8681962490081787,-0.04546362906694412
1763692635753675500,11.163675537109375,10.025328636169434,1.815554141998291,0.064606212079525
1763692635763681300,11.173681396484374,10.125826835632324,1.7102699279785156,0.15074782073497772
1763692635773671400,11.18367138671875,10.188638687133789,1.638485312461853,0.1986042857170105
1763692635783675400,11.19367529296875,10.255638122558594,1.576271891593933,0.2560320198535919
1763692635793676500,11.203676513671875,10.269994735717773,1.609771490097046,0.3188436031341553
1763692635803680000,11.213679931640625,10.207781791687012,1.6959130764007568,0.2709871530532837
1763692635813685500,11.223685546875,10.04447078704834,1.7868403196334839,0.28534409403800964
1763692635823689200,11.233689208984375,9.78126049041748,1.8442680835723877,0.26620152592658997
1763692635833707500,11.24370751953125,9.537193298339844,1.8634105920791626,0.21774685382843018
1763692635843713000,11.253713134765626,9.364909172058105,1.877767562866211,0.07896314561367035
1763692635853722600,11.26372265625,9.288339614868164,1.877767562866211,-0.12681959569454193
1763692635863728400,11.273728271484375,9.278767585754395,1.8442680835723877,-0.28953152894973755
1763692635873715700,11.2837158203125,9.317052841186523,1.810768485069275,-0.3278166949748993
1763692635883719700,11.2937197265625,9.336195945739746,1.700698733329773,-0.26560330390930176
1763692635893720800,11.303720947265624,9.350552558898926,1.6528422832489014,-0.1698904037475586
1763692635903724300,11.313724365234375,9.441479682922363,1.6193426847457886,-0.17946170270442963
1763692635913730300,11.323730224609376,9.494122505187988,1.638485312461853,-0.2512463629245758
1763692635923734000,11.333734130859375,9.585049629211426,1.6576279401779175,-0.29431718587875366
1763692635933739000,11.343739013671875,9.69511890411377,1.5906288623809814,-0.29431718587875366
1763692635943742700,11.35374267578125,9.886545181274414,1.4416756629943848,-0.275174617767334
1763692635953768700,11.363768798828126,10.131211280822754,1.3746765851974487,-0.26081767678260803
1763692635963774700,11.373774658203125,10.466206550598145,1.2789636850357056,-0.2225325107574463
1763692635973758700,11.3837587890625,10.73420238494873,1.1497513055801392,-0.16031911969184875
1763692635983762400,11.393762451171876,10.949556350708008,1.0683952569961548,-0.04546362906694412
1763692635993764400,11.403764404296876,11.112268447875977,1.0444670915603638,0.10289137065410614
1763692636003768000,11.41376806640625,11.24207878112793,0.9726824164390564,0.24646073579788208
1763692636013775400,11.423775390625,11.22772216796875,0.9726824164390564,0.4289134442806244
1763692636023779300,11.433779296875,11.13619613647461,0.9678967595100403,0.615553617477417
1763692636033791700,11.443791748046875,11.016555786132812,0.9439685344696045,0.768694281578064
1763692636043796500,11.45379638671875,10.729416847229004,0.98703932762146,0.8500502705574036
1763692636053812200,11.463812255859375,10.365707397460938,1.1066805124282837,0.8261220455169678
1763692636063818000,11.47381787109375,9.90568733215332,1.2215359210968018,0.7495517134666443
1763692636073804800,11.4838046875,9.44626522064209,1.389033555984497,0.6538388133049011
1763692636083808800,11.493808837890626,9.08674430847168,1.5134602785110474,0.5485545992851257
1763692636093809200,11.50380908203125,8.947959899902344,1.5517455339431763,0.44327038526535034
1763692636103812600,11.5138125,8.876175880432129,1.5469598770141602,0.3762713670730591
1763692636113815300,11.523815185546875,8.876175880432129,1.537388563156128,0.3236292600631714
1763692636123818800,11.53381884765625,8.933603286743164,1.456032633781433,0.36191442608833313
1763692636133828600,11.54382861328125,8.981459617614746,1.470389485359192,0.4289134442806244
1763692636143832600,11.55383251953125,9.058030128479004,1.571486234664917,0.47676992416381836
1763692636153819600,11.563819580078125,9.149555206298828,1.662413477897644,0.46719861030578613
1763692636163822000,11.573822021484375,9.22134017944336,1.7437695264816284,0.44805604219436646
1763692636173848600,11.5838486328125,9.340981483459473,1.815554141998291,0.3810569941997528
1763692636183853300,11.593853271484376,9.422337532043457,1.8299111127853394,0.29012975096702576
1763692636193852400,11.603852294921875,9.465408325195312,1.7533408403396606,0.24167509377002716
1763692636203856600,11.613856689453126,9.55633544921875,1.6863417625427246,0.15553347766399384
1763692636213865700,11.62386572265625,9.690333366394043,1.6671991348266602,0.04546362906694412
1763692636223870500,11.633870361328125,9.80518913269043,1.6671991348266602,-0.02153540402650833
1763692636233875700,11.643875732421876,9.881759643554688,1.72941255569458,0.02632104977965355
1763692636243880400,11.65388037109375,9.900901794433594,1.8011972904205322,0.15553347766399384
1763692636253886000,11.663885986328125,9.81954574584961,1.8681962490081787,0.33798620104789734
1763692636263890700,11.673890625,9.652048110961914,1.968694806098938,0.4911268353462219
1763692636273894100,11.68389404296875,9.465408325195312,2.1409780979156494,0.5581258535385132
1763692636283899000,11.69389892578125,9.139984130859375,2.303689956665039,0.5102694034576416
1763692636293896000,11.70389599609375,8.823533058166504,2.4568307399749756,0.4289134442806244
1763692636303900000,11.71389990234375,8.459824562072754,2.5812573432922363,0.3475574851036072
1763692636313905000,11.72390478515625,8.172685623168945,2.65842604637146,0.18903298676013947
1763692636323908900,11.733908935546875,7.9758758544921875,2.7397818565368652,0.06939185410737991
1763692636333934800,11.743934814453125,7.861020565032959,2.7397818565368652,0.007178467698395252
1763692636343941000,11.753941162109374,7.798807144165039,2.720639228820801,0.02153540402650833
1763692636353926400,11.763926513671874,7.7700934410095215,2.6488547325134277,0.02632104977965355
1763692636363930400,11.773930419921875,7.827520847320557,2.562114953994751,0.02632104977965355
1763692636373940500,11.7839404296875,7.9758758544921875,2.5094728469848633,-0.08374879509210587
1763692636383945200,11.7939453125,8.225327491760254,2.4807589054107666,-0.24167509377002716
1763692636393942500,11.803942626953125,8.522037506103516,2.461616277694702,-0.4618147611618042
1763692636403946500,11.813946533203126,8.833105087280273,2.4185454845428467,-0.5862415432929993
1763692636413962500,11.82396240234375,9.202198028564453,2.3324038982391357,-0.576670229434967
1763692636423967700,11.8339677734375,9.522835731506348,2.2366909980773926,-0.5240281820297241
1763692636433976600,11.8439765625,9.79083251953125,2.1026928424835205,-0.3278166949748993
1763692636443981800,11.85398193359375,10.03011417388916,2.0165512561798096,-0.28953152894973755
1763692636453949400,11.863949462890625,10.17428207397461,2.0309081077575684,-0.29431718587875366
1763692636463951000,11.873951171875,10.222138404846191,2.0069799423217773,-0.31345975399017334
1763692636473992700,11.88399267578125,10.193424224853516,1.9591234922409058,-0.31824541091918945
1763692636483998500,11.89399853515625,10.179067611694336,1.9782661199569702,-0.31345975399017334
1763692636494003000,11.9040029296875,10.226923942565918,2.011765718460083,-0.29431718587875366
1763692636504008400,11.914008544921876,10.284351348876953,1.968694806098938,-0.2991028428077698
1763692636513977600,11.9239775390625,10.38485050201416,1.8969101905822754,-0.23688943684101105
1763692636523979500,11.9339794921875,10.494919776916504,1.7581263780593872,-0.26560330390930176
1763692636534017300,11.944017333984375,10.63370418548584,1.705484390258789,-0.2847459018230438
1763692636544022800,11.954022705078126,10.667202949523926,1.7198412418365479,-0.2991028428077698
1763692636554026800,11.96402685546875,10.724631309509277,1.7533408403396606,-0.1459621787071228
1763692636564032000,11.974031982421875,10.652846336364746,1.6911274194717407,0.059820566326379776
1763692636574024200,11.984024169921875,10.667202949523926,1.700698733329773,0.16031911969184875
1763692636584028200,11.994028076171874,10.600204467773438,1.7437695264816284,0.24646073579788208
1763692636594030300,12.0040302734375,10.427921295166016,1.7820546627044678,0.21296121180057526
1763692636604034000,12.014033935546875,10.202995300292969,1.7868403196334839,0.19381862878799438
1763692636614042600,12.024042724609375,10.049257278442383,1.810768485069275,0.17946170270442963
1763692636624047000,12.034047119140626,9.867402076721191,1.9304096698760986,0.21296121180057526
1763692636634047500,12.044047607421875,9.699904441833496,2.097907304763794,0.23688943684101105
1763692636644051500,12.054051513671874,9.565906524658203,2.2845473289489746,0.23210379481315613
1763692636654057200,12.06405712890625,9.489336013793945,2.51425838470459,0.07417750358581543
1763692636664061400,12.0740615234375,9.518050193786621,2.7254250049591064,0.0023928226437419653
1763692636674071300,12.0840712890625,9.551549911499023,2.7972097396850586,-0.07417750358581543
1763692636684076000,12.094075927734375,9.575477600097656,2.730210542678833,-0.06939185410737991
1763692636694081800,12.104081787109376,9.623334884643555,2.7732813358306885,-0.24646073579788208
1763692636704086500,12.11408642578125,9.68076229095459,2.667997360229492,-0.08374879509210587
1763692636714088700,12.124088623046875,9.872187614440918,2.51425838470459,0.064606212079525
1763692636724093200,12.13409326171875,9.987043380737305,2.4951157569885254,0.10289137065410614
1763692636734097000,12.144096923828124,9.915258407592773,2.45204496383667,0.01196411345154047
1763692636744101400,12.154101318359375,9.900901794433594,2.155334949493408,0.016749758273363113
1763692636754106600,12.164106689453124,10.236495018005371,1.9543378353118896,0.21296121180057526
1763692636764111000,12.174111083984375,10.657631874084473,1.7772690057754517,0.6729813814163208
1763692636774115000,12.184114990234375,10.939985275268555,1.5469598770141602,1.2185449600219727
1763692636784119300,12.194119384765624,11.160124778747559,1.2550355195999146,1.592423439025879
1763692636794128400,12.20412841796875,11.189436912536621,1.1066805124282837,1.688136339187622
1763692636804133400,12.21413330078125,11.088339805603027,1.0971091985702515,1.5828521251678467
1763692636814134000,12.224134033203125,11.323434829711914,1.1880364418029785,1.5206388235092163
1763692636824138500,12.234138427734376,11.097911834716797,2.0787646770477295,0.7160521745681763
1763692636834136800,12.24413671875,9.977472305297852,1.2741780281066895,1.1324033737182617
1763692636844140500,12.254140625,9.723833084106445,0.9583254456520081,1.8747764825820923
1763692636854148900,12.26414892578125,9.388837814331055,1.3124631643295288,1.4632110595703125
1763692636864153000,12.274153076171874,9.1112699508667,1.4799607992172241,1.0893324613571167
1763692636874156800,12.28415673828125,8.895318031311035,1.5565310716629028,0.9601200819015503
1763692636884161000,12.2941611328125,8.531609535217285,1.571486234664917,0.9409775137901306
1763692636894165800,12.304165771484374,8.220541954040527,1.609771490097046,1.0462616682052612
1763692636904170000,12.314169921875,8.062616348266602,1.7102699279785156,1.2951152324676514
1763692636914170600,12.324170654296875,7.913662910461426,1.7581263780593872,1.534995675086975
1763692636924174600,12.334174560546876,8.076972961425781,1.7629120349884033,1.592423439025879
1763692636934178600,12.344178466796874,8.459824562072754,1.7581263780593872,1.568495273590088
1763692636944182500,12.3541826171875,8.622536659240723,1.8203397989273071,1.439282774925232
1763692636954197200,12.364197265625,9.07717227935791,1.8346967697143555,1.32921302318573
1763692636964202200,12.3742021484375,9.55633544921875,1.882553219795227,1.3100703954696655
1763692636974197500,12.384197509765626,9.833903312683105,1.877767562866211,1.3196417093276978
1763692636984201500,12.394201416015624,9.900901794433594,1.8729819059371948,1.4919248819351196
1763692636994203600,12.40420361328125,9.867402076721191,1.8011972904205322,1.8077775239944458
1763692637004207400,12.414207275390625,9.589835166931152,1.6911274194717407,2.1332013607025146
1763692637014213000,12.424213134765624,9.197412490844727,1.6719847917556763,2.128415822982788
1763692637024217000,12.434217041015625,9.038887977600098,1.7581263780593872,1.7886348962783813
1763692637034226200,12.44422607421875,8.967103004455566,1.973480463027954,1.2616157531738281
1763692637044230700,12.454230712890626,8.857032775878906,2.1744775772094727,0.7974081635475159
1763692637054230800,12.464230712890625,8.790034294128418,2.231905221939087,0.5916253924369812
1763692637064234800,12.47423486328125,8.62732219696045,2.2271196842193604,0.615553617477417
1763692637074245400,12.484245361328124,8.550751686096191,2.1984057426452637,0.768694281578064
1763692637084250000,12.49425,8.608179092407227,2.1266210079193115,0.8787640929222107
1763692637094248000,12.504248046875,8.517251968383789,2.131406784057617,0.7830511927604675
1763692637104252000,12.514251953125,8.325826644897461,2.0644078254699707,0.5868397355079651
1763692637114261500,12.524261474609375,8.182256698608398,2.097907304763794,0.29012975096702576
1763692637124266000,12.534265869140626,8.167900085449219,2.169692039489746,0.18424734473228455
1763692637134264300,12.544264404296875,8.26839828491211,2.184048891067505,0.28534409403800964
1763692637144268000,12.55426806640625,8.612964630126953,2.0883359909057617,0.45284169912338257
1763692637154275800,12.56427587890625,8.81396198272705,1.968694806098938,0.4049852192401886
1763692637164280000,12.574280029296874,9.130413055419922,1.906481385231018,0.30927231907844543
1763692637174283000,12.584282958984375,9.264410972595215,1.9160526990890503,0.1986042857170105
1763692637184287200,12.594287353515625,9.350552558898926,1.949552297592163,0.15074782073497772
1763692637194293500,12.60429345703125,9.403194427490234,1.8921245336532593,0.2273181527853012
1763692637204298000,12.614298095703125,9.398408889770508,1.8203397989273071,0.3044866919517517
1763692637214305000,12.624304931640625,9.546764373779297,1.8442680835723877,0.31405797600746155
1763692637224309500,12.6343095703125,9.704689979553223,1.9351953268051147,0.3523431420326233
1763692637234313500,12.6443134765625,9.843474388122559,1.9208383560180664,0.49591249227523804
1763692637244318200,12.654318115234375,9.972686767578125,1.9016958475112915,0.706480860710144
1763692637254315800,12.664315673828124,10.289137840270996,1.7724833488464355,1.0414760112762451
1763692637264319700,12.67431982421875,10.461421012878418,1.633699655532837,1.415354609489441
1763692637274336800,12.684336669921874,10.494919776916504,1.4464613199234009,1.8269200325012207
1763692637284341800,12.694341796875,10.767702102661133,1.2406785488128662,2.1571295261383057
1763692637294339000,12.704339111328125,11.12183952331543,1.1832507848739624,2.2959132194519043
1763692637304343300,12.71434326171875,11.184651374816895,1.0971091985702515,2.1954147815704346
1763692637314343200,12.72434326171875,11.634501457214355,1.0492527484893799,2.204986095428467
1763692637324347000,12.734346923828125,11.644073486328125,1.0636097192764282,2.286342144012451
1763692637334359000,12.744359130859374,11.634501457214355,1.0157532691955566,2.507079839706421
1763692637344363800,12.75436376953125,11.70150089263916,1.0875378847122192,2.5980072021484375
1763692637354366000,12.764365966796875,11.553146362304688,1.3076776266098022,2.665006160736084
1763692637364370400,12.774370361328126,11.45264720916748,1.4273186922073364,2.7846474647521973
1763692637374373600,12.78437353515625,11.069197654724121,1.6863417625427246,2.727219581604004
1763692637384378000,12.794378173828125,10.303494453430176,2.2127628326416016,2.8037898540496826
1763692637394378200,12.804378173828125,9.537193298339844,2.375474691390991,3.215355396270752
1763692637404382200,12.81438232421875,8.933603286743164,2.547757863998413,3.3302109241485596
1763692637414391300,12.824391357421876,8.4502534866333,2.6488547325134277,3.301496982574463
1763692637424395500,12.8343955078125,8.2157564163208,2.8689942359924316,3.3541390895843506
1763692637434400000,12.84439990234375,7.932805061340332,2.9216363430023193,3.751945972442627
1763692637444404500,12.854404541015626,7.688737392425537,2.2271196842193604,5.796612739562988
1763692637454410000,12.864409912109375,7.2436723709106445,2.1888344287872314,3.9672999382019043
1763692637464414500,12.87441455078125,7.750950813293457,3.0939197540283203,3.565305709838867
1763692637474420000,12.884419921875,8.053044319152832,1.638485312461853,5.403591632843018
1763692637484424400,12.894424560546875,8.201399803161621,1.6528422832489014,3.315854072570801
1763692637494426400,12.90442626953125,8.646464347839355,2.2366909980773926,3.1962127685546875
1763692637504430600,12.9144306640625,9.211769104003906,2.246262311935425,2.6315066814422607
1763692637514435600,12.924435546875,9.474979400634766,1.8011972904205322,2.5405795574188232
1763692637524439800,12.934439697265624,10.063613891601562,1.4943177700042725,2.8325037956237793
1763692637534442200,12.944442138671874,10.408778190612793,1.3938192129135132,2.9760732650756836
1763692637544446500,12.954446533203125,10.667202949523926,1.475175142288208,3.1483564376831055
1763692637554466600,12.964466552734375,10.504491806030273,1.576271891593933,3.431307554244995
1763692637564472300,12.974472412109375,10.15035343170166,1.6289139986038208,3.656233072280884
1763692637574445600,12.984445556640624,9.565906524658203,1.6719847917556763,3.8189449310302734
1763692637584448000,12.994447998046875,8.971888542175293,1.8299111127853394,3.82373046875
1763692637594483200,13.004483154296874,8.550751686096191,2.1122641563415527,3.5988051891326904
1763692637604489000,13.014489013671875,8.325826644897461,2.3324038982391357,3.3882367610931396
1763692637614490000,13.024489990234375,8.206185340881348,2.4807589054107666,3.153141975402832
1763692637624495400,13.034495361328124,8.120043754577637,2.547757863998413,2.8181469440460205
1763692637634503700,13.044503662109374,8.081758499145508,2.5812573432922363,2.6123640537261963
1763692637644509400,13.054509521484375,7.961519241333008,2.6775684356689453,2.7176482677459717
1763692637654510600,13.064510498046875,7.8658061027526855,2.620140790939331,3.16749906539917
1763692637664515800,13.074515869140624,7.813164234161377,2.547757863998413,3.2201411724090576
1763692637674519000,13.08451904296875,7.999804496765137,2.475973129272461,3.4265220165252686
1763692637684524000,13.09452392578125,8.426324844360352,2.499901533126831,3.6323046684265137
1763692637694517800,13.104517822265626,8.660821914672852,2.4807589054107666,3.9146578311920166
1763692637704521500,13.114521484375,8.656036376953125,2.3994028568267822,3.8668015003204346
1763692637714523600,13.124523681640625,8.72782039642334,2.3611178398132324,3.651447296142578
1763692637724527000,13.134527099609375,8.890532493591309,2.5429723262786865,3.363710403442383
1763692637734537200,13.144537109375,9.101698875427246,2.7110681533813477,3.033500909805298
1763692637744541400,13.15454150390625,9.22134017944336,2.7254250049591064,2.799004316329956
1763692637754538800,13.164538818359375,9.144769668579102,2.768495798110962,2.578864574432373
1763692637764542200,13.174542236328126,8.947959899902344,2.7014968395233154,2.4257240295410156
1763692637774545400,13.18454541015625,8.861818313598633,2.6249263286590576,2.30069899559021
1763692637784548900,13.194548828125,8.81396198272705,2.610569477081299,2.2432711124420166
1763692637794559000,13.20455908203125,8.799605369567871,2.5812573432922363,2.104487419128418
1763692637804563200,13.214563232421876,8.746963500976562,2.45204496383667,2.0518453121185303
1763692637814564000,13.224564208984376,8.656036376953125,2.2654049396514893,2.032702922821045
1763692637824568000,13.234568115234374,8.665607452392578,2.155334949493408,2.200200319290161
1763692637834574300,13.24457421875,8.660821914672852,2.083550214767456,2.3682961463928223
1763692637844578300,13.254578369140624,8.636893272399902,1.906481385231018,2.6362924575805664
1763692637854583600,13.26458349609375,8.57468032836914,1.6671991348266602,2.8037898540496826
1763692637864587500,13.27458740234375,8.584251403808594,1.5086746215820312,3.2919256687164307
1763692637874588400,13.28458837890625,8.584251403808594,1.633699655532837,2.923431158065796
1763692637884592000,13.294592041015624,8.445467948913574,1.2023934125900269,3.0957143306732178
