time,seconds_elapsed,z,y,x
1763692624858984200,0.268984130859375,-0.04327509179711342,-0.13475197553634644,0.037815771996974945
1763692624868996400,0.278996337890625,-0.03794892504811287,-0.14646953344345093,0.07722939550876617
1763692624889011200,0.29901123046875,-0.04220985993742943,-0.08681648969650269,0.1805569976568222
1763692624898975500,0.3089755859375,-0.05073172226548195,-0.049533337354660034,0.23062294721603394
1763692624908970200,0.31897021484375,-0.0560578890144825,-0.018641578033566475,0.26897132396698
1763692624918881300,0.32888134765625,-0.04220985993742943,0.006924014538526535,0.29240646958351135
1763692624928972000,0.338971923828125,-0.014513799920678139,0.006924014538526535,0.2977326214313507
1763692624938959000,0.348958984375,0.0003994623839389533,-0.051663801074028015,0.3009283244609833
1763692624948954600,0.35895458984375,-0.02197043038904667,-0.13155627250671387,0.3135779798030853
1763692624958945300,0.3689453125,-0.06777545064687729,-0.1709699034690857,0.33381739258766174
1763692624968987400,0.3789873046875,-0.12103710323572159,-0.15605664253234863,0.36577439308166504
1763692624978999800,0.388999755859375,-0.16577689349651337,-0.13581721484661102,0.40731847286224365
1763692624988993300,0.3989931640625,-0.05392742156982422,-0.13688243925571442,0.4659062922000885
1763692624998997500,0.40899755859375,0.0504654161632061,-0.10812114924192429,0.5074504017829895
1763692625008990200,0.418990234375,-0.0027962366584688425,-0.14753477275371552,0.5085155963897705
1763692625018989600,0.428989501953125,-0.16045072674751282,-0.28388461470603943,0.4893414080142975
1763692625029003500,0.43900341796875,-0.1849510818719864,-0.44886255264282227,0.49040666222572327
1763692625039008800,0.4490087890625,0.02703028731048107,-0.5266245603561401,0.604386568069458
1763692625049014300,0.45901416015625,0.2762948274612427,-0.4360797703266144,0.8025199174880981
1763692625059019500,0.46901953125,0.39653298258781433,-0.34553495049476624,0.9493889212608337
1763692625069009700,0.479009765625,0.33901041746139526,-0.3583177626132965,0.9973244071006775
1763692625079008500,0.489008544921875,0.14314068853855133,-0.41690558195114136,0.9515193700790405
1763692625089022200,0.499022216796875,-0.1295589655637741,-0.4659062922000885,0.7673672437667847
1763692625099027200,0.509027099609375,-0.36697277426719666,-0.40518802404403687,0.46910199522972107
1763692625109030700,0.51903076171875,-0.5267577171325684,-0.2572537660598755,0.11983871459960938
1763692625119035000,0.529034912109375,-0.6279548406600952,-0.11557777971029282,-0.21677492558956146
1763692625129068800,0.53906884765625,-0.6876079440116882,-0.00905448105186224,-0.48081955313682556
1763692625139085600,0.54908544921875,-0.7142387628555298,0.032489608973264694,-0.6555177569389343
1763692625149079300,0.559079345703125,-0.7174344658851624,0.049533337354660034,-0.7364754676818848
1763692625159086300,0.56908642578125,-0.6918688416481018,0.06977276504039764,-0.7311493158340454
1763692625169063000,0.57906298828125,-0.6386072039604187,0.09746882319450378,-0.6448654532432556
1763692625179057200,0.58905712890625,-0.5555190443992615,0.12409964948892593,-0.4850804805755615
1763692625189070600,0.599070556640625,-0.4703003764152527,0.07722939550876617,-0.2753627300262451
1763692625199072800,0.60907275390625,-0.41171255707740784,-0.09320788830518723,-0.06657706201076508
1763692625209072000,0.619072021484375,-0.3936035931110382,-0.435014545917511,0.08042509108781815
1763692625219073000,0.629072998046875,-0.4458000063896179,-0.9419323205947876,0.17416560649871826
1763692625229080000,0.639080078125,-0.5864107608795166,-1.4788097143173218,0.2529928386211395
1763692625239081700,0.649081787109375,-0.7302172183990479,-1.9452486038208008,0.346600204706192
1763692625249106200,0.659106201171875,-0.8218272924423218,-2.2700116634368896,0.34446972608566284
1763692625259110100,0.669110107421875,-0.9154346585273743,-1.461766004562378,0.24979715049266815
1763692625269122000,0.6791220703125,-0.8122401833534241,-0.8888037800788879,0.4137098789215088
1763692625279126800,0.689126708984375,-0.5278229713439941,-0.5138418078422546,0.3252955377101898
1763692625289124000,0.6991240234375,-0.27230018377304077,-0.2881455421447754,0.041011471301317215
1763692625299128000,0.709128173828125,-0.098667211830616,-0.14114338159561157,-0.12090394645929337
1763692625309130800,0.719130859375,-0.04434032365679741,-0.052729032933712006,-0.22849248349666595
1763692625319134700,0.729134765625,-0.11890663951635361,-0.0740336924791336,-0.35512205958366394
1763692625329149000,0.73914892578125,-0.25419121980667114,-0.12303441762924194,-0.4467321038246155
1763692625339154000,0.74915380859375,-0.40106022357940674,-0.10066451877355576,-0.48295003175735474
1763692625349163000,0.7591630859375,-0.5203663110733032,-0.059120431542396545,-0.5010589957237244
1763692625359168300,0.769168212890625,-0.5853455662727356,-0.039946239441633224,-0.5415378212928772
1763692625369154600,0.779154541015625,-0.5864107608795166,-0.006924014538526535,-0.5702991485595703
1763692625379158000,0.789157958984375,-0.5310186743736267,0.044207170605659485,-0.5798861980438232
1763692625389174500,0.799174560546875,-0.4383433759212494,0.0750989317893982,-0.5979951620101929
1763692625399179300,0.80917919921875,-0.34353765845298767,0.058055199682712555,-0.6224955320358276
1763692625409184500,0.8191845703125,-0.26484355330467224,-0.006924014538526535,-0.6310173869132996
1763692625419189200,0.829189208984375,-0.21051667630672455,-0.0953383520245552,-0.5990604162216187
1763692625429182500,0.839182373046875,-0.18708154559135437,-0.2146444469690323,-0.5255593657493591
1763692625439186000,0.84918603515625,-0.18601632118225098,-0.3359478712081909,-0.40838369727134705
1763692625449205200,0.859205322265625,-0.19986434280872345,-0.454188734292984,-0.2529928386211395
1763692625459210500,0.86921044921875,-0.21903854608535767,-0.5628424882888794,-0.09320788830518723
1763692625469211000,0.8792109375,-0.2264951765537262,-0.6246260404586792,0.032489608973264694
1763692625479215600,0.889215576171875,-0.1956034153699875,-0.5106461048126221,0.10172975063323975
1763692625489209000,0.899208984375,-0.13808083534240723,-0.3828181326389313,0.137947678565979
1763692625499212500,0.909212646484375,-0.0880148783326149,-0.245536208152771,0.17310036718845367
1763692625509227300,0.919227294921875,-0.06564498692750931,-0.11451254785060883,0.17629607021808624
1763692625519232000,0.92923193359375,-0.07523208111524582,-0.028228675946593285,0.1581871062517166
1763692625529231600,0.939231689453125,-0.10399337112903595,0.017576344311237335,0.14007814228534698
1763692625539235800,0.94923583984375,-0.1508636325597763,-0.017576344311237335,0.12516488134860992
1763692625549241900,0.959241943359375,-0.20092958211898804,-0.11451254785060883,0.1070559173822403
1763692625559246000,0.96924609375,-0.24034319818019867,-0.20505735278129578,0.0740336924791336
1763692625569227500,0.9792275390625,-0.24460414052009583,-0.264710396528244,0.030359141528606415
1763692625579229700,0.989229736328125,-0.21158191561698914,-0.27003657817840576,-0.017576344311237335
1763692625589261000,0.999260986328125,-0.1615159511566162,-0.2135792225599289,-0.0633813664317131
1763692625599266000,1.00926611328125,-0.09973244369029999,-0.11238208413124084,-0.10279498994350433
1763692625609259800,1.019259765625,-0.03262276202440262,-0.020772043615579605,-0.13475197553634644
1763692625619263700,1.029263671875,0.012117025442421436,0.0026630824431777,-0.16564373672008514
1763692625629275400,1.039275390625,0.02489982172846794,-0.035685304552316666,-0.19440503418445587
1763692625639279900,1.04927978515625,0.011051792651414871,-0.10812114924192429,-0.2114487588405609
1763692625649285000,1.05928515625,-0.008122402243316174,-0.17842653393745422,-0.21038351953029633
1763692625659289900,1.069289794921875,-0.011318100616335869,-0.23168818652629852,-0.19973118603229523
1763692625669285400,1.079285400390625,0.012117025442421436,-0.2636451721191406,-0.18694838881492615
1763692625679289000,1.0892890625,0.06324820965528488,-0.27323228120803833,-0.17416560649871826
1763692625689276400,1.0992763671875,0.12290126085281372,-0.2679060995578766,-0.15925233066082
1763692625699278600,1.109278564453125,0.17190198600292206,-0.2529928386211395,-0.14220860600471497
1763692625709300500,1.119300537109375,0.1900109350681305,-0.22849248349666595,-0.1262301206588745
1763692625719304700,1.1293046875,0.18148908019065857,-0.18588316440582275,-0.12196917831897736
1763692625729308400,1.139308349609375,0.1559234857559204,-0.1294258087873459,-0.1262301206588745
1763692625739312600,1.149312744140625,0.12396649271249771,-0.06551183015108109,-0.1283605843782425
1763692625749338400,1.15933837890625,0.09200949966907501,-0.013315413147211075,-0.12409964948892593
1763692625759344400,1.169344482421875,0.06218297779560089,0.01438064593821764,-0.12090394645929337
1763692625769342700,1.1793427734375,0.02809552103281021,0.021837277337908745,-0.12409964948892593
1763692625779348200,1.18934814453125,-0.009187635034322739,0.00905448105186224,-0.14327384531497955
1763692625789337600,1.199337646484375,-0.04753602296113968,-0.00905448105186224,-0.17736129462718964
1763692625799341300,1.20934130859375,-0.07523208111524582,0.0037283156998455524,-0.21677492558956146
1763692625809354200,1.219354248046875,-0.08481918275356293,0.030359141528606415,-0.24873191118240356
1763692625819359000,1.22935888671875,-0.08375394344329834,0.0644465982913971,-0.2636451721191406
1763692625829353000,1.23935302734375,-0.07523208111524582,0.09959928691387177,-0.26044946908950806
1763692625839356400,1.2493564453125,-0.0667102187871933,0.10386022180318832,-0.24340574443340302
1763692625849360600,1.259360595703125,-0.05286218971014023,0.06977276504039764,-0.21570968627929688
1763692625859364400,1.2693642578125,-0.02623136341571808,0.023967742919921875,-0.17629607021808624
1763692625869369600,1.27936962890625,0.009986559860408306,-0.018641578033566475,-0.137947678565979
1763692625879373600,1.28937353515625,0.05153064802289009,-0.047402869910001755,-0.11025162041187286
1763692625889389000,1.29938916015625,0.09094426780939102,-0.053794268518686295,-0.09001219272613525
1763692625899394000,1.30939404296875,0.11331415921449661,-0.048468101769685745,-0.08255556225776672
1763692625909389000,1.31938916015625,0.12077079713344574,-0.037815771996974945,-0.08149032294750214
1763692625919393000,1.32939306640625,0.1250317245721817,-0.018641578033566475,-0.08149032294750214
1763692625929408800,1.33940869140625,0.14207544922828674,-0.0047935484908521175,-0.07616416364908218
1763692625939414000,1.3494140625,0.16444534063339233,-0.0015978495357558131,-0.060185667127370834
1763692625949388500,1.359388427734375,0.17509767413139343,0.0005326165119186044,-0.032489608973264694
1763692625959390500,1.369390380859375,0.1676410436630249,-0.0079892473295331,-0.00905448105186224
1763692625969416000,1.379416015625,0.14207544922828674,-0.021837277337908745,0.0079892473295331
1763692625979420400,1.38942041015625,0.11544463038444519,-0.010119713842868805,0.012250179424881935
1763692625989427200,1.39942724609375,0.09733566641807556,0.015445878729224205,0.006924014538526535
1763692625999431700,1.409431640625,0.09733566641807556,0.045272402465343475,-0.0005326165119186044
1763692626009429500,1.419429443359375,0.10905323177576065,0.07616416364908218,-0.0037283156998455524
1763692626019433500,1.42943359375,0.12929265201091766,0.09001219272613525,0.0026630824431777
1763692626029440300,1.439440185546875,0.15059731900691986,0.09320788830518723,0.021837277337908745
1763692626039444500,1.449444580078125,0.16338011622428894,0.08681648969650269,0.054859500378370285
1763692626049460500,1.45946044921875,0.17296721041202545,0.09001219272613525,0.0953383520245552
1763692626059466000,1.469466064453125,0.18361954391002655,0.0953383520245552,0.13368675112724304
1763692626069464600,1.479464599609375,0.20172850787639618,0.09959928691387177,0.1709699034690857
1763692626079469000,1.489468994140625,0.2219679355621338,0.10279498994350433,0.21038351953029633
1763692626089466000,1.499466064453125,0.23901166021823883,0.1177082508802414,0.25192761421203613
1763692626099469800,1.5094697265625,0.25605538487434387,0.13581721484661102,0.2902759909629822
1763692626109473500,1.5194736328125,0.27096864581108093,0.15179570019245148,0.3157084286212921
1763692626119477500,1.5294775390625,0.28162097930908203,0.16777420043945312,0.3284912407398224
1763692626129491500,1.539491455078125,0.29227331280708313,0.17629607021808624,0.33168694376945496
1763692626139496200,1.54949609375,0.3038577139377594,0.19014409184455872,0.3284912407398224
1763692626149508400,1.55950830078125,0.31131434440612793,0.2018616646528244,0.32209983468055725
1763692626159513900,1.569513916015625,0.3134448230266571,0.2114487588405609,0.3146432042121887
1763692626169514500,1.579514404296875,0.3145100474357605,0.2338186502456665,0.30305880308151245
1763692626179519500,1.58951953125,0.30186042189598083,0.25192761421203613,0.28068891167640686
1763692626189515000,1.599514892578125,0.2730991244316101,0.25086238980293274,0.24127528071403503
1763692626199519000,1.60951904296875,0.2304897904396057,0.2252967804670334,0.1816222369670868
1763692626209516500,1.6195166015625,0.1878804713487625,0.18268746137619019,0.11131685227155685
1763692626219520000,1.62952001953125,0.1559234857559204,0.14753477275371552,0.042076703161001205
1763692626229524200,1.639524169921875,0.1463363915681839,0.15499140322208405,-0.01438064593821764
1763692626239527700,1.649527587890625,0.15166255831718445,0.2018616646528244,-0.051663801074028015
1763692626249534200,1.6595341796875,0.1676410436630249,0.2668408751487732,-0.062316130846738815
1763692626259538000,1.669537841796875,0.19107617437839508,0.3359478712081909,-0.043141938745975494
1763692626269556700,1.679556640625,0.2198374718427658,0.38707906007766724,0.0079892473295331
1763692626279562200,1.689562255859375,0.23368549346923828,0.3817528784275055,0.08042509108781815
1763692626289569500,1.699569580078125,0.22303315997123718,0.34340450167655945,0.16351327300071716
1763692626299575000,1.709574951171875,0.1878804713487625,0.28388461470603943,0.23168818652629852
1763692626309576700,1.71957666015625,0.14101022481918335,0.20825305581092834,0.28388461470603943
1763692626319582000,1.72958203125,0.1037270650267601,0.16138280928134918,0.3071865737438202
1763692626329550000,1.739550048828125,0.0930747389793396,0.18481792509555817,0.30199354887008667
1763692626339551500,1.749551513671875,0.09627043455839157,0.2764279842376709,0.25831902027130127
1763692626349566500,1.75956640625,0.08881380409002304,0.4019923210144043,0.16777420043945312
1763692626359569400,1.7695693359375,0.06005251035094261,0.5212984085083008,0.051663801074028015
1763692626369593000,1.779593017578125,0.012117025442421436,0.5543206334114075,-0.043141938745975494
1763692626379597800,1.789597900390625,-0.04327509179711342,0.46164536476135254,-0.08681648969650269
1763692626389595000,1.799594970703125,-0.09227581322193146,0.18375270068645477,-0.0740336924791336
1763692626399598800,1.809598876953125,-0.06351451575756073,0.09853405505418777,-0.08681648969650269
1763692626409617000,1.819616943359375,0.08881380409002304,0.14753477275371552,-0.16351327300071716
1763692626419622400,1.829622314453125,0.1580539494752884,0.052729032933712006,-0.15392617881298065
1763692626429612500,1.839612548828125,0.1260969638824463,-0.4339492917060852,-0.0857512578368187
1763692626439616500,1.849616455078125,0.07283531129360199,-1.0164985656738281,0.07722939550876617
1763692626449628700,1.859628662109375,-0.05499265342950821,-0.939801812171936,0.14646953344345093
1763692626459633400,1.86963330078125,-0.10612384229898453,-0.8760210275650024,-0.00905448105186224
1763692626469631000,1.879630859375,-0.1306242048740387,-0.5063851475715637,-0.031424373388290405
1763692626479635000,1.889635009765625,-0.23182134330272675,-0.01118494663387537,-0.059120431542396545
1763692626489654000,1.899654052734375,-0.36697277426719666,0.12090394645929337,-0.23594911396503448
1763692626499659500,1.909659423828125,-0.456452339887619,0.010119713842868805,-0.44779732823371887
1763692626509646300,1.919646240234375,-0.46284374594688416,-0.1294258087873459,-0.6161041259765625
1763692626519649800,1.92964990234375,-0.38827744126319885,-0.2444709837436676,-0.7428668737411499
1763692626529673000,1.9396728515625,-0.23395180702209473,-0.27216702699661255,-0.8440639972686768
1763692626539678700,1.9496787109375,-0.010252867825329304,-0.15925233066082,-0.9069127440452576
1763692626549653000,1.959653076171875,0.25712060928344727,-0.00585878174751997,-0.939801812171936
1763692626559655200,1.9696552734375,0.5051867365837097,0.11131685227155685,-0.9440627694129944
1763692626569671700,1.979671630859375,0.6564498543739319,0.19973118603229523,-0.9579107761383057
1763692626579675400,1.98967529296875,0.7395380139350891,0.039946239441633224,-0.8461945056915283
1763692626589697800,1.99969775390625,0.748059868812561,-0.5734948515892029,-0.6182346343994141
1763692626599703300,2.009703369140625,0.6841459274291992,-1.0228899717330933,-0.39773139357566833
1763692626609701600,2.01970166015625,0.625558078289032,-1.0601731538772583,-0.3252955377101898
1763692626619706600,2.02970654296875,0.5712311863899231,-1.0772168636322021,-0.3998618423938751
1763692626629693400,2.039693359375,0.5595136284828186,-1.0463250875473022,-0.5063851475715637
1763692626639696400,2.0496962890625,0.5520570278167725,-0.8398030996322632,-0.5841471552848816
1763692626649707300,2.059707275390625,0.555252730846405,-0.6288869380950928,-0.650191605091095
1763692626659711200,2.069711181640625,0.5797531008720398,-0.4680367708206177,-0.7418016195297241
1763692626669725400,2.079725341796875,0.6266233325004578,-0.2679060995578766,-0.7908023595809937
1763692626679730200,2.089730224609375,0.6958634853363037,0.048468101769685745,-0.8387378454208374
1763692626689720600,2.099720458984375,0.7288857102394104,0.36257869005203247,-1.0026506185531616
1763692626699724000,2.10972412109375,0.7746906876564026,0.520233154296875,-1.1741530895233154
1763692626709741300,2.1197412109375,0.832213282585144,0.4754934012889862,-1.199718713760376
1763692626719746000,2.12974609375,0.8013215661048889,0.4115794003009796,-1.0495208501815796
1763692626729753300,2.13975341796875,0.7224943041801453,0.4019923210144043,-0.7971937656402588
1763692626739758300,2.14975830078125,0.6543194055557251,0.4137098789215088,-0.5127765536308289
1763692626749759500,2.159759521484375,0.5733616948127747,0.3806876540184021,-0.2348838746547699
1763692626759764200,2.16976416015625,0.4849473237991333,0.2977326214313507,-0.0005326165119186044
1763692626769757400,2.17975732421875,0.40398961305618286,0.2125139832496643,0.15286093950271606
1763692626779761200,2.18976123046875,0.33901041746139526,0.1294258087873459,0.2125139832496643
1763692626789777200,2.199777099609375,0.30705341696739197,0.09853405505418777,0.19760072231292725
1763692626799782000,2.209781982421875,0.2826862037181854,0.15605664253234863,0.1390129029750824
1763692626809757700,2.2197578125,0.2656424939632416,0.21677492558956146,0.060185667127370834
1763692626819759600,2.229759521484375,0.2613815665245056,0.19866596162319183,-0.00905448105186224
1763692626829790700,2.239790771484375,0.2326202541589737,-0.08255556225776672,-0.09214265644550323
1763692626839795500,2.24979541015625,0.02276935614645481,-0.16777420043945312,-0.6118432283401489
1763692626849793500,2.25979345703125,-0.0017310036346316338,0.38601380586624146,-0.6480611562728882
1763692626859797500,2.269797607421875,0.0185084231197834,0.6917356848716736,-0.6778876781463623
1763692626869800400,2.279800537109375,-0.0027962366584688425,0.7503235340118408,-0.6778876781463623
1763692626879804400,2.289804443359375,-0.03688369318842888,0.6384740471839905,-0.566038191318512
1763692626889822700,2.29982275390625,-0.07842778414487839,0.4339492917060852,-0.39879661798477173
1763692626899828000,2.309827880859375,-0.11464570462703705,0.2252967804670334,-0.2679060995578766
1763692626909803300,2.31980322265625,-0.15405932068824768,0.050598569214344025,-0.18801362812519073
1763692626919805700,2.3298056640625,-0.1849510818719864,-0.11238208413124084,-0.11451254785060883
1763692626929827800,2.339827880859375,-0.24247366189956665,-0.2796236574649811,-0.058055199682712555
1763692626939832000,2.34983203125,-0.35845091938972473,-0.4201012849807739,-0.07616416364908218
1763692626949826800,2.359826904296875,-0.47243085503578186,-0.4669715166091919,-0.17523083090782166
1763692626959830000,2.369830078125,-0.5395405292510986,-0.3913399875164032,-0.2892107665538788
1763692626969851400,2.379851318359375,-0.5651060938835144,-0.21038351953029633,-0.34446972608566284
1763692626979856600,2.389856689453125,-0.568301796913147,-0.020772043615579605,-0.33275216817855835
1763692626989855500,2.39985546875,-0.567236602306366,0.055924732238054276,-0.2977326214313507
1763692626999860000,2.40985986328125,-0.5746932029724121,0.00585878174751997,-0.2551233172416687
1763692627009849600,2.419849609375,-0.5842803120613098,-0.08362079411745071,-0.17310036718845367
1763692627019852500,2.4298525390625,-0.5938674211502075,-0.17416560649871826,-0.0750989317893982
1763692627029869000,2.439869140625,-0.6098458766937256,-0.25192761421203613,0.0005326165119186044
1763692627039873500,2.44987353515625,-0.6258243918418884,-0.27003657817840576,0.059120431542396545
1763692627049875000,2.459875,-0.629020094871521,-0.2764279842376709,0.10172975063323975
1763692627059879000,2.46987890625,-0.6236939430236816,-0.3189041316509247,0.13155627250671387
1763692627069887000,2.479886962890625,-0.5959978699684143,-0.32316505908966064,0.15712186694145203
1763692627079891500,2.489891357421875,-0.5395405292510986,-0.2657756507396698,0.1912093311548233
1763692627089911000,2.4999111328125,-0.48627886176109314,-0.24234052002429962,0.2252967804670334
1763692627099917000,2.5099169921875,-0.4788222312927246,-0.32103461027145386,0.2529928386211395
1763692627109921300,2.51992138671875,-0.49373549222946167,-0.45099303126335144,0.2956021726131439
1763692627119927000,2.529927001953125,-0.5235620141029358,-0.5436683297157288,0.3359478712081909
1763692627129919500,2.53991943359375,-0.5714974999427795,-0.6129084229469299,0.350861132144928
1763692627139923700,2.549923828125,-0.6386072039604187,-0.6565830111503601,0.3487306535243988
1763692627149939700,2.559939697265625,-0.7025212049484253,-0.688539981842041,0.34446972608566284
1763692627159945200,2.5699453125,-0.7334129214286804,-0.6981270909309387,0.34233927726745605
1763692627169937000,2.57993701171875,-0.7259563207626343,-0.6853442788124084,0.34446972608566284
1763692627179941000,2.589941162109375,-0.6939992904663086,-0.6544525623321533,0.35512205958366394
1763692627189958100,2.599958251953125,-0.666303277015686,-0.5916038155555725,0.36364391446113586
1763692627199963600,2.609963623046875,-0.6609770655632019,-0.5585815906524658,0.35192635655403137
1763692627209954000,2.6199541015625,-0.690803587436676,-0.5330159664154053,0.3157084286212921
1763692627219958000,2.6299580078125,-0.7323477268218994,-0.4648410677909851,0.245536208152771
1763692627229955300,2.639955322265625,-0.7717612981796265,-0.3572525382041931,0.15925233066082
1763692627239958500,2.64995849609375,-0.8111749291419983,-0.2796236574649811,0.07829462736845016
1763692627249966300,2.65996630859375,-0.8473928570747375,-0.23275341093540192,-0.0079892473295331
1763692627259970000,2.669969970703125,-0.8782846331596375,-0.19760072231292725,-0.09427312016487122
1763692627269981000,2.67998095703125,-0.8623061180114746,-0.25192761421203613,-0.17310036718845367
1763692627279985400,2.6899853515625,-0.7834789156913757,-0.29453691840171814,-0.18801362812519073
1763692627289978000,2.69997802734375,-0.7483261823654175,-0.17949175834655762,-0.15392617881298065
1763692627299981300,2.709981201171875,-0.7398043274879456,-0.17736129462718964,-0.15499140322208405
1763692627310002700,2.720002685546875,-0.7675004005432129,-0.19547025859355927,-0.18801362812519073
1763692627320008000,2.730008056640625,-0.820762038230896,-0.20718781650066376,-0.24766667187213898
1763692627330001700,2.740001708984375,-0.8239577412605286,-0.264710396528244,-0.3380783200263977
1763692627340005600,2.750005615234375,-0.736608624458313,-0.27216702699661255,-0.3593829870223999
1763692627350018800,2.760018798828125,-0.6737598776817322,-0.4573844373226166,-0.1699046641588211
1763692627360023800,2.77002392578125,-0.7153039574623108,-0.5212984085083008,-0.026098208501935005
1763692627370000600,2.780000732421875,-0.7153039574623108,-0.6608439087867737,0.0644465982913971
1763692627380002800,2.7900029296875,-0.675890326499939,-0.8099765777587891,0.2338186502456665
1763692627390014200,2.80001416015625,-0.5278229713439941,-0.6576482653617859,0.3615134656429291
1763692627400017200,2.81001708984375,-0.4170387387275696,-0.44992780685424805,0.38814428448677063
1763692627410017000,2.82001708984375,-0.3957340717315674,-0.35618728399276733,0.350861132144928
1763692627420019700,2.830019775390625,-0.4021254777908325,-0.350861132144928,0.3263607621192932
1763692627430025500,2.840025390625,-0.3840165138244629,-0.3593829870223999,0.3146432042121887
1763692627440028400,2.8500283203125,-0.3627118468284607,-0.39773139357566833,0.2892107665538788
1763692627450068000,2.86006787109375,-0.348863810300827,-0.4254274368286133,0.2338186502456665
1763692627460074800,2.87007470703125,-0.3286243975162506,-0.39560091495513916,0.15392617881298065
1763692627470077000,2.880076904296875,-0.30425718426704407,-0.32209983468055725,0.060185667127370834
1763692627480083200,2.890083251953125,-0.2691044807434082,-0.25192761421203613,-0.041011471301317215
1763692627490081800,2.900081787109375,-0.21051667630672455,-0.1262301206588745,-0.17736129462718964
1763692627500087000,2.910087158203125,-0.15512455999851227,-0.035685304552316666,-0.35512205958366394
1763692627510088400,2.92008837890625,-0.1529940962791443,-0.046337638050317764,-0.48188477754592896
1763692627520093400,2.930093505859375,-0.14873315393924713,-0.041011471301317215,-0.5404726266860962
1763692627530087700,2.940087646484375,-0.1508636325597763,-0.048468101769685745,-0.5287550687789917
1763692627540091600,2.950091552734375,-0.15832026302814484,-0.07616416364908218,-0.46271058917045593
1763692627550105900,2.96010595703125,-0.18069015443325043,-0.1603175699710846,-0.35618728399276733
1763692627560110800,2.97011083984375,-0.23075610399246216,-0.264710396528244,-0.2231663167476654
1763692627570116000,2.9801162109375,-0.289343923330307,-0.346600204706192,-0.06657706201076508
1763692627580121000,2.99012109375,-0.33395054936408997,-0.3721657991409302,0.10279498994350433
1763692627590110200,3.000110107421875,-0.33608102798461914,-0.3476654291152954,0.24021004140377045
1763692627600113700,3.01011376953125,-0.3021267056465149,-0.3178389072418213,0.2966673970222473
1763692627610135600,3.020135498046875,-0.2605826258659363,-0.29240646958351135,0.2551233172416687
1763692627620140800,3.030140869140625,-0.22969086468219757,-0.2679060995578766,0.15392617881298065
1763692627630148600,3.040148681640625,-0.20306004583835602,-0.23062294721603394,0.058055199682712555
1763692627640154000,3.050154052734375,-0.18814678490161896,-0.16670896112918854,0.00905448105186224
1763692627650153000,3.060153076171875,-0.18921200931072235,-0.10492545366287231,-0.0005326165119186044
1763692627660157700,3.07015771484375,-0.18069015443325043,-0.043141938745975494,0.026098208501935005
1763692627670157000,3.080156982421875,-0.1529940962791443,0.0026630824431777,0.055924732238054276
1763692627680161300,3.090161376953125,-0.12849372625350952,0.0079892473295331,0.06657706201076508
1763692627690169900,3.100169921875,-0.09227581322193146,0.047402869910001755,0.0633813664317131
1763692627700174600,3.110174560546875,-0.0560578890144825,0.11131685227155685,0.013315413147211075
1763692627710172000,3.120171875,-0.03049229457974434,0.16351327300071716,-0.06977276504039764
1763692627720175900,3.13017578125,0.0003994623839389533,0.23168818652629852,-0.14433906972408295
1763692627730188000,3.14018798828125,0.03768261894583702,0.2785584330558777,-0.20825305581092834
1763692627740192800,3.15019287109375,0.09200949966907501,0.30931705236434937,-0.2561885416507721
1763692627750183400,3.160183349609375,0.12183602899312973,0.29453691840171814,-0.25086238980293274
1763692627760186600,3.1701865234375,0.1474016159772873,0.27216702699661255,-0.2125139832496643
1763692627770201900,3.180201904296875,0.15911918878555298,0.2561885416507721,-0.1688394397497177
1763692627780206300,3.190206298828125,0.13781452178955078,0.245536208152771,-0.15073047578334808
1763692627790211300,3.20021142578125,0.10798799991607666,0.26257994771003723,-0.15392617881298065
1763692627800215800,3.2102158203125,0.10266183316707611,0.30199354887008667,-0.16244803369045258
1763692627810218800,3.22021875,0.09946613013744354,0.3167736828327179,-0.1688394397497177
1763692627820223200,3.23022314453125,0.10266183316707611,0.3146432042121887,-0.17310036718845367
1763692627830220800,3.240220703125,0.11118369549512863,0.3189041316509247,-0.16244803369045258
1763692627840224300,3.250224365234375,0.10692276805639267,0.34553495049476624,-0.11983871459960938
1763692627850238500,3.260238525390625,0.0824224054813385,0.37749195098876953,-0.059120431542396545
1763692627860243000,3.270242919921875,0.06324820965528488,0.39453569054603577,-0.015445878729224205
1763692627870248000,3.280248046875,0.06005251035094261,0.38388335704803467,0.0079892473295331
1763692627880252700,3.290252685546875,0.05898727849125862,0.3615134656429291,0.012250179424881935
1763692627890254000,3.300254150390625,0.0504654161632061,0.3391435742378235,0.01118494663387537
1763692627900258600,3.310258544921875,0.04620448127388954,0.32316505908966064,0.019706811755895615
1763692627910249000,3.3202490234375,0.04087831825017929,0.2785584330558777,0.061250898987054825
1763692627920252000,3.330251953125,0.03129122033715248,0.2125139832496643,0.10172975063323975
1763692627930272800,3.340272705078125,0.02063889056444168,0.16351327300071716,0.1059906855225563
1763692627940277500,3.350277587890625,0.01957365684211254,0.16351327300071716,0.0740336924791336
1763692627950276900,3.36027685546875,0.04087831825017929,0.346600204706192,0.018641578033566475
1763692627960281000,3.370281005859375,0.11650986224412918,0.5255593657493591,-0.021837277337908745
1763692627970288600,3.38028857421875,0.02916075475513935,0.29240646958351135,-0.00905448105186224
1763692627980293000,3.390293212890625,0.10159660130739212,0.9568455815315247,0.043141938745975494
1763692627990299000,3.400298828125,0.05792204663157463,0.5479292273521423,0.1294258087873459
1763692628000303600,3.4103037109375,-0.12529803812503815,-0.14433906972408295,0.44886255264282227
1763692628010303700,3.4203037109375,-0.13275466859340668,-0.2679060995578766,0.7162360548973083
1763692628020308000,3.430307861328125,-0.10079767554998398,-0.06977276504039764,0.6746919751167297
1763692628030303500,3.440303466796875,-0.05712312087416649,-0.062316130846738815,0.5042546987533569
1763692628040307000,3.450306884765625,-0.03155753016471863,-0.1177082508802414,0.39560091495513916
1763692628050314500,3.460314453125,-0.008122402243316174,-0.0750989317893982,0.306254506111145
1763692628060318200,3.470318115234375,0.0014646954368799925,-0.029293907806277275,0.22742724418640137
1763692628070332700,3.480332763671875,0.0003994623839389533,-0.025032976642251015,0.20825305581092834
1763692628080337400,3.49033740234375,0.0014646954368799925,-0.020772043615579605,0.23062294721603394
1763692628090342100,3.500342041015625,0.011051792651414871,-0.056989967823028564,0.2774932086467743
1763692628100347000,3.510346923828125,0.007856093347072601,-0.12409964948892593,0.35512205958366394
1763692628110318800,3.52031884765625,0.0014646954368799925,-0.16777420043945312,0.4467321038246155
1763692628120320300,3.5303203125,0.02276935614645481,-0.043141938745975494,0.4754934012889862
1763692628130332200,3.540332275390625,0.06431344151496887,-0.20718781650066376,0.5511249303817749
1763692628140334600,3.55033447265625,0.13781452178955078,-0.16351327300071716,0.6512568593025208
1763692628150364400,3.560364501953125,0.19746756553649902,-0.22742724418640137,0.6906704902648926
1763692628160369700,3.57036962890625,0.26777294278144836,-0.2572537660598755,0.7386059761047363
1763692628170381300,3.58038134765625,0.32196667790412903,-0.29134124517440796,0.8153027296066284
1763692628180387000,3.590386962890625,0.3592498302459717,-0.3391435742378235,0.9355409145355225
1763692628190356500,3.6003564453125,0.37309786677360535,-0.38601380586624146,1.0985215902328491
1763692628200358700,3.610358642578125,0.3475322723388672,-0.4978632926940918,1.2519150972366333
1763692628210388000,3.620387939453125,0.31131434440612793,-0.7567148804664612,1.3009158372879028
1763692628220393000,3.63039306640625,-0.07949301600456238,-1.6512442827224731,0.7918676137924194
1763692628230397000,3.64039697265625,-0.03901416063308716,-0.3157084286212921,0.44992780685424805
1763692628240401700,3.650401611328125,0.29972994327545166,0.23807957768440247,0.15392617881298065
1763692628250375200,3.660375244140625,0.42529428005218506,0.3009283244609833,0.00905448105186224
1763692628260376800,3.670376953125,0.3571193814277649,0.1166430190205574,0.1688394397497177
1763692628270415000,3.6804150390625,0.18361954391002655,0.11344731599092484,0.21997061371803284
1763692628280420600,3.690420654296875,0.05366111174225807,0.055924732238054276,0.13688243925571442
1763692628290421500,3.70042138671875,0.02916075475513935,0.027163442224264145,0.10492545366287231
1763692628300426500,3.710426513671875,0.09094426780939102,-0.07296846061944962,0.06977276504039764
1763692628310407200,3.7204072265625,0.12396649271249771,-0.20612259209156036,0.031424373388290405
1763692628320409600,3.73040966796875,0.10905323177576065,-0.2849498391151428,0.010119713842868805
1763692628330447400,3.740447265625,0.06431344151496887,-0.39347043633461,0.0079892473295331
1763692628340453000,3.750453125,0.007856093347072601,-0.435014545917511,0.08042509108781815
1763692628350450000,3.760449951171875,-0.03794892504811287,-0.3487306535243988,0.28068891167640686
1763692628360455200,3.770455078125,-0.04647079110145569,-0.6118432283401489,0.6363435983657837
1763692628370431000,3.780430908203125,0.0238345880061388,-0.9344756603240967,0.9429975152015686
1763692628380433000,3.790432861328125,0.10585752874612808,-0.9483237266540527,1.0282161235809326
1763692628390467300,3.80046728515625,0.16231487691402435,-0.7268883585929871,0.9536498785018921
1763692628400472600,3.81047265625,0.22622886300086975,-0.865368664264679,0.7620410919189453
1763692628410468400,3.82046826171875,0.22942456603050232,-0.6374087929725647,-0.6757571697235107
1763692628420472600,3.83047265625,0.4625774323940277,0.3785571753978729,-2.1007726192474365
1763692628430501600,3.840501708984375,0.7022548913955688,2.683321952819824,-0.09853405505418777
1763692628440508400,3.85050830078125,0.10692276805639267,0.10386022180318832,-1.0985215902328491
1763692628450500400,3.860500244140625,-0.2691044807434082,0.6821485757827759,-0.8919994831085205
1763692628460505600,3.870505615234375,-0.02942706272006035,1.121956706047058,-0.37749195098876953
1763692628470495700,3.880495849609375,-0.03688369318842888,0.7439321279525757,-0.17629607021808624
1763692628480499700,3.890499755859375,-0.16790735721588135,0.31144750118255615,-0.16457849740982056
1763692628490533400,3.900533447265625,-0.16471165418624878,0.043141938745975494,-0.10812114924192429
1763692628500540200,3.9105400390625,-0.13595037162303925,-0.15605664253234863,-0.013315413147211075
1763692628510492000,3.920491943359375,-0.2169080674648285,-0.306254506111145,0.06551183015108109
1763692628520493000,3.9304931640625,-0.3073197305202484,-0.3402087986469269,0.15073047578334808
1763692628530500000,3.9405,-0.2925396263599396,-0.34553495049476624,0.22849248349666595
1763692628540502000,3.950501953125,-0.33395054936408997,-0.2657756507396698,0.26257994771003723
1763692628550551000,3.960551025390625,-0.40106022357940674,-0.12303441762924194,0.27216702699661255
1763692628560557600,3.9705576171875,-0.42129966616630554,-0.12516488134860992,0.2572537660598755
1763692628570519300,3.980519287109375,-0.34460288286209106,-0.2668408751487732,0.22423155605793
1763692628580521500,3.990521484375,-0.20838621258735657,-0.40838369727134705,0.18588316440582275
1763692628590560800,4.000560791015625,-0.09227581322193146,-0.44779732823371887,0.13475197553634644
1763692628600566500,4.01056640625,0.0014646954368799925,-0.45205825567245483,0.053794268518686295
1763692628610597600,4.02059765625,0.0504654161632061,-0.40838369727134705,-0.039946239441633224
1763692628620606000,4.03060595703125,0.1143793985247612,-0.2774932086467743,-0.1272953450679779
1763692628630570500,4.040570556640625,0.15059731900691986,-0.17736129462718964,-0.16138280928134918
1763692628640574500,4.050574462890625,0.1665758192539215,-0.12090394645929337,-0.12303441762924194
1763692628650587000,4.0605869140625,0.2113156020641327,-0.09746882319450378,-0.027163442224264145
1763692628660591600,4.070591552734375,0.285881906747818,-0.10386022180318832,0.07935985922813416
1763692628670573000,4.080572998046875,0.3571193814277649,-0.11451254785060883,0.15073047578334808
1763692628680575500,4.090575439453125,0.38588064908981323,-0.1177082508802414,0.16244803369045258
1763692628690589700,4.100589599609375,0.39653298258781433,-0.10279498994350433,0.12090394645929337
1763692628700593200,4.11059326171875,0.4316856861114502,-0.037815771996974945,0.052729032933712006
1763692628710607600,4.120607666015625,0.47749069333076477,0.006924014538526535,-0.0005326165119186044
1763692628720612400,4.1306123046875,0.49879536032676697,0.056989967823028564,-0.018641578033566475
1763692628730606300,4.1406064453125,0.5190348029136658,0.1262301206588745,-0.052729032933712006
1763692628740609800,4.15060986328125,0.6106448173522949,0.26897132396698,-0.09427312016487122
1763692628750628000,4.160628173828125,0.914103090763092,0.6832138299942017,-0.09214265644550323
1763692628760633000,4.170633056640625,1.0483224391937256,0.5820167064666748,-0.09320788830518723
1763692628770626600,4.18062646484375,0.7565817832946777,-0.031424373388290405,-0.25192761421203613
1763692628780630300,4.19063037109375,0.6798849701881409,0.34446972608566284,-0.25938424468040466
1763692628790593500,4.200593505859375,0.6990591883659363,0.6512568593025208,-0.13581721484661102
1763692628800593400,4.210593505859375,0.6127753257751465,0.4339492917060852,-0.1272953450679779
1763692628810643500,4.2206435546875,0.47749069333076477,0.24660144746303558,-0.346600204706192
1763692628850622500,4.26062255859375,0.1260969638824463,0.6011908650398254,-0.11451254785060883
1763692628860623000,4.270623046875,0.0930747389793396,0.6640396118164062,-0.1486000120639801
1763692628870674200,4.280674072265625,0.11970555782318115,0.6746919751167297,-0.18481792509555817
1763692628880680000,4.290679931640625,0.15272778272628784,0.8280855417251587,-0.21677492558956146
1763692628890687000,4.30068701171875,0.11757509410381317,0.9079779982566833,-0.3295564651489258
1763692628900693000,4.31069287109375,0.2304897904396057,1.039933681488037,-0.4222317337989807
1763692628910642700,4.320642578125,0.3485974967479706,1.1666964292526245,-0.48188477754592896
1763692628920642800,4.330642822265625,0.38161972165107727,1.1507179737091064,-0.5447335243225098
1763692628930696000,4.340696044921875,0.39333727955818176,1.1240870952606201,-0.5756253004074097
1763692628940701400,4.350701416015625,0.3688369393348694,1.0697603225708008,-0.5798861980438232
1763692628950688800,4.360688720703125,0.2933385372161865,0.8983908891677856,-0.5639077425003052
1763692628960692500,4.3706923828125,0.2198374718427658,0.5724295973777771,-0.5500596761703491
1763692628970723000,4.38072314453125,0.17509767413139343,0.15712186694145203,-0.5212984085083008
1763692628980729600,4.3907294921875,0.17083674669265747,-0.24979715049266815,-0.496798038482666
1763692628990720500,4.400720458984375,0.16231487691402435,-0.4893414080142975,-0.4744281470775604
1763692629000725500,4.4107255859375,0.19746756553649902,-0.5053198933601379,-0.42755791544914246
1763692629010730200,4.420730224609375,0.26670771837234497,-0.3572525382041931,-0.36364391446113586
1763692629020735200,4.4307353515625,0.3358147144317627,-0.12196917831897736,-0.3178389072418213
1763692629030755300,4.44075537109375,0.39333727955818176,0.11557777971029282,-0.3167736828327179
1763692629040761600,4.45076171875,0.4114462435245514,0.2668408751487732,-0.36364391446113586
1763692629050760000,4.460760009765625,0.3975982367992401,0.3391435742378235,-0.42755791544914246
1763692629060765400,4.470765380859375,0.3667064607143402,0.36577439308166504,-0.5127765536308289
1763692629070763800,4.480763671875,0.24540305137634277,0.3412740230560303,-0.5937342643737793
1763692629080768800,4.490768798828125,0.14846685528755188,0.29134124517440796,-0.6150389313697815
1763692629090779400,4.500779296875,0.06431344151496887,0.2540580630302429,-0.6065170764923096
1763692629100784600,4.51078466796875,-0.014513799920678139,0.25938424468040466,-0.5979951620101929
1763692629110773000,4.52077294921875,-0.07416684925556183,0.33168694376945496,-0.5916038155555725
1763692629120776700,4.530776611328125,-0.10612384229898453,0.44140592217445374,-0.5724295973777771
1763692629130782200,4.5407822265625,-0.11677616834640503,0.5330159664154053,-0.5468640327453613
1763692629160773000,4.570773193359375,-0.12636326253414154,0.6299521923065186,-0.4222317337989807
1763692629170799900,4.5807998046875,-0.13808083534240723,0.6331478953361511,-0.3497959077358246
1763692629180804400,4.590804443359375,-0.15938548743724823,0.6065170764923096,-0.2764279842376709
1763692629190807000,4.60080712890625,-0.18814678490161896,0.5532553791999817,-0.22423155605793
1763692629200811300,4.610811279296875,-0.2158428430557251,0.4754934012889862,-0.19333979487419128
1763692629210797800,4.6207978515625,-0.2360822707414627,0.3902747631072998,-0.1816222369670868
1763692629220800300,4.63080029296875,-0.25312599539756775,0.3242303133010864,-0.18907886743545532
1763692629230822400,4.640822509765625,-0.26484355330467224,0.2529928386211395,-0.17949175834655762
1763692629240827000,4.650826904296875,-0.27443066239356995,0.18588316440582275,-0.15392617881298065
1763692629250812700,4.660812744140625,-0.3010614812374115,0.06977276504039764,-0.0857512578368187
1763692629260815000,4.670815185546875,-0.3520595133304596,0.0953383520245552,-0.10492545366287231
1763692629270820400,4.6808203125,-0.42343011498451233,0.18907886743545532,-0.10918638855218887
1763692629280823000,4.690822998046875,-0.48521363735198975,0.14433906972408295,-0.10812114924192429
1763692629290853400,4.700853271484375,-0.5171706080436707,0.0953383520245552,-0.06870753318071365
1763692629300859000,4.71085888671875,-0.5374100804328918,0.08362079411745071,-0.0740336924791336
1763692629310862300,4.7208623046875,-0.5800193548202515,0.07296846061944962,-0.15286093950271606
1763692629320867600,4.73086767578125,-0.6268896460533142,0.023967742919921875,-0.17629607021808624
1763692629330876700,4.740876708984375,-0.651390016078949,0.07190322875976562,-0.19440503418445587
1763692629340882400,4.75088232421875,-0.6716294288635254,0.0740336924791336,-0.21890538930892944
1763692629350888400,4.760888427734375,-0.6939992904663086,0.09746882319450378,-0.23168818652629852
1763692629360894000,4.77089404296875,-0.7153039574623108,0.14753477275371552,-0.25831902027130127
1763692629370887000,4.780886962890625,-0.7472609877586365,0.2125139832496643,-0.3039908707141876
1763692629380891100,4.79089111328125,-0.7696308493614197,0.2742975056171417,-0.3391435742378235
1763692629390884000,4.800884033203125,-0.7930659651756287,0.35618728399276733,-0.3998618423938751
1763692629400887000,4.810886962890625,-0.8058487772941589,0.4105141758918762,-0.49147188663482666
1763692629410901200,4.8209013671875,-0.797326922416687,0.35618728399276733,-0.542603075504303
1763692629420905500,4.830905517578125,-0.8175663352012634,0.16138280928134918,-0.5330159664154053
1763692629430914600,4.84091455078125,-0.8963935971260071,-0.06657706201076508,-0.4648410677909851
1763692629440919300,4.850919189453125,-1.001718521118164,-0.18907886743545532,-0.3689700961112976
1763692629450929400,4.860929443359375,-1.132742166519165,-0.19333979487419128,-0.2529928386211395
1763692629460934700,4.8709345703125,-1.2467221021652222,-0.13049104809761047,-0.16670896112918854
1763692629470908400,4.880908447265625,-1.294657588005066,-0.055924732238054276,-0.1070559173822403
1763692629480910300,4.890910400390625,-1.2658963203430176,0.0037283156998455524,-0.0846860259771347
1763692629490937600,4.9009375,-1.1891995668411255,0.020772043615579605,-0.0740336924791336
1763692629510949000,4.92094921875,-1.0688282251358032,0.2231663167476654,-0.06977276504039764
1763692629520953900,4.930953857421875,-1.116763710975647,0.44034069776535034,-0.025032976642251015
1763692629530956500,4.94095654296875,-1.0986547470092773,0.6150389313697815,0.09959928691387177
1763692629560977700,4.970977783203125,-0.4458000063896179,0.6438001990318298,0.5713643431663513
1763692629570954800,4.980954833984375,-0.3201025128364563,0.4669715166091919,0.6714962720870972
1763692629580957200,4.990957275390625,-0.353124737739563,0.22955772280693054,0.7449973225593567
1763692629590988500,5.000988525390625,-0.48414841294288635,0.0037283156998455524,0.8142374753952026
1763692629600994000,5.010994140625,-0.605584979057312,-0.19333979487419128,0.8983908891677856
1763692629611003000,5.0210029296875,-0.6428681015968323,-0.41690558195114136,0.9845415949821472
1763692629621008600,5.031008544921875,-0.6300853490829468,-0.5841471552848816,1.047390341758728
1763692629630997000,5.0409970703125,-0.6023892760276794,-0.650191605091095,1.0676298141479492
1763692629641001000,5.0510009765625,-0.5480623841285706,-0.641669750213623,1.0505861043930054
1763692629651020500,5.0610205078125,-0.48627886176109314,-0.5692338943481445,0.9973244071006775
1763692629661026000,5.071026123046875,-0.45112618803977966,-0.46271058917045593,0.8898690342903137
1763692629681031000,5.091031005859375,-0.4660394489765167,-0.29134124517440796,0.5628424882888794
1763692629691010800,5.1010107421875,-0.4692351520061493,-0.2348838746547699,0.39773139357566833
1763692629701013200,5.11101318359375,-0.46284374594688416,-0.19547025859355927,0.25192761421203613
1763692629711016200,5.12101611328125,-0.4479304850101471,-0.15925233066082,0.14114338159561157
1763692629721018600,5.1310185546875,-0.413843035697937,-0.08362079411745071,0.09001219272613525
1763692629731028700,5.14102880859375,-0.35845091938972473,0.01438064593821764,0.0740336924791336
1763692629741032000,5.151031982421875,-0.29360485076904297,0.0964035913348198,0.06870753318071365
1763692629751065000,5.161065185546875,-0.23288656771183014,0.16564373672008514,0.07616416364908218
1763692629761071400,5.1710712890625,-0.18175537884235382,0.18801362812519073,0.0846860259771347
1763692629771068400,5.181068359375,-0.15405932068824768,0.12303441762924194,0.0846860259771347
1763692629781073700,5.19107373046875,-0.1615159511566162,0.010119713842868805,0.06977276504039764
1763692629791078400,5.201078369140625,-0.18814678490161896,-0.06657706201076508,0.056989967823028564
1763692629801083600,5.211083740234375,-0.19879911839962006,-0.08788172155618668,0.06551183015108109
1763692629811076900,5.221076904296875,-0.18708154559135437,-0.08894696086645126,0.09320788830518723
1763692629821080800,5.231080810546875,-0.1519288569688797,-0.07190322875976562,0.12409964948892593
1763692629831096300,5.241096435546875,-0.10612384229898453,-0.046337638050317764,0.1581871062517166
1763692629841101600,5.2511015625,-0.05925358831882477,-0.01438064593821764,0.1912093311548233
1763692629851105500,5.26110546875,-0.008122402243316174,0.043141938745975494,0.22636201977729797
1763692629861110500,5.271110595703125,0.039813082665205,0.08255556225776672,0.2540580630302429
1763692629871110700,5.281110595703125,0.06431344151496887,0.0750989317893982,0.25192761421203613
1763692629881115100,5.291115234375,0.05898727849125862,0.010119713842868805,0.2231663167476654
1763692629891118800,5.301118896484375,0.03342168778181076,-0.08788172155618668,0.17629607021808624
1763692629901123300,5.311123291015625,0.012117025442421436,-0.1581871062517166,0.1294258087873459
1763692629911123000,5.321123046875,0.013182258233428001,-0.15073047578334808,0.09959928691387177
1763692629921127000,5.331126953125,0.05153064802289009,-0.08681648969650269,0.0857512578368187
1763692629931133400,5.341133544921875,0.1143793985247612,-0.013315413147211075,0.06657706201076508
1763692629941137700,5.3511376953125,0.17509767413139343,0.034620072692632675,0.034620072692632675
1763692629951130400,5.36113037109375,0.21877223253250122,0.052729032933712006,0.0005326165119186044
1763692629961133600,5.371133544921875,0.24433782696723938,0.07190322875976562,-0.015445878729224205
1763692629971159600,5.38115966796875,0.25925108790397644,0.08894696086645126,-0.0026630824431777
1763692629981165000,5.3911650390625,0.26777294278144836,0.0740336924791336,0.036750540137290955
1763692629991147300,5.401147216796875,0.2507292330265045,0.059120431542396545,0.0964035913348198
1763692630001150200,5.411150146484375,0.2113156020641327,0.020772043615579605,0.16670896112918854
1763692630011167500,5.42116748046875,0.19427187740802765,-0.028228675946593285,0.23168818652629852
1763692630021171700,5.431171630859375,0.16231487691402435,-0.029293907806277275,0.2860150635242462
1763692630031183000,5.44118310546875,0.12716218829154968,0.016511112451553345,0.3135779798030853
1763692630041188400,5.451188232421875,0.10798799991607666,0.07083799690008163,0.3071865737438202
1763692630051167500,5.46116748046875,0.0930747389793396,0.1166430190205574,0.2774932086467743
1763692630061170200,5.471170166015625,0.09733566641807556,0.137947678565979,0.22849248349666595
1763692630071200000,5.481199951171875,0.12396649271249771,0.13475197553634644,0.1720351278781891
1763692630081205500,5.49120556640625,0.14314068853855133,0.13368675112724304,0.13262151181697845
1763692630091205600,5.50120556640625,0.14846685528755188,0.14433906972408295,0.10812114924192429
1763692630101210400,5.51121044921875,0.15166255831718445,0.14007814228534698,0.09746882319450378
1763692630111195400,5.5211953125,0.16018441319465637,0.1272953450679779,0.09427312016487122
1763692630121198000,5.531197998046875,0.17083674669265747,0.13368675112724304,0.08681648969650269
1763692630131196400,5.541196533203125,0.17616291344165802,0.14433906972408295,0.07616416364908218
1763692630141198600,5.551198486328125,0.1889457106590271,0.16777420043945312,0.051663801074028015
1763692630151237000,5.561237060546875,0.20492419600486755,0.1603175699710846,0.028228675946593285
1763692630161243000,5.571242919921875,0.2091851383447647,0.12303441762924194,0.01118494663387537
1763692630171224000,5.58122412109375,0.2006632685661316,0.08149032294750214,0.013315413147211075
1763692630181227500,5.5912275390625,0.18361954391002655,0.018641578033566475,0.037815771996974945
1763692630191247000,5.6012470703125,0.16338011622428894,-0.054859500378370285,0.07829462736845016
1763692630201252000,5.611252197265625,0.1356840580701828,-0.14114338159561157,0.1262301206588745
1763692630211258600,5.621258544921875,0.11864032596349716,-0.2444709837436676,0.2860150635242462
1763692630221263600,5.631263671875,0.1260969638824463,-0.4137098789215088,0.6768224239349365
1763692630231261000,5.641260986328125,0.1250317245721817,-0.5457987785339355,0.8153027296066284
1763692630241265200,5.65126513671875,0.12396649271249771,-0.44034069776535034,0.7737586498260498
1763692630251244000,5.661244140625,0.18042384088039398,-0.24979715049266815,0.626756489276886
1763692630261245700,5.67124560546875,0.3145100474357605,0.030359141528606415,0.3380783200263977
1763692630271272400,5.6812724609375,0.3368799388408661,-0.018641578033566475,0.19014409184455872
1763692630281276700,5.691276611328125,0.2848166823387146,0.020772043615579605,-0.025032976642251015
1763692630291269400,5.701269287109375,0.2219679355621338,0.006924014538526535,-0.1070559173822403
1763692630301272300,5.711272216796875,0.19427187740802765,0.012250179424881935,-0.06870753318071365
1763692630311304000,5.721303955078125,0.16124965250492096,0.030359141528606415,0.023967742919921875
1763692630321309700,5.731309814453125,0.08348763734102249,0.01118494663387537,0.0005326165119186044
1763692630331315000,5.74131494140625,-0.18069015443325043,-0.13581721484661102,-0.18907886743545532
1763692630341320700,5.75132080078125,-0.02303566411137581,-0.19333979487419128,-0.1059906855225563
1763692630351308000,5.76130810546875,0.13887976109981537,0.051663801074028015,-0.059120431542396545
1763692630361312000,5.77131201171875,0.2102503627538681,0.1262301206588745,-0.1070559173822403
1763692630371325200,5.7813251953125,0.1559234857559204,0.039946239441633224,-0.1603175699710846
1763692630381330200,5.791330078125,0.15911918878555298,0.08042509108781815,0.0005326165119186044
1763692630391336200,5.801336181640625,0.09627043455839157,0.13368675112724304,0.10812114924192429
1763692630401341200,5.811341064453125,-0.0347532257437706,0.015445878729224205,0.032489608973264694
1763692630411324000,5.821323974609375,-0.010252867825329304,-0.045272402465343475,0.046337638050317764
1763692630421326800,5.831326904296875,0.08029194176197052,0.06551183015108109,0.18375270068645477
1763692630431358000,5.84135791015625,0.1367492824792862,0.13581721484661102,0.2998631000518799
1763692630441363500,5.851363525390625,0.15911918878555298,0.1070559173822403,0.350861132144928
1763692630451348500,5.861348388671875,0.14207544922828674,0.0846860259771347,0.3252955377101898
1763692630461352000,5.87135205078125,0.14207544922828674,0.12090394645929337,0.2561885416507721
1763692630471344600,5.8813447265625,0.16444534063339233,0.22849248349666595,0.16777420043945312
1763692630501384000,5.911384033203125,0.20279373228549957,0.5511249303817749,-0.037815771996974945
1763692630511373000,5.921373046875,0.21344606578350067,0.5873428583145142,-0.035685304552316666
1763692630521376800,5.931376708984375,0.2198374718427658,0.6086475253105164,-0.013315413147211075
1763692630531389200,5.94138916015625,0.21770699322223663,0.603321373462677,0.015445878729224205
1763692630541394000,5.951393798828125,0.21451130509376526,0.5979951620101929,0.043141938745975494
1763692630551402500,5.961402587890625,0.2198374718427658,0.6129084229469299,0.07722939550876617
1763692630561407700,5.97140771484375,0.2304897904396057,0.6544525623321533,0.11983871459960938
1763692630571402800,5.98140283203125,0.24646829068660736,0.7162360548973083,0.15712186694145203
1763692630581406700,5.99140673828125,0.2507292330265045,0.7599105834960938,0.17842653393745422
1763692630591402200,6.00140234375,0.24859875440597534,0.7556496858596802,0.18588316440582275
1763692630601405200,6.0114052734375,0.24646829068660736,0.7418016195297241,0.18907886743545532
1763692630611429400,6.021429443359375,0.25712060928344727,0.7407364249229431,0.19653549790382385
1763692630621435000,6.031434814453125,0.2720338702201843,0.7513887286186218,0.21997061371803284
1763692630631439000,6.041439208984375,0.2848166823387146,0.7780195474624634,0.2657756507396698
1763692630641444000,6.051444091796875,0.2954690158367157,0.8035851716995239,0.3274259865283966
1763692630651447300,6.061447265625,0.30705341696739197,0.8312812447547913,0.39773139357566833
1763692630661452300,6.071452392578125,0.32942330837249756,0.8451292514801025,0.46164536476135254
1763692630671452200,6.0814521484375,0.3443365693092346,0.8195636868476868,0.4893414080142975
1763692630681456600,6.09145654296875,0.34220612049102783,0.7290188670158386,0.49360236525535583
1763692630691463700,6.101463623046875,0.33901041746139526,0.6363435983657837,0.48295003175735474
1763692630701468400,6.111468505859375,0.3379451632499695,0.534081220626831,0.4563191831111908
1763692630711461600,6.121461669921875,0.32835808396339417,0.4360797703266144,0.4094489514827728
1763692630721465000,6.131465087890625,0.32196667790412903,0.36257869005203247,0.33488261699676514
1763692630731458600,6.14145849609375,0.32196667790412903,0.3146432042121887,0.24340574443340302
1763692630741461000,6.1514609375,0.3251623809337616,0.29240646958351135,0.1496652364730835
1763692630751470800,6.161470947265625,0.33155378699302673,0.3071865737438202,0.0633813664317131
1763692630761474000,6.17147412109375,0.33901041746139526,0.34446972608566284,0.0015978495357558131
1763692630771500300,6.181500244140625,0.3443365693092346,0.3817528784275055,-0.029293907806277275
1763692630781506000,6.191506103515625,0.3475322723388672,0.38601380586624146,-0.013315413147211075
1763692630791479600,6.2014794921875,0.3464670479297638,0.3412740230560303,0.030359141528606415
1763692630801482000,6.21148193359375,0.33155378699302673,0.25192761421203613,0.08681648969650269
1763692630811491300,6.2214912109375,0.31131434440612793,0.15073047578334808,0.1390129029750824
1763692630821494500,6.23149462890625,0.29227331280708313,0.07296846061944962,0.1720351278781891
1763692630831526100,6.241526123046875,0.27736005187034607,0.035685304552316666,0.15925233066082
1763692630851509000,6.261509033203125,0.28907760977745056,0.07296846061944962,0.00905448105186224
1763692630861512000,6.271511962890625,0.33155378699302673,0.1272953450679779,-0.09959928691387177
1763692630871542800,6.281542724609375,0.37096738815307617,0.18375270068645477,-0.20931829512119293
1763692630881548500,6.291548583984375,0.39653298258781433,0.21677492558956146,-0.30199354887008667
1763692630891534800,6.301534912109375,0.410381019115448,0.19653549790382385,-0.3689700961112976
1763692630901538800,6.311538818359375,0.41570720076560974,0.17736129462718964,-0.4030575454235077
1763692630911560700,6.321560791015625,0.42742475867271423,0.1581871062517166,-0.40518802404403687
1763692630921566500,6.33156640625,0.4519250988960266,0.12303441762924194,-0.3817528784275055
1763692630931573500,6.341573486328125,0.47855594754219055,0.08255556225776672,-0.3402087986469269
1763692630941579300,6.351579345703125,0.4966649115085602,0.058055199682712555,-0.28388461470603943
1763692630951578600,6.36157861328125,0.5051867365837097,0.041011471301317215,-0.21784014999866486
1763692630961583600,6.37158349609375,0.4860125780105591,0.017576344311237335,-0.15179570019245148
1763692630971588900,6.3815888671875,0.44766417145729065,-0.01438064593821764,-0.09320788830518723
1763692630981593900,6.39159375,0.4125114977359772,-0.044207170605659485,-0.044207170605659485
1763692630991591700,6.401591796875,0.391206830739975,-0.07935985922813416,-0.00905448105186224
1763692631011594800,6.4215947265625,0.3549889028072357,-0.12516488134860992,-0.013315413147211075
1763692631021598500,6.431598388671875,0.3432713449001312,-0.13581721484661102,-0.037815771996974945
1763692631031607300,6.441607177734375,0.3155752718448639,-0.15286093950271606,-0.07083799690008163
1763692631041611500,6.451611572265625,0.28801238536834717,-0.18694838881492615,-0.11344731599092484
1763692631051615700,6.46161572265625,0.2517944574356079,-0.23168818652629852,-0.1603175699710846
1763692631061620000,6.471619873046875,0.22409839928150177,-0.26897132396698,-0.22423155605793
1763692631071612000,6.48161181640625,0.20705467462539673,-0.30931705236434937,-0.28068891167640686
1763692631081614800,6.49161474609375,0.19533710181713104,-0.3274259865283966,-0.3359478712081909
1763692631091633200,6.501633056640625,0.18042384088039398,-0.33275216817855835,-0.389209508895874
1763692631101638000,6.511637939453125,0.15379302203655243,-0.33488261699676514,-0.4424711763858795
1763692631111640800,6.521640869140625,0.11970555782318115,-0.2987978756427765,-0.5010589957237244
1763692631121645300,6.531645263671875,0.09413997083902359,-0.2231663167476654,-0.5372769236564636
1763692631131640600,6.541640625,0.08455286920070648,-0.13581721484661102,-0.542603075504303
1763692631141644000,6.55164404296875,0.08668334037065506,-0.06977276504039764,-0.5287550687789917
1763692631151642000,6.56164208984375,0.08774857223033905,-0.045272402465343475,-0.5042546987533569
1763692631161645000,6.57164501953125,0.08668334037065506,-0.06551183015108109,-0.47336292266845703
1763692631171677200,6.58167724609375,0.10905323177576065,-0.09746882319450378,-0.4243622124195099
1763692631181683000,6.591682861328125,0.11224892735481262,-0.13368675112724304,-0.38388335704803467
1763692631191671000,6.601671142578125,0.13142313063144684,-0.19333979487419128,-0.34340450167655945
1763692631201675000,6.611675048828125,0.16018441319465637,-0.21570968627929688,-0.31144750118255615
1763692631211664400,6.621664306640625,0.19640234112739563,-0.24021004140377045,-0.29134124517440796
1763692631221667000,6.6316669921875,0.262446790933609,-0.2551233172416687,-0.2849498391151428
1763692631231708200,6.641708251953125,0.3347494900226593,-0.26257994771003723,-0.2956021726131439
1763692631241714400,6.65171435546875,0.3560541272163391,-0.18268746137619019,-0.3189041316509247
1763692631251698700,6.66169873046875,0.3134448230266571,-0.1912093311548233,-0.36577439308166504
1763692631261703000,6.671702880859375,0.25818586349487305,-0.306254506111145,-0.40838369727134705
1763692631271721500,6.681721435546875,0.23475073277950287,-0.37642672657966614,-0.42755791544914246
1763692631281727200,6.691727294921875,0.21451130509376526,-0.3679048418998718,-0.4371449947357178
1763692631291724000,6.70172412109375,0.21664176881313324,-0.3679048418998718,-0.44779732823371887
1763692631301728800,6.711728759765625,0.24753352999687195,-0.3689700961112976,-0.45099303126335144
1763692631311715800,6.7217158203125,0.27736005187034607,-0.3252955377101898,-0.430753618478775
1763692631321718800,6.73171875,0.23794642090797424,-0.23914481699466705,-0.4158403277397156
1763692631331743000,6.741742919921875,0.16444534063339233,-0.10386022180318832,-0.4094489514827728
1763692631341748000,6.751748046875,0.05579157918691635,-0.12090394645929337,-0.44140592217445374
1763692631351754200,6.761754150390625,-0.007057168986648321,-0.137947678565979,-0.4531235098838806
1763692631361759500,6.771759521484375,-0.03155753016471863,-0.09320788830518723,-0.4573844373226166
1763692631371763200,6.78176318359375,-0.009187635034322739,-0.0740336924791336,-0.4669715166091919
1763692631381768400,6.7917685546875,0.005725627299398184,-0.053794268518686295,-0.48295003175735474
1763692631391776300,6.8017763671875,0.02063889056444168,-0.006924014538526535,-0.496798038482666
1763692631401781800,6.81178173828125,0.02489982172846794,0.010119713842868805,-0.5170374512672424
1763692631411779600,6.821779541015625,-0.013448567129671574,-0.0005326165119186044,-0.5244941115379333
1763692631421784000,6.8317841796875,-0.0773625448346138,-0.025032976642251015,-0.5085155963897705
1763692631431764200,6.84176416015625,-0.1615159511566162,-0.08255556225776672,-0.47336292266845703
1763692631441766400,6.851766357421875,-0.2477998286485672,-0.14007814228534698,-0.42968836426734924
1763692631451788300,6.861788330078125,-0.3286243975162506,-0.18375270068645477,-0.38814428448677063
1763692631461792500,6.87179248046875,-0.38934266567230225,-0.20079642534255981,-0.34233927726745605
1763692631471791000,6.881791015625,-0.42129966616630554,-0.17949175834655762,-0.2785584330558777
1763692631481794600,6.891794677734375,-0.4351477026939392,-0.14007814228534698,-0.19440503418445587
1763692631491813400,6.9018134765625,-0.44153907895088196,-0.1272953450679779,-0.11344731599092484
1763692631501818400,6.911818359375,-0.4692351520061493,-0.16138280928134918,-0.061250898987054825
1763692631511822800,6.92182275390625,-0.5352795720100403,-0.22955772280693054,-0.043141938745975494
1763692631521827800,6.931827880859375,-0.6268896460533142,-0.3178389072418213,-0.046337638050317764
1763692631531824600,6.94182470703125,-0.7248910665512085,-0.3913399875164032,-0.0633813664317131
1763692631541828900,6.951828857421875,-0.8058487772941589,-0.4009270668029785,-0.0857512578368187
1763692631551827000,6.961826904296875,-0.8655018210411072,-0.3604482114315033,-0.11025162041187286
1763692631561830400,6.971830322265625,-0.9123721122741699,-0.31144750118255615,-0.13049104809761047
1763692631571849000,6.981848876953125,-0.9431306719779968,-0.25086238980293274,-0.14327384531497955
1763692631591855400,7.00185546875,-0.9612396359443665,-0.17416560649871826,-0.137947678565979
1763692631601859800,7.01185986328125,-0.9718919992446899,-0.19973118603229523,-0.20612259209156036
1763692631611854600,7.0218544921875,-0.9740224480628967,-0.18375270068645477,-0.24234052002429962
1763692631621858300,7.0318583984375,-0.9399349689483643,-0.16777420043945312,-0.18694838881492615
1763692631631877600,7.041877685546875,-0.9091764092445374,-0.10918638855218887,-0.14220860600471497
1763692631641883000,7.0518828125,-0.8963935971260071,-0.06977276504039764,-0.11451254785060883
1763692631651885600,7.061885498046875,-0.8900021910667419,-0.015445878729224205,-0.09427312016487122
1763692631661890600,7.071890625,-0.8697627782821655,0.023967742919921875,-0.058055199682712555
1763692631671875600,7.08187548828125,-0.8388710021972656,0.046337638050317764,-0.006924014538526535
1763692631681878500,7.09187841796875,-0.8228924870491028,0.039946239441633224,0.045272402465343475
1763692631691896800,7.101896728515625,-0.8356752991676331,-0.019706811755895615,0.09214265644550323
1763692631701901300,7.1119013671875,-0.8761541843414307,-0.12090394645929337,0.14327384531497955
1763692631711879000,7.12187890625,-0.9399349689483643,-0.21677492558956146,0.2125139832496643
1763692631721880600,7.131880615234375,-1.0145013332366943,-0.26897132396698,0.2956021726131439
1763692631731897000,7.14189697265625,-1.0975894927978516,-0.30305880308151245,0.3785571753978729
1763692631741900300,7.151900390625,-1.1923952102661133,-0.3146432042121887,0.435014545917511
1763692631751896600,7.161896484375,-1.2754833698272705,-0.29453691840171814,0.44779732823371887
1763692631761899000,7.17189892578125,-1.331940770149231,-0.2870802879333496,0.42862313985824585
1763692631771926800,7.1819267578125,-1.3585715293884277,-0.2966673970222473,0.37749195098876953
1763692631781931800,7.191931884765625,-1.3585715293884277,-0.20612259209156036,0.24234052002429962
1763692631791940600,7.201940673828125,-1.294657588005066,-0.1294258087873459,0.15179570019245148
1763692631801945900,7.21194580078125,-1.2573744058609009,-0.01438064593821764,0.08149032294750214
1763692631811938600,7.2219384765625,-1.2669615745544434,-0.025032976642251015,0.041011471301317215
1763692631821942500,7.231942626953125,-1.2616353034973145,-0.12303441762924194,0.029293907806277275
1763692631831932700,7.2419326171875,-1.2147650718688965,-0.17629607021808624,0.029293907806277275
1763692631841935000,7.25193505859375,-1.132742166519165,-0.1699046641588211,0.033554840832948685
1763692631851975400,7.261975341796875,-1.048588752746582,-0.14220860600471497,0.029293907806277275
1763692631861981700,7.271981689453125,-0.972957193851471,-0.11877348273992538,0.025032976642251015
1763692631871950800,7.281950927734375,-0.9123721122741699,-0.09107742458581924,0.018641578033566475
1763692631881953500,7.29195361328125,-0.8410014510154724,-0.0740336924791336,0.019706811755895615
1763692631891968500,7.301968505859375,-0.7408695816993713,-0.0633813664317131,0.01438064593821764
1763692631901972500,7.311972412109375,-0.6684337258338928,-0.059120431542396545,-0.006924014538526535
1763692631911967700,7.3219677734375,-0.6322157979011536,-0.06870753318071365,-0.055924732238054276
1763692631921970700,7.331970703125,-0.5991935729980469,-0.09001219272613525,-0.12090394645929337
1763692631932008400,7.342008544921875,-0.5427362322807312,-0.09959928691387177,-0.17629607021808624
1763692631942015000,7.352014892578125,-0.45006096363067627,-0.07616416364908218,-0.20825305581092834
1763692631952001300,7.362001220703125,-0.34460288286209106,-0.041011471301317215,-0.21677492558956146
1763692631962005800,7.372005859375,-0.24140843749046326,-0.0079892473295331,-0.20505735278129578
1763692631972004600,7.382004638671875,-0.1529940962791443,-0.006924014538526535,-0.17736129462718964
1763692631982008600,7.392008544921875,-0.09121058136224747,-0.052729032933712006,-0.14646953344345093
1763692631992003000,7.402003173828125,-0.05392742156982422,-0.14327384531497955,-0.11344731599092484
1763692632002006000,7.412006103515625,-0.02942706272006035,-0.2529928386211395,-0.07616416364908218
1763692632012037400,7.422037353515625,-0.005991935729980469,-0.34446972608566284,-0.031424373388290405
1763692632022043100,7.432043212890625,0.009986559860408306,-0.4041227698326111,0.020772043615579605
1763692632032042000,7.4420419921875,0.01744319126009941,-0.4147751033306122,0.07722939550876617
1763692632042047000,7.452046875,0.03129122033715248,-0.39453569054603577,0.13368675112724304
1763692632052053800,7.4620537109375,0.05579157918691635,-0.36364391446113586,0.1720351278781891
1763692632062059000,7.47205908203125,0.08881380409002304,-0.3402087986469269,0.18907886743545532
1763692632072036600,7.48203662109375,0.11650986224412918,-0.33275216817855835,0.17736129462718964
1763692632082039000,7.4920390625,0.1367492824792862,-0.3199693560600281,0.14007814228534698
1763692632092056000,7.50205615234375,0.14953207969665527,-0.2742975056171417,0.0953383520245552
1763692632102059800,7.512059814453125,0.1580539494752884,-0.20612259209156036,0.06551183015108109
1763692632112089000,7.522089111328125,0.16018441319465637,-0.14753477275371552,0.048468101769685745
1763692632122095600,7.532095703125,0.15166255831718445,-0.10386022180318832,0.031424373388290405
1763692632132083700,7.542083740234375,0.13035789132118225,-0.0846860259771347,0.01118494663387537
1763692632142088200,7.552088134765625,0.10798799991607666,-0.08681648969650269,-0.015445878729224205
1763692632152075500,7.562075439453125,0.08561810106039047,-0.09320788830518723,-0.050598569214344025
1763692632162078200,7.572078125,0.05153064802289009,-0.13368675112724304,-0.10172975063323975
1763692632172105700,7.582105712890625,0.01637795753777027,-0.18801362812519073,-0.1581871062517166
1763692632182111000,7.592111083984375,-0.0038614696823060513,-0.20612259209156036,-0.19440503418445587
1763692632192120600,7.60212060546875,0.07070484012365341,-0.22103585302829742,-0.22103585302829742
1763692632202126300,7.612126220703125,0.12822742760181427,-0.041011471301317215,-0.20825305581092834
1763692632212109000,7.622109130859375,0.12396649271249771,0.1699046641588211,-0.14540430903434753
1763692632222112300,7.6321123046875,0.11118369549512863,0.23914481699466705,-0.15286093950271606
1763692632232124200,7.642124267578125,0.08561810106039047,0.2753627300262451,-0.20825305581092834
1763692632242128400,7.65212841796875,0.05898727849125862,0.31251272559165955,-0.23701435327529907
1763692632252145200,7.662145263671875,0.07496577501296997,0.33488261699676514,-0.22636201977729797
1763692632262150700,7.672150634765625,0.11757509410381317,0.38494858145713806,-0.20399212837219238
1763692632272143400,7.682143310546875,0.1569887101650238,0.42862313985824585,-0.17949175834655762
1763692632282147600,7.692147705078125,0.17190198600292206,0.4264926612377167,-0.15499140322208405
1763692632292161000,7.7021611328125,0.178293377161026,0.4201012849807739,-0.11025162041187286
1763692632302166000,7.712166015625,0.20172850787639618,0.454188734292984,-0.032489608973264694
1763692632312164400,7.722164306640625,0.24646829068660736,0.5159722566604614,0.060185667127370834
1763692632322168800,7.7321689453125,0.29120808839797974,0.5500596761703491,0.1390129029750824
1763692632332169700,7.742169677734375,0.31877097487449646,0.5276898145675659,0.18375270068645477
1763692632342173700,7.752173583984375,0.33048853278160095,0.4893414080142975,0.19333979487419128
1763692632352185900,7.762185791015625,0.3560541272163391,0.5543206334114075,0.16670896112918854
1763692632362190600,7.772190673828125,0.3997286856174469,0.6789528727531433,0.13049104809761047
1763692632372202000,7.782201904296875,0.4284899830818176,0.6480611562728882,0.11025162041187286
1763692632382207500,7.79220751953125,0.4284899830818176,0.580951452255249,0.09427312016487122
1763692632392175900,7.80217578125,0.40505486726760864,0.4744281470775604,0.08042509108781815
1763692632402177500,7.812177490234375,0.38375020027160645,0.36683961749076843,0.08894696086645126
1763692632412205000,7.822205078125,0.38161972165107727,0.2796236574649811,0.11877348273992538
1763692632422209500,7.83220947265625,0.3997286856174469,0.20505735278129578,0.16777420043945312
1763692632432218600,7.842218505859375,0.4284899830818176,0.1390129029750824,0.2135792225599289
1763692632442223400,7.852223388671875,0.46683835983276367,0.07083799690008163,0.25831902027130127
1763692632452220000,7.862219970703125,0.5094476938247681,0.0026630824431777,0.2987978756427765
1763692632462224000,7.872223876953125,0.5531222224235535,-0.056989967823028564,0.3359478712081909
1763692632472228600,7.882228515625,0.5882749557495117,-0.09427312016487122,0.3593829870223999
1763692632482232600,7.892232666015625,0.6085143685340881,-0.11344731599092484,0.36577439308166504
1763692632492247600,7.90224755859375,0.6085143685340881,-0.1294258087873459,0.3572525382041931
1763692632502252500,7.91225244140625,0.5989272594451904,-0.14540430903434753,0.3412740230560303
1763692632512251600,7.922251708984375,0.5818835496902466,-0.12196917831897736,0.31144750118255615
1763692632522256100,7.932256103515625,0.5648398399353027,-0.047402869910001755,0.2742975056171417
1763692632532268500,7.9422685546875,0.5541874766349792,0.028228675946593285,0.22423155605793
1763692632542273800,7.952273681640625,0.5488613247871399,0.07829462736845016,0.16138280928134918
1763692632552277500,7.962277587890625,0.5350132584571838,0.07829462736845016,0.08681648969650269
1763692632562282500,7.972282470703125,0.49986058473587036,0.032489608973264694,-0.0047935484908521175
1763692632572252700,7.982252685546875,0.45618605613708496,-0.028228675946593285,-0.11557777971029282
1763692632582254300,7.99225439453125,0.4284899830818176,-0.11451254785060883,-0.2125139832496643
1763692632592291800,8.002291748046876,0.391206830739975,-0.07722939550876617,-0.2987978756427765
1763692632602297000,8.012297119140625,0.3752283453941345,-0.0026630824431777,-0.3497959077358246
1763692632612291800,8.022291748046875,0.3752283453941345,0.12409964948892593,-0.37323102355003357
1763692632622296000,8.032296142578126,0.4007939398288727,0.2540580630302429,-0.3721657991409302
1763692632632297200,8.042297119140626,0.41677242517471313,0.37323102355003357,-0.35299158096313477
1763692632642301000,8.052301025390625,0.41783764958381653,0.4318188428878784,-0.3178389072418213
1763692632652319500,8.062319580078125,0.4018591642379761,0.39879661798477173,-0.2860150635242462
1763692632662324700,8.07232470703125,0.3784240186214447,0.3146432042121887,-0.2636451721191406
1763692632672324900,8.082324951171875,0.36244553327560425,0.2252967804670334,-0.24234052002429962
1763692632682329600,8.09232958984375,0.36138030886650085,0.17736129462718964,-0.20825305581092834
1763692632692336400,8.10233642578125,0.37416309118270874,0.19014409184455872,-0.16138280928134918
1763692632702341400,8.11234130859375,0.39440253376960754,0.222101092338562,-0.1166430190205574
1763692632712336100,8.122336181640625,0.41464194655418396,0.22742724418640137,-0.08042509108781815
1763692632722339800,8.13233984375,0.43701183795928955,0.2018616646528244,-0.060185667127370834
1763692632732323600,8.142323486328126,0.45831650495529175,0.17310036718845367,-0.048468101769685745
1763692632742325500,8.152325439453126,0.47749069333076477,0.14327384531497955,-0.044207170605659485
1763692632752363300,8.16236328125,0.4849473237991333,0.10492545366287231,-0.044207170605659485
1763692632762368800,8.17236865234375,0.48068639636039734,0.06764229387044907,-0.038881003856658936
1763692632772371500,8.182371337890626,0.4636426866054535,0.031424373388290405,-0.028228675946593285
1763692632782376700,8.192376708984375,0.4327509105205536,0.017576344311237335,-0.017576344311237335
1763692632792366600,8.20236669921875,0.4018591642379761,0.038881003856658936,-0.006924014538526535
1763692632802370000,8.2123701171875,0.3805544972419739,0.09427312016487122,0.0079892473295331
1763692632812375300,8.222375244140625,0.3752283453941345,0.16457849740982056,0.022902509197592735
1763692632822379000,8.23237890625,0.38481542468070984,0.21890538930892944,0.045272402465343475
1763692632832391000,8.242390869140625,0.39227205514907837,0.25086238980293274,0.06977276504039764
1763692632842395600,8.252395751953125,0.3901416063308716,0.2753627300262451,0.0964035913348198
1763692632852406000,8.262406005859376,0.3805544972419739,0.28175413608551025,0.11877348273992538
1763692632862411000,8.272410888671875,0.36031508445739746,0.26257994771003723,0.13155627250671387
1763692632872409600,8.28240966796875,0.3336842358112335,0.23275341093540192,0.14007814228534698
1763692632882414000,8.2924140625,0.30186042189598083,0.19547025859355927,0.14646953344345093
1763692632892414700,8.302414794921875,0.27736005187034607,0.20079642534255981,0.15179570019245148
1763692632902418700,8.312418701171875,0.25818586349487305,0.22423155605793,0.14646953344345093
1763692632912430000,8.32243017578125,0.24433782696723938,0.15605664253234863,0.1294258087873459
1763692632922434800,8.332434814453125,0.23581595718860626,0.09427312016487122,0.11131685227155685
1763692632932445400,8.342445556640625,0.2411421239376068,0.13262151181697845,0.0846860259771347
1763692632942451000,8.352450927734376,0.23368549346923828,0.1496652364730835,0.052729032933712006
1763692632952427500,8.362427490234374,0.21238084137439728,0.16244803369045258,0.017576344311237335
1763692632962430000,8.372429931640625,0.1889457106590271,0.13155627250671387,-0.019706811755895615
1763692632972455700,8.38245556640625,0.17083674669265747,0.09427312016487122,-0.053794268518686295
1763692632992464400,8.40246435546875,0.1367492824792862,0.033554840832948685,-0.09853405505418777
1763692633002469000,8.41246923828125,0.12183602899312973,0.019706811755895615,-0.10918638855218887
1763692633012476700,8.4224765625,0.10905323177576065,0.032489608973264694,-0.11557777971029282
1763692633022481700,8.432481689453125,0.10266183316707611,0.062316130846738815,-0.11983871459960938
1763692633032489200,8.4424892578125,0.09840089827775955,0.1059906855225563,-0.12303441762924194
1763692633042494500,8.452494384765625,0.09413997083902359,0.137947678565979,-0.12303441762924194
1763692633052495000,8.4624951171875,0.09094426780939102,0.15499140322208405,-0.11877348273992538
1763692633062499800,8.472499755859374,0.08455286920070648,0.16457849740982056,-0.1070559173822403
1763692633072472800,8.482472900390626,0.08029194176197052,0.16351327300071716,-0.09107742458581924
1763692633082474500,8.492474609375,0.07603100687265396,0.15286093950271606,-0.07296846061944962
1763692633092483000,8.502483154296876,0.07496577501296997,0.12516488134860992,-0.059120431542396545
1763692633102485500,8.512485595703126,0.06750914454460144,0.08362079411745071,-0.048468101769685745
1763692633112525000,8.522525146484375,0.05898727849125862,0.046337638050317764,-0.043141938745975494
1763692633122531000,8.532531005859376,0.05366111174225807,0.019706811755895615,-0.033554840832948685
1763692633132533200,8.542533203125,0.05898727849125862,0.0005326165119186044,-0.022902509197592735
1763692633142539000,8.5525390625,0.06750914454460144,-0.022902509197592735,-0.01438064593821764
1763692633152537000,8.562537109375,0.07709623873233795,-0.050598569214344025,-0.01438064593821764
1763692633162542000,8.5725419921875,0.08135717362165451,-0.06870753318071365,-0.028228675946593285
1763692633172533200,8.582533203125,0.07496577501296997,-0.0846860259771347,-0.0633813664317131
1763692633182536700,8.59253662109375,0.06537867337465286,-0.09959928691387177,-0.11131685227155685
1763692633192553700,8.6025537109375,0.06005251035094261,-0.1059906855225563,-0.16457849740982056
1763692633202558500,8.612558349609374,0.06324820965528488,-0.09427312016487122,-0.20505735278129578
1763692633212547600,8.622547607421875,0.07496577501296997,-0.06977276504039764,-0.22849248349666595
1763692633222550800,8.63255078125,0.08881380409002304,-0.039946239441633224,-0.23701435327529907
1763692633232566000,8.64256591796875,0.10585752874612808,-0.019706811755895615,-0.22742724418640137
1763692633242570500,8.652570556640624,0.12290126085281372,-0.010119713842868805,-0.19760072231292725
1763692633252586000,8.6625859375,0.13035789132118225,-0.01118494663387537,-0.14753477275371552
1763692633262591700,8.672591796875,0.13035789132118225,-0.026098208501935005,-0.0846860259771347
1763692633272590000,8.682590087890626,0.12396649271249771,-0.052729032933712006,-0.015445878729224205
1763692633282594800,8.6925947265625,0.11331415921449661,-0.09320788830518723,0.050598569214344025
1763692633292588000,8.702588134765625,0.10266183316707611,-0.13368675112724304,0.1059906855225563
1763692633302591700,8.712591796875,0.0930747389793396,-0.17523083090782166,0.14114338159561157
1763692633312608300,8.722608154296875,0.08774857223033905,-0.2125139832496643,0.16670896112918854
1763692633322613200,8.73261328125,0.08987903594970703,-0.23062294721603394,0.18588316440582275
1763692633332609300,8.742609375,0.0930747389793396,-0.23701435327529907,0.19973118603229523
1763692633342613200,8.75261328125,0.08668334037065506,-0.23062294721603394,0.19866596162319183
1763692633352607200,8.762607177734376,0.06963960826396942,-0.21784014999866486,0.18694838881492615
1763692633362610400,8.7726103515625,0.04087831825017929,-0.19547025859355927,0.16777420043945312
1763692633372620500,8.78262060546875,0.004660394508391619,-0.1688394397497177,0.137947678565979
1763692633382624300,8.792624267578125,-0.03794892504811287,-0.15179570019245148,0.0964035913348198
1763692633392635000,8.802634765625,-0.07949301600456238,-0.14114338159561157,0.041011471301317215
1763692633402639000,8.81263916015625,-0.12210233509540558,-0.1390129029750824,-0.027163442224264145
1763692633412633900,8.8226337890625,-0.15832026302814484,-0.12409964948892593,-0.09853405505418777
1763692633422637000,8.832636962890625,-0.18175537884235382,-0.08894696086645126,-0.15499140322208405
1763692633432660200,8.84266015625,-0.1945381760597229,-0.019706811755895615,-0.19547025859355927
1763692633442665500,8.85266552734375,-0.1956034153699875,0.08255556225776672,-0.2114487588405609
1763692633452670500,8.86267041015625,-0.1934729516506195,0.18694838881492615,-0.2029268890619278
1763692633462675700,8.87267578125,-0.19027724862098694,0.264710396528244,-0.17416560649871826
1763692633472662500,8.88266259765625,-0.18708154559135437,0.2966673970222473,-0.13368675112724304
1763692633482666000,8.892666015625,-0.17962491512298584,0.2987978756427765,-0.0846860259771347
1763692633492684300,8.902684326171874,-0.17749445140361786,0.26897132396698,-0.037815771996974945
1763692633502689300,8.912689208984375,-0.1732335239648819,0.21997061371803284,0.0037283156998455524
1763692633512678000,8.922677978515624,-0.16684211790561676,0.14433906972408295,0.038881003856658936
1763692633522681300,8.932681396484375,-0.1519288569688797,0.07616416364908218,0.0644465982913971
1763692633532703700,8.942703857421876,-0.12529803812503815,0.022902509197592735,0.08681648969650269
1763692633542708700,8.952708740234375,-0.09014534205198288,-0.0047935484908521175,0.11238208413124084
1763692633552713000,8.962712890625,-0.05925358831882477,-0.023967742919921875,0.1262301206588745
1763692633562718200,8.97271826171875,-0.04007939249277115,-0.043141938745975494,0.12196917831897736
1763692633572717000,8.982717041015626,-0.03049229457974434,-0.056989967823028564,0.10918638855218887
1763692633582721500,8.992721435546875,-0.03688369318842888,-0.07722939550876617,0.07829462736845016
1763692633592712000,9.0027119140625,-0.05073172226548195,-0.09320788830518723,0.036750540137290955
1763692633602715000,9.01271484375,-0.06564498692750931,-0.10918638855218887,-0.0047935484908521175
1763692633612724200,9.02272412109375,-0.07949301600456238,-0.11983871459960938,-0.042076703161001205
1763692633622728000,9.03272802734375,-0.09227581322193146,-0.12516488134860992,-0.06977276504039764
1763692633632720600,9.042720703125,-0.10292813926935196,-0.1166430190205574,-0.08681648969650269
1763692633642723000,9.05272314453125,-0.11464570462703705,-0.08894696086645126,-0.1059906855225563
1763692633652738600,9.062738525390625,-0.12636326253414154,-0.052729032933712006,-0.1283605843782425
1763692633662742300,9.0727421875,-0.13914605975151062,-0.01118494663387537,-0.14646953344345093
1763692633672760000,9.082760009765625,-0.14766792953014374,0.021837277337908745,-0.15286093950271606
1763692633682765300,9.092765380859374,-0.1508636325597763,0.039946239441633224,-0.14220860600471497
1763692633692760600,9.102760498046875,-0.1519288569688797,0.056989967823028564,-0.11557777971029282
1763692633702764800,9.112764892578125,-0.14447222650051117,0.08894696086645126,-0.06977276504039764
1763692633712765400,9.122765380859375,-0.1412765234708786,0.10386022180318832,-0.006924014538526535
1763692633722769400,9.132769287109374,-0.1519288569688797,0.1070559173822403,0.06657706201076508
1763692633732795600,9.142795654296876,-0.1742987483739853,0.10066451877355576,0.15925233066082
1763692633742802000,9.152802001953125,-0.20838621258735657,0.1059906855225563,0.2636451721191406
1763692633752800000,9.162800048828124,-0.2595174014568329,0.13262151181697845,0.36577439308166504
1763692633762805500,9.172805419921875,-0.32436347007751465,0.16351327300071716,0.4552539587020874
1763692633772796400,9.18279638671875,-0.38827744126319885,0.1805569976568222,0.5149070024490356
1763692633782800400,9.19280029296875,-0.45006096363067627,0.17842653393745422,0.5244941115379333
1763692633792802800,9.202802734375,-0.5150401592254639,0.137947678565979,0.4850804805755615
1763692633802806500,9.212806640625,-0.5789541602134705,0.08894696086645126,0.4041227698326111
1763692633812815000,9.222815185546875,-0.6268896460533142,0.054859500378370285,0.30199354887008667
1763692633822819300,9.2328193359375,-0.6545857191085815,0.06870753318071365,0.20505735278129578
1763692633832839400,9.24283935546875,-0.666303277015686,0.1283605843782425,0.11557777971029282
1763692633842845200,9.25284521484375,-0.675890326499939,0.19760072231292725,0.022902509197592735
1763692633852831200,9.262831298828125,-0.6918688416481018,0.25192761421203613,-0.08149032294750214
1763692633862835000,9.2728349609375,-0.7057169079780579,0.29453691840171814,-0.19973118603229523
1763692633872841700,9.282841796875,-0.7089125514030457,0.33381739258766174,-0.3135779798030853
1763692633882846000,9.292845947265626,-0.6950645446777344,0.37642672657966614,-0.40731847286224365
1763692633892845800,9.302845703125,-0.6567161679267883,0.40838369727134705,-0.4637758135795593
1763692633902849500,9.312849609375,-0.6013240218162537,0.4126446545124054,-0.4765586256980896
1763692633912859400,9.322859375,-0.5342143774032593,0.39773139357566833,-0.4435364007949829
1763692633922863600,9.332863525390625,-0.4575175940990448,0.3828181326389313,-0.3721657991409302
1763692633932868900,9.342868896484376,-0.3754946291446686,0.3572525382041931,-0.28175413608551025
1763692633942873300,9.352873291015625,-0.3031919598579407,0.31144750118255615,-0.1912093311548233
1763692633952883500,9.362883544921875,-0.2477998286485672,0.2529928386211395,-0.11025162041187286
1763692633962888400,9.372888427734376,-0.205190509557724,0.16138280928134918,-0.038881003856658936
1763692633972865800,9.38286572265625,-0.16897258162498474,0.045272402465343475,0.033554840832948685
1763692633982867700,9.39286767578125,-0.12636326253414154,-0.055924732238054276,0.11344731599092484
1763692633992894200,9.402894287109374,-0.15512455999851227,-0.16138280928134918,0.17629607021808624
1763692634002898700,9.412898681640625,-0.23182134330272675,-0.21997061371803284,0.2444709837436676
1763692634012897000,9.42289697265625,-0.2371474951505661,-0.25938424468040466,0.30518925189971924
1763692634022901000,9.43290087890625,-0.2275604009628296,-0.27003657817840576,0.33381739258766174
1763692634032915700,9.442915771484374,-0.2254299372434616,-0.24021004140377045,0.33168694376945496
1763692634042920700,9.452920654296875,-0.22862564027309418,-0.21038351953029633,0.3199693560600281
1763692634052924200,9.462924072265626,-0.23927797377109528,-0.18481792509555817,0.2998631000518799
1763692634062929200,9.47292919921875,-0.2595174014568329,-0.14433906972408295,0.27216702699661255
1763692634072923600,9.482923583984375,-0.28614822030067444,-0.0740336924791336,0.22955772280693054
1763692634082927600,9.492927734375,-0.31477636098861694,0.029293907806277275,0.1688394397497177
1763692634092934400,9.502934326171875,-0.3414071798324585,0.1390129029750824,0.09214265644550323
1763692634102938400,9.5129384765625,-0.35632044076919556,0.21890538930892944,0.00905448105186224
1763692634112946700,9.52294677734375,-0.35525521636009216,0.2529928386211395,-0.06551183015108109
1763692634122951200,9.532951171875,-0.33501577377319336,0.24660144746303558,-0.12516488134860992
1763692634132968700,9.54296875,-0.3010614812374115,0.21038351953029633,-0.16457849740982056
1763692634142974500,9.552974365234375,-0.2691044807434082,0.16564373672008514,-0.19333979487419128
1763692634152977700,9.562977783203126,-0.2477998286485672,0.13262151181697845,-0.20825305581092834
1763692634162983200,9.572983154296875,-0.23501703143119812,0.11131685227155685,-0.20825305581092834
1763692634172987600,9.582987548828125,-0.22862564027309418,0.10172975063323975,-0.19760072231292725
1763692634182993200,9.5929931640625,-0.22436471283435822,0.08894696086645126,-0.18907886743545532
1763692634192994300,9.602994384765625,-0.21371237933635712,0.0633813664317131,-0.18481792509555817
1763692634202999300,9.612999267578125,-0.18601632118225098,0.033554840832948685,-0.18694838881492615
1763692634213001500,9.62300146484375,-0.14766792953014374,0.00585878174751997,-0.18588316440582275
1763692634223006200,9.633006103515624,-0.10399337112903595,-0.0079892473295331,-0.18907886743545532
1763692634233012200,9.64301220703125,-0.05925358831882477,-0.01438064593821764,-0.1912093311548233
1763692634243017200,9.653017333984375,-0.02303566411137581,-0.025032976642251015,-0.19547025859355927
1763692634253021700,9.663021728515625,0.005725627299398184,-0.047402869910001755,-0.20825305581092834
1763692634263026400,9.6730263671875,0.02916075475513935,-0.0857512578368187,-0.22636201977729797
1763692634273032000,9.683031982421875,0.05153064802289009,-0.1262301206588745,-0.25086238980293274
1763692634283037000,9.693036865234374,0.07922670245170593,-0.18268746137619019,-0.27110180258750916
1763692634293016800,9.703016845703125,0.11331415921449661,-0.22636201977729797,-0.28388461470603943
1763692634303019000,9.71301904296875,0.1452711522579193,-0.2572537660598755,-0.28281936049461365
1763692634313027000,9.723027099609375,0.17190198600292206,-0.27003657817840576,-0.27110180258750916
1763692634323030000,9.733030029296875,0.1878804713487625,-0.26897132396698,-0.2529928386211395
1763692634333041700,9.743041748046876,0.1900109350681305,-0.26897132396698,-0.22849248349666595
1763692634343045400,9.75304541015625,0.18361954391002655,-0.28388461470603943,-0.19866596162319183
1763692634353060900,9.763060791015626,0.1687062829732895,-0.31251272559165955,-0.1720351278781891
1763692634363065900,9.77306591796875,0.1463363915681839,-0.3380783200263977,-0.1486000120639801
1763692634373059600,9.7830595703125,0.11970555782318115,-0.35512205958366394,-0.13049104809761047
1763692634383063600,9.7930634765625,0.09200949966907501,-0.346600204706192,-0.1166430190205574
1763692634393074400,9.803074462890624,0.05898727849125862,-0.3167736828327179,-0.1059906855225563
1763692634403079200,9.8130791015625,0.02489982172846794,-0.26897132396698,-0.09427312016487122
1763692634413076200,9.823076171875,-0.011318100616335869,-0.19866596162319183,-0.09214265644550323
1763692634423080000,9.833079833984375,-0.04966649040579796,-0.1177082508802414,-0.09320788830518723
1763692634433087200,9.843087158203126,-0.08375394344329834,-0.013315413147211075,-0.09214265644550323
1763692634443091500,9.853091552734375,-0.10292813926935196,0.09853405505418777,-0.07616416364908218
1763692634453092900,9.8630927734375,-0.11038476973772049,0.19760072231292725,-0.038881003856658936
1763692634463096800,9.873096923828125,-0.11145000159740448,0.25831902027130127,0.0047935484908521175
1763692634473103000,9.88310302734375,-0.10718907415866852,0.28175413608551025,0.059120431542396545
1763692634483107300,9.893107421875,-0.10399337112903595,0.2679060995578766,0.12090394645929337
1763692634493107200,9.903107177734375,-0.098667211830616,0.23807957768440247,0.18375270068645477
1763692634503111000,9.91311083984375,-0.09227581322193146,0.21038351953029633,0.24660144746303558
1763692634513118000,9.923117919921875,-0.07949301600456238,0.18907886743545532,0.30412402749061584
1763692634523122000,9.933121826171876,-0.06351451575756073,0.17736129462718964,0.35299158096313477
1763692634533128700,9.943128662109375,-0.04220985993742943,0.16670896112918854,0.39879661798477173
1763692634543133200,9.95313330078125,-0.01983996480703354,0.15073047578334808,0.4371449947357178
1763692634553138000,9.963137939453125,0.0025299284607172012,0.1390129029750824,0.4552539587020874
1763692634563142400,9.973142333984375,0.01957365684211254,0.12303441762924194,0.4467321038246155
1763692634573145300,9.983145263671876,0.03555215150117874,0.1070559173822403,0.4115794003009796
1763692634583149600,9.993149658203125,0.05685681104660034,0.09320788830518723,0.36257869005203247
1763692634593152500,10.003152587890625,0.09520520269870758,0.10279498994350433,0.3189041316509247
1763692634603156500,10.013156494140626,0.14207544922828674,0.14327384531497955,0.29134124517440796
1763692634613159400,10.023159423828124,0.18361954391002655,0.19653549790382385,0.2764279842376709
1763692634623163400,10.033163330078125,0.21238084137439728,0.24766667187213898,0.2679060995578766
1763692634633173800,10.043173828125,0.22622886300086975,0.28175413608551025,0.2561885416507721
1763692634643178200,10.05317822265625,0.23475073277950287,0.2849498391151428,0.245536208152771
1763692634653179600,10.0631796875,0.23794642090797424,0.2551233172416687,0.23275341093540192
1763692634663184000,10.073183837890625,0.24433782696723938,0.20612259209156036,0.2146444469690323
1763692634673188000,10.08318798828125,0.2517944574356079,0.15712186694145203,0.18375270068645477
1763692634683192600,10.093192626953124,0.26670771837234497,0.12196917831897736,0.13262151181697845
1763692634693201200,10.103201171875,0.29014283418655396,0.11983871459960938,0.062316130846738815
1763692634703206000,10.113205810546875,0.326227605342865,0.15073047578334808,-0.023967742919921875
1763692634713203000,10.123202880859376,0.3752283453941345,0.2029268890619278,-0.10172975063323975
1763692634723206700,10.13320654296875,0.4199681282043457,0.24660144746303558,-0.16777420043945312
1763692634733211100,10.143211181640625,0.4508598744869232,0.26044946908950806,-0.21677492558956146
1763692634743215000,10.153215087890626,0.475360244512558,0.25086238980293274,-0.24660144746303558
1763692634753223000,10.163222900390625,0.49240395426750183,0.21570968627929688,-0.25086238980293274
1763692634763227100,10.17322705078125,0.5062519907951355,0.16564373672008514,-0.23594911396503448
1763692634773233700,10.183233642578125,0.51796954870224,0.11983871459960938,-0.2029268890619278
1763692634783238100,10.193238037109374,0.5286219120025635,0.07296846061944962,-0.16138280928134918
1763692634793237800,10.20323779296875,0.5371437668800354,0.023967742919921875,-0.1177082508802414
1763692634803241700,10.21324169921875,0.5446003675460815,-0.016511112451553345,-0.07190322875976562
1763692634813250600,10.22325048828125,0.5477960705757141,-0.045272402465343475,-0.038881003856658936
1763692634823255000,10.233255126953125,0.5467308759689331,-0.056989967823028564,-0.028228675946593285
1763692634833261000,10.243260986328124,0.5488613247871399,-0.037815771996974945,-0.045272402465343475
1763692634843265800,10.253265869140625,0.5605788826942444,0.01118494663387537,-0.07722939550876617
1763692634853268700,10.263268798828125,0.5829487442970276,0.09107742458581924,-0.1070559173822403
1763692634863273000,10.27327294921875,0.6117100715637207,0.17842653393745422,-0.11983871459960938
1763692634873277400,10.28327734375,0.6383408904075623,0.23701435327529907,-0.11451254785060883
1763692634883282000,10.293281982421876,0.6585803031921387,0.2231663167476654,-0.09959928691387177
1763692634893284600,10.30328466796875,0.6692326664924622,0.14114338159561157,-0.08042509108781815
1763692634903288800,10.313288818359375,0.6649717092514038,0.022902509197592735,-0.061250898987054825
1763692634913295400,10.32329541015625,0.640471339225769,-0.10492545366287231,-0.045272402465343475
1763692634923299800,10.3332998046875,0.6159709692001343,-0.19440503418445587,-0.029293907806277275
1763692634933305300,10.343305419921874,0.5957315564155579,-0.2348838746547699,-0.01118494663387537
1763692634943309800,10.353309814453125,0.5776225924491882,-0.2348838746547699,0.019706811755895615
1763692634953321000,10.363321044921875,0.5541874766349792,-0.20718781650066376,0.061250898987054825
1763692634963326200,10.373326171875,0.5254262089729309,-0.14646953344345093,0.11983871459960938
1763692634973319700,10.383319580078124,0.49133872985839844,-0.06870753318071365,0.19014409184455872
1763692634983324000,10.393323974609375,0.4519250988960266,0.01438064593821764,0.25831902027130127
1763692634993335600,10.40333544921875,0.410381019115448,0.0846860259771347,0.3242303133010864
1763692635003340500,10.413340576171874,0.3699021637439728,0.13155627250671387,0.37749195098876953
1763692635013344300,10.42334423828125,0.32942330837249756,0.15286093950271606,0.4254274368286133
1763692635023349000,10.433348876953126,0.3038577139377594,0.1688394397497177,0.4669715166091919
1763692635033343000,10.443343017578124,0.29120808839797974,0.19014409184455872,0.4999937415122986
1763692635043346700,10.4533466796875,0.29014283418655396,0.22636201977729797,0.5223636627197266
1763692635053357800,10.46335791015625,0.2933385372161865,0.2551233172416687,0.5266245603561401
1763692635063362000,10.473362060546876,0.29120808839797974,0.26897132396698,0.5085155963897705
1763692635073365800,10.48336572265625,0.2837514579296112,0.264710396528244,0.4669715166091919
1763692635083370000,10.493369873046875,0.2730991244316101,0.26151469349861145,0.4094489514827728
1763692635093372000,10.503371826171875,0.26777294278144836,0.2561885416507721,0.3359478712081909
1763692635103376000,10.5133759765625,0.26990342140197754,0.25831902027130127,0.2551233172416687
1763692635113382700,10.523382568359375,0.29014283418655396,0.25938424468040466,0.16670896112918854
1763692635123387000,10.533386962890624,0.31877097487449646,0.24873191118240356,0.07190322875976562
1763692635133391000,10.54339111328125,0.3571193814277649,0.2231663167476654,-0.020772043615579605
1763692635143395600,10.5533955078125,0.40292438864707947,0.19440503418445587,-0.09001219272613525
1763692635153395200,10.563395263671875,0.45725128054618835,0.16777420043945312,-0.11983871459960938
1763692635163399200,10.573399169921874,0.5094476938247681,0.13155627250671387,-0.11451254785060883
1763692635173407200,10.5834072265625,0.5477960705757141,0.08042509108781815,-0.08362079411745071
1763692635183411500,10.593411376953124,0.5691007375717163,0.026098208501935005,-0.035685304552316666
1763692635193420500,10.603420654296874,0.5691007375717163,-0.020772043615579605,0.021837277337908745
1763692635203425300,10.61342529296875,0.556317925453186,-0.07190322875976562,0.08149032294750214
1763692635213419800,10.623419677734375,0.5360785126686096,-0.11451254785060883,0.14114338159561157
1763692635223423200,10.63342333984375,0.5137086510658264,-0.14220860600471497,0.19547025859355927
1763692635233443000,10.643443115234374,0.49027350544929504,-0.15286093950271606,0.23807957768440247
1763692635243448300,10.6534482421875,0.4647079110145569,-0.1496652364730835,0.26257994771003723
1763692635253452800,10.663452880859374,0.43594661355018616,-0.1294258087873459,0.27216702699661255
1763692635263457800,10.673457763671875,0.4082505702972412,-0.09853405505418777,0.2636451721191406
1763692635273465000,10.683465087890625,0.3752283453941345,-0.06764229387044907,0.23914481699466705
1763692635283470300,10.69347021484375,0.3326190114021301,-0.032489608973264694,0.20079642534255981
1763692635293444000,10.703444091796875,0.2869471311569214,0.0005326165119186044,0.15712186694145203
1763692635303446300,10.7134462890625,0.24753352999687195,0.020772043615579605,0.11238208413124084
1763692635313453800,10.723453857421875,0.21557652950286865,0.027163442224264145,0.07296846061944962
1763692635323456300,10.733456298828125,0.19214141368865967,0.038881003856658936,0.047402869910001755
1763692635333496300,10.743496337890624,0.1676410436630249,0.061250898987054825,0.042076703161001205
1763692635343502600,10.753502685546875,0.14101022481918335,0.08255556225776672,0.053794268518686295
1763692635353468200,10.76346826171875,0.10479229688644409,0.08681648969650269,0.06764229387044907
1763692635363470600,10.773470703125,0.05259587988257408,0.06870753318071365,0.06870753318071365
1763692635373512000,10.783511962890625,-0.005991935729980469,0.032489608973264694,0.052729032933712006
1763692635383518200,10.793518310546874,-0.0560578890144825,-0.010119713842868805,0.022902509197592735
1763692635393517000,10.80351708984375,-0.09973244369029999,-0.046337638050317764,-0.017576344311237335
1763692635403522600,10.8135224609375,-0.13488513231277466,-0.07190322875976562,-0.07190322875976562
1763692635413514800,10.8235146484375,-0.15832026302814484,-0.06870753318071365,-0.13155627250671387
1763692635423519000,10.83351904296875,-0.16897258162498474,-0.034620072692632675,-0.17629607021808624
1763692635433517600,10.843517578125,-0.16471165418624878,0.028228675946593285,-0.18694838881492615
1763692635443521000,10.85352099609375,-0.14979839324951172,0.10066451877355576,-0.16244803369045258
1763692635453528800,10.86352880859375,-0.13701559603214264,0.16457849740982056,-0.11238208413124084
1763692635463532800,10.87353271484375,-0.13808083534240723,0.19547025859355927,-0.053794268518686295
1763692635473537800,10.883537841796874,-0.15618979930877686,0.1805569976568222,0.0015978495357558131
1763692635483542000,10.8935419921875,-0.18175537884235382,0.14007814228534698,0.047402869910001755
1763692635493548300,10.90354833984375,-0.20199480652809143,0.10172975063323975,0.07616416364908218
1763692635503552500,10.913552490234375,-0.2041252851486206,0.08255556225776672,0.08681648969650269
1763692635513559600,10.9235595703125,-0.1945381760597229,0.06764229387044907,0.06551183015108109
1763692635523564000,10.93356396484375,-0.1945381760597229,0.060185667127370834,0.006924014538526535
1763692635533566500,10.94356640625,-0.18069015443325043,0.062316130846738815,-0.050598569214344025
1763692635543570700,10.95357080078125,-0.15618979930877686,0.07616416364908218,-0.10492545366287231
1763692635553581300,10.963581298828124,-0.12103710323572159,0.0846860259771347,-0.14646953344345093
1763692635563586300,10.97358642578125,-0.09440627694129944,0.06764229387044907,-0.17949175834655762
1763692635573582600,10.98358251953125,-0.0880148783326149,0.019706811755895615,-0.21890538930892944
1763692635583586600,10.993586669921875,-0.09653674066066742,-0.043141938745975494,-0.27323228120803833
1763692635593590300,11.00359033203125,-0.11890663951635361,-0.1166430190205574,-0.3370130956172943
1763692635603594200,11.01359423828125,-0.13701559603214264,-0.18907886743545532,-0.3806876540184021
1763692635613601300,11.023601318359376,-0.1316894292831421,-0.245536208152771,-0.3806876540184021
1763692635623605500,11.03360546875,-0.1093195378780365,-0.2892107665538788,-0.3370130956172943
1763692635633609500,11.043609375,-0.08908011019229889,-0.3167736828327179,-0.27323228120803833
1763692635643613700,11.05361376953125,-0.08375394344329834,-0.3295564651489258,-0.2018616646528244
1763692635653629200,11.063629150390625,-0.098667211830616,-0.3167736828327179,-0.14007814228534698
1763692635663634700,11.073634765625,-0.12742850184440613,-0.29347169399261475,-0.08255556225776672
1763692635673623600,11.08362353515625,-0.16045072674751282,-0.2679060995578766,-0.030359141528606415
1763692635683627300,11.093627197265626,-0.19134248793125153,-0.23914481699466705,0.006924014538526535
1763692635693630500,11.10363037109375,-0.21158191561698914,-0.22423155605793,0.027163442224264145
1763692635703634200,11.11363427734375,-0.2264951765537262,-0.2231663167476654,0.033554840832948685
1763692635713645300,11.123645263671875,-0.23927797377109528,-0.2231663167476654,0.032489608973264694
1763692635723649500,11.1336494140625,-0.25419121980667114,-0.23275341093540192,0.033554840832948685
1763692635733656800,11.14365673828125,-0.27443066239356995,-0.2668408751487732,0.032489608973264694
1763692635743661600,11.15366162109375,-0.29573532938957214,-0.3146432042121887,0.029293907806277275
1763692635753675500,11.163675537109375,-0.32436347007751465,-0.3497959077358246,0.026098208501935005
1763692635763681300,11.173681396484374,-0.3509942889213562,-0.36577439308166504,0.023967742919921875
1763692635773671400,11.18367138671875,-0.36697277426719666,-0.3391435742378235,0.045272402465343475
1763692635783675400,11.19367529296875,-0.3754946291446686,-0.2796236574649811,0.09214265644550323
1763692635793676500,11.203676513671875,-0.3818860352039337,-0.20505735278129578,0.15605664253234863
1763692635803680000,11.213679931640625,-0.3957340717315674,-0.13368675112724304,0.23807957768440247
1763692635813685500,11.223685546875,-0.4266258180141449,-0.09214265644550323,0.3167736828327179
1763692635823689200,11.233689208984375,-0.48308318853378296,-0.09320788830518723,0.35405683517456055
1763692635833707500,11.24370751953125,-0.558714747428894,-0.13475197553634644,0.33168694376945496
1763692635843713000,11.253713134765626,-0.6354115009307861,-0.17736129462718964,0.25938424468040466
1763692635853722600,11.26372265625,-0.6844122409820557,-0.18801362812519073,0.16564373672008514
1763692635863728400,11.273728271484375,-0.6854774355888367,-0.15073047578334808,0.07616416364908218
1763692635873715700,11.2837158203125,-0.6577813625335693,-0.06977276504039764,0.00585878174751997
1763692635883719700,11.2937197265625,-0.6300853490829468,0.017576344311237335,-0.056989967823028564
1763692635893720800,11.303720947265624,-0.6204982399940491,0.08788172155618668,-0.1166430190205574
1763692635903724300,11.313724365234375,-0.6279548406600952,0.12196917831897736,-0.1720351278781891
1763692635913730300,11.323730224609376,-0.6449986100196838,0.11344731599092484,-0.22849248349666595
1763692635923734000,11.333734130859375,-0.6535204648971558,0.07296846061944962,-0.2849498391151428
1763692635933739000,11.343739013671875,-0.6599118709564209,0.016511112451553345,-0.35512205958366394
1763692635943742700,11.35374267578125,-0.6599118709564209,-0.044207170605659485,-0.44140592217445374
1763692635953768700,11.363768798828126,-0.6343462467193604,-0.061250898987054825,-0.5085155963897705
1763692635963774700,11.373774658203125,-0.5864107608795166,-0.033554840832948685,-0.5383421182632446
1763692635973758700,11.3837587890625,-0.5320838689804077,0.016511112451553345,-0.5362116694450378
1763692635983762400,11.393762451171876,-0.4798874855041504,0.06870753318071365,-0.5010589957237244
1763692635993764400,11.403764404296876,-0.4362129271030426,0.10172975063323975,-0.43927547335624695
1763692636003768000,11.41376806640625,-0.4021254777908325,0.10172975063323975,-0.3604482114315033
1763692636013775400,11.423775390625,-0.3850817382335663,0.0750989317893982,-0.2572537660598755
1763692636023779300,11.433779296875,-0.3861469626426697,0.037815771996974945,-0.14433906972408295
1763692636033791700,11.443791748046875,-0.4053211510181427,-0.01438064593821764,-0.026098208501935005
1763692636043796500,11.45379638671875,-0.43940863013267517,-0.055924732238054276,0.0964035913348198
1763692636053812200,11.463812255859375,-0.4788222312927246,-0.07190322875976562,0.21997061371803284
1763692636063818000,11.47381787109375,-0.5129097104072571,-0.0633813664317131,0.31251272559165955
1763692636073804800,11.4838046875,-0.5352795720100403,-0.044207170605659485,0.35405683517456055
1763692636083808800,11.493808837890626,-0.5491276383399963,-0.025032976642251015,0.3284912407398224
1763692636093809200,11.50380908203125,-0.5512580871582031,-0.00905448105186224,0.25192761421203613
1763692636103812600,11.5138125,-0.5406057834625244,0.0026630824431777,0.1496652364730835
1763692636113815300,11.523815185546875,-0.5107792615890503,0.043141938745975494,0.049533337354660034
1763692636123818800,11.53381884765625,-0.4703003764152527,0.11025162041187286,-0.036750540137290955
1763692636133828600,11.54382861328125,-0.44047385454177856,0.18588316440582275,-0.10812114924192429
1763692636143832600,11.55383251953125,-0.42236489057540894,0.2551233172416687,-0.1720351278781891
1763692636153819600,11.563819580078125,-0.41916918754577637,0.2796236574649811,-0.2348838746547699
1763692636163822000,11.573822021484375,-0.42343011498451233,0.2551233172416687,-0.2966673970222473
1763692636173848600,11.5838486328125,-0.4255605936050415,0.20079642534255981,-0.3487306535243988
1763692636183853300,11.593853271484376,-0.4159734845161438,0.14114338159561157,-0.38814428448677063
1763692636193852400,11.603852294921875,-0.3914731442928314,0.09107742458581924,-0.41797080636024475
1763692636203856600,11.613856689453126,-0.3520595133304596,0.062316130846738815,-0.4360797703266144
1763692636213865700,11.62386572265625,-0.28508299589157104,0.06764229387044907,-0.4254274368286133
1763692636223870500,11.633870361328125,-0.1934729516506195,0.0953383520245552,-0.37642672657966614
1763692636233875700,11.643875732421876,-0.0880148783326149,0.12196917831897736,-0.2881455421447754
1763692636243880400,11.65388037109375,0.013182258233428001,0.13049104809761047,-0.1720351278781891
1763692636253886000,11.663885986328125,0.0824224054813385,0.10492545366287231,-0.037815771996974945
1763692636263890700,11.673890625,0.10479229688644409,0.047402869910001755,0.09427312016487122
1763692636273894100,11.68389404296875,0.09094426780939102,-0.037815771996974945,0.2231663167476654
1763692636283899000,11.69389892578125,0.05792204663157463,-0.13155627250671387,0.34553495049476624
1763692636293896000,11.70389599609375,0.014247491955757141,-0.2231663167476654,0.435014545917511
1763692636303900000,11.71389990234375,-0.02942706272006035,-0.29134124517440796,0.47336292266845703
1763692636313905000,11.72390478515625,-0.06138405203819275,-0.3284912407398224,0.4563191831111908
1763692636323908900,11.733908935546875,-0.07310161739587784,-0.33168694376945496,0.3998618423938751
1763692636333934800,11.743934814453125,-0.0667102187871933,-0.3009283244609833,0.3157084286212921
1763692636343941000,11.753941162109374,-0.05712312087416649,-0.24127528071403503,0.20825305581092834
1763692636353926400,11.763926513671874,-0.06244928762316704,-0.17416560649871826,0.0964035913348198
1763692636363930400,11.773930419921875,-0.07629731297492981,-0.1059906855225563,-0.025032976642251015
1763692636373940500,11.7839404296875,-0.09440627694129944,-0.054859500378370285,-0.14753477275371552
1763692636383945200,11.7939453125,-0.10399337112903595,-0.033554840832948685,-0.25831902027130127
1763692636393942500,11.803942626953125,-0.08694964647293091,-0.030359141528606415,-0.34233927726745605
1763692636403946500,11.813946533203126,-0.0454055592417717,-0.035685304552316666,-0.39453569054603577
1763692636413962500,11.82396240234375,0.011051792651414871,-0.042076703161001205,-0.4126446545124054
1763692636423967700,11.8339677734375,0.06857437640428543,-0.038881003856658936,-0.3924052119255066
1763692636433976600,11.8439765625,0.11118369549512863,-0.023967742919921875,-0.33488261699676514
1763692636443981800,11.85398193359375,0.13887976109981537,-0.0037283156998455524,-0.25086238980293274
1763692636453949400,11.863949462890625,0.16551057994365692,0.0005326165119186044,-0.15073047578334808
1763692636463951000,11.873951171875,0.1878804713487625,-0.01118494663387537,-0.051663801074028015
1763692636473992700,11.88399267578125,0.20492419600486755,-0.032489608973264694,0.027163442224264145
1763692636483998500,11.89399853515625,0.21877223253250122,-0.055924732238054276,0.07722939550876617
1763692636494003000,11.9040029296875,0.2315550297498703,-0.0857512578368187,0.10172975063323975
1763692636504008400,11.914008544921876,0.24646829068660736,-0.11557777971029282,0.1070559173822403
1763692636513977600,11.9239775390625,0.2635120153427124,-0.13155627250671387,0.11344731599092484
1763692636523979500,11.9339794921875,0.2869471311569214,-0.1177082508802414,0.1272953450679779
1763692636534017300,11.944017333984375,0.32729285955429077,-0.08681648969650269,0.1603175699710846
1763692636544022800,11.954022705078126,0.3773587942123413,-0.045272402465343475,0.2114487588405609
1763692636554026800,11.96402685546875,0.42635950446128845,-0.00585878174751997,0.27323228120803833
1763692636564032000,11.974031982421875,0.4434032440185547,-0.0026630824431777,0.33275216817855835
1763692636574024200,11.984024169921875,0.42635950446128845,-0.020772043615579605,0.3785571753978729
1763692636584028200,11.994028076171874,0.3975982367992401,-0.09001219272613525,0.41903603076934814
1763692636594030300,12.0040302734375,0.38161972165107727,-0.17629607021808624,0.4552539587020874
1763692636604034000,12.014033935546875,0.4018591642379761,-0.22103585302829742,0.4850804805755615
1763692636614042600,12.024042724609375,0.44872942566871643,-0.20079642534255981,0.5063851475715637
1763692636624047000,12.034047119140626,0.5062519907951355,-0.15712186694145203,0.5266245603561401
1763692636634047500,12.044047607421875,0.556317925453186,-0.10066451877355576,0.5383421182632446
1763692636644051500,12.054051513671874,0.5893401503562927,-0.039946239441633224,0.5351464152336121
1763692636654057200,12.06405712890625,0.6117100715637207,0.012250179424881935,0.520233154296875
1763692636664061400,12.0740615234375,0.6426018476486206,0.006924014538526535,0.4754934012889862
1763692636674071300,12.0840712890625,0.6798849701881409,-0.035685304552316666,0.39453569054603577
1763692636684076000,12.094075927734375,0.7192986011505127,-0.052729032933712006,0.2998631000518799
1763692636694081800,12.104081787109376,0.7491251230239868,-0.029293907806277275,0.2029268890619278
1763692636704086500,12.11408642578125,0.7896040081977844,-0.013315413147211075,0.11877348273992538
1763692636714088700,12.124088623046875,0.8236914277076721,0.01438064593821764,0.035685304552316666
1763692636724093200,12.13409326171875,0.8130391240119934,0.00585878174751997,-0.0633813664317131
1763692636734097000,12.144096923828124,0.7981258630752563,-0.07722939550876617,-0.1816222369670868
1763692636744101400,12.154101318359375,0.8002563118934631,-0.17310036718845367,-0.3189041316509247
1763692636754106600,12.164106689453124,0.8215609788894653,-0.24873191118240356,-0.430753618478775
1763692636764111000,12.174111083984375,0.8428656458854675,-0.3402087986469269,-0.46058014035224915
1763692636774115000,12.184114990234375,0.8332785367965698,-0.43821024894714355,-0.40625324845314026
1763692636784119300,12.194119384765624,0.7864083051681519,-0.4978632926940918,-0.29134124517440796
1763692636794128400,12.20412841796875,0.7427337169647217,-0.519167959690094,-0.12409964948892593
1763692636804133400,12.21413330078125,0.7267552018165588,-0.477623850107193,0.0846860259771347
1763692636814134000,12.224134033203125,0.74699467420578,-0.477623850107193,0.33168694376945496
1763692636824138500,12.234138427734376,0.8599093556404114,-0.7183665037155151,0.7279536128044128
1763692636834136800,12.24413671875,0.8737573623657227,-0.4009270668029785,0.9706935882568359
1763692636844140500,12.254140625,0.7523208260536194,-0.3572525382041931,1.0282161235809326
1763692636854148900,12.26414892578125,0.5978620052337646,-0.5255593657493591,1.0207595825195312
1763692636864153000,12.274153076171874,0.48175162076950073,-0.5724295973777771,0.9898678064346313
1763692636874156800,12.28415673828125,0.4434032440185547,-0.5756253004074097,0.9334104657173157
1763692636884161000,12.2941611328125,0.46896883845329285,-0.4882761836051941,0.8440639972686768
1763692636894165800,12.304165771484374,0.5158390998840332,-0.245536208152771,0.7141056060791016
1763692636904170000,12.314169921875,0.5531222224235535,0.021837277337908745,0.5511249303817749
1763692636914170600,12.324170654296875,0.5659050345420837,0.26044946908950806,0.36257869005203247
1763692636924174600,12.334174560546876,0.5488613247871399,0.42755791544914246,0.17736129462718964
1763692636934178600,12.344178466796874,0.5105129480361938,0.5127765536308289,0.035685304552316666
1763692636944182500,12.3541826171875,0.47855594754219055,0.5692338943481445,-0.046337638050317764
1763692636954197200,12.364197265625,0.4540555775165558,0.5745600461959839,-0.06977276504039764
1763692636964202200,12.3742021484375,0.4189028739929199,0.3998618423938751,-0.051663801074028015
1763692636974197500,12.384197509765626,0.37203264236450195,0.11983871459960938,-0.0079892473295331
1763692636984201500,12.394201416015624,0.32196667790412903,-0.11451254785060883,0.056989967823028564
1763692636994203600,12.40420361328125,0.2837514579296112,-0.18481792509555817,0.12090394645929337
1763692637004207400,12.414207275390625,0.21344606578350067,-0.1390129029750824,0.16777420043945312
1763692637014213000,12.424213134765624,0.11118369549512863,-0.00905448105186224,0.1699046641588211
1763692637024217000,12.434217041015625,0.01744319126009941,0.11451254785060883,0.13475197553634644
1763692637034226200,12.44422607421875,-0.03049229457974434,0.13581721484661102,0.09427312016487122
1763692637044230700,12.454230712890626,-0.005991935729980469,0.1262301206588745,0.054859500378370285
1763692637054230800,12.464230712890625,0.06431344151496887,0.137947678565979,0.010119713842868805
1763692637064234800,12.47423486328125,0.1367492824792862,0.17842653393745422,-0.043141938745975494
1763692637074245400,12.484245361328124,0.17190198600292206,0.222101092338562,-0.10279498994350433
1763692637084250000,12.49425,0.1474016159772873,0.20718781650066376,-0.15712186694145203
1763692637094248000,12.504248046875,0.11011846363544464,0.15499140322208405,-0.20079642534255981
1763692637104252000,12.514251953125,0.11544463038444519,0.1805569976568222,-0.24127528071403503
1763692637114261500,12.524261474609375,0.14846685528755188,0.24660144746303558,-0.2966673970222473
1763692637124266000,12.534265869140626,0.20811989903450012,0.2998631000518799,-0.3615134656429291
1763692637134264300,12.544264404296875,0.2507292330265045,0.2764279842376709,-0.4211665093898773
1763692637144268000,12.55426806640625,0.26031631231307983,0.1922745555639267,-0.4680367708206177
1763692637154275800,12.56427587890625,0.26777294278144836,0.11131685227155685,-0.477623850107193
1763692637164280000,12.574280029296874,0.2730991244316101,0.031424373388290405,-0.4371449947357178
1763692637174283000,12.584282958984375,0.2837514579296112,-0.08149032294750214,-0.36577439308166504
1763692637184287200,12.594287353515625,0.3059881925582886,-0.19866596162319183,-0.28068891167640686
1763692637194293500,12.60429345703125,0.3230319023132324,-0.30199354887008667,-0.19973118603229523
1763692637204298000,12.614298095703125,0.3326190114021301,-0.36683961749076843,-0.1262301206588745
1763692637214305000,12.624304931640625,0.33901041746139526,-0.4371449947357178,-0.052729032933712006
1763692637224309500,12.6343095703125,0.34114086627960205,-0.5681686401367188,0.022902509197592735
1763692637234313500,12.6443134765625,0.3251623809337616,-0.7375407218933105,0.09959928691387177
1763692637244318200,12.654318115234375,0.2933385372161865,-0.9111737012863159,0.17949175834655762
1763692637254315800,12.664315673828124,0.2539249360561371,-1.0654993057250977,0.2668408751487732
1763692637264319700,12.67431982421875,0.20385897159576416,-1.1890664100646973,0.3497959077358246
1763692637274336800,12.684336669921874,0.1580539494752884,-1.1794792413711548,0.41903603076934814
1763692637284341800,12.694341796875,0.10159660130739212,-1.0910649299621582,0.46058014035224915
