time,seconds_elapsed,z,y,x
1763693802017401000,0.051401123046875,9.570620060944556,2.0019066620253025,0.7523167891666293
1763693802027361000,0.061361083984375,9.56522258581519,2.059558202135563,0.6596403321001678
1763693802037321700,0.07132177734375,9.56125134409666,2.1043594668924808,0.5696706132417544
1763693802047282000,0.081281982421875,9.558783492678403,2.1353806281000374,0.49009321865793315
1763693802057241900,0.091241943359375,9.557978606036304,2.1524032207019625,0.42730292741972953
1763693802067201800,0.101201904296875,9.558942482632398,2.156296721009165,0.3839116025259718
1763693802077163000,0.1111630859375,9.561654664200544,2.148675286220014,0.3582448444910347
1763693802087123000,0.121123046875,9.565926350170374,2.1314310136914254,0.347036491125822
1763693802097083000,0.131082763671875,9.57119055430889,2.107862652707845,0.3458420206442475
1763693802107042800,0.141042724609375,9.576852233332396,2.0811948644042015,0.350592978031002
1763693802117003000,0.1510029296875,9.582285948818921,2.0547743288598954,0.3578923777915537
1763693802126964000,0.1609638671875,9.586628946459292,2.0328236322060227,0.3668182827753946
1763693802136924000,0.170923828125,9.589127193015813,2.01877610989213,0.37889808521289375
1763693802146883800,0.1808837890625,9.589386720734835,2.0143305286601185,0.395622644716315
1763693802156843800,0.19084375,9.587578210008143,2.018888191964477,0.41570992211848495
1763693802166803700,0.2008037109375,9.584123101118207,2.030808492991328,0.43678628362324085
1763693802176765000,0.210764892578125,9.579597148126362,2.0479666946716604,0.45555962888263163
1763693802186724900,0.220724853515625,9.574633972761035,2.06812860821262,0.46863008632529524
1763693802196684800,0.230684814453125,9.569896422845124,2.088714007862657,0.4740628154311329
1763693802206644700,0.240644775390625,9.565977203574777,2.1070848002031446,0.47186183478813615
1763693802216605000,0.25060498046875,9.56328548027277,2.120964564734697,0.4641781484177336
1763693802226566000,0.26056591796875,9.562021743947266,2.1283144891060886,0.4565098422795534
1763693802236525800,0.27052587890625,9.562107668665051,2.1282614437446,0.45495011868216095
1763693802246486000,0.280486083984375,9.56324748634994,2.1216360342554745,0.46189453099258243
1763693802256446000,0.290446044921875,9.564770165872574,2.1111907742172478,0.4779478767035529
1763693802266407000,0.300406982421875,9.566059036639333,2.099991042549908,0.5009403009627014
1763693802276366800,0.310366943359375,9.56673474394381,2.091396817205846,0.5234781133221462
1763693802286326800,0.320326904296875,9.566631868091225,2.088100259878486,0.5383098082836717
1763693802296287000,0.330286865234375,9.565555763292313,2.092265270603448,0.5412532413244248
1763693802306247000,0.340246826171875,9.563586509045958,2.1042503074295817,0.5294615716459229
1763693802316207900,0.350207763671875,9.561057282829283,2.1220865545019505,0.5033057149197906
1763693802326168000,0.36016796875,9.558256838455796,2.1430035241939125,0.466529789577797
1763693802336128000,0.3701279296875,9.555323123091458,2.1645529465705153,0.4253133610377088
1763693802346088000,0.380087890625,9.552309328228235,2.184794355088472,0.38786899838224054
1763693802356048100,0.390048095703125,9.549006779551506,2.2039077824898063,0.3600579583276063
1763693802366009000,0.400009033203125,9.544992283213139,2.2235987175181506,0.3451317534830421
1763693802375969000,0.409968994140625,9.5394685513556,2.247282083183527,0.34444746101330964
1763693802385929200,0.41992919921875,9.53137292318344,2.2793089143022893,0.35786614737175404
1763693802395889200,0.42988916015625,9.51975379706025,2.32337353534773,0.3829008545808494
1763693802405849900,0.439849853515625,9.504694759616255,2.379025426073372,0.4140089268868789
1763693802415810000,0.44981005859375,9.487576451554894,2.4415806664466855,0.4415431958267465
1763693802425770000,0.45977001953125,9.470254729875922,2.504777711854875,0.4590761491036042
1763693802435730000,0.46972998046875,9.454212526613473,2.5630381776437163,0.4680654747124761
1763693802445689900,0.47968994140625,9.440805932551623,2.6110893841072915,0.47305466130189594
1763693802455651000,0.489651123046875,9.43178091457486,2.6430536713838575,0.4755636849807575
1763693802465611000,0.499611083984375,9.428693469953537,2.6540222246438265,0.4756980154175311
1763693802475571000,0.509571044921875,9.43178149909675,2.643052210079133,0.47556280819792296
1763693802485531100,0.51953125,9.439571422320604,2.6143442942500115,0.4796707915060222
1763693802495491000,0.529490966796875,9.449886480107903,2.5742329408749938,0.49330750452931965
1763693802505452000,0.5394521484375,9.460511334496736,2.529686819922924,0.5194198509072885
1763693802515412000,0.549411865234375,9.469638059282302,2.487432609300315,0.5558975239550694
1763693802525372000,0.559371826171875,9.475829899659752,2.4536922522619364,0.5986904080316424
1763693802535331800,0.569331787109375,9.478121225467323,2.433382746943831,0.6436196830824017
1763693802545291800,0.579291748046875,9.476286995777487,2.4288790057837963,0.6862322056233883
1763693802555253000,0.5892529296875,9.471074814087151,2.4386772000901398,0.7224801615685225
1763693802565213000,0.599212890625,9.463892209106683,2.4587422291278838,0.748144691113755
1763693802575172900,0.6091728515625,9.456284072190522,2.4835776874378324,0.762179427011311
1763693802585133000,0.619133056640625,9.449576683506368,2.5077359771385788,0.7662509142339229
1763693802595093000,0.629093017578125,9.44442821470201,2.527894091287255,0.7634833492167293
1763693802605054000,0.639053955078125,9.440498474037646,2.5440739494547246,0.7583305695634335
1763693802615014100,0.64901416015625,9.43717371352911,2.5581904453516007,0.7521995194625108
1763693802624974000,0.65897412109375,9.43377881039381,2.5727602379739283,0.7450530087087303
1763693802634934000,0.66893408203125,9.430094568923115,2.5885782770916816,0.7368575003586709
1763693802644894000,0.67889404296875,9.426199315050244,2.6054732977911828,0.7270874361682683
1763693802654855000,0.68885498046875,9.422257883948086,2.6222028987959027,0.7179753244299442
1763693802664814800,0.69881494140625,9.418982807800173,2.635109142120182,0.7136856644120066
1763693802674774800,0.70877490234375,9.417284187188743,2.640392635481059,0.7165703530028462
1763693802684735000,0.71873486328125,9.41747707941234,2.6366525721698997,0.7277153588082641
1763693802694695000,0.72869482421875,9.4194913418442,2.623703074225783,0.7481651493798941
1763693802704656000,0.73865576171875,9.423201302278041,2.6017434636130927,0.7775569558199494
1763693802714616000,0.748615966796875,9.428547924003004,2.5709716009914874,0.8142327087230979
1763693802724576000,0.758575927734375,9.435614793649314,2.5326246269404886,0.8516862410657108
1763693802734536000,0.768535888671875,9.444919213089346,2.487874800109863,0.8799768813308327
1763693802744496000,0.77849609375,9.455495552161336,2.4389529482915995,0.9030497869476676
1763693802754457000,0.78845703125,9.465543483445048,2.3879618889838454,0.9335478741291909
1763693802764417000,0.7984169921875,9.475228426635265,2.336178364124149,0.9657650401882827
1763693802774377200,0.808377197265625,9.483870582774282,2.2853448334656656,1.001891342515126
1763693802784337200,0.818337158203125,9.490053655323386,2.237097081516683,1.051032097781077
1763693802794297000,0.828297119140625,9.492696278786658,2.194236283303052,1.1155408103097229
1763693802804258000,0.838258056640625,9.491447155508398,2.1624146193675697,1.1860749206077308
1763693802814218000,0.848218017578125,9.486490994405745,2.1466182075597344,1.252560266971588
1763693802824178000,0.858177978515625,9.477099481204151,2.151367155652493,1.3139957095347343
1763693802834137900,0.868137939453125,9.463118302124737,2.1796216286256906,1.3671234886102377
1763693802844098000,0.87809814453125,9.447734270510077,2.2274119921959934,1.39618562470451
1763693802854059000,0.88805908203125,9.434946685129404,2.2851538409382104,1.3893318132869898
1763693802864019000,0.89801904296875,9.424447502946853,2.3461185972496867,1.3586376920767127
1763693802873979100,0.907979248046875,9.414280329197645,2.4082141111567616,1.3199306525416672
1763693802883939000,0.91793896484375,9.40319311799407,2.4714748694509265,1.2814645821556447
1763693802893899000,0.92789892578125,9.390914066657423,2.5336355575487017,1.249722851588577
1763693802903860000,0.93785986328125,9.378913832262159,2.5900854667842386,1.2238515474248677
1763693802913820000,0.94781982421875,9.369091526427864,2.636236392584443,1.200318111624196
1763693802923779800,0.95777978515625,9.36234906643033,2.669813960276544,1.178514276095107
1763693802933739800,0.96773974609375,9.357299966347217,2.6889807253003117,1.1750341788943857
1763693802943700000,0.977699951171875,9.352106489357352,2.6932953736290335,1.206087488805875
1763693802953661000,0.987660888671875,9.34890330940187,2.6795146855577823,1.2603953445114195
1763693802963620900,0.997620849609375,9.350660382202268,2.6438462830662726,1.3212155777856707
1763693802973581000,1.0075810546875,9.355528280499577,2.5888015644535423,1.3937633659936486
1763693802983541000,1.017541015625,9.356405063334106,2.523667998024821,1.5030543463177979
1763693802993501000,1.0275009765625,9.348000223082304,2.4550892595782874,1.660668189653754
1763693803003462100,1.037462158203125,9.33153716405928,2.384677168224752,1.8455647383213043
1763693803013422000,1.047422119140625,9.312522082465886,2.3126525271080434,2.024586549736559
1763693803023382000,1.057382080078125,9.296173005211353,2.241992744603753,2.1737118200600145
1763693803033342000,1.067342041015625,9.284097367492318,2.179759575791657,2.2857306179128587
1763693803043302100,1.07730224609375,9.274701178115606,2.1337496658973394,2.3658852278627456
1763693803053262000,1.087261962890625,9.26624373089373,2.107593041986227,2.421809944180399
1763693803063222800,1.097222900390625,9.261066620516777,2.0979536915034056,2.4498202331341803
1763693803073183000,1.107182861328125,9.265268163859844,2.096033537095785,2.435535833324492
1763693803083143000,1.117142822265625,9.28122093527317,2.095600260245055,2.3744005427516996
1763693803093102800,1.127102783203125,9.30680721195042,2.0956799013525247,2.271971264890581
1763693803103063000,1.13706298828125,9.336640624678134,2.0966718349993227,2.1451098488233984
1763693803113024000,1.14702392578125,9.359366251227259,2.0899160771287977,2.050585791128874
1763693803122984000,1.15698388671875,9.362527345606685,2.078073079121858,2.048188228467852
1763693803132944100,1.166944091796875,9.34975846492648,2.0729357162334026,2.1107678726300594
1763693803142904000,1.176904052734375,9.332327437654136,2.0642894684411583,2.194710330555588
1763693803152864000,1.186864013671875,9.320752150672673,2.043348387221247,2.26245261817798
1763693803162825200,1.1968251953125,9.317239174115658,2.0084481926232574,2.30772106205523
1763693803172785200,1.20678515625,9.317333866661787,1.9656525686003266,2.343904574462026
1763693803182745000,1.2167451171875,9.317872795844078,1.9197979953981934,2.379497135238349
1763693803192705000,1.226705078125,9.320246539238095,1.8694836663082242,2.4100668994165955
1763693803202665200,1.236665283203125,9.32736075515747,1.8118183899335563,2.4265293739177287
1763693803212626000,1.2466259765625,9.33857071595788,1.7473831810325382,2.4306647201567886
1763693803222585900,1.2565859375,9.351101111707091,1.682758294778317,2.4280891705803573
1763693803232546000,1.266546142578125,9.363750165399908,1.6279302876561879,2.4166930395580826
1763693803242506000,1.276506103515625,9.375738124835491,1.5897092780724167,2.3955662265077233
1763693803252466200,1.286466064453125,9.385537634316087,1.5708505560845136,2.3694917279221115
1763693803262427400,1.296427490234375,9.390995899721979,1.5689986446075141,2.349005258601904
1763693803272387300,1.30638720703125,9.391768053138255,1.5758631235495209,2.3413103201851246
1763693803282347300,1.31634716796875,9.38993206988275,1.5802382698938249,2.3457217068865894
1763693803292307200,1.32630712890625,9.3878774754405,1.5723988084398208,2.3591733091339466
1763693803302267400,1.336267333984375,9.385453463163971,1.5489550967492163,2.3841949376657605
1763693803312227300,1.346227294921875,9.381329076710342,1.511327376883477,2.4242387787625193
1763693803322188000,1.35618798828125,9.375629403764009,1.4608720318876205,2.4766528566107153
1763693803332148200,1.366148193359375,9.367584628996253,1.4001179957173764,2.541341601881385
1763693803342108200,1.376108154296875,9.352945862790941,1.3366523625008762,2.6279543019294738
1763693803352068000,1.386068115234375,9.329234732335806,1.278219755015522,2.7389620230436322
1763693803362028000,1.396028076171875,9.29992563574314,1.229703853649646,2.8582509580299256
1763693803371989200,1.4059892578125,9.26900325873494,1.194622895657271,2.9713363622009754
1763693803381949200,1.41594921875,9.237043939894438,1.1786208782747387,3.075427728055417
1763693803391909000,1.4259091796875,9.203537391611933,1.1873251398645341,3.171047618162632
1763693803401869300,1.435869384765625,9.17221169449985,1.2215364023502915,3.247887112215161
1763693803411829200,1.445829345703125,9.149952516418695,1.2751844789728521,3.2897815496146676
1763693803421790200,1.455790283203125,9.138264416712522,1.3390486099876462,3.2968864131838083
1763693803431750400,1.46575048828125,9.132128105914592,1.403045719732344,3.2872605067044494
1763693803441710300,1.47571044921875,9.12706147017479,1.4591370247885584,3.2768963490784166
1763693803451670300,1.485670166015625,9.12338658105433,1.5003579468406736,3.268504952830076
1763693803461630500,1.49563037109375,9.122371266531944,1.5220767344348132,3.2612899068847296
1763693803471590400,1.50559033203125,9.124645056682825,1.523575886951387,3.2542209914118048
1763693803481551000,1.515551025390625,9.129691234156489,1.5079225368760525,3.2473513979032633
1763693803491511300,1.52551123046875,9.137196495220065,1.4802154686525464,3.2389798753991723
1763693803501471200,1.53547119140625,9.143886348247527,1.4454882925339043,3.2357828329235314
1763693803511431200,1.54543115234375,9.143050481945275,1.4104948666945099,3.253538854366541
1763693803521391000,1.55539111328125,9.133429251641035,1.380585466121137,3.293149272482097
1763693803531351300,1.565351318359375,9.118832571011781,1.3577787371598182,3.3427108835086226
1763693803541312300,1.575312255859375,9.103152186799049,1.3473216405533253,3.389355438044667
1763693803551272200,1.585272216796875,9.090571522167325,1.3528577935010193,3.420770274744928
1763693803561232400,1.595232421875,9.087920130875705,1.3727502424508333,3.4198899847790596
1763693803571192300,1.6051923828125,9.099941408059001,1.4019634774535894,3.375787808202207
1763693803581152300,1.61515234375,9.126346015381813,1.4337106148481369,3.290085500997305
1763693803591113200,1.62511328125,9.161718357536197,1.4601890180595218,3.1782302231431006
1763693803601073200,1.6350732421875,9.200750975763798,1.4721180869147181,3.0576836893111468
1763693803611033000,1.645033203125,9.236970874658226,1.4649316825419663,2.9500387226283546
1763693803620993000,1.654992919921875,9.264088014164566,1.4390258185215294,2.8768489832550284
1763693803630953200,1.664953125,9.279148220652342,1.3953941820658742,2.849679236778617
1763693803640913200,1.6749130859375,9.281792597681283,1.337474784799665,2.8687755669146773
1763693803650874000,1.6848740234375,9.272834215199946,1.273909052209556,2.926104597072303
1763693803660834300,1.694834228515625,9.253353269660472,1.2115049838099627,3.012986469450593
1763693803670794200,1.704794189453125,9.226324977481365,1.155771186954528,3.116007575725019
1763693803680754200,1.714754150390625,9.195103325265645,1.111573294918239,3.222554810298979
1763693803690714400,1.72471435546875,9.163871736177802,1.080751309544593,3.3205148337915538
1763693803700675300,1.73467529296875,9.13660963524282,1.0653975269377232,3.3996585131332275
1763693803710635300,1.74463525390625,9.118122376915812,1.0647571101423352,3.44913303039819
1763693803720595500,1.754595458984375,9.112443746757506,1.0735070375047624,3.4614059442549943
1763693803730555400,1.764555419921875,9.120890672585368,1.086672443221882,3.4349498990058898
1763693803740515300,1.774515380859375,9.144381438288091,1.1001214151207357,3.3675513102546333
1763693803750475300,1.784475341796875,9.184749104511738,1.1104946328360588,3.252316619095206
1763693803760436200,1.794436279296875,9.237641905787587,1.1187797191657125,3.0959140512451526
1763693803770396200,1.804396240234375,9.29021205098033,1.1272069904450326,2.931168894724548
1763693803780356000,1.814356201171875,9.332997884261607,1.139826818043366,2.78681303075999
1763693803790316300,1.82431640625,9.360561598491667,1.1630957576889545,2.682812558059394
1763693803800276200,1.834276123046875,9.366192297855019,1.206265256525576,2.6438132575795055
1763693803810237200,1.8442373046875,9.359896997103094,1.257408729916066,2.642278595358133
1763693803820197400,1.854197265625,9.35020854678154,1.3071344454631209,2.6524294024944304
1763693803830157300,1.8641572265625,9.336391033831239,1.3584269719354807,2.675231016889214
1763693803840117200,1.8741171875,9.317573520636557,1.417633924794197,2.7098928726866838
1763693803850077200,1.8840771484375,9.294160496345162,1.490347717218846,2.75096781039685
1763693803860037400,1.894037353515625,9.269213686615227,1.5783829974159598,2.7858164209380742
1763693803869998300,1.903998291015625,9.249998114013671,1.6753642390042542,2.793039942450821
1763693803879958300,1.913958251953125,9.242537276613712,1.7741351404882966,2.7565073243454097
1763693803889918200,1.923918212890625,9.249593624866009,1.872010116045922,2.6666423445031047
1763693803899878100,1.933878173828125,9.271502089813351,1.970550131383538,2.515266080382466
1763693803909838000,1.943838134765625,9.308993908339739,2.0710674381434915,2.285539771515876
1763693803919798000,1.953798095703125,9.356627181652188,2.074139977456629,2.0789068995974955
1763693803929759200,1.96375927734375,9.386883203706144,1.9968159147575497,2.017308521557599
1763693803939719200,1.97371923828125,9.410012734881043,1.8739244252346454,2.0274257186852394
1763693803949679000,1.98367919921875,9.439303711295127,1.7309236291408538,2.0183739588320253
1763693803959639300,1.993639404296875,9.424450425556302,1.6603481639191506,2.1432139520741997
1763693803969599200,2.00359912109375,9.411978481996059,1.639640599194169,2.2128328472234307
1763693803979559200,2.01355908203125,9.41885713559389,1.6451599471375344,2.179212024911493
1763693803989520400,2.023520263671875,9.397707964581251,1.7035526610039173,2.2251696200966835
1763693803999480300,2.033480224609375,9.391327908155322,1.7520144940949975,2.2144499270312488
1763693804009440300,2.043440185546875,9.39276641652584,1.803590367553383,2.1664216630518434
1763693804019400400,2.053400390625,9.400566276621818,1.8589051352791488,2.084276463806629
1763693804029360400,2.0633603515625,9.411032141056657,1.9171967268586159,1.9817216598697005
1763693804039320300,2.0733203125,9.422260222035646,1.9669998915560543,1.8767808375790713
1763693804049281300,2.08328125,9.440519516825676,1.9931457018122076,1.7533816907949744
1763693804059241200,2.0932412109375,9.465140747863053,1.9920019386045633,1.6166083909139035
1763693804069201200,2.103201171875,9.494687744864821,1.9631739035271107,1.472154473402351
1763693804079161000,2.1131611328125,9.528138179045914,1.9070292608484625,1.322196551647037
1763693804089121300,2.123121337890625,9.561592120358346,1.8303132470451293,1.1816481902066618
1763693804099082200,2.133082275390625,9.592523849716782,1.7425256579987705,1.057105718606338
1763693804109042200,2.143042236328125,9.620174657708406,1.6506766647323965,0.9475711387846618
1763693804119002400,2.15300244140625,9.645688453671335,1.5550778174132107,0.8442799103319645
1763693804128962300,2.16296240234375,9.67130512548685,1.4512952252469955,0.7280030166432261
1763693804138922200,2.172922119140625,9.697026426720619,1.3417204595454035,0.5812476172562688
1763693804148882200,2.182882080078125,9.71834218647182,1.235955315259844,0.4434285346493125
1763693804158843400,2.192843505859375,9.731759886449575,1.1514888334602116,0.3705530123243108
1763693804168803300,2.20280322265625,9.738251586556434,1.0996358235608785,0.35726913132667537
1763693804178763300,2.21276318359375,9.740433022248745,1.0796504356306045,0.3587464738702401
1763693804188723200,2.22272314453125,9.741571670889854,1.07729978085123,0.33405246985759585
1763693804198683100,2.23268310546875,9.744491357728839,1.0684183360636235,0.2715765965971164
1763693804208643000,2.24264306640625,9.750395613336563,1.0322426416371018,0.18613178955093024
1763693804218604300,2.252604248046875,9.759209618911147,0.9599452479936182,0.08196721232980489
1763693804228564200,2.262564208984375,9.767432088333369,0.8735749053340405,-0.06720734962862916
1763693804238524200,2.272524169921875,9.770439453455806,0.7968515119418501,-0.2719005130555481
1763693804248484000,2.282484130859375,9.765166481488942,0.7432950591254979,-0.509333414244093
1763693804258443500,2.292443603515625,9.752043380543588,0.7130717702973633,-0.7480415960654616
1763693804268403700,2.30240380859375,9.731010529386996,0.7063924386639148,-0.9893578049607574
1763693804278364700,2.31236474609375,9.69801076158285,0.7297928226694465,-1.2595144700236618
1763693804288324600,2.32232470703125,9.647833649006486,0.7925078567143529,-1.5689546593353152
1763693804298284800,2.332284912109375,9.578207739594578,0.8948509175967425,-1.9046157699659465
1763693804308244700,2.34224462890625,9.487334459492564,1.0254945556163788,-2.2603619295090436
1763693804318204700,2.35220458984375,9.37706323595941,1.1620692641854284,-2.625007434822619
1763693804328164600,2.36216455078125,9.26538740632534,1.2693860218271613,-2.9515482504084702
1763693804338125800,2.372125732421875,9.193409380829333,1.3018075513519345,-3.1554569580599665
1763693804348085800,2.382085693359375,9.154152306196092,1.2543645399145782,-3.286099646231532
1763693804358045700,2.392045654296875,9.117343209236859,1.1615823574513195,-3.419818673108518
1763693804368005600,2.402005615234375,9.072457773327827,1.0578913890913129,-3.569559737242758
1763693804377965600,2.411965576171875,9.029753773111105,0.9647967796780168,-3.701770405383408
1763693804387925500,2.421925537109375,8.99559782100916,0.8931710747510194,-3.801559105607867
1763693804397886700,2.43188671875,8.954327652987837,0.8390323650673032,-3.909785671570897
1763693804407846700,2.4418466796875,8.89695332238376,0.7960374921452253,-4.047335654912889
1763693804417806600,2.451806640625,8.819713430836796,0.7777358925834298,-4.216415918028354
1763693804427766500,2.4617666015625,8.71837837795317,0.7801553748153149,-4.4217210484743115
1763693804437726700,2.471726806640625,8.600767897573112,0.7929617379616946,-4.6441775124683975
1763693804447686700,2.481686767578125,8.47080296253264,0.8066021407794207,-4.874963997912406
1763693804457647600,2.491647705078125,8.317903142106532,0.81880535040088,-5.129564197403192
1763693804467607800,2.50160791015625,8.153561890211702,0.8465377722613513,-5.382675035119056
1763693804477567700,2.511567626953125,7.976718299618363,0.8758316712848842,-5.636954916614294
1763693804487527700,2.521527587890625,7.792930004453659,0.9002431320291012,-5.8847425134807825
1763693804497487600,2.531487548828125,7.623347344774007,0.9066825904920697,-6.1018754443645475
1763693804507447800,2.54144775390625,7.487973828688263,0.8811700366381555,-6.270899301117658
1763693804517408500,2.551408447265625,7.383551331183314,0.822151519023627,-6.4013762773334975
1763693804527368400,2.561368408203125,7.305911042141914,0.742715286476165,-6.499416964846849
1763693804537328600,2.57132861328125,7.257202833074331,0.6546382860291748,-6.56314271030426
1763693804547288600,2.58128857421875,7.227986675462127,0.5674792406773195,-6.603374767449497
1763693804557248500,2.59124853515625,7.212860418000817,0.4889585886048153,-6.626156508100032
1763693804567208700,2.601208740234375,7.209298341605066,0.423362592296116,-6.634543812695145
1763693804577168600,2.611168701171875,7.212256022366881,0.37749720543902365,-6.634096653449535
1763693804587129600,2.621129638671875,7.213133389723301,0.3609235621809959,-6.634065673789381
1763693804597089800,2.63108984375,7.205779519829154,0.37976957081779833,-6.641002195054292
1763693804607049700,2.6410498046875,7.182466448780894,0.4255044266304001,-6.663445497530699
1763693804617009700,2.651009765625,7.149409982353449,0.48789249374326316,-6.6946461069583885
1763693804626969600,2.660969482421875,7.107190550783276,0.5553869440844282,-6.7342240841090675
1763693804636929800,2.6709296875,7.055456271892786,0.6204577840078622,-6.782768627047538
1763693804646890800,2.680890869140625,6.985657928523421,0.6772839792098849,-6.849252146780491
1763693804656850700,2.6908505859375,6.889484788447618,0.7242044280778617,-6.941246539866924
1763693804666810600,2.700810546875,6.7654089114457365,0.7605831707958132,-7.058409276479482
1763693804676770600,2.7107705078125,6.62125704562068,0.7885130879897624,-7.190798808318376
1763693804686730500,2.72073046875,6.474525100174546,0.8061568081647157,-7.321271108359098
1763693804696690400,2.7306904296875,6.347108680573106,0.8096741686359047,-7.431622995913028
1763693804706651600,2.740651611328125,6.257447114348412,0.8054021904051304,-7.5077341756910085
1763693804716611600,2.750611572265625,6.206670282313227,0.8011071966249496,-7.550222487330436
1763693804726571500,2.760571533203125,6.180104931470751,0.799533590632677,-7.57214848793447
1763693804736531700,2.77053173828125,6.164972244268656,0.8010315010402351,-7.584315895590185
1763693804746491600,2.78049169921875,6.121555127346515,0.8133431394722312,-7.618097753682732
1763693804756451600,2.79045166015625,6.0379942160844795,0.8234701273415237,-7.683416905811429
1763693804766411500,2.80041162109375,5.90723783840537,0.8194572384383529,-7.784819763234257
1763693804776372700,2.810372802734375,5.7018315856724975,0.7921866619359701,-7.9392662285804745
1763693804786332700,2.820332763671875,5.438164282628893,0.7331545541875064,-8.127683937111497
1763693804796292600,2.830292724609375,5.177175258883834,0.6432494615305214,-8.303823178827763
1763693804806252800,2.840252685546875,4.9752176853001115,0.5340019184892997,-8.434005556011199
1763693804816212700,2.850212646484375,4.829028176167607,0.41464342539813365,-8.525195062455534
1763693804826172700,2.860172607421875,4.739923074781895,0.30215355770112945,-8.579755504682659
1763693804836133600,2.870133544921875,4.683045003262162,0.20423406714834272,-8.613812088063359
1763693804846093600,2.880093505859375,4.653281440900266,0.1222851485270541,-8.631477508613466
1763693804856053500,2.890053466796875,4.6428830887436865,0.050735472544911314,-8.63779209858775
1763693804866013700,2.900013671875,4.614574693626165,-0.0163368856348854,-8.653080853134393
1763693804875973600,2.9099736328125,4.564268401712179,-0.08550557905640453,-8.679315949109196
1763693804885933600,2.91993359375,4.503628639571368,-0.1621618985617533,-8.709845527407527
1763693804895894800,2.929894775390625,4.432669435729086,-0.25594949520789084,-8.74393075236082
1763693804905854700,2.939854736328125,4.3421632353737944,-0.37639220333918927,-8.784892877346277
1763693804915814700,2.949814697265625,4.23367509586513,-0.5249377740785479,-8.830109737166762
1763693804925774600,2.959774658203125,4.110629146432876,-0.7012718077145517,-8.875885399913788
1763693804935734800,2.96973486328125,3.969734821099043,-0.8984151859495788,-8.92213277182579
1763693804945694700,2.97969482421875,3.816748199172318,-1.1016871300674975,-8.96599763251543
1763693804955654700,2.989654541015625,3.66053121702224,-1.2867686799131333,-9.00639394031167
1763693804965615900,2.999615966796875,3.5310189941853283,-1.441378519127518,-9.034640960630774
1763693804975575800,3.009575927734375,3.439152319131791,-1.5644323596052825,-9.049595368656515
1763693804985535700,3.01953564453125,3.3799642171040176,-1.6602673537679016,-9.054818071740865
1763693804995495700,3.02949560546875,3.34334012132287,-1.7382469577662645,-9.053781714430452
1763693805005455600,3.03945556640625,3.3240716494902967,-1.8121126967050134,-9.046390435135365
1763693805015415600,3.04941552734375,3.3190275178432462,-1.8943048038318753,-9.031392772489786
1763693805025375500,3.05937548828125,3.324563524660468,-1.9888693396672605,-9.008999738895893
1763693805035336700,3.069336669921875,3.3395603105232117,-2.0923970802895724,-8.979956599763035
1763693805045296600,3.079296630859375,3.3674221309170127,-2.1969925962738692,-8.944500086456538
1763693805055256600,3.089256591796875,3.411490112963319,-2.2932572140254077,-8.903543806689978
1763693805065216500,3.099216552734375,3.4717058044731615,-2.3753598893031476,-8.85862914468646
1763693805075176700,3.1091767578125,3.5445410313203927,-2.4446453147143123,-8.810807655325531
1763693805085136600,3.11913671875,3.620408465470373,-2.5090192949473855,-8.761727105814218
1763693805095097600,3.12909765625,3.6968773726448414,-2.58020733910948,-8.70896231483221
1763693805105057800,3.139057861328125,3.7717873599395153,-2.6668592021241784,-8.650540521001815
1763693805115017700,3.149017822265625,3.8440839498654005,-2.7695833712786433,-8.586198689472674
1763693805124977700,3.158977783203125,3.914045082581043,-2.882597756040096,-8.517116385418175
1763693805134937900,3.168937744140625,3.981098218895495,-2.9999563074856996,-8.445206164461373
1763693805144897800,3.178897705078125,4.040753061652183,-3.1170003861546514,-8.374187339386344
1763693805154857700,3.188857666015625,4.086334955392777,-3.2323931904852388,-8.30806213157177
1763693805164818700,3.198818603515625,4.115036733742058,-3.3496392214670774,-8.247228600424528
1763693805174778600,3.208778564453125,4.1266359861209985,-3.4711373569354413,-8.190998763680458
1763693805184738600,3.218738525390625,4.127427428759634,-3.598216215145588,-8.135573229056597
1763693805194698500,3.228698486328125,4.125615118640661,-3.730841309306025,-8.076540025329589
1763693805204658700,3.23865869140625,4.123286675693095,-3.8658874931335445,-8.013975724866986
1763693805214618600,3.24861865234375,4.116977346415817,-3.9989153228759764,-7.951701931783557
1763693805224578600,3.25857861328125,4.097877801409363,-4.126923278629779,-7.895966600558161
1763693805234539800,3.268539794921875,4.057900303547084,-4.251040656685829,-7.850636343491077
1763693805244499700,3.278499755859375,3.9922029657557605,-4.372708595763147,-7.817423809719085
1763693805254459400,3.28845947265625,3.8956457947984338,-4.489962810051441,-7.799651421663165
1763693805264419600,3.298419677734375,3.7698750965774055,-4.598321185700595,-7.798324556973576
1763693805274379500,3.308379638671875,3.6250559990152715,-4.691862808229029,-7.81125944187045
1763693805284339500,3.31833935546875,3.4773099080905316,-4.766248479388654,-7.833361968085169
1763693805294299600,3.328299560546875,3.339957200886309,-4.817459318926931,-7.8617527807891365
1763693805304260600,3.338260498046875,3.214885883106291,-4.842654258199036,-7.898329238036275
1763693805314220500,3.348220458984375,3.098043172228336,-4.842454643973708,-7.945007402580976
1763693805324180500,3.358180419921875,2.9857693767011164,-4.820848669104278,-8.000937379595637
1763693805334140400,3.368140380859375,2.8756162265896794,-4.7841383563444015,-8.063079070731996
1763693805344100400,3.378100341796875,2.7649811381801963,-4.7402167970314615,-8.127460649749636
1763693805354060300,3.388060302734375,2.6535487619131803,-4.6957580621019,-8.190172249728441
1763693805364020500,3.3980205078125,2.537083067654073,-4.654525011220574,-8.250392617413402
1763693805373981400,3.4079814453125,2.4186669699795544,-4.619217843256891,-8.305617076507211
1763693805383941400,3.41794140625,2.3121716117233038,-4.588004374347627,-8.353111233609914
1763693805393901600,3.427901611328125,2.214783396769315,-4.55283398450613,-8.398620938897132
1763693805403861500,3.437861572265625,2.127933088573068,-4.509434695501625,-8.444363868418336
1763693805413821400,3.447821533203125,2.042527864618599,-4.457125831593573,-8.493085521489382
1763693805423781400,3.457781494140625,1.9459107801675795,-4.400116242648661,-8.545337686774134
1763693805433741600,3.467741455078125,1.852797612184286,-4.339862264955044,-8.596692026436328
1763693805443702500,3.47770263671875,1.75927878600955,-4.276714027124643,-8.647834184652567
1763693805453662500,3.487662353515625,1.6524351988375185,-4.214079876296222,-8.699503581613302
1763693805463622700,3.49762255859375,1.5373589131101966,-4.154262244193256,-8.749230612334609
1763693805473582600,3.50758251953125,1.4246725912593303,-4.095224948813021,-8.796012237253784
1763693805483542500,3.51754248046875,1.3216238663256168,-4.033448876118659,-8.840530593416094
1763693805493502500,3.52750244140625,1.2254779065176844,-3.9690696351885792,-8.88341579541862
1763693805503462700,3.537462646484375,1.1341297754455357,-3.9036072751969098,-8.924459753468632
1763693805513423400,3.54742333984375,1.0466581204805523,-3.8366494159504767,-8.96409618280828
1763693805523383300,3.55738330078125,0.9672211572807282,-3.767419812379777,-9.002301118040084
1763693805533343500,3.567343505859375,0.8940697771564126,-3.6972310083881017,-9.038888681203126
1763693805543303400,3.577303466796875,0.8024369108587502,-3.6271357278987764,-9.075812344452737
1763693805553263400,3.587263427734375,0.6910965237241238,-3.557357258273661,-9.112517981037497
1763693805563223600,3.5972236328125,0.5779795553710312,-3.4821856974333523,-9.149355719569325
1763693805573183500,3.60718359375,0.48183900239057836,-3.3965926958218216,-9.18702172561884
1763693805583144400,3.61714453125,0.39308578318245707,-3.302392317123711,-9.225512492054701
1763693805593104600,3.627104736328125,0.3196057190930471,-3.2113544941097496,-9.260423061916232
1763693805603064600,3.637064697265625,0.2906414721489884,-3.134101450820267,-9.2878049898386
1763693805613024500,3.6470244140625,0.30840386853385715,-3.0717127991855144,-9.308052828097344
1763693805622984400,3.656984375,0.35747919388078153,-3.0178707343608138,-9.323896293917297
1763693805632944600,3.666944580078125,0.4242249812791124,-2.963192803233862,-9.338623322927951
1763693805642904600,3.676904541015625,0.5004080937821418,-2.899280887554586,-9.354898165902496
1763693805652865500,3.686865478515625,0.5853412432454526,-2.826386623996496,-9.372260804113745
1763693805662825500,3.696825439453125,0.6785984958745539,-2.756445365025103,-9.386794356378912
1763693805672785400,3.706785400390625,0.7649050525829195,-2.6992922759562727,-9.396762792685628
1763693805682745300,3.716745361328125,0.8071212692826986,-2.664032746526599,-9.403291317671536
1763693805692705300,3.726705322265625,0.7877192341983318,-2.6539693254128096,-9.407782199349999
1763693805702665500,3.73666552734375,0.7324198101721704,-2.6545795662656424,-9.412073759064079
1763693805712625400,3.74662548828125,0.6783518276371061,-2.650124924944341,-9.417379464256763
1763693805722586400,3.75658642578125,0.6557138063061982,-2.6356980479240417,-9.423030037364363
1763693805732546600,3.766546630859375,0.6695305155389011,-2.61605314399451,-9.427533778524399
1763693805742506500,3.776506591796875,0.7142789541300386,-2.6078946797192093,-9.426509111651777
1763693805752466400,3.786466552734375,0.7633212905228137,-2.6213524194464086,-9.418929616308212
1763693805762426400,3.79642626953125,0.8064783682692795,-2.6557474410012363,-9.405689026463032
1763693805772386600,3.806386474609375,0.854581597181037,-2.7043068892478943,-9.387587552583216
1763693805782346500,3.816346435546875,0.8782015422213822,-2.7647674954295156,-9.36777518313229
1763693805792307500,3.826307373046875,0.8629903829555958,-2.837815780505538,-9.347322177690266
1763693805802267600,3.836267578125,0.8092473945911973,-2.9253914803668857,-9.32510508518517
1763693805812227600,3.8462275390625,0.7209530981317163,-3.0392984300538894,-9.295874314525722
1763693805822187500,3.8561875,0.6135362411163747,-3.192574974837899,-9.252103561860322
1763693805832147700,3.866147705078125,0.5034572156870737,-3.383016298151016,-9.190871386784314
1763693805842107600,3.876107666015625,0.40516602401137347,-3.60414268258512,-9.111332570645212
1763693805852067600,3.886067626953125,0.32028745427951216,-3.855778187051415,-9.0111472723186
1763693805862027500,3.896027587890625,0.2542388005661778,-4.132014172028005,-8.890006279724837
1763693805871988500,3.905988525390625,0.21215017403513192,-4.434385591997206,-8.744233534699678
1763693805881948400,3.915948486328125,0.1716685443093069,-4.745201599706709,-8.580441733381152
1763693805891908400,3.925908447265625,0.10431394996340386,-5.0119268290162085,-8.428528585904836
1763693805901868500,3.93586865234375,0.02148264988386072,-5.149436772608757,-8.345851471740007
1763693805911828500,3.945828369140625,-0.05824719074873719,-5.248364764350653,-8.28381791715324
1763693805921788400,3.955788330078125,-0.13013000767538324,-5.398723083600402,-8.185795934340357
1763693805931748400,3.965748291015625,-0.22624551754612474,-5.619753606444597,-8.033529151120781
1763693805941709600,3.97570947265625,-0.3643151043154299,-5.889422780251502,-7.832774523586035
1763693805951669500,3.98566943359375,-0.5261383089747279,-6.193211081281304,-7.5853610207289455
1763693805961629400,3.99562939453125,-0.7007637851271777,-6.519700458940863,-7.2919690260291095
1763693805971589600,4.005589599609375,-0.8811012091856449,-6.818630798545479,-6.99287677386105
1763693805981549600,4.015549560546875,-1.0404656955812126,-7.059080892130732,-6.727347768598794
1763693805991509500,4.025509521484375,-1.1549901926446706,-7.240759063273668,-6.512127393338083
1763693806001469400,4.035469482421875,-1.23935241035223,-7.375980019146204,-6.342657546383142
1763693806011429600,4.0454296875,-1.309311643371731,-7.479334010636806,-6.206098035383224
1763693806021390300,4.055390380859375,-1.3601507269881665,-7.565598335638642,-6.08950637665689
1763693806031350300,4.065350341796875,-1.387689160646498,-7.656082908684015,-5.969011865273118
1763693806041310500,4.075310546875,-1.38516329543069,-7.762534866189956,-5.830504142814874
1763693806051270400,4.0852705078125,-1.3557976463451982,-7.888443219316005,-5.666099762555956
1763693806061230300,4.095230224609375,-1.3089135839648545,-8.03302646229565,-5.4706157689005135
1763693806071190500,4.1051904296875,-1.2408762589186428,-8.19688606815338,-5.238479914674163
1763693806081150500,4.115150390625,-1.1362690524965524,-8.376928747048973,-4.970549693489074
1763693806091110400,4.1251103515625,-1.011583226902783,-8.558022396302222,-4.6805280520051715
1763693806101071600,4.135071533203125,-0.8976271773770451,-8.725558060324191,-4.385122963917255
1763693806111031600,4.145031494140625,-0.8095470351248979,-8.874508266341685,-4.093667782498896
1763693806120991500,4.154991455078125,-0.7497856632538139,-8.999899902117251,-3.8223061255604027
1763693806130951400,4.164951416015625,-0.7265397391576319,-9.099760206273197,-3.5828637477129694
1763693806140911600,4.17491162109375,-0.7460844706483185,-9.175730516275763,-3.379310721631348
1763693806150871600,4.18487158203125,-0.8133143517691641,-9.226922943374515,-3.220684340251982
1763693806160831500,4.19483154296875,-0.9239913796242326,-9.250041368633509,-3.1230414198845624
1763693806170792700,4.204792724609375,-0.991964918719232,-9.246634775060414,-3.1122613749340173
1763693806180752600,4.214752685546875,-0.9359848189525306,-9.217275409585238,-3.2149899280026553
1763693806190712600,4.224712646484375,-0.9102013392027467,-9.17592165493369,-3.3383202473342415
1763693806200672500,4.234672607421875,-0.9068271135292947,-9.141693806639314,-3.4318361508995294
1763693806210632400,4.244632568359375,-0.9118908266596496,-9.118509914928675,-3.491648814566433
1763693806220592400,4.25459228515625,-0.8982416560135781,-9.096979635643958,-3.550843930856883
1763693806230552300,4.26455224609375,-0.8516456898596138,-9.074773064532875,-3.6185026318490503
1763693806240512500,4.274512451171875,-0.7727271245107055,-9.055129621908067,-3.6848195628434417
1763693806250473500,4.284473388671875,-0.6420799062944949,-9.033291884109378,-3.762684600551426
1763693806260433700,4.29443359375,-0.45815286024622615,-9.01484203518331,-3.833161866095662
1763693806270393600,4.3043935546875,-0.23946024229768662,-8.999616409000755,-3.8884398089423775
1763693806280353500,4.314353515625,-0.005327250875034951,-8.987674626794457,-3.923272929653525
1763693806290313700,4.324313720703125,0.21293350643254816,-8.979949585500359,-3.9351708727180954
1763693806300273700,4.334273681640625,0.3946285921776667,-8.974586597162485,-3.933379897648096
1763693806310233600,4.344233642578125,0.5308844440558925,-8.96637055748105,-3.9360815578222272
1763693806320193500,4.354193603515625,0.6560509293060749,-8.949068125024437,-3.9565366090908642
1763693806330154800,4.36415478515625,0.8229887735653668,-8.925071747887134,-3.979471202215552
1763693806340114700,4.37411474609375,1.0534557447314261,-8.896620729428529,-3.9888288131475447
1763693806350074600,4.38407470703125,1.358604520459473,-8.860427134019137,-3.977110318303108
1763693806360034800,4.394034912109375,1.7285222670875489,-8.814681866410375,-3.934972135275602
1763693806369994800,4.403994873046875,2.1322195337206122,-8.757105291232467,-3.864857273302972
1763693806379954700,4.41395458984375,2.5380057354569434,-8.694640944012999,-3.7592709927156567
1763693806389914600,4.42391455078125,2.891171523118019,-8.642190041285753,-3.6227132352814078
1763693806399874600,4.43387451171875,3.1252956285521387,-8.615140121796726,-3.490307921351492
1763693806409835500,4.44383544921875,3.2181171201124785,-8.612708510735631,-3.411061950679123
1763693806419795500,4.45379541015625,3.219163706555962,-8.6157310734272,-3.4024320694997905
1763693806429755600,4.463755615234375,3.1926784352123736,-8.60931302307844,-3.4433863034397363
1763693806439715600,4.473715576171875,3.1804625122398136,-8.591154850575327,-3.499586914089322
1763693806449675500,4.483675537109375,3.1992981456130742,-8.56390385555625,-3.5488653242602943
1763693806459635700,4.4936357421875,3.246300719806552,-8.530609488719701,-3.5861727261304854
1763693806469595600,4.503595703125,3.300376008865237,-8.498912035685777,-3.611978198516369
1763693806479555600,4.5135556640625,3.3503327566891907,-8.475319563174248,-3.6214112127721307
1763693806489516500,4.5235166015625,3.3930244819462296,-8.460587273466587,-3.616109014710784
1763693806499476700,4.533476806640625,3.4178777681738137,-8.452359543347358,-3.6119393278107044
1763693806509436700,4.543436767578125,3.416870344696939,-8.447867492625116,-3.6233833896279335
1763693806519396600,4.553396728515625,3.406890510213375,-8.443899758037924,-3.6419814148530363
1763693806529356800,4.563356689453125,3.4256498634800314,-8.440614745017886,-3.6319863828003403
1763693806539316700,4.573316650390625,3.480307628601789,-8.437050915056467,-3.5880379354804752
1763693806549276700,4.583276611328125,3.553170620238781,-8.436998308086395,-3.5160254231929775
1763693806559236600,4.593236572265625,3.6263147669047116,-8.454915657570957,-3.396265655824542
1763693806569196800,4.60319677734375,3.674725162069499,-8.49989461698234,-3.2277818972975014
1763693806579157500,4.613157470703125,3.680996497423947,-8.565183958494663,-3.0427430175498125
1763693806589117400,4.623117431640625,3.6434777908906337,-8.640846225461363,-2.8690111292362213
1763693806599077600,4.63307763671875,3.5736730177804827,-8.718800987279415,-2.716936945979297
1763693806609037600,4.64303759765625,3.491395424327254,-8.788228743770718,-2.5976073867216707
1763693806618997500,4.65299755859375,3.4316122790157793,-8.833874058136344,-2.521327572378516
1763693806628957400,4.66295751953125,3.4404309607654806,-8.840625285962224,-2.4853923356443643
1763693806638917600,4.672917724609375,3.5609798326849935,-8.793682333001493,-2.482129242195189
1763693806648877600,4.682877685546875,3.7943276930496093,-8.692445479795337,-2.492961601854861
1763693806658838500,4.692838623046875,4.0852006906658405,-8.558667708468437,-2.4961440312832592
1763693806668798700,4.702798828125,4.352333623993396,-8.432374739938973,-2.474396602116525
1763693806678758700,4.712758544921875,4.53292546120435,-8.351667464542388,-2.423353520360589
1763693806688718600,4.722718505859375,4.646498064370453,-8.311038517034053,-2.346718316708505
1763693806698678800,4.7326787109375,4.761765488755703,-8.276780273601412,-2.23402965677008
1763693806708638700,4.742638671875,4.906763742277026,-8.229290792673826,-2.0911317365288733
1763693806718598700,4.7525986328125,5.054722599169612,-8.17644650671482,-1.9405892928838728
1763693806728558600,4.76255859375,5.1550902683258055,-8.157430840599536,-1.7469234545662997
1763693806738519600,4.77251953125,5.190027141672372,-8.185980058735609,-1.4912205545306205
1763693806748479500,4.7824794921875,5.165274393209815,-8.246749876996875,-1.2171443048711865
1763693806758439400,4.792439453125,5.083030994287133,-8.336185817772149,-0.9171583187337964
1763693806768399600,4.802399658203125,4.95632710686922,-8.441928165704011,-0.5822834265774116
1763693806778359600,4.812359619140625,4.789426525880396,-8.554356859531998,-0.23401728405877947
1763693806788319500,4.822319580078125,4.585376071670651,-8.668011295762657,0.10143136199810542
1763693806798279400,4.832279541015625,4.349853205354512,-8.778475996041298,0.4330371602227911
1763693806808239600,4.842239501953125,4.1074619145736095,-8.871079460936784,0.7765786123070866
1763693806818199600,4.852199462890625,3.8636598802119493,-8.945210865074396,1.1071173384226858
1763693806828160500,4.862160400390625,3.6178698869034647,-9.006755759361386,1.3999120978817343
1763693806838120700,4.87212060546875,3.385351463100314,-9.056627166989445,1.639295439018309
1763693806848080600,4.88208056640625,3.178153066253662,-9.097365420091151,1.8187011351846158
1763693806858040600,4.89204052734375,2.9912115677550433,-9.136342508739233,1.9365654441952704
1763693806868000500,4.90200048828125,2.8011487223654985,-9.184292592915892,1.9931671829916535
1763693806877960700,4.911960693359375,2.5849942811250686,-9.247996711063385,1.990663675738126
1763693806887920600,4.921920654296875,2.3287644346058367,-9.32915289927125,1.9272130939602852
1763693806897880600,4.931880615234375,2.0251758939318356,-9.422778108429908,1.811161241199076
1763693806907841800,4.941841796875,1.686089192766696,-9.518054007405041,1.6535251860313116
1763693806917801700,4.9518017578125,1.3330167824774979,-9.602276597446203,1.4797715242773293
1763693806927761700,4.96176171875,0.9778098443776368,-9.67050549954176,1.3021544650934636
1763693806937721900,4.971721923828125,0.6155225195627659,-9.72123030912876,1.1354233223874122
1763693806947681800,4.981681884765625,0.27143229275560005,-9.75086615345776,1.008628395685181
1763693806957641700,4.991641845703125,-0.013328309227828867,-9.760313196238874,0.952108489953354
1763693806967601700,5.0016015625,-0.22824673783332108,-9.755707748270034,0.9718257284667342
1763693806977561600,5.0115615234375,-0.39670547151695934,-9.742053901448845,1.051367613345757
1763693806987521500,5.021521484375,-0.5611259626604617,-9.720880765038729,1.1661823985926807
1763693806997482500,5.031482421875,-0.7410999602340161,-9.695045482036472,1.2756328072622418
1763693807007442700,5.041442626953125,-0.9198949040908366,-9.668211251124738,1.3601039652369915
1763693807017402600,5.051402587890625,-1.0741022269189358,-9.640137249284981,1.4437668755687771
1763693807027362600,5.061362548828125,-1.2085804016001522,-9.609770168071984,1.5368959717735646
1763693807037322500,5.071322509765625,-1.328217127110809,-9.579001520320773,1.6275642308227718
1763693807047282700,5.08128271484375,-1.4371359131217003,-9.548186110818385,1.7138192034743724
1763693807057242600,5.09124267578125,-1.5342356665231287,-9.517429738026857,1.7986254386223852
1763693807067202600,5.10120263671875,-1.623134431681782,-9.485856203633546,1.8853052125573158
1763693807077162500,5.11116259765625,-1.7209357574813067,-9.451800204774736,1.967804193676263
1763693807087123700,5.121123779296875,-1.848892713700235,-9.413713342964648,2.033224468091875
1763693807097083600,5.131083740234375,-2.0070324806064366,-9.372322763434052,2.0740717345260085
1763693807107043600,5.141043701171875,-2.1694534319631753,-9.330040203499793,2.1009965663306414
1763693807117003800,5.151003662109375,-2.304600738077611,-9.290918153423071,2.1302698609575628
1763693807126963700,5.160963623046875,-2.397316431175917,-9.258991567808389,2.1666388129338623
1763693807136923600,5.170923583984375,-2.4573656800776718,-9.233374311470985,2.208289504705369
1763693807146883800,5.1808837890625,-2.499744101601839,-9.212687497273087,2.2467846550554036
1763693807156843800,5.19084375,-2.5170950493752957,-9.20115663395524,2.2744961071930825
1763693807166803700,5.2008037109375,-2.494186175213754,-9.20145474011898,2.2984002760022877
1763693807176764700,5.2107646484375,-2.4243751184932885,-9.214512374612688,2.3206785971753296
1763693807186724600,5.220724609375,-2.3047192498907445,-9.241068957626819,2.336948910105228
1763693807196684500,5.2306845703125,-2.1318162136167285,-9.282387640964984,2.337307222023606
1763693807206644500,5.24064453125,-1.9028207032427191,-9.338675929898024,2.310575428573042
1763693807216604700,5.250604736328125,-1.634394222973287,-9.404093281704187,2.2499209072545168
1763693807226564600,5.260564697265625,-1.36357120295614,-9.469933242836595,2.1520697509638964
1763693807236524500,5.270524658203125,-1.0958959794454275,-9.533730884486436,2.019248111318052
1763693807246484500,5.280484375,-0.8030706787176429,-9.59540028193593,1.8584312341570852
1763693807256445400,5.290445556640625,-0.47429143655523653,-9.649440499681234,1.683368243370205
1763693807266406400,5.300406494140625,-0.13929314634804613,-9.688114221468567,1.5137445210278033
1763693807276366600,5.31036669921875,0.18906227177856488,-9.709992291277647,1.3603911116153
1763693807286326500,5.320326416015625,0.5229896722180769,-9.715803023383021,1.224768735335022
1763693807296286500,5.330286376953125,0.890883913661912,-9.70369991313517,1.1022316122077405
1763693807306246400,5.340246337890625,1.305134065426141,-9.669053547167778,0.9881397344078868
1763693807316206300,5.350206298828125,1.7440277331247924,-9.610033787444234,0.8809034215912223
1763693807326166300,5.360166259765625,2.17249864487797,-9.53245545772314,0.7634948935240506
1763693807336126200,5.370126220703125,2.5633324844151733,-9.44536052711606,0.6203981627751142
1763693807346086100,5.380086181640625,2.911009903793037,-9.35395591661632,0.44714207527972755
1763693807356046300,5.39004638671875,3.227295282824337,-9.256752264449,0.2597588243629783
1763693807366007300,5.40000732421875,3.5250673923045395,-9.150738113838434,0.09096121411379426
1763693807375967200,5.40996728515625,3.8176948323726654,-9.032933572191,-0.04118176365208346
1763693807385927400,5.419927490234375,4.118821220716834,-8.898833144780992,-0.12838510023681446
1763693807395887400,5.429887451171875,4.436907803951204,-8.743955886802077,-0.1657748648945242
1763693807405847300,5.439847412109375,4.771844107438624,-8.565852651536463,-0.16143654342927038
1763693807415807200,5.44980712890625,5.103725991791486,-8.372961012461781,-0.12611183067574164
1763693807425767400,5.459767333984375,5.400871786066889,-8.18511847347021,-0.06932393535722513
1763693807435727400,5.469727294921875,5.643809020292759,-8.019829711592196,0.01113057199633331
1763693807445687300,5.479687255859375,5.8306093567550175,-7.884044107574224,0.12735396709078922
1763693807455647500,5.4896474609375,5.965875320813059,-7.778032879573106,0.284465779188741
1763693807465608400,5.4996083984375,6.0516299427270885,-7.701869677346944,0.47891445671338584
1763693807475568400,5.509568359375,6.08515987188518,-7.659303624296188,0.6901377616945654
1763693807485528600,5.519528564453125,6.067697280430793,-7.653096001827716,0.8851892091516405
1763693807495488500,5.529488525390625,6.00477817518115,-7.683086066421866,1.0407741770084946
1763693807505448400,5.539448486328125,5.900721588379144,-7.746913518688082,1.1563777745455504
1763693807515408400,5.549408447265625,5.754198317247629,-7.843966364207863,1.2376548126541078
1763693807525368600,5.55936865234375,5.558115773177146,-7.976442405286431,1.2861216141812502
1763693807535328500,5.56932861328125,5.312267619940638,-8.13914524232447,1.3055728952348231
1763693807545288400,5.579288330078125,5.02932336949706,-8.316012213793396,1.3115762273028493
1763693807555249400,5.58924951171875,4.730131456346809,-8.488055126106739,1.3225545713044702
1763693807565209300,5.599209228515625,4.436363029550016,-8.642094179695844,1.3428655379272996
1763693807575169300,5.609169189453125,4.1660511739254,-8.772440223008394,1.363340024548769
1763693807585129200,5.619129150390625,3.9365450836807487,-8.877057950824499,1.3681509319618343
1763693807595089400,5.62908935546875,3.7634304504826663,-8.955731090044974,1.3423336230076848
1763693807605049300,5.63904931640625,3.65803180142194,-9.00796279706359,1.2828874545656144
1763693807615009300,5.64900927734375,3.62583312086761,-9.033704556563496,1.1899187365543096
1763693807624969500,5.658969482421875,3.6592429307773706,-9.036037967947125,1.0631799970187246
1763693807634929400,5.668929443359375,3.737268127483129,-9.019868338912724,0.9193438460793346
1763693807644889300,5.678889404296875,3.833628606824577,-8.993178484907746,0.7722860296797007
1763693807654850600,5.6888505859375,3.9363159510999917,-8.9608304590106,0.6158933256365359
1763693807664810500,5.698810546875,4.050985994113981,-8.920961974480747,0.4199141688752919
1763693807674770400,5.7087705078125,4.155139319288731,-8.88104614367783,0.17949616919504477
1763693807684730400,5.71873046875,4.220519553954899,-8.851974947494268,-0.01192648645575391
1763693807694690600,5.728690673828125,4.303467301754654,-8.811829399588703,-0.047024014273728244
1763693807704650500,5.738650390625,4.459028158083558,-8.733851841416955,0.08534496340090408
1763693807714610400,5.7486103515625,4.608789388222992,-8.652588685703277,0.24928983638929203
1763693807724570400,5.7585703125,4.683267413841188,-8.609754921627044,0.3309176424305886
1763693807734530600,5.768530517578125,4.661892325118184,-8.622010592088102,0.3131527435613796
1763693807744490500,5.778490478515625,4.541580769085884,-8.68910143006444,0.20962690263520925
1763693807754451200,5.788451171875,4.328460288713872,-8.799424091523885,0.07041110040626954
1763693807764411400,5.798411376953125,4.055527144674956,-8.928708643084764,-0.035313743834942575
1763693807774371300,5.808371337890625,3.778423729214072,-9.04934460876584,-0.05722258780819829
1763693807784331300,5.818331298828125,3.5493852564811705,-9.141743490999936,0.027911575536371674
1763693807794291200,5.828291259765625,3.387083985981345,-9.200355838966368,0.2269769736258313
1763693807804251400,5.83825146484375,3.248210060559213,-9.239591870811582,0.49944480170793826
1763693807814211300,5.84821142578125,3.070888915582001,-9.28204335757196,0.7640057656556367
1763693807824171300,5.858171142578125,2.8401366246685384,-9.339326502761244,0.9386089569110423
1763693807834131500,5.86813134765625,2.5490280647307633,-9.417335040593146,0.9932955828011035
1763693807844091400,5.87809130859375,2.1893857745319605,-9.50862216219306,0.9813538005948066
1763693807854051300,5.88805126953125,1.788987549444288,-9.593689970886707,0.9649003131177276
1763693807864012500,5.898012451171875,1.4049340176969767,-9.656884970468282,0.9701097183290869
1763693807873972500,5.907972412109375,1.0825937956061213,-9.695070616477727,1.0019917341496796
1763693807883932400,5.917932373046875,0.8300154573317616,-9.7147047067523,1.0516599473558366
1763693807893892400,5.927892333984375,0.6151648652315139,-9.724363346457482,1.1084687530316413
1763693807903852500,5.9378525390625,0.4051307335022837,-9.729130706989764,1.162016364954412
1763693807913812500,5.9478125,0.19440991641683503,-9.729872465267777,1.2092188456341624
1763693807923772400,5.9577724609375,-0.0019706995680578983,-9.725348850363492,1.2601564211890102
1763693807933732400,5.967732421875,-0.166868578415364,-9.715634681078791,1.3225037179000676
1763693807943692500,5.977692626953125,-0.29839584913542494,-9.70211527429223,1.3965307848803699
1763693807953652500,5.987652587890625,-0.40413536578938364,-9.686053197285533,1.4789996631219982
1763693807963613200,5.99761328125,-0.4881219185849651,-9.668138770410417,1.5681917121388018
1763693807973573400,6.007573486328125,-0.5446199778111651,-9.64898223451972,1.664611082060635
1763693807983533300,6.017533203125,-0.5672417421270162,-9.628836687591672,1.7703487538173794
1763693807993493200,6.0274931640625,-0.557735224243626,-9.609296705341338,1.8763608586013316
1763693808003453200,6.037453125,-0.5171675419358537,-9.594584289377927,1.9613425964467226
1763693808013413400,6.047413330078125,-0.43548714719079434,-9.589005612462758,2.0079142318770287
1763693808023373300,6.057373291015625,-0.30415830338597294,-9.593228783115745,2.011923029126972
1763693808033333200,6.067333251953125,-0.12961271493616514,-9.603326983281969,1.982347682813555
1763693808043293400,6.07729345703125,0.07643800971270538,-9.612914895838498,1.938145699124038
1763693808053253400,6.08725341796875,0.3111043231315911,-9.617231005471945,1.8927447149083017
1763693808063214300,6.09721435546875,0.5816986124267801,-9.61460825575292,1.8415571101151407
1763693808073174500,6.107174560546875,0.9003707039315253,-9.603490064889192,1.7699436801478265
1763693808083134500,6.117134521484375,1.2718627872042356,-9.579853168714045,1.6670836096540091
1763693808093094400,6.127094482421875,1.6743104921676217,-9.540544071632624,1.5313674176104366
1763693808103054300,6.137054443359375,2.04365993738845,-9.493017181304097,1.3698429767020046
1763693808113014500,6.1470146484375,2.3702570132061838,-9.443548509258031,1.1711764074876905
1763693808122974500,6.156974365234375,2.6851687657967207,-9.385837494045495,0.930749694778025
1763693808132934400,6.166934326171875,2.9843554182499648,-9.317557738545537,0.6686641810331493
1763693808142894300,6.176894287109375,3.26053441234231,-9.240919904544949,0.380374916299805
1763693808152854500,6.1868544921875,3.5088863650932907,-9.157041013374924,0.08181588509245775
1763693808162814500,6.196814453125,3.7333699510008094,-9.066029201585053,-0.19863615580974145
1763693808172774400,6.2067744140625,3.9474686287552117,-8.966461158373951,-0.4364025815352797
1763693808182735400,6.2167353515625,4.16288861824125,-8.858244529283047,-0.6101145961046218
1763693808192695300,6.2266953125,4.386696496844292,-8.742899655747413,-0.6992779304835945
1763693808202655200,6.2366552734375,4.617738710615039,-8.623331027036905,-0.6964586352791636
1763693808212615200,6.246615234375,4.839292965072393,-8.507418582746386,-0.6127567446438595
1763693808222575400,6.256575439453125,5.035020704355835,-8.40062234184742,-0.4985118317067623
1763693808232535300,6.266535400390625,5.192117976471781,-8.310105035576225,-0.39299876248612997
1763693808242495200,6.2764951171875,5.303568765178323,-8.243461356845497,-0.29646396775739264
1763693808252455400,6.286455322265625,5.366356353002787,-8.205743912869691,-0.19589241005955263
1763693808262414800,6.296414794921875,5.376133650651574,-8.201247770494222,-0.08434781472287141
1763693808272374800,6.306374755859375,5.329431520709395,-8.232017002767323,0.03802234748980263
1763693808282335700,6.316335693359375,5.229599273604154,-8.294415883535146,0.15603161564581094
1763693808292296000,6.3262958984375,5.082670344281197,-8.382825403872133,0.255115017145127
1763693808302255900,6.336255859375,4.89828817487657,-8.489065764454006,0.3360424746310338
1763693808312215800,6.3462158203125,4.687937743739783,-8.60414994122684,0.40277313752546906
1763693808322176000,6.356176025390625,4.457766175323725,-8.72317379553616,0.45270953668113795
1763693808332136000,6.366135986328125,4.208755466403067,-8.844336999961733,0.4842163990464061
1763693808342096000,6.376095947265625,3.9448429564267395,-8.964173924219608,0.5021804372169077
1763693808352055800,6.386055908203125,3.6755230344489216,-9.077381201204657,0.5119128728106618
1763693808362016000,6.39601611328125,3.4199335316598414,-9.176022192698717,0.5244534611603244
1763693808371976000,6.405975830078125,3.2088197149351236,-9.250015065148473,0.5577404484080151
1763693808381935900,6.415935791015625,3.0805002090141174,-9.28985607714951,0.6160218473870307
1763693808391895800,6.425895751953125,3.0788705619856716,-9.285309665891528,0.6884645677853375
1763693808401857000,6.43585693359375,3.203970229077339,-9.237180718016624,0.7612165733285248
1763693808411817000,6.44581689453125,3.392696272905171,-9.168919082695245,0.7687143086727708
1763693808421777000,6.45577685546875,3.5366415102422235,-9.125814100462197,0.6181140704259276
1763693808431736800,6.46573681640625,3.559057632450759,-9.13293708420992,0.30485795782161873
1763693808441696800,6.47569677734375,3.4502474213808774,-9.179565564393997,-0.04180617459416389
1763693808451656700,6.48565673828125,3.3139351631402967,-9.224705851846933,-0.30499911985797806
1763693808461616600,6.49561669921875,3.254188842707872,-9.238433932948112,-0.4816423473073169
1763693808471576800,6.505576904296875,3.2709152288421985,-9.227003607395291,-0.5778460286518559
1763693808481536800,6.515536865234375,3.3318957672446965,-9.205023830777407,-0.579991698911041
1763693808491496700,6.52549658203125,3.4120351796254513,-9.177891493701935,-0.542878760167025
1763693808501457000,6.535456787109375,3.4555163016945123,-9.163238698971272,-0.5146497138960286
1763693808511417900,6.54541796875,3.406479591324925,-9.18146058436036,-0.516808645495586
1763693808521377800,6.555377685546875,3.2450346453934906,-9.23742972434163,-0.5567965916866436
1763693808531338000,6.565337890625,2.9924536767706273,-9.31964039003849,-0.5999358049828559
1763693808541298000,6.5752978515625,2.702496040433645,-9.407897934684156,-0.598644194269739
1763693808551257900,6.5852578125,2.440728579661995,-9.483715684473514,-0.5218644675804301
1763693808561217800,6.5952177734375,2.2437461641423404,-9.540055411332846,-0.3511712163103744
1763693808571178000,6.605177978515625,2.1051206605233252,-9.577556582209468,-0.09618567989696748
1763693808581138000,6.615137939453125,1.9641371956013143,-9.606022798237204,0.1919768988499418
1763693808591097900,6.625097900390625,1.75588928970173,-9.637650693166256,0.4504483502835035
1763693808601057800,6.635057861328125,1.4448017715744674,-9.679541623434424,0.6240276783838867
1763693808611018000,6.64501806640625,1.0402384626965968,-9.725233699551223,0.7128418339990079
1763693808620978000,6.65497802734375,0.6009222587369382,-9.758613406583667,0.7607426722064614
1763693808630939000,6.66493896484375,0.21125567288082092,-9.77150971303582,0.8020898509867489
1763693808640898800,6.67489892578125,-0.08014625311349519,-9.77007763440609,0.8423541299011558
1763693808650858800,6.684858642578125,-0.2882341552789323,-9.763521052369475,0.8723286315999924
1763693808660818700,6.694818603515625,-0.44862003887780005,-9.755863231092691,0.890089913740009
1763693808670778600,6.704778564453125,-0.5814748136082664,-9.747317521065472,0.9066714845761656
1763693808680738800,6.71473876953125,-0.6900825974412262,-9.737467158180475,0.9359072236716747
1763693808690698800,6.72469873046875,-0.7726950488720089,-9.726011698186397,0.9889435250714421
1763693808700658700,6.73465869140625,-0.823128839623183,-9.713187872448563,1.070905549769476
1763693808710619000,6.744618896484375,-0.832060334097594,-9.699838561531902,1.179481879018247
1763693808720578800,6.754578857421875,-0.7946964527998119,-9.687160866266488,1.3029691424772143
1763693808730538800,6.764538818359375,-0.7196439882945269,-9.67611807872653,1.423104903551191
1763693808740498700,6.774498779296875,-0.6265637727327644,-9.667879242691397,1.5198387462496756
1763693808750460000,6.7844599609375,-0.5244275230014697,-9.665485041031241,1.5728228790707885
1763693808760419800,6.794419921875,-0.40053332270942626,-9.671517891454696,1.572163538379222
1763693808770379800,6.8043798828125,-0.23799681868162004,-9.684151163056493,1.5267412191145122
1763693808780340000,6.814340087890625,-0.03610176382391946,-9.698063368552923,1.4548634391225874
1763693808790300000,6.8242998046875,0.19625240247836334,-9.707727853477001,1.375459647540003
1763693808800259800,6.834259765625,0.4566766867464408,-9.709802906185388,1.2967517292670905
1763693808810219800,6.8442197265625,0.7496995193403214,-9.701990186607837,1.2164411981031298
1763693808820180000,6.854179931640625,1.0811264995325356,-9.681387543562055,1.1279620465960354
1763693808830140000,6.864139892578125,1.450485808560252,-9.644854340934753,1.0214033407799898
1763693808840099800,6.874099853515625,1.8464456128090618,-9.589669044807552,0.8940280569065362
1763693808850059800,6.884059814453125,2.240147555128485,-9.517614446943998,0.7530801747545599
1763693808860020000,6.89402001953125,2.58971867929846,-9.43965325538516,0.5972269478829577
1763693808869980000,6.90397998046875,2.892620260621607,-9.361355379217862,0.41006782457828517
1763693808879940900,6.91394091796875,3.160075557771325,-9.281451236897706,0.19740995674934236
1763693808889900800,6.92390087890625,3.404607659973204,-9.196665167754889,-0.019274782842351124
1763693808899860700,6.93386083984375,3.638749885585904,-9.103936030653118,-0.21962805390143766
1763693808909820700,6.943820556640625,3.872170518925786,-9.00193696090281,-0.37656361438333985
1763693808919780900,6.95378076171875,4.109210219545663,-8.891350095549225,-0.4781977232787758
1763693808929740800,6.96374072265625,4.346394589333236,-8.775255280429125,-0.5235762399343773
1763693808939700700,6.97370068359375,4.574330653782189,-8.65894126960039,-0.5182837960820644
1763693808949660700,6.98366064453125,4.781554185070097,-8.548857093071938,-0.47344676589202134
1763693808959620900,6.993620849609375,4.957788996115327,-8.451054305967688,-0.4127891027683392
1763693808969580800,7.003580810546875,5.096522344022989,-8.37048147060573,-0.3617902985455468
1763693808979540700,7.013540771484375,5.195404743057489,-8.311413195565342,-0.3139722432507202
1763693808989500700,7.023500732421875,5.2573552955359215,-8.274401269510388,-0.2547387311786413
1763693808999460900,7.0334609375,5.284411060243845,-8.259128297054767,-0.17940394260063766
1763693809009421800,7.043421875,5.274731377750635,-8.266767998152972,-0.09023895512069575
1763693809019381800,7.0533818359375,5.224934788924456,-8.298816748842597,0.00892920890249079
1763693809029342000,7.063342041015625,5.131434082928299,-8.356281680339574,0.1064120730201248
1763693809039302000,7.073302001953125,4.993953949952125,-8.437595104935765,0.19443103227009995
1763693809049261800,7.08326171875,4.817975159494579,-8.537099435260892,0.2746383405216038
1763693809059222000,7.093221923828125,4.613675991220772,-8.646280525469779,0.3552762770090252
1763693809069182000,7.103181884765625,4.389596602199972,-8.758556074562668,0.43535533750467
1763693809079142000,7.113141845703125,4.154050647269189,-8.868816192179917,0.5082839417237788
1763693809089101800,7.123101806640625,3.9153666865736243,-8.97314107452929,0.5683559869792312
1763693809099062000,7.13306201171875,3.682233930264413,-9.068446199598908,0.6122271312791854
1763693809109022000,7.14302197265625,3.468168862518668,-9.150452867156266,0.6414092404913156
1763693809118982000,7.15298193359375,3.291869754065573,-9.213960001426935,0.6609860476206988
1763693809128941800,7.16294189453125,3.1738810880228874,-9.254530496746302,0.6711933341845869
1763693809138902800,7.17290283203125,3.1369030642375346,-9.267275412029027,0.6692056674987077
1763693809148862700,7.18286279296875,3.1942379396140574,-9.248932530608773,0.6515162084858864
1763693809158822700,7.19282275390625,3.323044936791062,-9.207707370772956,0.5881222887987271
1763693809168782800,7.202782958984375,3.432008584856987,-9.177066733315586,0.41612800140008327
1763693809178742800,7.21274267578125,3.44190570949316,-9.182012957546114,0.11969649287387728
1763693809188702700,7.22270263671875,3.324666108252108,-9.223345084887743,-0.21657208213061094
1763693809198662700,7.23266259765625,3.166478118290007,-9.268756005975604,-0.48368835658431053
1763693809208622800,7.242622802734375,3.0834692879527807,-9.285311419457196,-0.6675280896753072
1763693809218582800,7.252582763671875,3.089743545916676,-9.276714856025576,-0.7526132878951728
1763693809228542700,7.262542724609375,3.1646675617367026,-9.254988177385925,-0.707430841800943
1763693809238503000,7.2725029296875,3.2785268728896972,-9.222687497761845,-0.6030680020613596
1763693809248462800,7.282462890625,3.3776705532088873,-9.192219878783822,-0.5146147156478836
1763693809258422300,7.29242236328125,3.394629579055309,-9.18798852482438,-0.4772141556015238
1763693809268383200,7.30238330078125,3.29355376162976,-9.223113614219427,-0.5070242970515042
1763693809278343400,7.312343505859375,3.075518621209264,-9.294348127871752,-0.5715475860947743
1763693809288303400,7.322303466796875,2.7750793383464214,-9.386067795670032,-0.6091510848347097
1763693809298263300,7.33226318359375,2.458010407721996,-9.476266537511348,-0.573543399554491
1763693809308223200,7.34222314453125,2.1810396787300705,-9.550627658751607,-0.4460364521253854
1763693809318183400,7.352183349609375,1.9692634525738655,-9.604105566439031,-0.23136185591286046
1763693809328143400,7.362143310546875,1.7913481410957872,-9.641568158870935,0.04034902088867966
1763693809338103300,7.372103271484375,1.5782546948611735,-9.673454996997117,0.32212723692730066
1763693809348063500,7.3820634765625,1.2794094031915069,-9.706959791713953,0.5553828158985823
1763693809358023400,7.3920234375,0.8834326478078961,-9.741315650302171,0.7047844920106232
1763693809367983400,7.4019833984375,0.43158181031532583,-9.765985981178282,0.7807964491978288
1763693809377943300,7.411943359375,0.0077166062550706556,-9.772530288255215,0.8173034214053303
1763693809387903500,7.421903564453125,-0.3093424645582214,-9.764861361062525,0.8498069301251322
1763693809397863400,7.431863525390625,-0.5158532809995114,-9.75390566728413,0.8749949281997979
1763693809407824400,7.441824462890625,-0.6570579143915325,-9.745075879618526,0.8787303153358399
1763693809417784600,7.45178466796875,-0.7659899252101778,-9.737708565720915,0.8721785556048154
1763693809427744500,7.46174462890625,-0.8516896020665764,-9.729974172076583,0.8789809290960431
1763693809437704400,7.471704345703125,-0.9151471981070936,-9.720619483754039,0.9178544843044132
1763693809447664400,7.481664306640625,-0.951979237550497,-9.709341133892536,0.9963915029898285
1763693809457624300,7.491624267578125,-0.9506685933433473,-9.697054483771323,1.1107375747464596
1763693809467584300,7.501584228515625,-0.9040537763584404,-9.684992874577642,1.246589521998912
1763693809477544200,7.511544189453125,-0.8221033690329641,-9.673605219122766,1.384162447825074
1763693809487504400,7.52150439453125,-0.7237043696012347,-9.664152331122756,1.5002728989057241
1763693809497464300,7.53146435546875,-0.6214802589233964,-9.660476857480406,1.5682231301903724
1763693809507424300,7.54142431640625,-0.5034671160265803,-9.666625443238019,1.572663304594904
1763693809517384200,7.55138427734375,-0.3428674983454868,-9.681333767548203,1.5246613441005348
1763693809527344400,7.561344482421875,-0.13840542199439368,-9.697930682083964,1.4496099025085567
1763693809537304300,7.57130419921875,0.09739511961881071,-9.709898767775297,1.3706864417888223
1763693809547264300,7.58126416015625,0.35638281347882,-9.713934306901693,1.297246088655293
1763693809557225500,7.5912255859375,0.6337475467570126,-9.709039520597457,1.2260837634563446
1763693809567185400,7.601185302734375,0.9354239701993763,-9.693764210054278,1.1516581986777483
1763693809577145300,7.611145263671875,1.2720530490793287,-9.665067692402005,1.0671174825981258
1763693809587105300,7.621105224609375,1.6442374254651366,-9.619914545467495,0.9613150019768625
1763693809597065500,7.6310654296875,2.03647908597365,-9.557397591277956,0.8241778372194617
1763693809607025400,7.641025390625,2.4194838393203915,-9.480928099581599,0.6545684356633573
1763693809616985300,7.6509853515625,2.7569331485420463,-9.400120870941876,0.45545583971459414
1763693809626945300,7.6609453125,3.04660846080631,-9.318580067330599,0.22937968738600611
1763693809636905500,7.670905517578125,3.301275003531575,-9.234276228746772,-0.009870079082332086
1763693809646865400,7.680865478515625,3.5296672873154282,-9.146182934752106,-0.2432392128471285
1763693809656825300,7.690825439453125,3.745116502895951,-9.052467124700545,-0.4442103326767683
1763693809666785500,7.70078564453125,3.965476579132676,-8.949788255992532,-0.5887802777834237
1763693809676745500,7.710745361328125,4.19667369120419,-8.83789323064983,-0.6707930828206241
1763693809686705400,7.720705322265625,4.430283417375385,-8.721285205310583,-0.6943755453947931
1763693809696665300,7.730665283203125,4.655945983934402,-8.604537479239701,-0.6741589790571481
1763693809706626300,7.740626220703125,4.860225278463959,-8.494999246156215,-0.6193325793702155
1763693809716586200,7.750586181640625,5.032769710558653,-8.39983966703713,-0.5332052151536568
1763693809726546200,7.760546142578125,5.1677188637524845,-8.323977493584156,-0.4200787117872387
1763693809736506400,7.77050634765625,5.262720037439466,-8.269916233050823,-0.28748492608051746
1763693809746466300,7.78046630859375,5.3180684151738875,-8.238111227989195,-0.1484724963699933
1763693809756426200,7.79042626953125,5.335543866109847,-8.228141038116812,-0.006567452773789409
1763693809766386200,7.80038623046875,5.314447302067279,-8.240614735242724,0.13890179067659192
1763693809776346400,7.810346435546875,5.2497109182626005,-8.278487662041186,0.27848515214286745
1763693809786306300,7.820306396484375,5.136866629371046,-8.344213056883216,0.3963473787942901
1763693809796266200,7.830266357421875,4.978935244518518,-8.43469236923158,0.48637266376484184
1763693809806226200,7.84022607421875,4.783316226306558,-8.543171448650956,0.5518076973581686
1763693809816186400,7.850186279296875,4.558827087441086,-8.661370542573929,0.6067516224775463
1763693809826146300,7.860146240234375,4.313072457706928,-8.781981958335637,0.6667729604590684
1763693809836106200,7.870106201171875,4.053317944192886,-8.899207823312283,0.7383083567541092
1763693809846066400,7.88006640625,3.788754276831448,-9.008018911165,0.8193412108432501
1763693809856027400,7.89002734375,3.532533782662451,-9.103582394909859,0.9035404200088232
1763693809865987300,7.8999873046875,3.3033754829421635,-9.180296216756105,0.9900753055803477
1763693809875947500,7.909947509765625,3.1240655022352932,-9.23308380409181,1.077384682655707
1763693809885907500,7.919907470703125,3.022525282168388,-9.257762318274379,1.1526353000815956
1763693809895867400,7.929867431640625,3.0224823198094963,-9.252996711307764,1.1904009671133011
1763693809905827300,7.939827392578125,3.11608005643934,-9.225456377953291,1.1624993992310018
1763693809915787500,7.94978759765625,3.2603181392431257,-9.188333977261186,1.05604532283321
1763693809925747500,7.95974755859375,3.4005200983986255,-9.15654475429058,0.8743767232362181
1763693809935707400,7.969707275390625,3.5027950624808666,-9.138384828221797,0.6250781372848898
1763693809945667300,7.979667236328125,3.5425144939288495,-9.139579590964317,0.2984080510298721
1763693809955627500,7.98962744140625,3.4948005565956235,-9.162571174973248,-0.06368474216016475
1763693809965587500,7.99958740234375,3.4007790415957566,-9.19104966596067,-0.3601589344840497
1763693809975547400,8.00954736328125,3.359447206515074,-9.197198251718282,-0.5440960635349155
1763693809985507300,8.01950732421875,3.389605613413453,-9.18416516714394,-0.5762529873067512
1763693809995467500,8.029467529296875,3.4499054760754104,-9.16862857531607,-0.4525221974154934
1763693810005427500,8.039427490234376,3.5012139307692647,-9.155749219998716,-0.29008856924027204
1763693810015387400,8.049387451171874,3.5029128436416386,-9.157846484538911,-0.18393795103477312
1763693810025348400,8.059348388671875,3.4205221452027557,-9.18951646504402,-0.1523315281520132
1763693810035308300,8.069308349609376,3.250785756266117,-9.25072701281011,-0.16378964589405803
1763693810045268200,8.079268310546874,3.010972207018733,-9.331452992907167,-0.1685820860686712
1763693810055228400,8.089228515625,2.744199339175224,-9.414110233327746,-0.11951241414439864
1763693810065188400,8.099188232421875,2.478524203440547,-9.488267940950394,0.007448124619681039
1763693810075148300,8.109148193359376,2.2163355946473775,-9.5504523021847,0.21697563969651235
1763693810085108200,8.119108154296875,1.958591251911968,-9.5972666603297,0.4761933977190405
1763693810095068400,8.129068359375,1.6926562961973248,-9.632265492996574,0.724418070828542
1763693810105028400,8.1390283203125,1.3964619574278592,-9.663687636220455,0.9129301065795123
1763693810114988300,8.14898828125,1.03813447615467,-9.697128133529423,1.0287773766793311
1763693810124948200,8.1589482421875,0.619673428697139,-9.726943426078558,1.0830425622869282
1763693810134908400,8.168908447265625,0.20255636146077885,-9.742331549346446,1.1028671336323022
1763693810144868400,8.178868408203124,-0.14029481593756934,-9.741983174300193,1.1155487013552337
1763693810154828300,8.188828369140625,-0.38755068968068807,-9.733498254549502,1.1310147852301597
1763693810164788500,8.19878857421875,-0.5638656532900408,-9.72279916588068,1.1487355892293154
1763693810174748400,8.20874853515625,-0.700182989564538,-9.711115157827734,1.1723254313923417
1763693810184708400,8.218708251953124,-0.8091573782201856,-9.697690443587303,1.212614114095643
1763693810194668300,8.228668212890625,-0.8825557188428937,-9.682554249253869,1.2804818547286092
1763693810204629500,8.23862939453125,-0.9231411194704473,-9.664904026272893,1.3812412996813654
1763693810214589400,8.24858935546875,-0.9426018259394914,-9.644269819045066,1.5066381961539388
1763693810224549400,8.25854931640625,-0.9418202471077441,-9.622935354593396,1.6378240512914954
1763693810234509600,8.268509521484376,-0.9131044402331113,-9.60433469901979,1.7588079536274075
1763693810244469500,8.278469482421874,-0.8546380035433918,-9.589752631437777,1.864571344347298
1763693810254429400,8.288429443359375,-0.7799881284896284,-9.579801146265863,1.946640117355436
1763693810264390100,8.29839013671875,-0.6991909828525036,-9.577319850844145,1.989089266028255
1763693810274350000,8.30835009765625,-0.5957917639806867,-9.586059037616849,1.980630795893073
1763693810284310300,8.318310302734375,-0.44885954672209916,-9.605819384619593,1.9227999536931513
1763693810294270200,8.328270263671875,-0.2597316440951079,-9.630041387206315,1.8344548768945037
1763693810304230100,8.338230224609376,-0.044420485278405246,-9.650309099209307,1.7435481329143045
1763693810314190000,8.348190185546875,0.19359333933694287,-9.662381229797004,1.6647244793072342
1763693810324150300,8.358150390625,0.4622130954224616,-9.6654306804955,1.5925487392820417
1763693810334110200,8.368110107421876,0.7724177663005888,-9.658428692778944,1.5127828363887965
1763693810344070100,8.378070068359374,1.1281592496685684,-9.638546765223145,1.4128219944678246
1763693810354030000,8.388030029296875,1.5161432527326046,-9.603620413270592,1.2814755419410764
1763693810363990300,8.397990234375,1.9124021860584615,-9.553208907416462,1.1177262645900248
1763693810373950200,8.4079501953125,2.2716472936332224,-9.494826861074566,0.9264292742956429
1763693810383911200,8.4179111328125,2.575093357096612,-9.436292254519461,0.7040363039918244
1763693810393871400,8.427871337890625,2.8400661897808313,-9.375364615347982,0.4549173123911023
1763693810403831300,8.437831298828126,3.084615243117511,-9.306887875971197,0.19332639549644662
1763693810413791200,8.447791259765625,3.3201945157960053,-9.227240923282503,-0.06872530274379532
1763693810423751400,8.45775146484375,3.5528654998123645,-9.13554405183792,-0.29892856777263804
1763693810433711400,8.46771142578125,3.78487071339637,-9.034453913626074,-0.47305455170404165
1763693810443671300,8.47767138671875,4.023309467159211,-8.924385519188641,-0.5819963532643392
1763693810453631200,8.48763134765625,4.27182362473458,-8.806196946659684,-0.6105819578880444
1763693810463591400,8.49759130859375,4.5176156638696785,-8.686407953196763,-0.5548460056081413
1763693810473551400,8.50755126953125,4.743965920431911,-8.571851599690318,-0.4342011625008657
1763693810483511300,8.51751123046875,4.940636201262474,-8.466107498192788,-0.2924269855925813
1763693810493471200,8.52747119140625,5.0985167327106,-8.375435878142714,-0.16607487075440586
1763693810503431400,8.537431396484376,5.212431865704059,-8.30649502838552,-0.05546366097743157
1763693810513391400,8.547391357421875,5.278233832913637,-8.264897528105974,0.04578491006598342
1763693810523351300,8.557351318359375,5.2910845466583964,-8.255651560854911,0.13795015250756404
1763693810533311200,8.567311279296876,5.244738975068927,-8.283404660177231,0.21975756203262134
1763693810543271400,8.577271484375,5.137965530523657,-8.34802881577909,0.2865263284477405
1763693810553231400,8.5872314453125,4.9784471687406295,-8.442481123411655,0.33160609961878507
1763693810563191300,8.59719140625,4.782376899629831,-8.55399854761362,0.35826197828892614
1763693810573152300,8.60715234375,4.566604151183366,-8.67035581306219,0.3760764519209042
1763693810583112200,8.6171123046875,4.339549838005006,-8.78553994307816,0.3911057518137619
1763693810593072000,8.627072021484375,4.101652351512015,-8.89839007718861,0.40679121406041086
1763693810603032300,8.6370322265625,3.8508106277719136,-9.009132425364852,0.4209333923878148
1763693810612992300,8.6469921875,3.586244037801027,-9.117351977065205,0.42796548298168924
1763693810622952200,8.6569521484375,3.3173537394121286,-9.218606950449942,0.42759014686327423
1763693810632912100,8.666912109375,3.071325845694542,-9.303362039932608,0.42987617544122037
1763693810642872300,8.676872314453124,2.882493126621842,-9.36283188151121,0.4460800355387851
1763693810652832300,8.686832275390625,2.7890216467201707,-9.38985666655898,0.47152200837451963
1763693810662792200,8.696792236328125,2.8345363204434513,-9.374849651563167,0.49798521401677276
1763693810672752000,8.706752197265626,3.0038205816984176,-9.321416752061248,0.5085558174677193
1763693810682712300,8.71671240234375,3.193967890501022,-9.261436622872948,0.4412860061952844
1763693810692672300,8.72667236328125,3.3015707716077562,-9.231059020265937,0.23989943743254988
1763693810702632200,8.736632080078126,3.2725568585693834,-9.244129514241218,-0.08273069838243537
1763693810712592100,8.746592041015624,3.1218805594116446,-9.287734847211837,-0.4028033865332603
1763693810722552300,8.75655224609375,2.983745177397132,-9.321220937228203,-0.6184619340155273
1763693810732512300,8.76651220703125,2.960545795856416,-9.319526992791891,-0.7429481453839689
1763693810742472200,8.77647216796875,3.0447604948520657,-9.292030498579145,-0.7469849266193807
1763693810752432400,8.786432373046875,3.216364723487198,-9.24373262387812,-0.6154569069806486
1763693810762392300,8.796392333984375,3.3862717928156254,-9.191988408115506,-0.45923006102368236
1763693810772353300,8.806353271484374,3.469448673196137,-9.166123314496874,-0.33986521125696595
1763693810782313500,8.8163134765625,3.4283915634036064,-9.18351459428072,-0.2820763085026294
1763693810792273400,8.8262734375,3.2530811737269163,-9.247286516967415,-0.27481545065417884
1763693810802233300,8.8362333984375,2.947475301881134,-9.34905236248374,-0.2792801019128412
1763693810812193300,8.846193359375,2.5674080632910132,-9.461293424785136,-0.25045928202746437
1763693810822153200,8.8561533203125,2.1938084132798017,-9.556804301559925,-0.1584112225250341
1763693810832113200,8.866113037109375,1.8730014651708304,-9.626108139410615,0.01761288664527237
1763693810842073000,8.876072998046874,1.6103165972933173,-9.669932668089865,0.2639417360708117
1763693810852033000,8.886032958984375,1.3593008321605622,-9.697778121870755,0.525170340725407
1763693810861993200,8.8959931640625,1.061220241253078,-9.72141677161157,0.7336684950590133
1763693810871953200,8.905953125,0.7001421460974961,-9.744166948080062,0.8552310010004788
1763693810881913000,8.9159130859375,0.3160615802127868,-9.759286191278695,0.9092815940093248
1763693810891873300,8.925873291015625,-0.026168645425757857,-9.76209423443675,0.9333934142198413
1763693810901833200,8.935833251953126,-0.2848547602400184,-9.756763979324697,0.9459422224085777
1763693810911793200,8.945793212890624,-0.46283499018047003,-9.7494866817981,0.9506256309844553
1763693810921753000,8.955753173828125,-0.5893713390117511,-9.74230758394897,0.9541836157269775
1763693810931713300,8.96571337890625,-0.6837687381193042,-9.73447265253961,0.9710214263465254
1763693810941673200,8.975673095703126,-0.7539106342293321,-9.724841485363244,1.0146111964218318
1763693810951633200,8.985633056640625,-0.8036127497050911,-9.711773913997412,1.0981938080590217
1763693810961593000,8.995593017578125,-0.8292723108142613,-9.694565589565038,1.2239574920173735
1763693810971553300,9.00555322265625,-0.8218447911620139,-9.674752051070332,1.3762684797048568
1763693810981513200,9.01551318359375,-0.7797312311191111,-9.655577979522944,1.527161198092252
1763693810991474200,9.02547412109375,-0.7144896742712706,-9.639840896686911,1.65329035436213
1763693811001434400,9.035434326171876,-0.64255512259081,-9.630587330651283,1.7347281359903512
1763693811011394300,9.045394287109374,-0.5586221266133711,-9.632045128244162,1.7555726249679922
1763693811021354200,9.055354248046875,-0.43625140956155956,-9.646119830825924,1.7124322791606186
1763693811031314200,9.065314208984375,-0.26372412953106683,-9.668674776983261,1.617891124200821
1763693811041274400,9.0752744140625,-0.05428023704625666,-9.691686234736443,1.4962129559904336
1763693811051234300,9.085234375,0.18086323803085833,-9.708816817757487,1.3698733718402683
1763693811061194200,9.0951943359375,0.4429090042872354,-9.716559394708275,1.2500821864202618
1763693811071154400,9.105154541015626,0.7380094468727707,-9.712023504844307,1.1412062897030264
1763693811081114400,9.1151142578125,1.0738779897090047,-9.691705523958802,1.0430908564530312
1763693811091074300,9.12507421875,1.4520387370906769,-9.652027009043097,0.9488706770759076
1763693811101034200,9.1350341796875,1.8552248393312096,-9.592567104336618,0.8433139879092574
1763693811110994400,9.144994384765624,2.2569418919324873,-9.51660263955295,0.7147512478169054
1763693811120954400,9.154954345703125,2.625309048117697,-9.432024075680971,0.5613061780655756
1763693811130914300,9.164914306640625,2.9450431062981486,-9.346002911785245,0.38644141326453535
1763693811140874200,9.174874267578126,3.225328074404597,-9.259038329559564,0.1945186192220077
1763693811150834400,9.18483447265625,3.478129700040817,-9.169130095097422,0.007070688446547137
1763693811160794400,9.19479443359375,3.7133199734017253,-9.07500687328875,-0.1609417456496507
1763693811170754300,9.20475439453125,3.9414930614769457,-8.974678367099166,-0.3002690591287799
1763693811180714200,9.21471435546875,4.170177021683752,-8.86655643055439,-0.4052005838681012
1763693811190674400,9.22467431640625,4.394480574849248,-8.754117799854278,-0.47365960492510345
1763693811200634400,9.23463427734375,4.605003439943492,-8.643516321453452,-0.5039399577027186
1763693811210594300,9.24459423828125,4.793549743290245,-8.540745682808756,-0.49791284290030596
1763693811220554200,9.25455419921875,4.954784553602337,-8.449976447603106,-0.4673131585078314
1763693811230514200,9.26451416015625,5.086700038188695,-8.373992109075187,-0.4148710236089304
1763693811240475100,9.27447509765625,5.1829439054131505,-8.317988482302427,-0.3443021707911044
1763693811250435300,9.284435302734375,5.2388715443402525,-8.285779572615027,-0.2654701146818697
1763693811260394800,9.294394775390625,5.251368037819862,-8.280089836540817,-0.18338400694644078
1763693811270354700,9.304354736328126,5.214781643700599,-8.304619882163404,-0.09866448196750134
1763693811280314600,9.314314697265624,5.123939343258738,-8.361543546390532,-0.015048807169281643
1763693811290274800,9.32427490234375,4.980936062946915,-8.4473016754359,0.061293211947707454
1763693811300234800,9.33423486328125,4.794838906317949,-8.553549050280452,0.12921974269635975
1763693811310194700,9.344194580078126,4.579822236935794,-8.669390182900429,0.19309134463155642
1763693811320154600,9.354154541015625,4.34919532596767,-8.78554169664383,0.26294494358580556
1763693811330114800,9.36411474609375,4.109922459468245,-8.897316310477256,0.3416057713139802
1763693811340074800,9.37407470703125,3.8646997446537017,-9.002921295765042,0.4265022785613313
1763693811350034700,9.38403466796875,3.618050504167378,-9.100307318761944,0.5143133580811321
1763693811359995000,9.393994873046875,3.3783597045168277,-9.186991330480575,0.5968729468135163
1763693811369954800,9.403954833984375,3.163811237168312,-9.25788915952444,0.6724320091340691
1763693811379914800,9.413914794921874,2.9991227792710062,-9.306914179456234,0.7463206905569881
1763693811389874700,9.423874755859375,2.908779076001048,-9.330181073275208,0.8106143720954656
1763693811399835000,9.4338349609375,2.9152199227035043,-9.324972398716211,0.8466121526718139
1763693811409794800,9.443794921875,3.007454262025654,-9.296712518915534,0.8346990120381116
1763693811419754800,9.453754638671874,3.127758511534333,-9.26465909205079,0.7440392285563051
1763693811429714700,9.463714599609375,3.2207465918332336,-9.246483383890986,0.5474707641324028
1763693811439675000,9.4736748046875,3.236921189303696,-9.253931361809371,0.23976138066872954
1763693811449634800,9.483634765625,3.16209858803153,-9.282192995175718,-0.11150396193219349
1763693811459594800,9.4935947265625,3.0831089302077888,-9.301028628548979,-0.39459538402780886
1763693811469555000,9.503554931640625,3.0971862631380556,-9.28672362434268,-0.5784250341162085
1763693811479515000,9.513514892578126,3.1725700054243204,-9.257060307484865,-0.6418945397902279
1763693811489475800,9.523475830078125,3.253273189167678,-9.233560189431905,-0.572679731929861
1763693811499435800,9.533435791015625,3.318166224838793,-9.21691534410119,-0.456754391625151
1763693811509395700,9.543395751953126,3.318469883960485,-9.220775526660681,-0.36800873466897754
1763693811519355600,9.553355712890625,3.214294931475818,-9.259013779640197,-0.33068723120819776
1763693811529315600,9.563315673828125,3.005897095711529,-9.328892202508449,-0.32671562416348604
1763693811539275800,9.57327587890625,2.7277178677126765,-9.414640394681692,-0.3073969199810177
1763693811549235700,9.583235595703124,2.4463147092312574,-9.49364671137929,-0.23792236520592122
1763693811559195600,9.593195556640625,2.193258962703496,-9.557646597602963,-0.1067964235620573
1763693811569155600,9.603155517578125,1.9648820226192474,-9.607412791290878,0.08523476275838911
1763693811579115800,9.61311572265625,1.7403519672214984,-9.645818802052736,0.31583336094748227
1763693811589075700,9.62307568359375,1.4916804271273314,-9.6775706156224,0.5384400105345994
1763693811599035600,9.63303564453125,1.1966058131027966,-9.707748896265029,0.7057926461398601
1763693811608995600,9.64299560546875,0.8360799450024962,-9.737348500236868,0.8095759689584374
1763693811618955800,9.652955810546874,0.4237215983342379,-9.758504685512184,0.8731799146670848
1763693811628915700,9.662915771484375,0.015383322653541108,-9.763580089080333,0.917970877225697
1763693811638875600,9.672875732421875,-0.32365872081089764,-9.7548765581429,0.9528916762202978
1763693811648835800,9.6828359375,-0.5748300418315455,-9.74021791819334,0.9839148101892322
1763693811658795800,9.692795654296875,-0.7598956999883055,-9.724344057235122,1.0149208468928932
1763693811668755700,9.702755615234375,-0.902745324108377,-9.70783891263604,1.0551225819651038
1763693811678715600,9.712715576171876,-1.0127201219782234,-9.69019687296152,1.1157319489676505
1763693811688675800,9.72267578125,-1.0904274118412285,-9.670831078234315,1.2067970253147184
1763693811698635800,9.7326357421875,-1.136935042124614,-9.649441668725013,1.3289124158985912
1763693811708595700,9.742595703125,-1.1580351863637566,-9.626219783091544,1.4714770125322043
1763693811718555600,9.7525556640625,-1.1533258396290242,-9.602997897458076,1.6194652416497468
1763693811728515800,9.762515869140625,-1.1186207292117178,-9.582883330190182,1.7571055336236954
1763693811738475800,9.772475830078125,-1.0557779040686786,-9.568130582216382,1.8725969760231673
1763693811748435700,9.782435791015626,-0.9748977563232183,-9.560730535092949,1.9525334131777285
1763693811758395600,9.792395751953125,-0.8836706943474709,-9.563220598343014,1.9835108813740312
1763693811768355800,9.80235595703125,-0.7711180088136345,-9.57764426049292,1.960732063332945
1763693811778315800,9.812315673828126,-0.6171564774401486,-9.602298809278011,1.8935015246249733
1763693811788275700,9.822275634765624,-0.4170855578532442,-9.630651628059148,1.8019426003463566
1763693811798237000,9.83223681640625,-0.18244482640018686,-9.655579733088612,1.7049565364524721
1763693811808196900,9.84219677734375,0.07486262732187751,-9.673795773258805,1.6069998739607632
1763693811818156800,9.85215673828125,0.3565839620741084,-9.684190910544991,1.5032145053155719
1763693811828117000,9.862116943359375,0.6727338416248559,-9.685040805372596,1.384849699436873
1763693811838077000,9.872076904296875,1.0265675186101346,-9.672792733696102,1.246447044788301
1763693811848036900,9.882036865234374,1.4089822701744734,-9.643507017979026,1.0899187316667287
1763693811857996800,9.891996826171875,1.7858856379061936,-9.598419922018051,0.9226785434599966
1763693811867957000,9.90195703125,2.1210867298096416,-9.545333059474824,0.7470043619722128
1763693811877917000,9.9119169921875,2.4177570155277848,-9.487520337453484,0.5583767004849389
1763693811887876900,9.921876953125,2.686902749982476,-9.424542195492982,0.3590759615529328
1763693811897836800,9.9318369140625,2.9420573684856293,-9.353767116045951,0.14737898377855307
1763693811907796700,9.941796630859375,3.1888758280590173,-9.273498816588521,-0.06065579082700424
1763693811917756700,9.951756591796874,3.4291768685624002,-9.184491914880276,-0.23716372885834425
1763693811927716600,9.961716552734375,3.6689474554508923,-9.087377694562077,-0.35885450082197784
1763693811937676500,9.971676513671875,3.9132551012471315,-8.982662351590394,-0.4106246547434479
1763693811947636700,9.98163671875,4.157727582216262,-8.873112428069113,-0.38931985477767883
1763693811957596700,9.9915966796875,4.389974787862599,-8.763491777399182,-0.3158112952461466
1763693811967556600,10.001556640625,4.593701124684513,-8.661126212424039,-0.2306184354007244
1763693811977516800,10.011516845703126,4.7628442239031195,-8.570837454211711,-0.1625740047602914
1763693811987476700,10.021476806640624,4.896221305474639,-8.496224404036997,-0.10755574489622376
1763693811997436700,10.031436767578125,4.992114459565282,-8.440781333756446,-0.04884742117545102
1763693812007396600,10.041396728515625,5.046871885669231,-8.408271979817748,0.020991041858459358
1763693812017356800,10.051356689453126,5.051773101714253,-8.40476251039207,0.09969993509561755
1763693812027316700,10.061316650390625,4.998594469234347,-8.435223115107416,0.17736713954340666
1763693812037276700,10.071276611328125,4.887712712587416,-8.498575935599208,0.23423096334207802
1763693812047236600,10.081236572265626,4.731626371079683,-8.585490248942374,0.2673230125395581
1763693812057196800,10.09119677734375,4.543661959274113,-8.685777254077792,0.2877663551040925
1763693812067156700,10.10115673828125,4.329299954408407,-8.79391380366981,0.30762890210598703
1763693812077116700,10.11111669921875,4.090630899021029,-8.90639159733653,0.3366021178077906
1763693812087076600,10.12107666015625,3.832917535945773,-9.018770022282004,0.37536994761936365
1763693812097036800,10.131036865234375,3.5644407867938277,-9.126527217167615,0.41429439276475455
1763693812106996700,10.140996826171875,3.296077434888482,-9.225561007371544,0.44189730649404224
1763693812116956700,10.150956787109376,3.0436592556118964,-9.31122619743645,0.45562852940037846
1763693812126916900,10.160916748046875,2.832887968714535,-9.376623090976477,0.47338875209446996
1763693812136876800,10.170876708984375,2.6943895986065267,-9.415437098017334,0.5100886530581862
1763693812146836700,10.180836669921876,2.670830443842709,-9.419055873036385,0.5642867282463238
1763693812156796700,10.190796630859374,2.7907608916029334,-9.379740346214176,0.6344424702186137
1763693812166756900,10.2007568359375,3.0079087277948853,-9.308575975188612,0.6879711582452058
1763693812176717800,10.2107177734375,3.2108208256244657,-9.244545693826675,0.6319727191042155
1763693812186677800,10.220677734375,3.2815050119176505,-9.232763486096262,0.39773433964066207
1763693812196638000,10.230637939453125,3.184499512670934,-9.27499227001667,0.06222341460306197
1763693812206598000,10.240597900390625,3.041265346212685,-9.320884837141632,-0.20539026971245183
1763693812216557800,10.250557861328126,2.9947148997008797,-9.331247825723885,-0.3603704948754981
1763693812226517800,10.260517822265625,3.0266666197568175,-9.318983387434482,-0.40772020200621334
1763693812236478000,10.27047802734375,3.0793723740279675,-9.303356779235601,-0.36798999343588945
1763693812246438000,10.28043798828125,3.1236797177881,-9.289964798220991,-0.3310264730999246
1763693812256397800,10.290397705078124,3.1087606733366844,-9.294953692549466,-0.3314039646428078
1763693812266358300,10.300358154296875,2.9973753510817884,-9.330387409502267,-0.3605568477604538
1763693812276318200,10.310318115234375,2.7859283568799493,-9.394071069383621,-0.4005322267308831
1763693812286278100,10.320278076171874,2.506040279136598,-9.471723048862815,-0.42024383922107517
1763693812296238300,10.33023828125,2.2157206776194274,-9.545427167499065,-0.38182756279353053
1763693812306198300,10.3401982421875,1.962521723228693,-9.604823359319568,-0.25744176132595165
1763693812316158200,10.350158203125,1.7579275175310671,-9.64771440654099,-0.04092525900721084
1763693812326118400,10.360118408203125,1.566935136206448,-9.677785135155915,0.23572268147086722
1763693812336078300,10.370078369140625,1.3463415434747934,-9.700726450282335,0.5036315493406728
1763693812346038300,10.380038330078126,1.0696699435599148,-9.723490655276178,0.6927529856942594
1763693812355998200,10.389998291015624,0.7205410832647233,-9.747861126422881,0.7939774908754974
1763693812365958400,10.39995849609375,0.31267149938307703,-9.765048408067226,0.8464321929950267
1763693812375918300,10.40991845703125,-0.094640496281581,-9.765257666903734,0.8950790272641926
1763693812385878300,10.419878173828126,-0.41353875209186225,-9.750996501839161,0.9578291326224804
1763693812395838200,10.429838134765625,-0.6159395028658211,-9.73400737311542,1.019858741686493
1763693812405798400,10.43979833984375,-0.742404028569907,-9.720379829779267,1.0646448819395153
1763693812415758300,10.44975830078125,-0.8342435233555734,-9.70922013786137,1.0979435596249998
1763693812425718300,10.45971826171875,-0.9036482642974704,-9.698306529659032,1.138705631993711
1763693812435678500,10.469678466796875,-0.9537014582332223,-9.686072486507893,1.2003407618474216
1763693812445638400,10.479638427734375,-0.9858578340157866,-9.67207084916234,1.2843445215061307
1763693812455598300,10.489598388671874,-0.9953140830166637,-9.657035192593932,1.386157274904102
1763693812465558300,10.499558349609375,-0.9688377986971288,-9.642697455161809,1.5000411359764634
1763693812475518500,10.5095185546875,-0.9063518241677433,-9.630225511601568,1.6148339285872875
1763693812485478400,10.519478515625,-0.826392152268067,-9.620182841014861,1.7145117157831786
1763693812495438300,10.529438232421874,-0.7474979176428168,-9.614912207135557,1.779073912064731
1763693812505398300,10.539398193359375,-0.661054728942737,-9.618937809389829,1.7914900337845086
1763693812515358500,10.5493583984375,-0.5345420897806062,-9.634375032496452,1.7502784640826283
1763693812525318400,10.559318359375,-0.35308220103085036,-9.656476974189282,1.6727698385968803
1763693812535278300,10.5692783203125,-0.12658681864319368,-9.67677215872109,1.5856971198216079
1763693812545238300,10.57923828125,0.132479502544133,-9.68930430803597,1.5067287970468402
1763693812555198500,10.589198486328126,0.41654447324648497,-9.691989017075299,1.436052501799166
1763693812565158400,10.599158447265625,0.7283768183916807,-9.684367436155677,1.3612141184359787
1763693812575118300,10.609118408203125,1.0753192745584994,-9.664558573836088,1.2690090052083134
1763693812585078500,10.61907861328125,1.454183347903937,-9.630003977805375,1.1483710667658598
1763693812595038500,10.62903857421875,1.8479259144946931,-9.578990998926757,0.9992358595702796
1763693812604998400,10.638998291015625,2.2109349046476185,-9.51852513204813,0.8245223398081958
1763693812614958300,10.648958251953125,2.5212854868024586,-9.457122276580334,0.6134671214029193
1763693812624918500,10.65891845703125,2.786182916162908,-9.395379813894628,0.36660401897020634
1763693812634878500,10.66887841796875,3.021071283967793,-9.329097369691729,0.10708441019058226
1763693812644838400,10.67883837890625,3.2470185126870867,-9.252357828882337,-0.14537936179339886
1763693812654798300,10.68879833984375,3.473579781651497,-9.163922589582205,-0.35658074720371513
1763693812664758500,10.698758544921875,3.7017338727653026,-9.067561233457923,-0.49688507075514643
1763693812674718500,10.708718505859375,3.937189811325073,-8.964029547312855,-0.561341285911575
1763693812684679200,10.71867919921875,4.176545679932833,-8.855605412951112,-0.5523616779791191
1763693812694639400,10.728639404296874,4.405258866234123,-8.748243354862927,-0.4819918183321133
1763693812704599300,10.738599365234375,4.605718602475524,-8.649671921473741,-0.3753925613099709
1763693812714559200,10.748559326171875,4.764490529805421,-8.567034554797411,-0.27559335795780643
1763693812724519200,10.758519287109374,4.877224636320769,-8.505409581011532,-0.20269799842117353
1763693812734479400,10.768479248046875,4.947034377866983,-8.466222064483166,-0.14254169981521553
1763693812744439300,10.778439208984375,4.977497905191779,-8.449163962176442,-0.08084419051609001
1763693812754399200,10.788399169921876,4.970473705643415,-8.45367880925238,-0.009326320173763088
1763693812764359400,10.798359375,4.922737556478381,-8.481272334098815,0.07111273673644755
1763693812774319400,10.8083193359375,4.829545185779035,-8.533624452626706,0.15206349746612832
1763693812784279300,10.818279296875,4.6918774212762715,-8.608484755560756,0.22507833693027496
1763693812794239200,10.8282392578125,4.517710648676752,-8.699384339147805,0.2852759265278466
1763693812804199400,10.838199462890625,4.318958300875127,-8.797743591091036,0.3416028852371499
1763693812814159400,10.848159423828125,4.103240789747238,-8.897889726451039,0.40168914168104525
1763693812824119300,10.858119384765626,3.8727734532549976,-8.997742431822418,0.46113728288449346
1763693812834079200,10.868079345703125,3.63021528147459,-9.095586135458946,0.5120937823355197
1763693812844039400,10.878039306640625,3.3845185194075107,-9.187582282111048,0.5511395523056387
1763693812853999400,10.887999267578126,3.1526965534359217,-9.26792072419524,0.5801326417516917
1763693812863959300,10.897959228515624,2.957664979723096,-9.330131973436474,0.609306092733331
1763693812873919200,10.907919189453125,2.825240084309876,-9.368916754382848,0.6417229095503687
1763693812883879400,10.91787939453125,2.789082144735753,-9.377812008500099,0.6693721831720322
1763693812893839400,10.92783935546875,2.867134813970327,-9.353196038159728,0.6838488176181912
1763693812903799300,10.93779931640625,3.0177891935572028,-9.308205972832441,0.6485588199850172
1763693812913759500,10.947759521484375,3.1437481078267098,-9.27575916273594,0.49751039957925675
1763693812923719400,10.957719482421876,3.1590690110772846,-9.281653481471539,0.20386280441684648
1763693812933679400,10.967679443359375,3.0480303103029724,-9.319653834041953,-0.1546951794102788
1763693812943639300,10.977639404296875,2.9189164391338824,-9.35123146008849,-0.45254817210696635
1763693812953599500,10.987599609375,2.887564438536763,-9.3490319042176,-0.6541978487852961
1763693812963559400,10.997559326171874,2.924178305184841,-9.330838660401106,-0.7449999633472413
1763693812973519400,11.007519287109375,2.9834418105363842,-9.315002793365716,-0.7072528548855334
1763693812983479300,11.017479248046875,3.079822748143971,-9.289625775524973,-0.6228478209495544
1763693812993439500,11.027439453125,3.1658129323795436,-9.265261734119058,-0.5504132473250851
1763693813003399400,11.0373994140625,3.1594998037099837,-9.268982215946913,-0.5233714380772784
1763693813013359400,11.047359375,3.0182766848132014,-9.314242914909125,-0.5525203391395509
1763693813023319600,11.057319580078126,2.7525445581942796,-9.393836676105856,-0.5913807060727849
1763693813033279500,11.067279541015624,2.4264264980651435,-9.483933711138366,-0.5812520377030596
1763693813043239400,11.077239501953125,2.119918562813103,-9.562235678958892,-0.4899071945665404
1763693813053199400,11.087199462890625,1.8633282124184072,-9.623138183689116,-0.305948712200392
1763693813063159600,11.09715966796875,1.6357726717196404,-9.669227150169014,-0.02639685784119647
1763693813073119500,11.107119384765625,1.3887873311467467,-9.702686936700344,0.31547523169219494
1763693813083079400,11.117079345703125,1.0868244919784367,-9.72608008724749,0.6265537627954035
1763693813093039400,11.127039306640626,0.7159586508452892,-9.744808168593048,0.8345661794386804
1763693813102999600,11.13699951171875,0.2999541296944022,-9.756336109301447,0.9456772878620773
1763693813112959500,11.14695947265625,-0.10842207026882096,-9.754456286904215,1.0045945370592175
1763693813122919400,11.15691943359375,-0.46030550823546945,-9.739693017536402,1.0473127849970012
1763693813132879400,11.16687939453125,-0.7319890175394713,-9.719892923045158,1.0762238221827893
1763693813142839600,11.176839599609375,-0.927354645512253,-9.701752286198735,1.0892217623785136
1763693813152799500,11.186799560546875,-1.060511873788014,-9.686389297372102,1.1043380099024622
1763693813162759400,11.196759521484376,-1.1437314242664725,-9.672306411483884,1.144011337186396
1763693813172719400,11.20671923828125,-1.189660962400958,-9.65686918837726,1.2247399476319552
1763693813182679300,11.21667919921875,-1.2155811472076923,-9.637299395510555,1.347301036156714
1763693813192639200,11.22663916015625,-1.2293689226068556,-9.613438042929769,1.4969466770924627
1763693813202599200,11.23659912109375,-1.2195325151819736,-9.589203765383361,1.6523574574261903
1763693813212559400,11.246559326171875,-1.171081276550144,-9.569274491554498,1.7966396716326474
1763693813222519300,11.256519287109375,-1.0834949822295457,-9.556283492556213,1.916731009043008
1763693813232479200,11.266479248046876,-0.9751328802533448,-9.551225040122866,1.9984006997309625
1763693813242439200,11.276439208984375,-0.8661787306681275,-9.55586205227375,2.0262303714208305
1763693813252399400,11.2863994140625,-0.7484303761873394,-9.5721421559453,1.9960816091336309
1763693813262358500,11.296358642578125,-0.5937666878938674,-9.598506431257725,1.9200215750209986
1763693813272318500,11.306318359375,-0.395835118423216,-9.628885787430406,1.8161137490399182
1763693813282278400,11.3162783203125,-0.16567902157092465,-9.655409052696823,1.7076323315329849
1763693813292238600,11.326238525390625,0.09154444822869263,-9.673546182411908,1.607642409648001
1763693813302198500,11.336198486328126,0.3769338359352201,-9.682056821125745,1.5119802878342568
1763693813312158500,11.346158447265625,0.6945325625874101,-9.679949619713424,1.409462162645906
1763693813322118400,11.356118408203125,1.0482697203956544,-9.664821608686447,1.2894696094349025
1763693813332078300,11.366078369140626,1.433284059999138,-9.63320365062952,1.1478102180127054
1763693813342038300,11.376038330078124,1.8144615979187189,-9.586742343705891,0.9861529445048421
1763693813351998200,11.385998291015625,2.1475096034415064,-9.5351781606853,0.7993520235206931
1763693813361958400,11.39595849609375,2.430262861357629,-9.48282721120119,0.5832749218327924
1763693813371918300,11.40591845703125,2.6726278486534953,-9.429012618905306,0.3480893246470019
1763693813381878300,11.415878173828125,2.8950477800294756,-9.369014369538426,0.1031880603391677
1763693813391838200,11.425838134765625,3.1158295888096093,-9.29763314089179,-0.12651278529260307
1763693813401798400,11.43579833984375,3.34051425024718,-9.21497473142743,-0.30917737365700304
1763693813411758300,11.44575830078125,3.5702500575944778,-9.123993314775824,-0.42003465344980356
1763693813421718300,11.45571826171875,3.8041418155774473,-9.02746829252243,-0.45132184518240387
1763693813431678200,11.46567822265625,4.033198408488929,-8.929641540020704,-0.40642943154331296
1763693813441638400,11.475638427734374,4.242109746733307,-8.835866108736395,-0.31991463891174643
1763693813451598300,11.485598388671875,4.417027922222018,-8.75220992040634,-0.2430538280765526
1763693813461558300,11.495558349609375,4.552182827121019,-8.683781111824512,-0.19989669553115963
1763693813471518500,11.5055185546875,4.648400683121383,-8.633288357427716,-0.17055881123542785
1763693813481478400,11.515478515625,4.7087426313593985,-8.601106335747241,-0.1381996337566059
1763693813491438300,11.525438232421875,4.731557689757645,-8.589112531092763,-0.0994549656249117
1763693813501398300,11.535398193359375,4.709230707137286,-8.601780289486051,-0.0539776419370668
1763693813511358500,11.5453583984375,4.633148168931902,-8.64316560831964,-0.003324113767032395
1763693813521318400,11.555318359375,4.5027796215265985,-8.71166572857201,0.04724962145683821
1763693813531278300,11.5652783203125,4.328468179759383,-8.799202557727694,0.09369921510978602
1763693813541238300,11.57523828125,4.125472203038632,-8.895514229491353,0.14382709998325444
1763693813551198500,11.585198486328125,3.9054371209725733,-8.993031769913435,0.20814950529271736
1763693813561158400,11.595158447265625,3.671758421218395,-9.088792237535118,0.287150670891162
1763693813571118300,11.605118408203126,3.4271298729047177,-9.180963740754127,0.36751948984730987
1763693813581078300,11.615078369140624,3.1808617406904696,-9.266213335755467,0.43566327094268054
1763693813591038500,11.62503857421875,2.9484146285578605,-9.340091057392954,0.4898490346385166
1763693813600998400,11.634998291015625,2.752647726307809,-9.396941656383872,0.5392672916715965
1763693813610958300,11.644958251953126,2.615835701851547,-9.432842990848421,0.590981148828566
1763693813620918500,11.65491845703125,2.5692072216674684,-9.44259983023107,0.6378470179650932
1763693813630878500,11.66487841796875,2.6437328858196736,-9.419336443543434,0.6761486915696412
1763693813640838400,11.67483837890625,2.811505281206965,-9.369047687286137,0.6976823318552225
1763693813650798300,11.68479833984375,2.9953274786412716,-9.3151454167068,0.6530366960514337
1763693813660758500,11.694758544921875,3.1055458029434084,-9.290088716861606,0.4692775539159775
1763693813670718500,11.704718505859375,3.074645053245127,-9.311122152540086,0.14121769380299373
1763693813680678400,11.714678466796874,2.9511019679456947,-9.350143080329895,-0.1902809268533252
1763693813690638300,11.724638427734375,2.889779776498675,-9.362245606055856,-0.40976303294543176
1763693813700598500,11.7345986328125,2.9184742483243347,-9.348720354050398,-0.5043253768237307
1763693813710558500,11.744558349609376,2.969794977977872,-9.334387292793393,-0.4689529250714928
1763693813720518400,11.754518310546874,3.0283100030496715,-9.319727483800053,-0.37735465516317634
1763693813730478600,11.764478515625,3.0668761728093026,-9.309925636231899,-0.2999166837608441
1763693813740438500,11.7744384765625,3.0323075482532382,-9.322684580039978,-0.25107531330026683
1763693813750398500,11.7843984375,2.8900790517061945,-9.368225849509239,-0.23276467191549016
1763693813760358400,11.7943583984375,2.649397779713571,-9.43961292337477,-0.21166852799803018
1763693813770318600,11.804318603515625,2.3599377176351846,-9.517343813309074,-0.14581003569508902
1763693813780278500,11.814278564453126,2.0710576474018394,-9.585455226504802,-0.011478662773151882
1763693813790238500,11.824238525390625,1.7892806871719658,-9.640089903011917,0.1936964161189273
1763693813800198400,11.834198486328125,1.5018880790174007,-9.680378074258565,0.4527701077619567
1763693813810158600,11.84415869140625,1.2018417409949005,-9.706683897382021,0.711516576744616
1763693813820118500,11.854118408203124,0.8809216879002749,-9.725199797281622,0.902696443465352
1763693813830078500,11.864078369140625,0.5235329853145405,-9.740290983429551,1.01145602032654
1763693813840038400,11.874038330078125,0.133110795318149,-9.74696914601922,1.0720303160157054
1763693813849998600,11.88399853515625,-0.26111604765821245,-9.739262809425592,1.1175723161373288
1763693813859958500,11.89395849609375,-0.6099562272051349,-9.718560797658562,1.161006530324742
1763693813869918500,11.90391845703125,-0.8731954044971615,-9.692845341643691,1.206932780523598
1763693813879878400,11.91387841796875,-1.0499548239383847,-9.669121936228871,1.255422232273966
1763693813889838300,11.92383837890625,-1.1637902427591382,-9.64911082933545,1.3079165357515214
1763693813899798300,11.93379833984375,-1.2343323902331291,-9.630981882926822,1.3751285158894955
1763693813909758200,11.94375830078125,-1.2702287562616168,-9.612233343315124,1.4703272579751907
1763693813919718400,11.953718505859374,-1.2773711753621697,-9.591751111778617,1.592798330128938
1763693813929678300,11.96367822265625,-1.259745356170088,-9.570478606647253,1.728980824510008
1763693813939638300,11.97363818359375,-1.2096725807510316,-9.551371755117177,1.8650360392495988
1763693813949598200,11.98359814453125,-1.1212919942475854,-9.536928803744912,1.9899939597830174
1763693813959558400,11.993558349609375,-1.0027969861179589,-9.528347437882422,2.0917405160769817
1763693813969518300,12.003518310546875,-0.8781508349474519,-9.526703177806734,2.154339011070132
1763693813979478300,12.013478271484376,-0.7654465390484779,-9.534531094953417,2.162683353306353
1763693813989438200,12.023438232421874,-0.6473265017110854,-9.553297754743694,2.1179881792724133
1763693813999398400,12.0333984375,-0.4912251087646931,-9.580613047170639,2.03492644970417
1763693814009358300,12.0433583984375,-0.29211916175242514,-9.610548751229047,1.9293543437726794
1763693814019318300,12.053318359375,-0.061760112506826406,-9.636216276448964,1.819317367386818
1763693814029278500,12.063278564453125,0.1957086144578643,-9.653705755910277,1.7140736166268586
1763693814039238400,12.07323828125,0.48401817306056616,-9.661237320458888,1.6113962092235683
1763693814049198300,12.0831982421875,0.8106189752053469,-9.65733563684523,1.4997123424135148
1763693814059158300,12.093158203125,1.1753670641105622,-9.63984206573069,1.3646838403731585
1763693814069118500,12.103118408203125,1.566045493890345,-9.606088849210739,1.2003951223831624
1763693814079078400,12.113078369140625,1.9471252705238757,-9.557978021514415,1.0120062015552074
1763693814089038300,12.123038330078124,2.275114531352371,-9.5053552693516,0.8015411310628056
1763693814098998300,12.132998291015625,2.549913030871749,-9.452817272862791,0.5591026036066934
1763693814108958500,12.14295849609375,2.772299644500017,-9.402289447152613,0.28584775333274154
1763693814118918400,12.15291845703125,2.954534865003824,-9.350985376372932,-0.012818781953246797
1763693814128878300,12.16287841796875,3.12532105525434,-9.29021205098033,-0.30778091432992366
1763693814138838300,12.17283837890625,3.308440657377243,-9.214917448282241,-0.5567054062718525
1763693814148798500,12.182798583984376,3.5168037140890953,-9.125068250530958,-0.7318434715889394
1763693814158758400,12.19275830078125,3.7503722314670678,-9.024244654300809,-0.8173773634243756
1763693814168718300,12.20271826171875,3.9930847170263526,-8.919967118224502,-0.8123028366390616
1763693814178678500,12.212678466796875,4.225379853467643,-8.819441043636202,-0.7307704355299472
1763693814188638500,12.222638427734376,4.42882941917479,-8.72830180607438,-0.6104192050743847
1763693814198598400,12.232598388671875,4.593398926867544,-8.649904561185837,-0.5002311297800391
1763693814208558300,12.242558349609375,4.715260342690349,-8.58861334939897,-0.4152519857505336
1763693814218518500,12.2525185546875,4.794787760652602,-8.547513277247548,-0.3470016755407676
1763693814228478500,12.262478515625,4.832834582713246,-8.528199504968523,-0.2896659051151015
1763693814238438400,12.2724384765625,4.828324704073369,-8.53232622950971,-0.23890352173037827
1763693814248398300,12.2823984375,4.777651916934549,-8.562034554553032,-0.18970661583039908
1763693814258358500,12.292358642578124,4.679214339058101,-8.617188871020078,-0.13926736345281823
1763693814268319200,12.3023193359375,4.5361394548147915,-8.693996800890565,-0.09081354013825767
1763693814278279400,12.312279541015625,4.356174809591472,-8.785904684737325,-0.04482164539124351
1763693814288239400,12.3222392578125,4.148014874236285,-8.886185260131954,0.00843257250470051
1763693814298199300,12.33219921875,3.9177220175281167,-8.989714608189463,0.08296302756727672
1763693814308159200,12.3421591796875,3.6707872380986806,-9.091875005981326,0.18306854778910053
1763693814318119200,12.352119140625,3.4172023531302806,-9.187177792963386,0.2981111321762204
1763693814328079000,12.3620791015625,3.1725641602054235,-9.270117357456684,0.41248646655995397
1763693814338039000,12.3720390625,2.950782526732981,-9.338239292046428,0.5104372838327661
1763693814347999200,12.381999267578125,2.7690020642593502,-9.389434641754626,0.5844109035927803
1763693814357959200,12.391959228515624,2.650731074143946,-9.420483275490998,0.6312692470099777
1763693814367919000,12.401919189453125,2.6290347906425593,-9.425551080274582,0.6461708288699388
1763693814377879000,12.411879150390625,2.733048707346618,-9.396693819102644,0.6347912836562841
1763693814387839200,12.421839111328126,2.9392098701000213,-9.336887877437471,0.5949331013247371
1763693814397799200,12.431799072265624,3.1315660871237516,-9.282385302877426,0.4483274126067757
1763693814407759000,12.441759033203125,3.167341164860129,-9.28010157585442,0.13430249845390207
1763693814417719000,12.451718994140625,2.997249386614561,-9.334021966612339,-0.25079317189063877
1763693814427679200,12.46167919921875,2.7896920933276412,-9.385447617945074,-0.5489752504112199
1763693814437639200,12.47163916015625,2.723492651233077,-9.392015890419483,-0.7368968825209885
1763693814447599000,12.48159912109375,2.7820407017916438,-9.368488299837708,-0.8136848655819893
1763693814457559300,12.491559326171876,2.927061167144775,-9.329721639069914,-0.7476563961401581
1763693814467519200,12.501519287109375,3.0657980221837757,-9.295514833563566,-0.6038849810000508
1763693814477479200,12.511479248046875,3.1284903329402205,-9.283845438557863,-0.4394890763085335
1763693814487439000,12.521439208984376,3.099830055645108,-9.299284415230154,-0.2910928874446079
1763693814497399300,12.5313994140625,2.978709229056537,-9.341593278649448,-0.1797464358953759
1763693814507359200,12.541359130859375,2.7655469553694125,-9.408231112161278,-0.0855906178581994
1763693814517319200,12.551319091796875,2.4897341642409563,-9.485304999491571,0.024130524910986422
1763693814527279000,12.561279052734376,2.1955492655977604,-9.556080663460493,0.17686439591934902
1763693814537239300,12.5712392578125,1.9064526300042866,-9.612048049876094,0.3799405800031498
1763693814547199200,12.58119921875,1.6353626296140253,-9.650032035833597,0.6106199152782559
1763693814557159200,12.5911591796875,1.366981449791044,-9.676119247770309,0.8212569813366979
1763693814567119000,12.601119140625,1.0693347202561796,-9.69995137425661,0.9684322866361588
1763693814577079300,12.611079345703125,0.7206292730048298,-9.72376713413,1.0485438611619173
1763693814587039200,12.621039306640625,0.33136228092554953,-9.740375154581665,1.0888893886189908
1763693814596999200,12.630999267578124,-0.04390466297706589,-9.742763511022925,1.1167080274581909
1763693814606959400,12.64095947265625,-0.3442189129544422,-9.733308284935354,1.1465640904091299
1763693814616919300,12.650919189453125,-0.5521022963905706,-9.720095752140878,1.1769921810943633
1763693814626879200,12.660879150390626,-0.6974515918392687,-9.707613287186621,1.2025792614892123
1763693814636839200,12.670839111328124,-0.8150807038545608,-9.694989367935062,1.230130846890062
1763693814646799400,12.68079931640625,-0.9212605664208531,-9.679407183399796,1.2770054107896982
1763693814656759300,12.69075927734375,-1.0102212178345769,-9.659753803902865,1.3560999902926385
1763693814666719200,12.70071923828125,-1.0676317157305777,-9.63749462582171,1.4660362827830016
1763693814676679200,12.71067919921875,-1.0882735217429698,-9.614767245706915,1.5944596874698995
1763693814686639400,12.720639404296875,-1.0713378037068992,-9.594961305996774,1.7202751016154885
1763693814696599300,12.730599365234376,-1.0201876813799142,-9.580153028443455,1.8303779828444122
1763693814706559200,12.740559326171875,-0.9459289976008236,-9.570292144164442,1.9196620940588414
