time,seconds_elapsed,z,y,x
1763694516599306000,0.051305908203125,0.24102467860281465,-0.25691461391299963,-0.24769648451693355
1763694516609328000,0.061328125,0.432580685159564,-0.33188363791853187,-0.30957579839006066
1763694516619350800,0.071350830078125,0.4391770146846771,-0.35635201648175713,-0.3707919721793383
1763694516629373200,0.081373291015625,0.3485580016046762,-0.44272418577224015,-0.4577204236457124
1763694516639395000,0.09139501953125,0.21981530183553694,-0.48274230790585276,-0.5281604259194805
1763694516649417000,0.1014169921875,0.22800503803193567,-0.5052963772803545,-0.5701523323440923
1763694516659440000,0.111440185546875,0.06528700342476368,-0.5760661960303783,-0.6735486651390791
1763694516669462000,0.1214619140625,0.07479951265752315,-0.5982564005285501,-0.695654333158955
1763694516679484700,0.131484619140625,0.01345803198814392,-0.6870657338380813,-0.8205707526382059
1763694516689507800,0.1415078125,0.04547755658328533,-0.7398153272509574,-0.8505597943190485
1763694516699529700,0.15152978515625,0.014165887996554374,-0.759229052773118,-0.9103558721773326
1763694516709551600,0.161551513671875,-0.9195312584102153,-0.8268789859369396,-0.9424335567004978
1763694516719574800,0.17157470703125,-0.9200760328114033,-0.8264484855651855,-0.9501271799430251
1763694516729596700,0.1815966796875,-1.3732768966734408,-1.0541747066557408,-0.6516415884312242
1763694516739618600,0.19161865234375,-1.3761983370780944,-1.0460384542122483,-0.6281770531482994
1763694516749640700,0.201640625,-1.5439894371658562,-0.8774445133090019,-0.6747529263623059
1763694516759663600,0.21166357421875,-0.7426034966647624,0.09553191956281662,-2.0042511793248354
1763694516769685800,0.221685791015625,-0.7683364883363246,0.14770985056757927,-2.0188006598114967
1763694516779707600,0.231707763671875,-1.0211994887709617,-0.11206775156110524,-2.2817810035042463
1763694516789730600,0.24173046875,-1.0548562591791153,-0.04035451448112726,-2.293674270393699
1763694516799752700,0.251752685546875,-0.8448521572619676,-0.13701076189875602,-2.0348047230206427
1763694516809774600,0.261774658203125,-0.32552959271669385,-0.7986857416316866,-0.9299179201290011
1763694516819796500,0.27179638671875,-0.115880295586586,-1.2110711955025792,-0.339868681855686
1763694516829819600,0.281819580078125,-0.14586568400561808,-1.138981526325643,-0.33013226420655845
1763694516839841500,0.291841552734375,0.02166705740690231,-0.6529319935679435,-0.15281557620875535
1763694516849863400,0.301863525390625,-0.18767185859978197,-0.3774319216504693,0.2021343914553523
1763694516859886600,0.311886474609375,-0.7726321397036313,-0.2369987840875983,1.0561848043691366
1763694516869908500,0.321908447265625,-0.9866016381204128,-0.16883213357329369,1.215619214195758
1763694516879930600,0.3319306640625,-0.9221072463780641,0.25160744741559027,1.0887573597371578
1763694516889952800,0.341952880859375,-0.9405179323375225,0.31281331900656223,1.1566940739531069
1763694516899975400,0.351975341796875,-0.5974713876307011,2.1274375601410864,-0.1762170561928302
1763694516909997800,0.361997802734375,-0.61968555752635,2.1985750431597233,-0.1330417121373117
1763694516920019700,0.372019775390625,-0.8265069377541542,1.7183303972885011,0.1792921527892351
1763694516930042600,0.382042724609375,-0.9350456384062766,1.0175336597397924,0.44981670131646095
1763694516940064800,0.392064697265625,-0.9579220716029405,1.0788964754581452,0.42520284986793994
1763694516950086700,0.402086669921875,-1.3274381055623292,0.395599446503818,0.379034023084864
1763694516960108800,0.41210888671875,-1.541796895557642,0.03633738779425621,0.427533557837829
1763694516970131700,0.422131591796875,-1.286548461291194,-0.17991028468757866,0.6846897254217416
1763694516980153600,0.432153564453125,-1.1663637465089558,-0.20057313348799943,0.7413142605718225
1763694516990175700,0.44217578125,-1.190543663519621,-0.12515841154158114,0.7133369240395724
1763694517000198700,0.45219873046875,-1.0830389820903539,-0.19566782578974962,0.7896449415639042
1763694517010220500,0.462220458984375,-0.8764537487059831,-0.33686814833283424,0.7189234189350158
1763694517020242700,0.47224267578125,-0.07408464238643646,-0.11074731661230325,0.4112540386881679
1763694517030264600,0.4822646484375,0.14173369876742362,0.3992636680997908,-0.08367215308416634
1763694517040287700,0.492287841796875,0.11607026520073413,0.4982029118880629,-0.11334657585788517
1763694517050309600,0.5023095703125,1.1581950531005858,0.02667889421954751,0.02580174605883658
1763694517060331500,0.51233154296875,1.140191778898239,0.10323284932896494,0.00786930860299617
1763694517070354700,0.522354736328125,0.9839262814313172,-0.6388261651955545,0.22831830523218957
1763694517080376600,0.53237646484375,0.9760931035876274,-0.5991559797167778,0.24180490572769192
1763694517090398500,0.5423984375,0.5988765782535076,0.21254399565830825,-0.43627785917706785
1763694517100420600,0.552420654296875,1.043183357042074,-0.5361116406522691,0.38963717709854245
1763694517110443500,0.562443603515625,1.0381430247873067,-0.5078080678403377,0.4025993883937597
1763694517120465700,0.572465576171875,1.3290046242266893,-1.1757079134374857,0.5793676487285644
1763694517130487800,0.58248779296875,1.3241858257681132,-1.1627116537421942,0.5329537246106192
1763694517140510500,0.592510498046875,0.8627993173629045,-0.5426258448518813,-0.764919738695398
1763694517150532600,0.60253271484375,2.759386971434951,-0.6899712460212409,0.45685810772795227
1763694517160554800,0.6125546875,2.7688077107310294,-0.7375706170640886,0.4566759560940787
1763694517170576600,0.62257666015625,2.3833780683249235,0.5089300576075911,-0.18925149247404185
1763694517180599800,0.632599853515625,2.3896891511678695,0.46719037237837907,-0.3294004428006708
1763694517190621700,0.64262158203125,0.008692425021529197,-0.07886413174793123,0.15071985517167485
1763694517200643600,0.6526435546875,0.15316811597347257,-0.3869209038771689,0.7951138744942844
1763694517210666800,0.662666748046875,-0.09258183758556843,-0.5054331554025411,0.79466043163836
1763694517220688600,0.672688720703125,-0.041946459847688675,-1.0108823851570485,0.4582638463400304
1763694517230710800,0.682710693359375,-0.02049216840863228,-1.0259269556842743,0.2506345837954432
1763694517240732700,0.692732666015625,0.39266426983475683,0.018639964670687913,-0.9683411742866038
1763694517250755600,0.702755615234375,0.02649170108437538,0.452815956197679,-1.367439276561141
1763694517260777700,0.71277783203125,-0.6801157685697078,-0.4531546866327524,-0.7637675729855895
1763694517270799600,0.722799560546875,-1.5867857918411492,-0.3078247169390321,-0.745569652993977
1763694517280822800,0.73282275390625,-1.5827368087112903,-0.33505905308425427,-0.7290865740962326
1763694517290844700,0.7428447265625,-3.023091099357605,-0.2694134454801678,-0.9433474566750227
1763694517300866600,0.752866455078125,1.31635849314332,-1.166349864114076,0.797113816139847
1763694517310889700,0.7628896484375,1.5848299815982578,-0.48275195251703257,1.195476809072867
1763694517320911600,0.77291162109375,1.1503425860345362,-0.13162600012049078,0.7760958702914417
1763694517330933500,0.78293359375,1.1410662236452103,-0.14038389159366488,0.9295300167899578
1763694517340955600,0.79295556640625,1.198296177342534,0.41479660666584967,0.4931173157194629
1763694517350978600,0.802978515625,1.19765086517632,0.39580212946906684,0.6096519470289349
1763694517361000400,0.81300048828125,2.255312244904041,0.5408071049921215,-0.28773449866110457
1763694517371022600,0.823022705078125,0.9399614674985408,0.641517157845199,-0.9744999891772865
1763694517381045500,0.83304541015625,0.9426818323731422,0.6276873699352145,-0.9452557014491408
1763694517391067600,0.843067626953125,-1.4692384398251772,1.2390823612391948,-1.4293546115957199
1763694517401089800,0.85308984375,-1.4677064079523086,1.2286050986275077,-1.3498438525073229
1763694517411111700,0.863111572265625,-1.4254811311632394,-0.3899805837087333,-0.46321116654910144
1763694517421134600,0.873134521484375,-0.8842904336810111,-0.3283602860979736,0.19540798754347488
1763694517431156700,0.88315673828125,-0.8795774336844682,-0.33074937319159503,0.3564698341751471
1763694517441178600,0.8931787109375,-0.41078970911204815,-1.0973157831154763,1.1363355418615042
1763694517451201800,0.903201904296875,-0.40046354540884493,-1.0961996385671198,1.310165629852563
1763694517461223700,0.9132236328125,-0.3574573473751545,-1.0143519609637557,1.09606600225009
1763694517471245600,0.92324560546875,0.5639858821362257,-0.5337503183484077,0.4616052657224238
1763694517481267700,0.933267822265625,2.5442536899358035,0.06781696029379963,-0.0328686887703836
1763694517491290600,0.94329052734375,1.8656950876802205,1.1558506819315253,-0.40828664024993777
1763694517501312800,0.953312744140625,1.8578455432236194,1.2137693485453724,-0.36189664499685165
1763694517511334700,0.963334716796875,-0.057716275909543036,1.2080780050359665,-0.6996561892114579
1763694517521357600,0.973357666015625,2.2042846529781817,-0.11042509892061352,-0.15822715292870998
1763694517531379700,0.983379638671875,-0.5416396102935075,-0.5320443912133574,0.011160714831203221
1763694517541401600,0.993401611328125,-0.05099310513436794,-0.022911796770989895,0.30075317111760375
1763694517551423500,1.003423583984375,-0.051801498907804486,-0.00998158804923296,0.3152630502462387
1763694517561446700,1.01344677734375,-0.060069561037421226,0.12316285381019115,0.199083771713078
1763694517571468500,1.023468505859375,-0.062449734172225,0.1440890297219157,0.21428703993335366
1763694517581490700,1.03349072265625,0.017587094616889953,0.029531799432635307,0.2149773602850735
1763694517591513600,1.043513671875,0.11397533874809741,-0.18212109260484574,0.009266863908618687
1763694517601535500,1.053535400390625,0.11748539269566535,-0.18232304491773246,0.03164864545613527
1763694517611557600,1.0635576171875,-0.5882113918542862,-0.27177959008961916,-0.4270166212916374
1763694517621579500,1.07357958984375,-0.5832312653541565,-0.271981250141561,-0.39616351012736556
1763694517631602400,1.0836025390625,-0.1700730735450983,-0.3189652657650411,0.09489157583266496
1763694517641624600,1.09362451171875,-0.004541150560975074,-0.3023725890129804,0.3304499518536031
1763694517651646700,1.103646728515625,0.074697221326828,-0.1682005576714873,0.27434856379479167
1763694517661669600,1.113669677734375,-0.1082289040505886,-0.041443917153030634,-0.1919561117902398
1763694517671691500,1.12369140625,-0.10750760403871536,-0.025075404545664787,-0.16792612464427947
1763694517681713400,1.13371337890625,-0.5796832174837588,-0.17114654799550771,0.07439619255363941
1763694517691736600,1.143736572265625,-1.2777683579862118,0.22077610969170927,0.39055619163960215
1763694517701758500,1.153758544921875,-0.06355681863129138,-0.49083121407628055,0.25092823297977446
1763694517711780400,1.1637802734375,0.5663344910889864,-0.3497179852947592,1.1969430091679096
1763694517721802500,1.173802490234375,0.5874672954887151,-0.3770540282487869,1.2686322808504105
1763694517731825400,1.183825439453125,1.1442618048161268,0.022516075451672075,0.13864873836413025
1763694517741847300,1.193847412109375,1.155028113502264,0.006749181999266147,0.17108356576189399
1763694517751869400,1.203869384765625,0.0625409195870161,0.07675400772616267,0.39583004038929936
1763694517761892400,1.213892333984375,-0.507529835420847,-0.041138650596141815,-0.07648176665604114
1763694517771914500,1.22391455078125,0.5525421125799417,-0.4725343637548387,-0.2643438871309161
1763694517781936400,1.233936279296875,0.9084826256513595,-0.9908568113468587,0.6828881558924913
1763694517791958300,1.243958251953125,0.9483680613160133,-1.04246804837957,0.7881222620412707
1763694517801981400,1.2539814453125,-0.46475861518681044,-0.2721272344835102,-0.033330607193708416
1763694517812003300,1.26400341796875,-0.3936328226059675,-0.3541226499944925,0.13666034102588892
1763694517822025200,1.274025146484375,0.011247954723238944,-0.5014592833355069,1.0427990338996052
1763694517832048400,1.28404833984375,0.10443301889896392,-0.5925593579307198,1.2400643580138682
1763694517842070300,1.2940703125,0.6667711338281631,-0.5342769725710154,0.9097741267666221
1763694517852092400,1.304092529296875,0.7957844672322273,-0.30671558665335175,-0.6072998309448361
1763694517862114300,1.3141142578125,0.8687228621929883,-0.358763753798604,-0.46955578633546824
1763694517872137200,1.32413720703125,-0.41562487418353555,0.16409633722305297,-0.39274230350703
1763694517882159400,1.334159423828125,-0.3974105875790119,0.316857041439414,0.45702392928153274
1763694517892181500,1.344181396484375,0.07283785719573498,0.3218722392529249,0.9108023007705807
1763694517902204200,1.3542041015625,0.2694838803678751,0.19718407557159662,0.9470300907105207
1763694517912226600,1.3642265625,0.40831425890922546,0.09110913468450307,1.1332178482323885
1763694517922248400,1.37424853515625,0.015438392150402068,-0.12124211488068103,0.6709755997806787
1763694517932270300,1.384270263671875,0.18153496327996252,-0.23398148209303615,0.8689479031205177
1763694517942293500,1.39429345703125,0.8078753025203943,0.024359949752688407,0.6606716479092836
1763694517952315400,1.4043154296875,2.1217653597235677,0.2045566501662135,-0.1965770495891571
1763694517962337500,1.414337646484375,2.252580774113536,0.12320961556136607,-0.06894552593231201
1763694517972360400,1.4243603515625,0.24445056139826774,0.4916343471527099,-1.4642004456579685
1763694517982382300,1.43438232421875,0.32416648766994477,0.47577393019795416,-1.3701193094253539
1763694517992404500,1.444404541015625,-1.4930910245776177,0.6670376758098602,-0.943057095426321
1763694518002427400,1.454427490234375,-1.6587445281147957,0.5020040577366948,-0.3442056516140699
1763694518012449500,1.464449462890625,-1.2165180627316237,0.4728060203030705,-0.011494622960686682
1763694518022471400,1.474471435546875,-1.009279918396473,0.17974369594901798,-0.035785014608502384
1763694518032493300,1.484493408203125,-0.9532184239566326,0.2057224790751934,0.04669219307005405
1763694518042516500,1.4945166015625,-0.6319546719908714,-0.6410498325943946,0.5412158319234848
1763694518052538400,1.504538330078125,-0.5748392845839262,-0.595401303358376,0.6330366220086813
1763694518062560300,1.514560302734375,1.5415426285356282,-0.5306815784275531,1.0398480751395225
1763694518072583400,1.52458349609375,1.7228823615044355,-0.4174433217823505,1.2343699457645416
1763694518082605300,1.534605224609375,1.7637620689034461,-0.38281741408109665,1.2970786231338978
1763694518092627200,1.544627197265625,0.9152052119046449,-0.4659191833987832,1.409987209433317
1763694518102649300,1.5546494140625,0.9471978484928607,-0.4451707021415233,1.4542366855263709
1763694518112672300,1.56467236328125,0.8183569490462541,-0.7340320676743983,0.5307704257547855
1763694518122694400,1.5746943359375,0.565639494562149,-0.6043401043564081,0.6967752269476651
1763694518132716500,1.584716552734375,0.5305670121371746,-0.019890403123199937,0.9697375970810651
1763694518142739200,1.5947392578125,0.24240239669680594,-0.02740326297134161,1.1629361101478337
1763694518152761300,1.60476123046875,0.2656710440814495,-0.028724866963922974,1.1855454168409107
1763694518162783500,1.614783447265625,0.03481353922784328,-0.7746709520548581,0.9157967480570077
1763694518172805400,1.624805419921875,0.08399228841662407,-0.7791393296405672,0.9617273091048002
1763694518182828500,1.63482861328125,0.48254912342131134,-1.1517556677028535,0.5293710803508759
1763694518192850400,1.644850341796875,-0.5353343726694584,-0.40056495995670555,0.3001911533206701
1763694518202872300,1.654872314453125,-0.4321861328840256,-0.42054070327579973,0.3854664672851562
1763694518212895500,1.6648955078125,1.786962911748886,-0.7306228437528014,1.6385732622236013
1763694518222917400,1.67491748046875,1.8881915816485881,-0.7463876913785934,1.7190321158170698
1763694518232939500,1.684939453125,0.548177487629652,-1.2000143794372677,0.4738678043156862
1763694518242962400,1.69496240234375,-0.5122586175084114,-0.13081629117280244,0.1258569151997566
1763694518252984300,1.704984375,-1.2074351770877838,0.09933306541144847,-0.1468055952042341
1763694518263006500,1.71500634765625,-1.5085165572464465,0.17940642681866883,-0.42246261124908924
1763694518273028400,1.7250283203125,-1.3410393454134464,0.19630173977911472,-0.29200726234316826
1763694518283051500,1.735051513671875,-0.3844493991971016,-0.7116238365113735,0.8942951103448867
1763694518293073400,1.745073486328125,0.16756196750700472,-1.0600625956505536,1.5114368286073208
1763694518303095300,1.75509521484375,0.34253158092200753,-1.0507046924576162,1.4453846860289572
1763694518313118500,1.765118408203125,0.0012140519648790359,-1.0059782465025782,0.3516343403100967
1763694518323140400,1.775140380859375,0.07675766098797321,-0.9349851403906941,0.42505321226418014
1763694518333162200,1.785162353515625,-0.6271440568387509,-0.45221799030452964,-2.214193468052149
1763694518343184400,1.795184326171875,-0.5823924764424562,-0.4127376283094287,-2.173510160008073
1763694518353207300,1.805207275390625,-0.08493746031224728,-1.8479066252723335,-2.066549083936214
1763694518363229200,1.815229248046875,0.8967872194215655,-3.2102973862722513,-0.06527531298696994
1763694518373251300,1.825251220703125,0.9430229008957743,-3.196497701239586,-0.03478080600202083
1763694518383274200,1.835274169921875,0.04952127901613712,-1.9836551121503114,0.8629127146095037
1763694518393296400,1.84529638671875,0.08003916687667369,-1.9287340199172496,0.8989251082330941
1763694518403318500,1.855318603515625,-1.2115279993593693,-0.5597802471399307,-0.44816286969482894
1763694518413341200,1.865341064453125,-1.3523048357933758,-0.5109627324789762,-1.285220427557826
1763694518423363300,1.87536328125,-1.4055834215164185,-0.6735340520918369,-1.948220810675621
1763694518433385500,1.885385498046875,-1.014671548306942,-1.0927210026711225,-1.923770260030031
1763694518443407400,1.895407470703125,-0.921430370029807,-1.045550086173415,-1.863929831573367
1763694518453430500,1.905430419921875,-0.4744909046500921,-1.6694018234685062,0.0869277573466301
1763694518463452400,1.915452392578125,-0.5068921220391989,-1.2929118588432669,0.6336866103500127
1763694518473474600,1.925474609375,-0.9139724552392959,-1.2288826003946363,1.1278332325845957
1763694518483497500,1.93549755859375,-0.5162491484493017,-0.7121268175974488,0.9042600395202636
1763694518493519400,1.945519287109375,-0.39483372282832857,-0.5832457322709262,0.98561847230196
1763694518503541500,1.95554150390625,-0.6442819463834166,0.60163683674708,-0.3671978201448917
1763694518513563400,1.9655634765625,-0.5099880422279238,0.7214185236863792,-0.2915595185756683
1763694518523586300,1.97558642578125,-0.6216302618533373,0.14238558680489657,-1.062626308658719
1763694518533608400,1.9856083984375,-0.23176088343411683,0.06125161042883992,-1.0104425324350594
1763694518543630300,1.99563037109375,-0.07821867345124482,0.13952099115401506,-0.9485574464082718
1763694518553653500,2.005653564453125,0.6453758790999651,0.023580051421374083,-0.26552374456524847
1763694518563675400,2.01567529296875,0.7695864883974194,0.0886500510945916,-0.22041209868490694
1763694518573697300,2.025697265625,0.5191434085860848,0.014614508546888828,0.2485164956629276
1763694518583719400,2.035719482421875,0.4699956390574574,0.2866555260516703,0.284400294470787
1763694518593742300,2.045742431640625,0.41856034311354157,0.42395606467723845,0.22821897304356098
1763694518603764200,2.05576416015625,0.4439284469954669,0.43568449639379975,0.17410393649637698
1763694518613786400,2.065786376953125,0.48662309486195443,0.49425234763137993,0.1914700818389654
1763694518623809300,2.075809326171875,0.48935281208679077,0.708999771618098,-0.34801381172537804
1763694518633831400,2.08583154296875,0.5124601314298808,0.7495317615579813,-0.33807927768826485
1763694518643853300,2.095853271484375,0.7569640304505825,0.6610445728749036,-0.47841129296422
1763694518653876200,2.105876220703125,0.8873796318680047,0.5144776087321341,-0.26290099484622476
1763694518663898400,2.1158984375,0.8763339217185974,0.5217270684037357,-0.26448797177672384
1763694518673920300,2.125920166015625,0.8611737619876861,0.37641419597528875,0.10242460168600082
1763694518683942400,2.1359423828125,0.829795165644586,0.3723465081449598,0.09499474394619464
1763694518693965300,2.14596533203125,0.7467495104283094,-0.025783625880256292,0.4630675933599472
1763694518703987500,2.155987548828125,0.5189011242628098,-0.0875360254380852,0.49139352413415904
1763694518714009300,2.16600927734375,0.20968670653104782,-0.006788637226819992,0.31722119857668873
1763694518724032300,2.1760322265625,-0.06381137791424989,0.0989815485600382,0.1543096872240305
1763694518734054400,2.186054443359375,-0.15235826089531182,0.09543890751712024,0.13113631690740585
1763694518744076300,2.196076171875,-0.35075288130044935,0.19724844604469835,-0.11751461879014968
1763694518754098200,2.20609814453125,-0.3184025173157453,0.2591916189342737,-0.1453553963959217
1763694518764121300,2.216121337890625,-0.2862383235529065,0.17881912845000625,-0.06690496001541614
1763694518774143200,2.226143310546875,-0.2084066035926342,-0.03434029569290578,0.08091887232065201
1763694518784165400,2.236165283203125,-0.290620191898942,-0.045835576240718365,0.054065936708450314
1763694518794188300,2.246188232421875,-0.16476239991635083,-0.2174413392458111,0.46290158914327617
1763694518804210200,2.256210205078125,-0.24272563730180263,-0.21204116070270537,0.43796822341680525
1763694518814232300,2.266232421875,-0.21457067918032408,-0.1650936046320945,0.45350423072278495
1763694518824254200,2.276254150390625,-0.28459289443343877,-0.0830358644746244,0.38676293683648105
1763694518834277000,2.286277099609375,-0.36133506559133527,0.02173259692378342,0.40224049195349215
1763694518844299300,2.29629931640625,-0.4543953343436122,0.1417800951924175,0.4228577480465173
1763694518854321200,2.306321044921875,-0.5055918530955911,0.19058409278467298,0.4092869033336639
1763694518864344300,2.31634423828125,-0.41203649430274963,0.2550898827038705,0.4202320757180452
1763694518874366200,2.3263662109375,-0.44862931816279883,0.3151117321420461,0.41221301991343495
1763694518884388000,2.33638818359375,-0.6162377551600337,0.3356060925077647,0.3765326347231865
1763694518894411300,2.346411376953125,-0.6281874284118414,0.3334917307022959,0.3141898680567741
1763694518904433200,2.35643310546875,-0.6502139667809009,0.39144261908531186,0.31015257536470886
1763694518914455300,2.366455322265625,-0.3803659292757511,0.3426839219395071,0.19488836584985256
1763694518924477400,2.3764775390625,-0.4026479037106037,0.3982226711468771,0.18976210887730122
1763694518934500000,2.3865,-0.16883125679045916,0.25056290679872034,0.23019407250881194
1763694518944522500,2.3965224609375,-0.3057110857859254,0.05488357323426753,0.29155133526921273
1763694518954544400,2.40654443359375,-0.4731926815330982,0.10566577556431293,0.2671025381892919
1763694518964567300,2.4165673828125,-0.5333610267698764,0.2566154848359525,0.18252222075164318
1763694518974589400,2.42658935546875,-0.5525742612838744,0.3248568810869008,0.17699498176276682
1763694518984611300,2.436611328125,-0.39521220075190067,0.34390279620997605,-0.04138239622414112
1763694518994633200,2.44663330078125,-0.2692857274472713,0.1813916092865169,-0.33687457807362076
1763694519004656400,2.456656494140625,-0.14795827237069606,-0.029282322750170713,-0.6726952631801366
1763694519014678300,2.46667822265625,-0.0432610495775938,-0.018064504011935788,-0.8558739020138978
1763694519024700200,2.4767001953125,-0.0799777920782566,0.03990437782714143,-0.8718839565724134
1763694519034723300,2.486723388671875,-0.4227268151432276,-0.005788766868738457,-0.6925999870896339
1763694519044745200,2.4967451171875,-0.449943907892704,0.042234556074067946,-0.7052858656615019
1763694519054767400,2.506767333984375,-0.5583879159986972,0.19770698520084842,-0.26983459350168704
1763694519064790300,2.516790283203125,-0.4921282681494951,0.1682011056607589,-0.10212357291281222
1763694519074812200,2.526812255859375,-0.4011538657605648,0.2041589195528999,-0.06637362961769104
1763694519084834300,2.536834228515625,-0.4268424337685108,0.26655970001686363,-0.06199731422960758
1763694519094856200,2.546856201171875,-0.4628232632100582,0.3200976673284545,-0.0807797561109066
1763694519104879400,2.55687939453125,-0.35969460490792987,0.4658911628806963,-0.3346785293340683
1763694519114901200,2.5669013671875,-0.4080196598768234,0.5141711000662297,-0.3600140461206436
1763694519124923100,2.576923095703125,-0.5083002352714538,0.7476237359795719,-0.6832528975516557
1763694519134946300,2.5869462890625,-0.6245528713017702,0.626344942350313,-0.813705908370018
1763694519144968200,2.59696826171875,-0.6811474497050046,0.6509878006976098,-0.8432184185802936
1763694519154990000,2.606989990234375,-0.789585612592101,0.3975429087217897,-1.0295973147600888
1763694519165012500,2.617012451171875,-0.8356260637551546,0.41802484799735246,-1.0544418331593275
1763694519175035100,2.62703515625,-0.8664037715956568,0.3767361944712698,-1.051941833037138
1763694519185057300,2.637057373046875,-0.891534413459897,0.40467276060171425,-1.0671703818291425
1763694519195079400,2.647079345703125,-0.8478706283003091,0.42668870451152324,-1.0415542945355176
1763694519205102000,2.65710205078125,-0.47629240111410615,0.6017560792125761,-1.1685855142116546
1763694519215124500,2.66712451171875,-0.4772440027505159,0.6361790847528725,-1.17223117723763
1763694519225146400,2.677146484375,-0.34884558637440205,0.568581539363414,-1.2960434348672627
1763694519235169300,2.687169189453125,-0.33646482822895046,0.5933427633933722,-1.2920254313975572
1763694519245191400,2.69719140625,-0.27633126204460856,0.46615043487139046,-1.5838737037867308
1763694519255213300,2.70721337890625,-0.11370265928655862,0.3824535492047667,-1.5841712254285811
1763694519265235200,2.717235107421875,-0.08098083164095878,0.38294776246249673,-1.567507675397396
1763694519275258400,2.72725830078125,0.029650749637186526,0.1439167418949306,-1.417988145059347
1763694519285280300,2.7372802734375,0.06521130784004926,0.13462335530556738,-1.39923960544765
1763694519295302100,2.74730224609375,0.3065840692281723,-0.10525858300291001,-1.3243325407624245
1763694519305325300,2.7573251953125,0.40203941642343993,-0.22705760111398993,-1.1729086381077767
1763694519315347200,2.76734716796875,0.5230447999387979,-0.36742088831104336,-1.0458213043302298
1763694519325369300,2.777369384765625,0.603472966133058,-0.43833091924935574,-0.9317869288712739
1763694519335391200,2.78739111328125,0.6409121776893735,-0.4673036965597421,-0.9114590111136436
1763694519345414100,2.7974140625,0.5469190120011568,-0.4665254056636244,-0.4147153581231832
1763694519355436300,2.807436279296875,0.5886749177128077,-0.49958486776575445,-0.39269174236357207
1763694519365458200,2.817458251953125,0.5468325027614832,-0.49868163531571624,0.1720072564780712
1763694519375481300,2.8274814453125,0.615970336395502,-0.5284991198219359,0.40151626933217044
1763694519385503200,2.837503173828125,0.6541033754348754,-0.562330077753216,0.4208586831837892
1763694519395525000,2.847525146484375,0.9226081816375256,-0.5374449716152623,0.5806991165280342
1763694519405547300,2.85754736328125,0.9413894544750452,-0.5740071446087212,0.5911567976564168
1763694519415570200,2.867570068359375,0.8092273016512394,-0.5600501501224935,0.9043453797161578
1763694519425592000,2.877592041015625,0.6876292129397392,-0.6141762925855815,1.0735878476560115
1763694519435614500,2.887614501953125,0.5894914947926998,-0.7615745199207216,1.2029203300118445
1763694519445637000,2.89763720703125,0.4295470165520906,-0.9321502092257141,1.213870763093233
1763694519455659300,2.9076591796875,0.4221680122166872,-0.96205858688578,1.2118471483111382
1763694519465681400,2.917681396484375,0.09126900142133236,-0.8323738570261746,1.0020113886982203
1763694519475704300,2.927704345703125,0.0012143442258238791,-0.6687382691826671,0.8021200999945401
1763694519485726500,2.9377265625,0.05110708690285683,-0.540309969124943,0.568259906193614
1763694519495748400,2.947748291015625,0.16933716048598288,-0.4001127226771787,0.40836218970417976
1763694519505770200,2.957770263671875,0.16402444103062153,-0.4123885226108134,0.4064040413737297
1763694519515793400,2.96779345703125,0.23110826474428176,-0.3971100702624768,0.6619768852889537
1763694519525815300,2.977815185546875,0.22150515461862086,-0.41269495821148156,0.6581675561338662
1763694519535837200,2.987837158203125,0.1171346795618534,-0.3004183314063586,0.8972615589350461
1763694519545860400,2.9978603515625,-0.03890782280415296,-0.1625428424370475,0.9189344615608454
1763694519555882200,3.00788232421875,-0.21749504219442606,0.054266975705884395,0.8687509192436933
1763694519565904400,3.017904296875,-0.27921880017966033,0.23117418785365296,0.7909691759049892
1763694519575926300,3.02792626953125,-0.29212124411165713,0.23394705010047182,0.7850912237823009
1763694519585949200,3.03794921875,-0.19946867937743662,0.3693781598586589,0.7459498844832182
1763694519595971300,3.047971435546875,-0.21305647522509097,0.3797228821318596,0.7395224817842244
1763694519605993200,3.0579931640625,-0.0847951292321086,0.5608139741018414,0.6864999166488647
1763694519616016100,3.06801611328125,-0.0825485193490982,0.6428497216232121,0.5292109213531017
1763694519626038300,3.078038330078125,-0.10705109244287013,0.6609355595424771,0.5173515567332506
1763694519636060200,3.08806005859375,0.013540449574589728,0.5851506891094148,0.0578571456849575
1763694519646082000,3.09808203125,-0.010981997263431548,0.6040245356012135,0.04571662603616714
1763694519656105200,3.108105224609375,0.032708383642137046,0.5134375616272912,-0.4484621449023485
1763694519666127000,3.118127197265625,0.012578911066055297,0.5338816165778786,-0.45881519661247727
1763694519676149500,3.1281494140625,0.02923661587834358,0.8148765595845877,-0.825602682390809
1763694519686172700,3.138172607421875,0.02782061160057783,0.908787453816831,-0.9153829065591096
1763694519696194600,3.148194580078125,0.021566227380931377,0.9303748701162635,-0.9193898041129112
1763694519706216400,3.158216552734375,-0.044642859324812885,1.0388709006704389,-0.993887703475356
1763694519716239600,3.168239501953125,-0.03491056986153126,1.0561861926086247,-0.9900824659734964
1763694519726261500,3.178261474609375,-0.03037175738811493,0.9379302539318799,-0.8461901278674602
1763694519736283600,3.18828369140625,0.017461422410607337,0.9080880003105849,-0.7474287248641253
1763694519746305800,3.198305908203125,0.040330841344594956,0.9175466604642569,-0.7371259420365095
1763694519756328700,3.20832861328125,0.07482377031594514,1.015226113449782,-0.47265375235080714
1763694519766350800,3.218350830078125,0.089898882111907,1.0202363428272305,-0.46588381982445715
1763694519776372700,3.228372802734375,0.4424631967484951,0.9822083715975284,-0.4793441899001598
1763694519786395600,3.238395751953125,0.4653425525546074,0.8553219672195613,-0.4492570946723222
1763694519796417800,3.248417724609375,0.3668357088342309,0.7495601839348673,-0.2746247503876686
1763694519806439700,3.258439697265625,0.204742235866189,0.6580081277884543,-0.03834522048532962
1763694519816461600,3.268461669921875,0.18016542849242687,0.6266542274951934,-0.04840075055360794
1763694519826484700,3.278484619140625,-0.06180763687640428,0.470668533350341,0.537543280890584
1763694519836506600,3.288506591796875,-0.09550035538077353,0.3008040975872427,0.7161269931495189
1763694519846528500,3.298528564453125,-0.036247371423244475,0.09335837491601705,0.8749865987628698
1763694519856551700,3.3085517578125,-0.13506956470310688,0.0012770889974199236,1.0595371104717255
1763694519866573600,3.318573486328125,-0.182869426754117,-0.019196794835850597,1.0363923817276954
1763694519876595700,3.328595703125,-0.21139146462231873,0.1322006582032889,0.9222942933827638
1763694519886617600,3.33861767578125,-0.26094576912522316,0.11682501082448288,0.8973527443498373
1763694519896640500,3.348640625,-0.07733487635403871,0.22738255875203758,0.8883335715919732
1763694519906662700,3.35866259765625,0.040005847173929215,0.1460990361037664,0.9062970983058214
1763694519916684500,3.3686845703125,-0.01047083287090063,0.132483146672789,0.8796627738803625
1763694519926707700,3.378707763671875,0.3837967805072665,-0.16727703135209157,0.9833183786660432
1763694519936729600,3.3887294921875,0.32519466167390343,-0.17731681586196646,0.9512918398082256
1763694519946751500,3.39875146484375,1.1731862860053777,0.039469913666322826,0.6970207261413336
1763694519956773600,3.408773681640625,0.9317956966996193,-0.01873182593891397,0.7824871787637472
1763694519966796500,3.418796630859375,0.8488900344759225,-0.025065559005085378,0.7341396197021007
1763694519976818700,3.428818603515625,0.9575777882099151,-0.4179295709293335,1.443580266955495
1763694519986840800,3.4388408203125,0.8760486750364304,-0.39796993849482387,1.3933371034055948
1763694519996863500,3.448863525390625,0.9510632917493581,-0.45226877064369614,1.5349544823169707
1763694520006885600,3.4588857421875,0.863936212438345,-0.25484233768358827,1.3834978464365004
1763694520016907800,3.46890771484375,0.898716433918476,-0.20592406606189906,1.0151438419938086
1763694520026930700,3.4789306640625,0.9952408716499805,-0.07977518217824399,0.507718051469326
1763694520036952800,3.488952880859375,0.9456395131349563,-0.0041908758185803885,0.47028819226324553
1763694520046974700,3.498974609375,0.8301192830324172,0.5174965181618929,0.21889467985928057
1763694520056996600,3.50899658203125,0.7815916912287473,0.5892096821766346,0.18015841422975062
1763694520067019800,3.519019775390625,0.6258078397989273,0.05203662283793092,0.8510521809458732
1763694520077041700,3.529041748046875,0.47912557871341704,-0.3108095049034804,1.1892127071768044
1763694520087063600,3.5390634765625,0.4379512722820043,-0.213299782461673,1.1494026748359203
1763694520097086700,3.549086669921875,0.034005145454406735,-0.4738913313217461,1.5637585519969461
1763694520107108600,3.559108642578125,0.010236147332191466,-0.3354099123485386,1.5273872619330882
1763694520117130800,3.569130859375,0.003614683365821838,-0.216280990229547,1.1726146235972643
1763694520127152600,3.579152587890625,0.006537877336144447,-0.05162029712200165,1.1454881317406893
1763694520137175600,3.589175537109375,0.806693399259448,0.7872147918075323,0.12288462139070033
1763694520147197700,3.59919775390625,0.862119518405199,1.0662864386014639,-0.0037280806124210357
1763694520157219600,3.609219482421875,0.8552379421979188,1.192243307044357,-0.03889876271486282
1763694520167242500,3.619242431640625,0.741474200373888,1.0963238494686782,0.28825989250838757
1763694520177264600,3.6292646484375,0.7220259880602359,1.1854846265643835,0.24956395888924598
1763694520187286500,3.63928662109375,0.4654635485857725,0.6201363700337708,0.9178677091121673
1763694520197308400,3.649308349609375,0.4259557140618562,0.49736251554116606,0.9960130250662564
1763694520207331600,3.65933154296875,0.40443011095225806,0.575239535947889,0.9555518353402614
1763694520217353500,3.669353515625,0.6058002400368452,0.3392889457389712,0.814815330916643
1763694520227375900,3.6793759765625,0.583140664461255,0.42988808507472276,0.7668816133528947
1763694520237398500,3.6893984375,0.3651075698673725,0.5353896099880338,0.5826788921684026
1763694520247420700,3.699420654296875,0.49681028848588465,0.46435997125804424,0.16281681880652904
1763694520257442800,3.70944287109375,0.7110147647023201,0.3643590895876288,-0.4293254827558994
1763694520267465500,3.719465576171875,0.4218658143997192,0.4397115599527955,-0.8899462674856186
1763694520277487900,3.72948779296875,0.4061456826984882,0.5208206941485405,-0.9361924703538417
1763694520287509800,3.739509765625,-0.11058920344114304,0.6405915674328804,-1.4171230526626108
1763694520297531600,3.74953173828125,-0.3957423621058464,0.6021230128288269,-1.4244482809841632
1763694520307554800,3.759554931640625,-0.7080781267285347,0.5493307493180036,-1.2423434088617562
1763694520317576700,3.76957666015625,-0.9900140769124031,0.45058015996962786,-1.0572171430915593
1763694520327598600,3.7795986328125,-0.9678203652828932,0.4955833770394325,-1.0588228247225284
1763694520337621800,3.789621826171875,-1.2700059072911738,0.4446045926913619,-0.8168477135270833
1763694520347643600,3.7996435546875,-1.224669220483303,0.503116987414658,-0.8062538387984037
1763694520357665500,3.80966552734375,-1.5202321294814347,0.601857932151854,-0.742158675506711
1763694520367687700,3.819687744140625,-1.5887866102695465,0.6523375348061323,-0.8063549610853195
1763694520377710600,3.829710693359375,-1.5039508567661046,0.7996946264132857,-0.9548954172581434
1763694520387732700,3.839732666015625,-1.5429758762091397,0.9297431480839848,-1.1921429154098033
1763694520397754600,3.849754638671875,-1.4647545724093913,0.9909905207291245,-1.1623153479009867
1763694520407777500,3.859777587890625,-1.3396645499289035,0.675147040246427,-1.4658780234813689
1763694520417799700,3.869799560546875,-1.2596499329715967,0.7231175826892257,-1.4307394900828598
1763694520427821600,3.879821533203125,-1.1602473094552754,0.37102088556438684,-1.5388450600147245
1763694520437843500,3.889843505859375,-1.1130565192133188,0.08480828097462653,-1.4864450106918812
1763694520447866600,3.89986669921875,-1.0282049836188554,0.1222349253103137,-1.4463386257529258
1763694520457888500,3.909888427734375,-1.1895230883002281,-0.7265873046264052,-1.1470184100478886
1763694520467910700,3.91991064453125,-1.0925368782758713,-0.6821309077844023,-1.1054068812429905
1763694520477933600,3.92993359375,-0.9325839244678616,-0.9599299042940139,-1.0762784019142388
1763694520487955500,3.93995556640625,-0.6917968540132046,-0.7274199560582637,-1.158330662178993
1763694520497977900,3.949977783203125,-0.4218170068219304,-0.5498401601448655,-1.1974842764377593
1763694520507999700,3.959999755859375,-0.21702771694362163,-0.42150633343756194,-1.267933777192235
1763694520518022700,3.970022705078125,-0.09663549689054489,-0.39280075569599865,-1.213787176463008
1763694520528044800,3.980044921875,0.24084581490457058,-0.9958531583294272,-1.4121680606037377
1763694520538066700,3.990066650390625,0.3417693643778562,-0.9976125692173838,-1.3564473424255847
1763694520548089900,4.00008984375,-0.017681202641129493,-1.9738395283177494,-1.1479033761888742
1763694520558111700,4.01011181640625,-0.3395285997137427,-2.031946557110548,-0.9916443084627389
1763694520568133600,4.020133544921875,-0.26522271579205986,-2.049628636534512,-0.9451046756058931
1763694520578156800,4.03015673828125,-0.7364028884589672,-1.9358304079189896,-0.23091595704257487
1763694520588178700,4.0401787109375,-0.6476502537727356,-1.9309610483169555,-0.19122341360151768
1763694520598200600,4.05020068359375,-0.6259107156515121,-1.1199152990669012,-0.17100830856859683
1763694520608222700,4.06022265625,-0.5132838689029217,-1.0847107146948576,-0.13898703040778637
1763694520618245600,4.07024560546875,-0.35877106032222505,-0.6342424906671047,-0.5869213520437478
1763694520628267500,4.080267578125,-0.0351809112355113,-0.48338966589868065,-0.8008224613994359
1763694520638289700,4.09028955078125,0.09050590809434651,-0.45700580910295246,-0.7649550292044878
1763694520648312600,4.1003125,0.42060733877122397,-0.21983897497206925,-1.0440671541392803
1763694520658334700,4.110334716796875,0.5231131889998912,-0.21736264798641203,-1.0079980618923903
1763694520668356600,4.120356689453125,0.36006577630788084,0.1592629257172346,-1.0563082115530966
1763694520678378800,4.130378662109375,0.4511942002147436,0.20920096884071826,-1.2734610161811113
1763694520688401700,4.140401611328125,0.5264300584629178,0.17578882084339856,-1.231719138994813
1763694520698423800,4.150423828125,0.4955819157347083,0.30854630921185017,-1.6203168900430203
1763694520708445700,4.16044580078125,0.5436652709022164,0.2564922968477011,-1.5795920809447765
1763694520718468600,4.170468505859375,0.38114071304053065,0.5762757471278309,-1.7729022376924752
1763694520728490800,4.18049072265625,-0.1733911120519042,0.719039957986772,-1.406335701188445
1763694520738512600,4.1905126953125,-0.554087588456273,0.8397448972508311,-1.1122089624732732
1763694520748534800,4.20053466796875,-0.660331456169486,0.8284437510356306,-0.8657382934242487
1763694520758557700,4.2105576171875,-0.5905079783588647,0.7729986349284649,-0.8213812653034925
1763694520768579800,4.220579833984375,-0.49707098524868487,0.7386760940879583,-0.27032968354225156
1763694520778601700,4.230601806640625,-0.39894130427762864,0.6888032251551747,-0.2236468428224325
1763694520788624600,4.240624755859375,2.1980223777130243,0.8415531157165765,0.4729933595687151
1763694520798646800,4.250646728515625,2.646175018274784,1.0855687928289175,1.0710948617964982
1763694520808669000,4.2606689453125,2.6949013475209473,1.031648402070999,1.1041875685811042
1763694520818690800,4.27069091796875,0.8405429157607257,1.4225357253611086,1.5304951648205518
1763694520828713700,4.280713623046875,0.8642299346879124,1.3751315846294163,1.554394511324167
1763694520838736000,4.29073583984375,-1.149768585538864,2.1848615751057863,1.6049878034859895
1763694520848757800,4.3007578125,-0.8293956449329852,2.061139918369055,2.03753809350729
1763694520858781000,4.310781005859375,-0.13217325873970984,1.376048114952445,2.6048458135426045
1763694520868802800,4.320802734375,0.19524726229012013,0.32560178117007016,2.880231611430645
1763694520878824700,4.33082470703125,0.20700024392604827,0.3306976430043578,2.8806781861543653
1763694520888846800,4.340846923828125,0.2601597333140671,-0.6201674958243966,1.7037334243983029
1763694520898869800,4.350869873046875,0.24555516163930297,-0.591242430113256,1.6897352941840886
1763694520908891600,4.3608916015625,-0.1235965690523386,0.6344616863757372,0.5595189658552407
1763694520918913800,4.370913818359375,-0.2301256834477186,0.8299950721308589,0.1850087768703699
1763694520928936700,4.380936767578125,-0.2883377800501883,0.8426061319008469,0.16746902852654455
1763694520938958600,4.39095849609375,-1.6221061115473507,0.5102238968104124,0.07760404868423938
1763694520948980700,4.400980712890625,-1.6597820544689892,0.5260892822012305,0.06272212137281895
1763694520959003600,4.411003662109375,-0.5884662433981895,-1.5098083506226538,0.9715572137236594
1763694520969025800,4.42102587890625,0.434839277741313,-2.563301797015965,0.46454058852195734
1763694520979047700,4.431047607421875,-0.2631394797772169,-2.582882403537631,-0.4025087875008583
1763694520989069800,4.44106982421875,-0.5958676056958735,-3.197071117213368,-0.9785533562213182
1763694520999092700,4.4510927734375,-0.6374146909624337,-3.1002362983584404,-1.0313368519037962
1763694521009114600,4.461114501953125,-1.0300859750598668,-4.021658485081792,-2.0975041941702366
1763694521019136800,4.47113671875,-0.2192629286497831,-3.1687524929627773,-3.0757237883925437
1763694521029159700,4.48115966796875,-0.23322423398494718,-3.060877809177339,-3.1317788530915975
1763694521039181800,4.491181884765625,0.6172007549732923,-1.430659410583973,0.05018354231715202
1763694521049204000,4.501203857421875,1.0852027359955012,-0.6356155325859785,1.057805172112584
1763694521059225900,4.511225830078125,1.2369514866903424,-0.4886705289110541,1.3767711685299873
1763694521069248800,4.521248779296875,1.2311734878107905,-0.3871437528476119,1.3196218788534402
1763694521079271000,4.53127099609375,1.0112076715886593,-0.427405328348279,1.1369979512929915
1763694521089292800,4.541292724609375,-0.9994985290944576,-1.5057754418447613,0.9685720604330301
1763694521099316000,4.55131591796875,-2.1097475896716116,-0.965858709821105,1.0581956327348947
1763694521109337900,4.561337890625,-1.916071814481914,-0.6861696617811918,0.5244879844844341
1763694521119359700,4.57135986328125,-1.818225042105466,-0.5110965879917144,0.4373585670858621
1763694521129381600,4.581381591796875,-1.6481985841810702,-0.4698503853678703,0.15279226839840412
1763694521139404800,4.59140478515625,-1.7290423454388975,-0.24835049144625662,-0.4900795189261436
1763694521149426700,4.6014267578125,-1.5862456936150788,-0.03868482770323753,-0.6142343063831329
1763694521159448800,4.61144873046875,-1.8166216985620558,0.24913199721276758,-5.065892812481522
1763694521169471700,4.6214716796875,-0.013491495866328477,2.489723058325052,-8.027654121607542
1763694521179493600,4.63149365234375,0.162769326402992,2.636143453603983,-8.123209422045946
1763694521189515800,4.641515869140625,2.0004957723140717,4.30491779282391,-8.020416571569442
1763694521199537700,4.65153759765625,3.087539313870668,2.76500188870728,-2.5483628788203
1763694521209560800,4.661560791015625,3.155816146761179,2.8321710526168347,-2.60188813278079
1763694521219582700,4.671582763671875,3.011309476149082,1.6170745471209287,5.901445226478576
1763694521229604600,4.6816044921875,1.4138374551206827,2.726998613527417,6.6682900149524205
1763694521239627800,4.691627685546875,0.3365332172900438,4.587297395122051,5.355229978832602
1763694521249649700,4.701649658203125,0.3520867602527141,4.692180495876074,5.248343137040734
1763694521259671800,4.711671875,0.7211766777545213,4.11218865083456,5.495131201475858
1763694521269694000,4.72169384765625,1.6239947017729282,1.2914374023765325,4.854397010701894
1763694521279716600,4.731716552734375,1.5241707841046153,1.4024088831335306,4.713120992574096
1763694521289738800,4.74173876953125,0.4245904170580208,-2.4309020360440012,2.746946592056751
1763694521299761000,4.751760986328125,-0.5328846414297819,-2.8385253900796172,2.327021974852681
1763694521309783800,4.76178369140625,-0.7072646183885634,-2.7215859408289194,2.1350556339293716
1763694521319806000,4.771805908203125,-2.248174209717661,-1.1898621109962462,1.112000288158655
1763694521329827800,4.781827880859375,-2.335871636262536,-1.042241692277789,0.8727788595855236
1763694521339849700,4.791849609375,-1.4017349293947219,0.6227800164103507,-0.49427054087519645
1763694521349873000,4.801872802734375,-0.2961431931041181,1.47857676153481,-3.0512621318310496
1763694521359894800,4.811894775390625,-0.1601965533055365,2.4960423244744536,-4.2042856275126335
1763694521369916700,4.821916748046875,-0.4604105029799044,2.808808881729841,-4.051189115470647
1763694521379939800,4.83193994140625,-0.3900345058530569,2.9024650705486534,-4.215049598111212
1763694521389961700,4.841961669921875,-1.1292482139490545,2.4766432119995354,-3.494627245855331
1763694521399983600,4.851983642578125,-1.0634650975704192,2.5480688643097875,-3.6290810167476533
1763694521410005800,4.862005859375,-1.333271195629984,2.299122160536051,-2.9667703694596885
1763694521420028700,4.872028564453125,-0.5143542746134102,2.7601445118039845,-3.5357656041905283
1763694521430050800,4.88205078125,0.06491933915615082,2.869882651373744,-3.725649585881829
1763694521440072700,4.89207275390625,-0.23485979929752646,2.236039389157295,-3.336644130815565
1763694521450095600,4.902095703125,1.0093015457063912,1.645052687370777,-2.6111826153486963
1763694521460117800,4.91211767578125,0.9524584724348037,1.703604245060682,-2.820426546548307
1763694521470139600,4.9221396484375,1.426068429531902,1.8948007706552743,-1.531367563740909
1763694521480161800,4.932161865234375,1.548089273700118,2.001852447620034,0.4710480707198381
1763694521490184700,4.942184814453125,0.360663303809613,1.8690987586438654,0.98507296724841
1763694521500206600,4.95220654296875,0.234702635974437,1.885849402436614,0.8158684932313859
1763694521510229000,4.96222900390625,0.25670097116231916,-3.3043273768395185,0.9200658036783337
1763694521520251600,4.972251708984375,0.21047347299456595,-3.2966754007816315,0.8373582943752408
1763694521530273800,4.982273681640625,0.9166688547164201,-4.390539728268981,1.2223420927099884
1763694521540296000,4.9922958984375,0.9958867683380842,-4.755289570739865,-0.015376140569150447
1763694521550317800,5.00231787109375,0.9975982484310865,-5.1465620939552785,-1.2170318574726582
1763694521560341000,5.012341064453125,1.0380829651631414,-5.145168009248375,-1.1855337264031172
1763694521570363000,5.02236279296875,0.7756151010371745,-4.9053269874721765,-1.5599676352813838
1763694521580384800,5.032384765625,0.4033114821858704,-4.548355962309241,-1.2090303373247384
1763694521590408000,5.042407958984375,0.33402371868714686,-3.313210940518975,-1.2943503672137855
1763694521600429800,5.052429931640625,-0.5083407134123146,-0.6217775613695383,-0.7689804853282869
1763694521610451700,5.06245166015625,0.22697043428719044,-0.29131694199144836,0.7796513708159327
1763694521620473900,5.072473876953125,0.309186360681057,-0.2784019308388233,0.7723113833166658
1763694521630496800,5.082496826171875,-3.175390615803003,0.9702584060847759,0.32932518560737367
1763694521640518700,5.0925185546875,-3.1499417017698286,0.9777724349766969,0.30969460246413943
1763694521650540800,5.102540771484375,0.6618127807684242,2.880460159489512,0.5829376892350614
1763694521660563700,5.112563720703125,2.6389789692908523,1.943069419261813,1.5383365259706974
1763694521670585900,5.1225859375,1.970395817604661,1.2086503980964423,1.5657441728562116
1763694521680607700,5.132607666015625,1.943780197879672,1.2312614583551882,1.4332359830737114
1763694521690630000,5.1426298828125,0.5985885550923645,1.356722652235627,1.3728247689917683
1763694521700652800,5.15265283203125,1.6932342422157525,1.6494190658867358,1.0837504913605749
1763694521710675000,5.162675048828125,1.6757153905294835,1.6745242810487746,0.8924591270893811
1763694521720696800,5.17269677734375,0.7632083316676318,1.4984230332553385,1.272165423412621
1763694521730719700,5.1827197265625,0.6298297887913883,1.5779595113068818,1.1374238485548644
1763694521740742000,5.192741943359375,0.3672134561054408,1.5845266147375106,1.1921262565359472
1763694521750763800,5.202763671875,0.3695240711353719,1.5978770946979521,0.9417141563847661
1763694521760786000,5.212785888671875,0.48974502627477046,1.803010960230231,0.6213434808012098
1763694521770808800,5.222808837890625,0.4847931029558181,1.8014602236568926,0.3366183382902294
1763694521780831000,5.2328310546875,0.560770865612477,2.083162949606776,0.2020649429483339
1763694521790852900,5.242852783203125,-0.000582622193545103,2.7576474342912434,0.19399653157666324
1763694521800875800,5.252875732421875,0.012320990782231091,2.7355916698276994,-0.05808766650520265
1763694521810898000,5.26289794921875,-0.08298033489510416,1.5596435178935526,1.222761633296311
1763694521820920000,5.272920166015625,-0.06186053610742092,1.5725316410392522,1.3126837501533328
1763694521830942000,5.28294189453125,-0.5610971749573945,0.19111060087680815,2.0819915677398444
1763694521840964900,5.29296484375,-0.5265478396236897,-0.7569114234805107,2.6556334592327473
1763694521850987000,5.302987060546875,-0.05835698496587574,-1.5170780493646858,2.4991058036983014
1763694521861009000,5.3130087890625,-0.1333341922778636,-1.520224530696869,2.206070659612119
1763694521871032000,5.323031982421875,-0.13676993888020514,-1.5223533594191074,2.1705060097560285
1763694521881054000,5.333053955078125,1.3435685716301202,-0.8254618126153945,1.3213552785173057
1763694521891075800,5.343075927734375,1.33987614685297,-0.8357342003047465,1.1739430957220494
1763694521901097700,5.35309765625,-0.3032248219281435,-0.5287491490602493,-0.594465556878224
1763694521911121000,5.363120849609375,-0.44243397065401074,0.33467969837784767,-1.2688000386327505
1763694521921142800,5.373142822265625,-0.44991468179821964,0.3113239572316408,-1.449132055863738
1763694521931165000,5.3831650390625,1.0387916979543863,-2.9671476783394812,-1.230530075340718
1763694521941187800,5.393187744140625,1.025952820777893,-2.9909803893476723,-1.3702834139458835
1763694521951209700,5.403209716796875,1.9724245469532906,-2.940044567358494,-1.4128737246550618
1763694521961232000,5.41323193359375,2.0141063645154236,-4.2432834666877985,-0.6099402624510228
1763694521971253800,5.423253662109375,1.9493390010505913,-4.253279375523329,-0.6141682554095983
1763694521981277000,5.43327685546875,0.16342939774692058,-3.917317820641398,-0.8630519769497216
1763694521991298800,5.443298828125,0.07870879505574703,-3.9181677154690027,-0.7905135410919785
1763694522001321000,5.453321044921875,0.09216624252200126,-0.5197931046664714,-1.2493113481782376
1763694522011344000,5.46334375,0.8960849163711071,-0.5727624783098697,-1.122032437351346
1763694522021365800,5.47336572265625,1.1941922491550445,0.49237785899639125,-1.1960086509272456
1763694522031388000,5.483387939453125,-0.15307736895009874,1.6332880152970553,-1.7804402319818735
1763694522041410000,5.49341015625,-0.1873223145097494,1.6343834093183278,-1.7271774283498524
1763694522051433000,5.503432861328125,1.2532276448391377,0.08609539817571639,-1.4381681787788867
1763694522061454800,5.513454833984375,1.2137623342826962,0.08855798889696598,-1.3587198174022137
1763694522071477000,5.52347705078125,0.011747720938920974,-1.1662287219524383,-0.40441958955824375
1763694522081500000,5.5335,-0.0408496045216918,-1.1687708076506853,-0.3297239756666124
1763694522091522000,5.54352197265625,-0.43078108839169144,0.20897008269429207,-0.6416460449218749
1763694522101544000,5.5535439453125,0.5006710555672645,0.05747253028154373,-0.6910864407215267
1763694522111565800,5.56356591796875,0.4573579835414886,0.05415536855757236,-0.6200463536627591
1763694522121589000,5.573589111328125,0.3422679615497589,-1.489063668757677,-0.01495031637251377
1763694522131611000,5.58361083984375,0.3058024173311889,-1.4930512770891189,0.04401252553202212
1763694522141632800,5.5936328125,0.9870698401540517,-0.40190497638881206,-0.9451345592875033
1763694522151656000,5.603656005859375,1.055204488094896,-0.5175216526031494,-1.1126016881179064
1763694522161677800,5.613677734375,1.0441337896347045,-0.5161392583340406,-1.0429172534517943
1763694522171700000,5.623699951171875,0.2147754079721868,-1.0802215865820646,-0.765014723502472
1763694522181721900,5.633721923828125,0.19397826526761053,-1.082063415056467,-0.6892093948032707
1763694522191744800,5.643744873046875,0.17881576744914054,0.6173702663213014,-1.0762764291528613
1763694522201767000,5.653766845703125,0.10460895998775958,0.7810358109116554,-0.7879998777706175
1763694522211788800,5.663788818359375,0.05569938312917948,0.7699059296101332,-0.6976134313374758
1763694522221811700,5.673811767578125,-0.3481821540296077,-0.15595979251861572,0.4108632127396762
1763694522231833900,5.683833740234375,-0.3856973534315824,-0.16621990524828434,0.49832138716857877
1763694522241855700,5.693855712890625,-0.39341245785355566,-0.8794359793871641,1.7398365650452672
1763694522251878000,5.7038779296875,-0.4431234142228961,-0.8945879558116197,1.8079351187594235
1763694522261900800,5.71390087890625,-0.7834531011864543,-1.235275370171666,1.8280973245613277
1763694522271923000,5.7239228515625,-0.23100100497752427,-1.2229910581380128,1.5517505726866423
1763694522281945000,5.733945068359375,-0.2876093196451664,-1.2401742481291294,1.5620713295623658
1763694522291967700,5.7439677734375,0.23231880957782267,-0.07167582767903805,0.8114637554664165
1763694522301990000,5.753989990234375,0.2010813752710819,-0.08098550781607627,0.8014108557466417
1763694522312012000,5.764011962890625,0.5065279649019241,0.19190379708111285,0.7684688094791025
1763694522322034000,5.774033935546875,0.6015612872928381,0.9696440735787153,0.3169358057640493
1763694522332057000,5.78405712890625,0.5786138346865772,0.9634773676425218,0.27341172133609654
1763694522342079000,5.794078857421875,0.30228374168574806,2.54080910243988,-1.4897607111111282
1763694522352100900,5.804100830078125,0.22813509415239094,2.517392571017146,-1.56586838375777
1763694522362124000,5.8141240234375,-1.2221639596641063,4.623415587207675,-1.117985573113337
1763694522372146000,5.82414599609375,-1.0965057819068431,4.434637228670716,-1.1000270148355513
1763694522382167800,5.834167724609375,-1.097184996342659,4.433590349966288,-1.1671798851974309
1763694522392190000,5.84418994140625,-0.25221418113708494,2.7833915318787095,-1.1203311863914132
1763694522402212900,5.854212890625,-0.2152089770838618,2.794443087247014,-1.1764869349859655
1763694522412234800,5.86423486328125,0.1681160942584276,1.8273580505013465,-1.080380138144642
1763694522422257000,5.8742568359375,0.028341128343343732,0.6113163731098175,-0.42833669091425836
1763694522432279800,5.88427978515625,0.6009995617568492,0.28713001169562336,0.22435908274501562
1763694522442302000,5.894302001953125,0.6340370312228798,0.294827580460906,0.16314024207461625
1763694522452323800,5.90432373046875,2.1844304902121423,-1.6481640973895788,2.394300444355607
1763694522462345700,5.914345703125,2.5961285463407635,-3.174149091309309,3.6993262271016834
1763694522472369000,5.924368896484375,2.6265450196534395,-3.17327055490911,3.5854938039556146
1763694522482390800,5.934390869140625,1.1644266409665345,-4.830099020269513,3.903795491245389
1763694522492413000,5.944412841796875,-0.01802636281698942,-4.648664010232687,2.4966698087230323
1763694522502435800,5.954435791015625,-1.4201011916905641,-1.576894512423873,0.9730872728351503
1763694522512457700,5.964457763671875,-1.3908344729349016,-1.570687474477291,0.950366322461143
1763694522522479900,5.97447998046875,-2.4405118681713938,1.0693190842956304,0.33335575629770753
1763694522532502800,5.984502685546875,-0.8196247770249843,1.7118167776107787,-0.007379077400639653
1763694522542525000,5.99452490234375,-0.7861158906549215,1.7209657142281531,-0.011800035648047923
1763694522552547000,6.004547119140625,0.6987976726859808,1.58322196187973,-0.3382596026912331
1763694522562569000,6.01456884765625,-0.07377250769734382,1.1032768834769726,-0.4041620346006006
1763694522572591900,6.024591796875,-0.7760504237145185,0.6808879219859838,-0.653998892147094
1763694522582614000,6.034614013671875,-0.7076572709679603,0.6936877823263407,-0.6981942999653518
1763694522592636000,6.044635986328125,-1.2131348500341177,-0.6106733990311622,-0.8186758057370781
1763694522602659000,6.0546591796875,-0.9080129623129963,-0.954385129648447,-0.7918696318760514
1763694522612681000,6.064680908203125,-0.8268408458836376,-0.9421370579719542,-0.8444032444506883
1763694522622702800,6.074702880859375,-0.8267420616842805,-0.3835053963452577,-0.5682485080167651
1763694522632725000,6.08472509765625,-0.7641882826156914,-0.37613866696953774,-0.6133133921459317
1763694522642748000,6.094747802734375,-1.1206941744849086,-0.11805647058188914,-0.3807115278430283
1763694522652769800,6.104769775390625,-1.0638235556192694,-0.1116582939773798,-0.41683614966943855
1763694522662792000,6.1147919921875,-1.5447903782851993,-0.30733050368130205,-0.030277210972458123
1763694522672813800,6.124813720703125,-1.487316240568459,-0.2996124766498804,-0.053455257464200254
1763694522682836200,6.134836181640625,-1.0893917121179402,-0.21929916900694368,-0.1666800701059401
1763694522692858000,6.144858154296875,-0.493836825633049,0.37950902018547056,-0.16886852006092667
1763694522702880300,6.15488037109375,-0.43126258829832076,0.38767479098439217,-0.18770941413119435
1763694522712903200,6.164903076171875,-0.3317027283936739,0.4222147739678621,0.09350728186741471
1763694522722925300,6.17492529296875,-0.4063777378886938,0.31775545158386226,0.09168810361623764
1763694522732947500,6.184947509765625,-0.33379663193300363,0.3249140911668539,0.0666325728148222
1763694522742969300,6.19496923828125,-0.5251403109133244,0.31760055328309533,0.05295929064080119
1763694522752992300,6.2049921875,-0.9122276573985815,0.37474224417507646,0.0416097752392292
1763694522763014400,6.215014404296875,-0.7099037347204983,0.11349836888611316,-0.06726444097757339
1763694522773036300,6.225036376953125,-0.6494849218539893,0.11677987477481365,-0.09197890325635671
1763694522783059500,6.2350595703125,-0.4929546359710395,-0.1276701021015644,-0.13172215397134424
1763694522793081300,6.245081298828125,-0.43934944864213465,-0.12605506812036038,-0.15651611122712492
1763694522803103200,6.255103271484375,-0.2816530415892601,-0.054445875936746595,-0.16940291919857262
1763694522813125400,6.26512548828125,-0.21950506684258578,-0.018320669588446616,-0.06269099558219313
1763694522823148300,6.275148193359375,-0.2981541676003486,0.06071370415985584,0.1623062389358878
1763694522833170200,6.285170166015625,-0.24460370613336563,0.06081015027165412,0.13733765576556325
1763694522843192300,6.2951923828125,-0.28878837336190044,0.13457447466254233,0.34983357449844477
1763694522853215200,6.30521533203125,-0.5578389768790454,0.12414017440974712,0.9386883788228034
1763694522863237400,6.3152373046875,-0.5090847367126494,0.12275836466252803,0.9134862791575491
1763694522873259300,6.32525927734375,-0.6044259560089558,-0.21331074224710464,1.0982478032685816
1763694522883281200,6.33528125,-0.9255675428997725,-0.27745383633375165,1.0892055418960749
1763694522893304300,6.34530419921875,-1.074673889327049,-0.057739656785130496,0.9680087274618446
1763694522903326200,6.355326171875,-0.9695202280033379,0.023422376641631125,0.9423065693199634
1763694522913348000,6.36534814453125,-0.9293226576495915,0.020512626674771307,0.9190814688161015
1763694522923371300,6.375371337890625,0.11671733093261719,-0.6636994712978601,0.45639425307586784
1763694522933393200,6.38539306640625,0.13114099308252333,-0.8002396930754184,0.5606539612345397
1763694522943415000,6.3954150390625,0.14998948593735695,-0.8027613205075264,0.545773641358316
1763694522953437400,6.4054375,0.13556695629861204,-0.9492863452047109,0.3292874839454889
1763694522963460000,6.415460205078125,-0.9368617479175328,-0.42501521834135053,-0.14241159802898765
1763694522973482500,6.425482421875,-1.4215508059769868,-0.11019465116560459,-0.2835813793033361
1763694522983504400,6.43550439453125,-1.4174644134461878,-0.10945055480003356,-0.28113486293405293
1763694522993527300,6.44552734375,-2.042077490502596,0.055737669312953944,0.11568769562393426
1763694523003549400,6.455549560546875,-2.0303373683482406,0.05721475612819194,0.1199592354632914
1763694523013571300,6.4655712890625,-2.2410440655767916,0.2879156091153621,0.752727415794134
1763694523023593200,6.47559326171875,-1.9950708246558904,0.5216781877607107,0.9567531739540398
1763694523033616400,6.485616455078125,-1.641333959108591,0.6109563076257706,1.0434805864229797
1763694523043638300,6.49563818359375,-1.6152485007375479,0.6098042149811983,1.0347042825102806
1763694523053660200,6.50566015625,-1.198631692907214,0.5250345124512911,1.1196074021615088
1763694523063683300,6.515683349609375,-0.8136907108008861,0.028434651845693586,1.1012230196870862
1763694523073705200,6.525705322265625,-0.7914028911471367,0.02595627903342247,1.088258031912893
1763694523083727400,6.535727294921875,-0.7257955697268247,-0.0708370387673378,0.7082524603821336
1763694523093749200,6.545749267578125,-0.7134270865410566,-0.07246727031767368,0.7002424646668136
1763694523103772200,6.555772216796875,-0.0805903892849572,-0.04320493547618389,0.5001328570373356
1763694523113794300,6.565794189453125,0.15533437236296013,0.017677695509791373,0.6893912541761994
1763694523123816200,6.575816162109375,0.5440870034456253,-0.12773381498754025,0.7240750295445323
1763694523133839400,6.58583935546875,0.536125815308094,-0.12797697609364986,0.7237599722459912
1763694523143861200,6.595861328125,0.6273404561936855,-0.48000294606983657,0.7014964102506637
1763694523153883100,6.605883056640625,0.5007365220189094,-0.38249884965121744,0.43396220264583824
1763694523163905300,6.6159052734375,0.1646048712670803,-0.18987725968956945,0.08739888198971747
1763694523173928200,6.62592822265625,0.15604575376901775,-0.1916226420521736,0.08104410613551735
1763694523183950000,6.6359501953125,-0.06029871188448742,0.1761550238072872,-0.6332616629362106
1763694523193972200,6.64597216796875,-0.06162501031849533,0.17296762594282625,-0.6462712205044925
1763694523203995100,6.6559951171875,0.19425178497936577,0.22869418933987617,-1.1891945869982241
1763694523214017300,6.666017333984375,0.34475046254787595,0.2550269004702568,-1.3226039634041487
1763694523224039400,6.676039306640625,0.4656400741964578,0.29515725080668925,-1.4193443819738925
1763694523234061300,6.686061279296875,0.4835188452363014,0.28808161333203314,-1.4490888012439012
1763694523244084500,6.69608447265625,0.6278805544197559,0.20457447808384893,-1.530850115738064
1763694523254106400,6.7061064453125,0.6057552318513393,-0.3494184178262949,-1.7323448941156268
1763694523264128300,6.716128173828125,0.6339923152983188,-0.3583972585737705,-1.7681556276872754
1763694523274151400,6.7261513671875,0.433362190926075,-0.4577858535647392,-1.7470085025012492
1763694523284173300,6.73617333984375,0.42628772249519825,-0.20275193883180617,-1.7895169801458715
1763694523294195200,6.7461953125,0.451372479391098,-0.21239362740218637,-1.8251961962923406
1763694523304217300,6.75621728515625,0.5688438435614108,-0.14389642975926398,-1.4809189407467842
1763694523314240300,6.766240234375,0.592706365185976,-0.15400222871005534,-1.5167486712798475
1763694523324262400,6.776262451171875,0.4662146592140197,-0.4406359813213348,-0.6526508385390043
1763694523334284300,6.7862841796875,0.3304594503343105,-0.3708013975948095,-0.38079526060372587
1763694523344307200,6.79630712890625,0.24752514653801916,-0.18863047449886797,-0.2955468346461654
1763694523354329300,6.806329345703125,0.15010055422955193,0.015265373671054839,-0.33549919806718825
1763694523364351200,6.816351318359375,0.17475334031581877,0.0015168343037366865,-0.37951983384042975
1763694523374373000,6.826373046875,-0.0777355478431098,0.23116087171435354,-0.2637637491554022
1763694523384396300,6.836396240234375,-0.052015433919429775,0.21548399463295936,-0.31188539050668473
1763694523394418200,6.846418212890625,0.1245592766046524,0.1444102245002985,-0.5508668728441
1763694523404440000,6.856440185546875,0.17119124565375968,-0.00033317747712135315,-0.9000535277411341
1763694523414463200,6.866463134765625,0.19708090745806692,-0.017913257831335065,-0.9506123331114649
1763694523424485000,6.876485107421875,0.01447276198863983,-0.3105313455492258,-1.5033394468694925
1763694523434507300,6.88650732421875,0.06176061939690262,-0.5375327594965696,-1.8372206883460283
1763694523444529400,6.896529296875,0.08122406581230461,-0.5524731389969587,-1.8778776929050682
1763694523454552000,6.906552001953125,-0.0453389883628115,-0.7652256628394126,-1.9925597186177968
1763694523464574500,6.916574462890625,-0.3479577341565862,-0.8061725902557373,-1.576696359503269
1763694523474596400,6.926596435546875,-0.3022200653323904,-0.7807488106638193,-1.3952160490199923
1763694523484619300,6.936619384765625,-0.29477325645778324,-0.7884715138703584,-1.4154787925869226
1763694523494641400,6.946641357421875,-0.3371019570887089,-0.6438824256718159,-1.122030391524732
1763694523504663300,6.956663330078125,-0.33128125157859173,-0.6469657786399126,-1.1297262067243456
1763694523514685200,6.966685302734375,-0.20442246585991233,-0.42940614677667616,-0.8389291969537734
1763694523524708400,6.976708251953125,-0.35277068739626555,-0.6652648209184407,-0.4318631845399737
1763694523534730200,6.986730224609375,0.447619812326692,-1.00410046993196,-0.49799248400777574
1763694523544752400,6.99675244140625,0.4389420734176412,-0.9952648370474576,-0.4748413255229592
1763694523554775300,7.006775390625,0.3351228390354663,-0.7441992414236068,-0.3565285420924425
1763694523564797200,7.016797119140625,0.6020996319532395,-0.8639666075766086,-0.28369565333276986
1763694523574819300,7.0268193359375,0.5625356833279133,-0.8475970720559358,-0.2410641338303685
1763694523584841200,7.03684130859375,0.8591407948553562,-0.5272469278037548,-0.416782227525115
1763694523594864400,7.046864501953125,0.8734954834222793,-0.22695056054294108,-0.4531166927099228
1763694523604886300,7.05688623046875,0.7974865949749946,-0.20632395209968088,-0.3946694721773267
1763694523614908200,7.066908203125,0.8881395103245973,0.2950982140958309,-0.45793081499338145
1763694523624930300,7.076930419921875,0.7915636346668005,0.31670798835754393,-0.3888888429492712
1763694523634953200,7.086953125,1.1517501147449016,0.6357517261862754,-0.18900573755204678
1763694523644975000,7.09697509765625,1.4410112932503223,0.4879010058432817,0.029101006799936293
1763694523654997200,7.106997314453125,1.6238503248661755,-0.09332476490736007,0.45883477809578177
1763694523665020200,7.117020263671875,1.4860007740557193,-0.07832944034934043,0.53811932721287
1763694523675042000,7.1270419921875,1.7169950570315122,-0.7065595388591289,1.1521487586736678
1763694523685064700,7.137064697265625,1.232944296875596,-0.8250462175518274,2.0840411937460304
1763694523695086600,7.147086669921875,1.0845499711751938,-0.8220078727692365,2.1532326572634277
1763694523705109800,7.15710986328125,0.269726456952095,0.314430691075325,0.16782310266122222
1763694523715131600,7.167131591796875,0.44055107951685785,0.3976560867726803,-0.5792337201505899
1763694523725153800,7.17715380859375,-0.061861851281672715,-0.20393793374598024,0.08258125257492065
1763694523735176700,7.1871767578125,-0.20705285089612005,-0.2045242092013359,0.18537644113898277
1763694523745198800,7.19719873046875,-0.7716513119727373,-0.2092775412082672,0.050369128017127514
1763694523755220700,7.207220703125,-0.33949732779264447,-1.4813888963460922,0.6910936741799115
1763694523765243000,7.217242919921875,0.32450171097368,-2.298669740593433,1.5211001444876193
1763694523775265800,7.227265869140625,0.7687696190565824,-2.4265730669289827,1.4559602944485843
1763694523785288000,7.237287841796875,1.0694720829002557,-2.674502702614665,2.1866471433483063
1763694523795309800,7.247309814453125,0.9170400261163711,-2.7033739923119544,2.250313852094859
1763694523805332700,7.257332763671875,-0.015255144537985325,-1.8875234731286763,1.75929749071002
1763694523815355000,7.26735498046875,-0.15631985800266265,-1.9216309099137783,1.8047152799300847
1763694523825376800,7.277376708984375,-0.9154144707411527,-0.7738333321869373,-0.05154007149264216
1763694523835398700,7.287398681640625,-1.0912082600206137,-0.25420155556201934,-1.3026305581726132
1763694523845421800,7.297421875,-1.1760960359722374,-0.27413375200033185,-1.2432163923040032
1763694523855443700,7.307443603515625,-0.5978428512915969,0.18348726639151572,-2.5990868116244674
1763694523865465900,7.3174658203125,-0.6574114770695567,0.17199147438704968,-2.5239935767173765
1763694523875488800,7.32748876953125,-0.35198563796579835,-0.29131694199144836,-1.5080812345691024
1763694523885510700,7.3375107421875,-0.14260931255817413,-0.5566735132962465,-0.9305939196944236
1763694523895532800,7.34753271484375,0.4141588932842016,-0.866073224467039,0.3933412192482501
1763694523905554700,7.3575546875,0.1757026038646698,-0.49412616396844383,1.2248848359953612
1763694523915577600,7.36757763671875,0.12346651293188332,-0.5105547361999749,1.262797291086614
1763694523925599700,7.377599853515625,-0.4108753415688872,1.0285755704969166,0.6009001199703663
1763694523935621600,7.38762158203125,-0.4246867170393467,0.8974515285491943,1.1073596227459608
1763694523945644800,7.397644775390625,-0.40262335379123687,1.131025306624174,1.175870556653291
1763694523955666700,7.407666748046875,-0.34545945106744763,1.3279133218586443,1.1660402867082507
1763694523965688800,7.417688720703125,-0.38134558796286583,1.3141010696053503,1.1746763784326613
1763694523975711000,7.4277109375,-1.542884106272459,1.6645564292639492,0.8924581041760742
1763694523985733600,7.437733642578125,-1.5663976683288812,1.6565128235399722,0.9144678375408053
1763694523995755800,7.447755859375,-0.8806915324062109,1.0845224986463784,-0.10062566250525415
1763694524005778000,7.45777783203125,-0.5726257001876831,0.5454109455257654,-0.27446714867316185
1763694524015800800,7.46780078125,-0.9700842185616493,0.4068354185283184,-0.3301656915521249
1763694524025823000,7.477822998046875,-1.2789268803715705,0.20657354294657707,0.3803944977831095
1763694524035844900,7.487844970703125,-0.9126116882801055,0.41375089700520035,0.5284808535128832
1763694524045866800,7.49786669921875,-0.9223372557416558,0.4124421524941921,0.5898016567204147
1763694524055890000,7.507889892578125,-0.9621551791280507,0.7711579754978418,0.6600824498444795
1763694524065911800,7.517911865234375,-0.6850573166251183,0.21457506309449673,0.38902898207232356
1763694524075933700,7.52793359375,0.1493883051738143,-0.8277619062513113,0.11476422410346566
1763694524085956900,7.537956787109375,0.14614625451266763,-0.8280787171155214,0.18050145551376043
1763694524095978800,7.547978759765625,-0.11213760192692279,-0.26620471256673334,-0.25568755633607504
1763694524106000600,7.558000732421875,-0.12282090850472449,-0.2707780118316412,-0.17241587381158022
1763694524116022800,7.568022705078125,-0.5610533358156681,1.0615309146374463,0.08450748966345563
1763694524126045700,7.578045654296875,-0.25319325530230996,1.0000304440140724,-0.3655914809267968
1763694524136067800,7.58806787109375,-0.26571312965750693,0.3929547772139311,-0.259545218144916
1763694524146089700,7.59808984375,-0.25848317840397356,0.39269057331979274,-0.17616211113519967
1763694524156112600,7.608112548828125,-0.5283943442732095,-0.15457389111816883,0.4450402441622689
1763694524166134800,7.618134765625,0.21837474763840437,-0.2995335661947727,1.0258069825664162
1763694524176156700,7.62815673828125,0.23148966527730225,-0.29748890862464905,1.0806770752646029
1763694524186178600,7.638178466796875,-0.219874923068285,1.4817998152345417,0.2759197586342692
1763694524196201700,7.64820166015625,-0.5192582671374082,1.8892524888783693,1.511581790035963
1763694524206223600,7.6582236328125,-0.4911480249404907,1.8978975676268337,1.549351840981841
1763694524216245800,7.668245849609375,-0.2664607331544161,1.6438725376755,1.101534496789053
1763694524226268700,7.6782685546875,-0.227476630243659,1.6586211939960718,1.1148822002705185
1763694524236290800,7.688290771484375,-0.9385478013083338,2.3904700724124908,-1.4848825836807489
1763694524246313000,7.69831298828125,-0.30794425166547296,2.057366829571128,-1.3641732605025172
1763694524256334800,7.7083349609375,0.29248861611932514,1.470659997060895,-0.6172457631587982
1763694524266357800,7.718357666015625,0.457476641485095,-0.11365209814310073,1.5007875704295932
1763694524276380000,7.7283798828125,0.5083317994534969,-0.0961731400758028,1.5166037098512053
1763694524286401800,7.73840185546875,1.4665487623497844,0.6584750146478414,0.9332686918616294
1763694524296425000,7.748425048828125,1.5002473260730504,0.6717091747522353,0.9239403070241212
1763694524306446800,7.75844677734375,1.3474977277725935,0.589684971538186,2.2285205379597843
1763694524316468700,7.76846875,1.3084236084908247,0.047131169009208676,2.858205073061585
1763694524326491000,7.778490966796875,1.5855501125663518,0.7610843252509832,-0.2842103248566389
1763694524336513800,7.788513671875,1.6143302168488503,0.7737292872905731,-0.3130968851882964
1763694524346535700,7.79853564453125,1.0799798867806791,-0.0018698855251073835,-1.5413544124871492
1763694524356557800,7.808557861328125,1.1044833366572857,0.00786357298195362,-1.5570564240098
1763694524366579700,7.818579833984375,1.05978962392807,-0.06820669026374816,-1.1141511825822292
1763694524376602600,7.8286025390625,1.079098135510087,-0.08511983114182949,-0.919141966831684
1763694524386624800,7.838624755859375,1.087061661735177,-0.08224047631323338,-0.9215420137107372
1763694524396646700,7.848646728515625,0.47152679414749143,-0.21155133135914803,0.20206585626378654
1763694524406669800,7.858669921875,0.4876981767475605,-0.20708090794682502,0.21370558678358792
1763694524416691700,7.868691650390625,0.06896598419845104,-0.6704618050396443,0.3837508955389261
1763694524426713600,7.878713623046875,0.8667775733441114,-0.7245183893978595,0.7530599356841295
1763694524436735700,7.88873583984375,0.30737375830113883,-0.6638064388036727,2.3467978116855024
1763694524446758700,7.898758544921875,0.2258475677371025,-0.18067396253645418,3.949945248001814
1763694524456780800,7.90878076171875,0.26560207049846646,-0.16881868956983087,3.9571892277806997
1763694524466803000,7.918802978515625,1.7877318502947688,-1.2502227639347314,5.101750892326235
1763694524476825600,7.92882568359375,1.7930571369707584,-1.245500996109843,5.066141818806528
1763694524486848000,7.938847900390625,1.3521794558480382,-0.9146522541970014,1.7780524600625036
1763694524496870000,7.948869873046875,1.3301634388729928,-0.9186445387035608,1.7418126874238251
1763694524506891800,7.958891845703125,0.42392450049519537,-2.583137839603424,0.08702785672023892
1763694524516915000,7.9689150390625,-0.18481120847165583,-2.971467295104265,-0.35029198579043147
1763694524526936800,7.978936767578125,-0.1895581107378006,-2.9735698203414676,-0.342143239191547
1763694524536958700,7.988958740234375,-1.2059388010501861,-1.8973153838247059,-1.146679533482343
1763694524546982000,7.99898193359375,-1.2299202728793024,0.1423527074486017,-1.9381991828769445
1763694524557003800,8.009003662109375,-0.8411372283920645,0.6350029536455869,-1.1452622140303252
1763694524567025700,8.019025634765624,-0.28751725744754075,0.8890157086372374,0.5833901091776788
1763694524577047800,8.0290478515625,0.13852175098359584,1.5030723203659058,0.9194629424143582
1763694524587070700,8.03907080078125,0.1677501835554838,0.16369593972861765,2.1873519306167957
1763694524597092900,8.0490927734375,0.19578473016768694,0.1737111377865076,2.1680723528683186
1763694524607114800,8.05911474609375,0.029842180556058882,-2.022272719836235,2.337760811010003
1763694524617137700,8.0691376953125,0.4815338088989258,-0.8998948300480842,0.22643479304052888
1763694524627159800,8.079159912109375,0.05762742858231067,-0.3992056543022394,-0.19156221710182725
1763694524637181700,8.089181640625,0.06558101793527603,-0.39347324813008305,-0.23556794756688176
1763694524647203600,8.09920361328125,-1.5992285093069076,-0.5316682513773441,1.0968842598304152
1763694524657226800,8.109226806640624,-1.5716829152554272,-0.5207768550068139,1.0499383842602372
1763694524667248600,8.11924853515625,-0.8456894848689437,-0.9188415225803852,0.20772326097097246
1763694524677270500,8.1292705078125,-0.7212938743934035,-1.303469785475731,0.4170810278085991
1763694524687293200,8.139293212890625,-1.0720143147289751,-1.208022037065029,0.08491999772079288
1763694524697315300,8.1493154296875,-1.0259218411177395,-1.1942717441320418,0.04989825910236686
1763694524707337500,8.15933740234375,-1.2618928895927966,-1.145956918296218,0.9658385438159107
1763694524717359400,8.169359375,-1.212947510768473,-1.1319956129610538,0.9244877117738127
1763694524727382500,8.179382568359374,0.5563397512972355,-1.256670624899864,1.5240671775996684
1763694524737404400,8.189404296875,0.981586148045957,-2.02506030472815,1.5352451358266175
1763694524747426300,8.19942626953125,0.9893167422980069,-2.021485953372717,1.463312410777062
1763694524757449500,8.209449462890625,0.3581853693887591,-1.2705273008167743,0.5515959177710116
1763694524767471400,8.219471435546875,-0.2271849538207054,-1.717469104284048,-0.20993490913845597
1763694524777493200,8.2294931640625,-0.6436470094807446,-1.7788211063474415,-0.43533944581579415
1763694524787515400,8.239515380859375,-0.6579083206757903,-1.7822329606175422,-0.4822337007965892
1763694524797538300,8.249538330078124,-0.9180144241064786,-1.1465952161997557,-0.7205289544355123
1763694524807560200,8.259560302734375,-1.4380138650000094,0.32631752822399135,-0.534553086098656
1763694524817582300,8.269582275390626,-2.5806319942623377,0.7886188133865595,-0.2624099051273428
1763694524827605200,8.279605224609375,-2.58402163670063,0.7871534170091151,-0.29755198218980805
1763694524837627400,8.28962744140625,-2.589049401734769,2.6024714856266975,-1.0247601769272237
1763694524847649300,8.299649169921874,-2.558045483922958,2.609717218971252,-1.0390557557180524
1763694524857671200,8.309671142578125,-1.2644745766490697,6.896871976089477,-3.1719810996204614
1763694524867694300,8.3196943359375,0.08561901283562183,6.99248514419496,-3.4701869243428107
1763694524877716200,8.32971630859375,0.12452099042087793,7.00207013414204,-3.4411975612238046
1763694524887738000,8.339738037109376,0.9945166490286588,1.6268120972812175,-1.8128747671186922
1763694524897761300,8.34976123046875,0.6085094989955425,0.22366847013235092,-0.2436180560968816
1763694524907783200,8.359783203125,0.6369581793665886,0.23008009074032304,-0.23294921643584965
1763694524917805300,8.369805419921875,-1.47160166182518,-0.695419720685482,0.7718326598890125
1763694524927827500,8.379827392578125,-0.8080711173534393,-0.6507394519597292,0.4842444926297292
1763694524937850000,8.38985009765625,-1.167021918156743,-0.8949760783463716,0.8369656417958438
1763694524947872500,8.39987255859375,-1.1169830450072884,-0.8848767091363668,0.8365839490018785
1763694524957894400,8.409894287109376,0.47547903890460724,-0.9888210677355528,0.8214927628539502
1763694524967917300,8.419917236328125,0.5086527019709348,-0.9827122294664382,0.7988243463847786
1763694524977939500,8.429939453125,1.4431424600601195,0.33749358675479885,0.3876970758814364
1763694524987961300,8.43996142578125,1.449467571428418,0.3385036405801773,0.3764274938482791
1763694524997983200,8.449983154296875,0.1864028615772724,1.6432593742132187,0.5494270492993295
1763694525008006400,8.46000634765625,0.18889058673977852,1.6437012727618217,0.5479232936728745
1763694525018028300,8.4700283203125,-0.006293547186255455,1.458281577003002,0.766819654032588
1763694525028050400,8.480050537109374,-0.036640900785475966,0.7398860543996095,0.9061724490128457
1763694525038073300,8.4900732421875,-0.015860416954755784,0.5936264026403427,0.5579004247426986
1763694525048095200,8.50009521484375,-0.012565613193064927,0.3559855212569237,0.061563763384241604
1763694525058117400,8.510117431640625,-0.007932692695409058,0.3558703704446554,0.027639921271428464
1763694525068139300,8.52013916015625,-0.5155372007876634,-0.6305629253715276,-0.6453422690913081
1763694525078162200,8.530162109375,-0.5122765915565193,-0.6305068112701178,-0.661387833354622
1763694525088184300,8.540184326171875,-0.2736639425314963,-1.6606763729602096,-0.591657294524461
1763694525098206200,8.550206298828124,0.04686155828759074,-0.9938450333774089,-0.45181781200580295
1763694525108228000,8.56022802734375,0.08858005459830165,-0.1324357090681791,-0.4662091427886858
1763694525118251300,8.570251220703126,0.09388400622531771,-0.1313783089697361,-0.46352063435707236
1763694525128273200,8.580273193359375,-0.2730501945473254,0.5847644662708044,-0.5576193793116138
1763694525138295300,8.59029541015625,-0.2621652279175818,0.5867851584434509,-0.5557175642782822
1763694525148318200,8.600318115234375,0.3324522315867245,0.13640578174293042,-0.7169341448139399
1763694525158340000,8.610340087890625,0.7313298229783773,-0.356191857483983,-0.9926884106881916
1763694525168362500,8.620362548828124,0.6881085208892822,-0.9035241264611482,-1.0807779052905737
1763694525178384400,8.63038427734375,0.5972901858448982,-0.9494155245423317,-1.2085177116274832
1763694525188407300,8.6404072265625,0.6059136372834444,-0.9487275422781706,-1.2283677827402948
1763694525198429400,8.650429443359375,-0.011301584606617688,-0.10893676005899905,-1.0558858944877982
1763694525208451300,8.660451416015626,-0.004792056582123041,-0.1090653548747301,-1.0833787354387343
1763694525218474500,8.670474609375,-0.05205167427659035,0.41218145573139187,-0.34604550732709466
1763694525228496400,8.680496337890625,-0.14602408943772316,0.6371680227249861,0.0255352406097576
1763694525238518300,8.690518310546874,-0.13505787426531313,0.6371072324484587,-0.00922934490982443
1763694525248540400,8.70054052734375,-0.27745222889855503,-0.07183189502358436,-0.29038930575251576
1763694525258563300,8.710563232421874,-0.25774799599722026,-0.07022504434883595,-0.3172303682638332
1763694525268585200,8.720585205078125,0.43182650579139586,-0.7571879023343324,-0.4966380737241357
1763694525278607400,8.730607421875,0.04554536112248897,-0.9634083940595388,-0.320571239656955
1763694525288630300,8.74063037109375,0.5729045171290635,-1.0712813242793082,-0.41834538518860936
1763694525298652400,8.75065234375,1.0552795991577208,-0.896262026503682,-0.6781467335190624
1763694525308674300,8.76067431640625,0.7497733882941305,-0.5384025280684233,-0.7683917987201362
1763694525318696200,8.7706962890625,0.7443991479098796,-0.5397615414619445,-0.775539040126279
1763694525328719400,8.78071923828125,2.780990315955877,0.08580956697165966,-1.6328186442196368
1763694525338741200,8.7907412109375,2.758326648727059,0.08124211292564869,-1.6455515768036246
1763694525348763100,8.80076318359375,-0.8636784382849931,-0.026326281389594076,-0.022594109123945234
1763694525358786300,8.810786376953125,-0.055997635423392055,-0.3039648266404867,1.047435753789544
1763694525368808200,8.82080810546875,-2.1412388526089488,1.8565782997667788,-1.7731921605497598
1763694525378830000,8.830830078125,-2.1223650791823863,1.8554712153077124,-1.8188351368278264
1763694525388852500,8.8408525390625,-0.13514146089553833,0.02150982101857662,-2.3194006861940024
1763694525398875100,8.850875244140624,0.3668148121766746,-1.7290350389152764,-1.4929090921394526
1763694525408897300,8.860897216796875,0.36745442525446415,-1.733103311267495,-1.533139249588549
1763694525418919400,8.87091943359375,1.132023085489869,-2.257046521350741,-1.857766048246622
1763694525428942000,8.880942138671875,1.403600577136129,-1.954505590033531,-1.935305507262051
1763694525438964500,8.890964599609376,1.8104858261555432,-1.5500117661952972,-2.7053619512587783
1763694525448986400,8.900986328125,2.172019629189372,-1.203158230420947,-2.9988448391124605
1763694525459008300,8.91100830078125,2.144347778409719,-1.2070049689769744,-2.992390840667486
1763694525469031400,8.921031494140625,1.2032387483112514,-1.3922645057380199,-2.5332369136199353
1763694525479053300,8.93105322265625,1.0902344465523957,-1.5663333709210157,-1.754437191197276
1763694525489075500,8.941075439453124,1.585685721644759,-2.341020689588785,-0.7690261511009187
1763694525499098400,8.951098388671875,1.512640943700075,-2.3485148447364566,-0.7065520862050354
1763694525509120300,8.961120361328126,2.9381688366144894,-2.5191689330399036,-1.446179635798931
1763694525519142400,8.971142333984375,2.8270214147686956,-2.53541981061697,-1.3674397149525581
1763694525529164300,8.981164306640625,2.5902947256207463,-2.401069792360067,-2.9531410725578664
1763694525539187200,8.991187255859375,2.3110136738598346,-1.3687830923855304,-3.0809631503507493
1763694525549209300,9.001209228515625,1.0850722414836287,-0.704987174975872,-2.33973868695423
1763694525559231200,9.011231201171874,0.8970634060144423,-0.7512889074236154,-2.1537587269641456
1763694525569254400,9.02125439453125,-1.4199243738189338,1.1630378169566393,-0.5717628362806514
1763694525579276300,9.0312763671875,-1.5659256669029593,1.1145686773419379,-0.3592409428562969
1763694525589298200,9.041298095703125,0.6321952027484774,2.6372365095376966,-0.07280176296904682
1763694525599320300,9.0513203125,2.233105673792958,-1.3673171114861964,2.0909932048410176
1763694525609343200,9.06134326171875,-1.1171920115828513,-4.618179440119862,3.0142461141228676
1763694525619365000,9.071365234375,-1.2594406741350888,-4.679967495512962,3.0941110934764144
1763694525629387300,9.08138720703125,-2.626521346516907,-1.0434750334650278,3.8731837876215574
1763694525639409400,9.091409423828125,-2.728641996820271,-1.0902999130040407,3.91406963250041
1763694525649432300,9.101432373046874,-1.7264309938967226,0.6005062252819537,2.1672662971824406
1763694525659454500,9.111454345703125,-1.8066893564820288,0.5620411778092383,2.194051135994494
1763694525669476400,9.121476318359376,-1.2888678441494703,-0.8233686397284269,0.5334045736506581
1763694525679499300,9.131499267578125,-0.8781336646169423,-1.4135878642737865,0.5901242397382855
1763694525689521200,9.141521240234376,-1.0592296519577502,-1.347934950146079,0.44885399376414714
1763694525699543000,9.15154296875,-1.1237298889189957,-1.3830629621505737,0.4810224983759224
1763694525709565200,9.161565185546875,-1.1942238133370875,-1.9254338093280792,0.5216156439185142
1763694525719588000,9.171588134765624,-1.6791098552733659,-0.7720312512010336,0.8833664507038891
1763694525729610000,9.18160986328125,-1.5282149449288844,-0.22208850746452807,1.9344985747933388
1763694525739632000,9.191632080078126,-1.6978297533124684,0.5089958163201809,1.9748976590685545
1763694525749655000,9.201655029296875,-0.8536080029085278,1.0238637395441532,1.053523987662047
1763694525759677200,9.21167724609375,-0.8579615219429135,1.0117986232191323,1.117729771721363
1763694525769699000,9.221698974609374,-1.0792071488425135,1.0586153194516896,1.4485697458058595
1763694525779721000,9.231720947265625,-1.0849065295279026,1.0460767403960227,1.5057238577879963
1763694525789744000,9.241744140625,-2.2548563178300856,1.7813813122242688,1.4415832479193806
1763694525799766000,9.25176611328125,-2.9063641238138076,1.9840350513786076,1.4848578876309095
1763694525809788000,9.261787841796876,-2.6884692686468363,2.149901905405521,1.3319824709936976
1763694525819811000,9.27181103515625,-1.956820588977635,2.498214407816529,1.542345615481585
1763694525829833000,9.2818330078125,-1.8796458716213702,2.5251941846787926,1.5971861898243427
1763694525839854800,9.291854736328125,-1.5785978092104196,3.084971509209275,3.245664759990573
1763694525849877000,9.301876953125,-1.4907389084935188,3.1247932319879532,3.253393016155064
1763694525859900000,9.31189990234375,-1.0896993167623876,2.3496698599904775,0.6588210516065359
1763694525869922000,9.321922119140625,-1.3453002177283166,2.044188783568144,0.1552731254287064
1763694525879944200,9.331944091796874,-1.15063426245749,1.9809639733701943,0.14386033553257585
1763694525889966800,9.341966796875,0.35793373271524903,1.3936866474956273,1.317911860065162
1763694525899989200,9.3519892578125,0.8568120596468448,1.523534678158164,1.3309769472129642
1763694525910011100,9.36201123046875,0.9469622861713171,1.574258903223276,1.2431195078007875
1763694525920033000,9.372032958984375,1.8061252928584812,2.0923475420594215,0.3966941098727286
1763694525930056200,9.38205615234375,2.7023879038840533,2.230209367829561,0.6122511697418987
1763694525940078000,9.392078125,3.0856869640022513,2.5522744993060824,-1.6319745946109294
1763694525950100000,9.402099853515624,3.381614030137658,1.5455875200122593,-1.5958905970558523
1763694525960123100,9.412123046875,3.393064813956618,1.560856985336542,-1.6917831666246055
1763694525970145000,9.42214501953125,2.635965758949518,0.6956675579667091,-1.227483401121199
1763694525980167200,9.432167236328125,2.8562504318624735,-1.3247738547891377,-1.894096421778202
1763694525990189000,9.44218896484375,3.1667323853120206,-2.823835185948014,-2.1695140761092304
1763694526000212000,9.4522119140625,3.543514610882103,-4.13966001060605,-1.8636977763831615
1763694526010234000,9.462234130859375,3.6065903679981828,-3.999596290877461,-1.358362236136198
1763694526020256000,9.472256103515624,3.594480535748601,-4.003188762411475,-1.3662804619148372
1763694526030279200,9.482279052734375,2.640084007923305,-0.7644605236858129,-0.14953976940847932
1763694526040301000,9.492301025390624,1.0577411669656633,0.979905939874053,-0.47085028312541544
1763694526050323000,9.502322998046875,1.0507105376765131,0.976073229843378,-0.4556655734751373
1763694526060345000,9.512344970703126,-0.3547124325811863,-2.5105285304665563,-0.592916062413901
1763694526070368000,9.522367919921875,-1.6222656860232352,-4.8344075311183925,0.07243519467897713
1763694526080390000,9.532389892578125,-3.5448473207905886,-5.290169185379147,0.7065824082780628
1763694526090412000,9.542412109375,-2.866203962861001,-4.415545574709773,1.2387450921088456
1763694526100434200,9.55243408203125,-2.837321274986863,-4.4046202760696405,1.2290300460413097
1763694526110456800,9.562456787109374,0.1943649264976382,-1.8932243151187895,1.9052809558764099
1763694526120479200,9.572479248046875,-0.3704123982772231,0.23580080647468565,1.1200647174749523
1763694526130501000,9.582501220703126,-0.02239215681105852,2.566391287463903,0.8607097246725112
1763694526140524000,9.59252392578125,-0.021163784059882163,2.565144502273202,0.879911122618243
1763694526150546200,9.602546142578126,-5.99925795045495,1.8876777869075536,4.338681530737877
1763694526160568000,9.612568115234374,-5.940087968605757,1.9079466679543255,4.335850691226124
1763694526170590200,9.622590087890625,-2.449305123218894,0.4972954416543245,2.4319622126214204
1763694526180613000,9.632613037109374,-2.382163431838155,0.5225736752957105,2.388571399184316
1763694526190635000,9.642635009765625,-3.287177796857059,0.6527917083144188,3.0079350312799216
1763694526200657200,9.6526572265625,-3.2142309263288973,0.6805868932127952,2.928594952583313
1763694526210680000,9.66268017578125,-3.919238851831853,2.182719302380085,3.1125857845827936
1763694526220702200,9.6727021484375,-3.8300647768631575,2.2139047142386437,2.9964985682472585
1763694526230724000,9.68272412109375,-1.184474572739005,0.8832254347980022,2.9004753580361604
1763694526240746000,9.69274609375,-0.8539882343977689,0.3869172506153583,0.6731256174214184
1763694526250769200,9.70276904296875,-0.38705651295557614,-0.378327701446414,-0.9573218406874686
1763694526260791000,9.712791015625,-0.8483348848111927,-1.0148621024429798,-0.24468707356788216
1763694526270813000,9.72281298828125,-0.7484855404406785,-0.994659856891632,-0.36223639834523197
1763694526280836000,9.732836181640625,0.23522300658673045,-1.1526567081958055,-0.9394298448398709
1763694526290858000,9.74285791015625,0.3501481934055686,-1.1316899080127476,-1.0099471501335502
1763694526300880000,9.7528798828125,1.9731468698784709,-3.297160553950071,-2.7254791488751766
1763694526310902000,9.762902099609375,2.084610079675168,-3.2784646213084456,-2.7647546359479427
1763694526320925000,9.772925048828125,2.664737679925561,-5.204175494012237,-0.7154415681686251
1763694526330947000,9.782947021484375,-1.2600040071062744,0.1657633936524391,-9.258138750371337
1763694526340969000,9.792968994140624,-0.08846782639548181,2.0834844366461036,-1.7404763242535293
1763694526350992000,9.802991943359375,-1.79172968775928,1.283271631577611,2.7793367035299537
1763694526361014000,9.813013916015626,-1.8774030611306427,1.5857833368003367,3.846789409431815
1763694526371036200,9.8230361328125,-1.7847762153595685,1.5978256567716598,3.86417104460448
1763694526381058000,9.83305810546875,-1.2654933983027934,1.2192799286603926,0.703678868856281
1763694526391081200,9.843081298828125,-1.1720195803135633,1.2291554259866475,0.7117256163854152
1763694526401103000,9.85310302734375,-1.9316618900626896,1.722094425997138,1.6990476046696303
1763694526411125000,9.863125,-1.6881950790047644,-0.6975029567003249,2.844467347349226
1763694526421148200,9.873148193359375,-1.60224522677958,-0.6933446679770946,2.7993264753744005
1763694526431170000,9.883170166015624,0.5063280584156513,-0.37786300654411314,-0.2620206683477387
1763694526441192200,9.893192138671875,0.5832277216902002,-0.3758680333346128,-0.3036081952225417
1763694526451214000,9.903214111328126,0.8247551256507635,-0.6053723700135946,-3.316106077438593
1763694526461237000,9.913237060546875,0.8995645751804113,-0.6017997722238302,-3.3082796215966344
1763694526471259100,9.923259033203125,0.09971943438053131,-0.058334700068831444,-3.695356154426932
1763694526481281000,9.933281005859374,-0.9026818304181098,2.29925426248312,-1.5691713708259165
1763694526491304200,9.94330419921875,-0.7973036396235227,2.302861347064376,-1.5277007117964327
1763694526501326000,9.953326171875,-0.11934417230486868,3.626360944133997,0.6319886473257095
1763694526511348000,9.963347900390625,-0.014215590623486787,3.6264123820602894,0.6511757975503802
1763694526521370000,9.9733701171875,0.6601508389055728,-0.37706045798957344,4.34761799364835
1763694526531393000,9.98339306640625,1.0164531710267066,-0.8066904766499996,3.044926499068737
1763694526541415000,9.993414794921875,0.8255494908988475,-0.902698197031021,1.8239333367496728
1763694526551437000,10.00343701171875,0.6485831507086753,-1.0970242528229952,1.5940930461145937
1763694526561459000,10.013458984375,0.7011994000654668,-1.103136013701558,1.5374711413130164
1763694526571481900,10.02348193359375,1.3648422458052634,0.21459493683874606,-1.0318797266088426
1763694526581504000,10.03350390625,1.405388191205263,0.20970716479718685,-1.0674517560537904
1763694526591526100,10.043526123046876,0.9816424813430755,-0.7402104640483855,-1.634266358809918
1763694526601549000,10.053549072265625,0.6003835487503558,-0.4886626378655433,-2.3618141790315508
1763694526611571200,10.0635712890625,0.6714741969525814,-0.49662382600307464,-2.3934144553013144
1763694526621593000,10.073593017578125,0.8651601282101125,-1.1485475193113088,-1.9801517802044748
1763694526631615200,10.083615234375,0.9257202492434531,-1.1578858410209416,-2.023562759646773
1763694526641638100,10.09363818359375,0.4674374790072441,-0.25626491783261296,-2.2845009299874306
1763694526651660000,10.103659912109375,1.5741607035458087,-0.5039654209375382,-2.013378050240874
1763694526661682200,10.11368212890625,1.6085912348054348,-0.5145230553090572,-2.0777499846473333
1763694526671705000,10.123705078125,1.7699755365908145,-0.764835202217102,-3.932642815545201
1763694526681727500,10.1337275390625,1.7748937037706374,-0.7724930234938859,-3.991338457880914
1763694526691749600,10.14374951171875,1.6542552538715303,-1.3645529074698686,-2.9097359383344648
1763694526701771500,10.153771484375,0.8733436538614332,-0.8362526712208985,-2.879197592207789
1763694526711794700,10.163794677734375,0.877614024657011,-0.8463269059896469,-2.9473405695855615
1763694526721816600,10.173816650390625,0.21772271347045896,-0.766950002413988,-4.221573154661059
1763694526731838500,10.18383837890625,0.22057401124835013,-0.7769301291584968,-4.2841082290291785
1763694526741861600,10.193861572265625,1.2437877624511717,-1.8949445630401371,-2.8122622370541093
1763694526751883500,10.203883544921876,2.281476613730192,-2.6033739874243733,-2.8503847546994683
1763694526761905400,10.213905517578125,3.087284462326765,-3.3321646473139523,-3.818978442442417
1763694526771927600,10.223927490234376,4.020746046411991,-3.8561838452428576,-4.743304533913731
1763694526781950500,10.233950439453125,3.8488673847496506,-3.8493729961842296,-4.7803187980562445
1763694526791972400,10.243972412109375,6.329440337413549,-4.687429501956701,-3.4334710586249826
1763694526801994500,10.253994384765624,6.06781418480873,-4.668635954159498,-3.383822353836894
1763694526812016400,10.264016357421875,3.546959490638971,-4.817800095188617,-2.1979871602691707
1763694526822039600,10.27403955078125,1.7460545627772808,-3.723536539250612,-0.23942148118987677
1763694526832061400,10.2840615234375,1.4150222809910773,-3.716427584028244,-0.06005377894639968
1763694526842083300,10.294083251953126,0.36624088474623856,-2.565934191346168,3.76477572761178
1763694526852106500,10.3041064453125,0.05756225439161062,-2.5827245826274154,3.963770067475736
1763694526862128400,10.31412841796875,-0.26324995441436766,-1.6929969263285398,3.3829318347379562
1763694526872150500,10.324150634765624,-1.5582389117926359,-1.7553391084730625,3.879399008874595
1763694526882172700,10.334172607421875,-1.7830461766965686,-1.7932623041540383,4.098666905960441
1763694526892195600,10.344195556640624,-3.6366707412242887,-1.9834183807849883,1.9283084879815577
1763694526902217700,10.3542177734375,-3.7652182106822725,-2.0149702878683806,2.094735021717846
1763694526912239600,10.364239501953126,-1.6989818459570407,-0.8015583744585514,-0.16684355357196182
1763694526922262500,10.374262451171875,-1.0358087366208433,-0.24302198989987372,0.9212660463135689
1763694526932284700,10.38428466796875,-1.1287713902175427,-0.2703366978049278,0.945525750562176
1763694526942306600,10.394306640625,-0.5596732796341181,-0.004532382732629776,1.1853083932146429
1763694526952328400,10.404328369140625,-0.2657905788078904,-0.5958540155619383,-0.8703426454145461
1763694526962351600,10.4143515625,-0.6567600274235009,-0.932061069637537,-1.9861023591719567
1763694526972373500,10.42437353515625,-0.7427730080127716,-1.5002888271272181,-2.650501357041299
1763694526982395400,10.4343955078125,-0.0628305501833558,-1.8054378951162098,-2.6518928113996982
1763694526992418600,10.44441845703125,-0.3734942899405956,-1.7648451879650353,-2.022610573488474
1763694527002440400,10.4544404296875,-0.4558049088805914,-1.7973329145938157,-1.939639737074077
1763694527012462600,10.464462646484375,-1.5917288012012838,-0.5885246955871581,-0.7749976997911929
1763694527022484500,10.474484375,-2.2877996792718767,-0.053154082560539245,0.029422749567590653
1763694527032507400,10.48450732421875,-2.8233219757288692,0.5245762472897768,0.8478785193458199
1763694527042529500,10.494529541015625,-2.397093874466419,1.0664806459993124,1.4227747948139906
1763694527052551400,10.504551513671874,-2.435543139848113,1.0406792652666568,1.534634310451895
1763694527062574600,10.51457470703125,-2.789811920315027,2.162711118096113,2.4550743542701006
1763694527072596500,10.524596435546876,-2.8320927266836167,2.1362889751166105,2.5334084707945586
1763694527082618400,10.534618408203125,-3.43856750498116,2.5306863523542877,3.380748353219032
1763694527092640500,10.544640625,-3.332340003880858,2.2579320720136162,3.6081554253578183
1763694527102663400,10.554663330078125,-3.5437545571178197,2.03211022323966,3.5273610561996698
1763694527112685600,10.564685546875,-3.5805800206899643,2.0144214218139647,3.5393873018190263
1763694527122707700,10.574707763671874,-3.2988141663759944,1.9083827212840319,1.9908402013488113
1763694527132729600,10.5847294921875,-3.3134014946550128,1.9023492863386868,1.9876079414293168
1763694527142752500,10.59475244140625,-3.5288106704860924,3.9536809273988007,1.480240603093803
1763694527152774700,10.604774658203125,-3.1903064453840253,4.312757984930276,1.1116482598505915
1763694527162796500,10.614796630859376,-2.5963375129163264,5.052216169306636,1.8604646396808324
1763694527172819700,10.62481982421875,-2.547047704568505,5.077316708293557,1.8311176952958106
1763694527182841600,10.634841552734375,-2.037037742769718,6.059326926970481,2.6384102294921874
1763694527192863500,10.644863525390624,-1.1333055265158414,6.640701750802993,4.009157315427065
1763694527202885600,10.6548857421875,-0.2245838314116001,6.412465826624632,4.0363837605267765
1763694527212908500,10.664908447265624,0.7944874131590127,5.433423225581645,3.5228514698207376
1763694527222930400,10.674930419921875,0.9245698370993137,5.489318715804815,3.445891564258933
1763694527232952600,10.68495263671875,2.9311504822850227,1.203010930904746,2.297450427931547
1763694527242975500,10.6949755859375,3.051196665379405,1.2528314851284026,2.1774714648544786
1763694527252997400,10.704997314453125,3.5526243845328684,-1.538665611794591,1.0428323516473172
1763694527263019500,10.71501953125,5.635565508082509,-5.231107924601435,-3.9676413559511303
1763694527273041400,10.72504150390625,5.704112390086054,-5.84138501779139,-6.389618619522452
1763694527283064600,10.735064697265624,5.879462527251243,-5.283464719304442,-7.405573193377256
1763694527293086500,10.74508642578125,5.926556286859512,-5.269461328393221,-7.432522575101256
1763694527303108400,10.7551083984375,5.648771611136198,-3.255194220358133,-7.178526771244406
1763694527313131500,10.765131591796875,2.423922260159254,-0.0314490312308073,-4.332019442500174
1763694527323153400,10.7751533203125,-0.40122050125598907,0.21894845587313175,-3.0572604954630136
1763694527333175300,10.78517529296875,-0.37965807326734063,0.22459084567427634,-3.0249115927830337
1763694527343197700,10.79519775390625,-3.958277023017406,-5.767271149310469,2.5097210134759544
1763694527353220400,10.805220458984374,-3.8035447264671323,-5.725892260217666,2.5226526835024354
1763694527363242800,10.81524267578125,-1.6319290019035337,-9.25389804406166,2.963343317620456
1763694527373264600,10.8252646484375,1.4511886961326002,-9.341623089265823,2.9971202072769403
1763694527383286500,10.83528662109375,1.828140433050692,-9.984356344902515,4.647171725848317
1763694527393309700,10.845309814453126,1.8340514106601475,-9.989331795227526,4.770482755957544
1763694527403331600,10.85533154296875,-1.254590457624942,-2.7286867127448318,5.7139685981899495
1763694527413353500,10.865353515625,-1.294918230229616,-2.743089332106709,5.789577673664689
1763694527423376600,10.875376708984374,-1.7477821172222494,0.2875257330149412,6.998234501501917
1763694527433398500,10.8853984375,-7.4560115872383115,4.475111277878284,6.662282298970222
1763694527443420400,10.89542041015625,-8.431825289362669,6.068128073063493,4.473758694225549
1763694527453442600,10.905442626953125,-7.804674218261241,6.842289322030544,2.3381904345989226
1763694527463465500,10.915465576171876,-7.667751719167828,6.875309548100828,2.246225559867918
1763694527473487600,10.925487548828125,-5.790155181291699,4.94670412299931,2.1468691135808826
1763694527483509500,10.935509521484375,-5.631350520735979,4.977901809817553,2.028606014510989
1763694527493532400,10.945532470703125,-3.355643138056993,1.8071277478992938,3.48552799359858
1763694527503554600,10.955554443359375,-1.9398639012187717,-0.7455167537629603,3.0543864013314246
1763694527513576400,10.965576416015624,-1.3182333471044898,-2.885820809739828,1.813523440285772
1763694527523598300,10.975598388671875,0.45234446622841057,-4.017622361433506,1.0389650086946784
1763694527533621500,10.98562158203125,0.6633475891202688,-4.003676838189363,0.9738530695758759
1763694527543643400,10.995643310546875,0.9129530490636825,-1.5766110193073748,-1.744715861519426
1763694527553665300,11.005665283203125,0.2288409043341875,-0.040024551874399183,-1.777326483875513
1763694527563688400,11.0156884765625,0.6263339094996452,1.2839479234039783,-1.670455278044194
1763694527573710300,11.02571044921875,0.6885176862120628,1.2842536283522843,-1.6921546302855013
1763694527583732500,11.035732421875,0.312552622243762,3.3978590624958276,-1.4435548402532934
1763694527593754600,11.045754638671875,0.35347032356560226,3.3978234066605566,-1.4521023038461804
1763694527603777500,11.055777587890624,-1.3388327752798794,2.419126842576265,0.8994884412042796
1763694527613799700,11.065799560546875,-2.1317057389795777,1.8129712132304905,1.678008469902724
1763694527623821600,11.075821533203126,-2.07271228274107,1.812414748391509,1.6754294131949543
1763694527633843500,11.085843505859375,-2.1040052466273305,0.21742343826293944,1.3644951859332621
1763694527643866600,11.09586669921875,-1.7904969310939312,0.10699848547279835,0.7296205348424613
1763694527653888500,11.105888427734374,-1.7054431509256363,0.10365443574190139,0.7103107080861926
1763694527663910700,11.11591064453125,-0.6180839675486087,0.07150164015591144,0.015727986214123666
1763694527673933600,11.12593359375,0.5692869111537933,-0.3874859904140234,-0.9033272887147963
1763694527683955700,11.135955810546875,2.484453008967638,-0.8149947791367769,-1.8317689988113939
1763694527693977600,11.1459775390625,2.5746634412467477,-0.8235638700395822,-1.8713355777852236
1763694527703999500,11.15599951171875,2.6926538608551023,-2.3093857803970574,-2.189656262036413
1763694527714022700,11.166022705078126,2.7509002981185913,-2.317770162382722,-2.2419302007615567
1763694527724044500,11.17604443359375,2.621238145416975,-2.5314590902924534,-1.424362940788269
1763694527734066700,11.186066650390625,2.0025755011975765,0.06485737983584404,-0.4498238617096096
1763694527744089600,11.196089599609374,0.841715101345256,1.276449092081189,0.18108868081718682
1763694527754111500,11.206111572265625,-0.6260463247299194,1.6450521028488874,0.021648498836904763
1763694527764133600,11.216133544921876,-0.34698030395917595,2.3436703273147343,-0.7940615889623761
1763694527774155500,11.226155517578125,-0.30785248172879215,2.328271098130941,-0.8936645573563873
1763694527784178700,11.2361787109375,-0.10472162658199667,2.733660409504175,-0.6471360206402837
1763694527794200600,11.24620068359375,1.01068182108365,1.8856530030816792,-1.621056748624891
1763694527804222500,11.256222412109375,1.9142332008779048,0.8182645945876836,-2.416912819788605
1763694527814245600,11.26624560546875,1.960289872523397,0.7987912478327751,-2.5049521916389463
1763694527824267500,11.276267578125,1.663289916459471,-0.9897259076207876,-2.6335136896222826
1763694527834289700,11.28628955078125,1.6939780463203786,-1.0060638789594172,-2.7044366531074044
1763694527844311800,11.296311767578125,1.1554456082619726,-1.090293483263254,-3.168266170750558
1763694527854334700,11.306334716796876,0.6398562388956547,-1.0206821868985891,-3.5521959299877284
1763694527864356900,11.31635693359375,0.7091444407857954,-0.6740776574492454,-4.335310300739109
1763694527874378800,11.326378662109375,0.721297527655214,-0.6828080763936042,-4.371132432487607
1763694527884400600,11.336400634765624,0.7539478974997997,-0.4112760313242674,-4.85438648930788
1763694527894423800,11.346423828125,0.8970283347010612,-1.453285668411851,-4.689104741692542
1763694527904445700,11.35644580078125,1.2955157577313483,-1.888853844949603,-4.736114914670586
1763694527914467600,11.366467529296875,2.560608027887344,-2.6499194655001164,-4.772064472191035
1763694527924490800,11.37649072265625,2.575917825222015,-2.652370365783572,-4.772331306433677
1763694527934512600,11.3865126953125,4.641110818374156,-2.983799537932873,-4.833371173807978
1763694527944534500,11.396534423828125,4.601031321442127,-2.9744425115227697,-4.817662732544541
1763694527954556700,11.406556640625,5.58701804253459,-3.6082805130422115,-4.7498406576842065
1763694527964579600,11.41657958984375,4.020677072829008,-4.271972385555506,-4.3098289457410575
1763694527974601700,11.426601806640624,3.492016771095991,-4.187701864719391,-4.143557018044591
1763694527984623600,11.43662353515625,4.534323345303535,-4.174650075444579,-4.096939643776417
1763694527994645500,11.4466455078125,5.467782591301202,-4.316765467005967,-3.318308555918932
1763694528004668700,11.456668701171875,6.197198105090856,-5.191383816978335,-2.0170441715329885
1763694528014690600,11.466690673828126,5.917755725288391,-5.1549885615169995,-1.8368226289391516
1763694528024712400,11.47671240234375,5.730998643445968,-6.036730479758978,-0.4580223657343536
1763694528034735600,11.486735595703125,1.6156313625752925,-5.105431626665592,2.8928958626925945
1763694528044757500,11.496757568359374,-0.6813894417673348,-4.562579717972874,4.458717192438245
1763694528054779600,11.506779541015625,-2.877799415847659,-4.079335598024726,5.508419722115993
1763694528064801800,11.5168017578125,-3.176815680170059,-4.113678012609482,5.752151906111836
1763694528074824400,11.526824462890625,-4.193142009946704,-4.48543218088448,5.816249407491088
1763694528084846800,11.536846923828126,-4.435480693757534,-4.537381563830375,6.036991176521778
1763694528094868700,11.54686865234375,-7.110722232040763,-4.736809326675534,8.436609016507864
1763694528104891600,11.5568916015625,-5.38910302233994,-3.9738621301621198,7.924303052726388
1763694528114913800,11.566913818359374,-3.3827620311290025,-1.9171558103263378,5.162478040489554
1763694528124935700,11.576935791015625,-3.5139021474286913,-1.9552935255408286,5.195891649791598
1763694528134957600,11.58695751953125,-0.37785219288915395,-0.6320733299344777,-2.598227272185683
1763694528144980700,11.596980712890625,-0.4970701084658503,-0.6682032124578953,-2.593619193868339
1763694528155002600,11.607002685546876,0.452840213856101,-0.6871276931583881,-7.899249860012531
1763694528165024800,11.617024658203125,-1.9096359362155197,-0.5416816958695649,-4.7663200833201405
1763694528175047700,11.627047607421876,-1.8750123666018246,-0.6954501158237457,-2.39061123444885
1763694528185069600,11.637069580078125,-1.959276165436208,-0.7501783158332109,-2.1951368854045867
1763694528195091700,11.647091796875,-2.0696897200495004,-2.342664365142584,-1.2544000496193766
1763694528205113600,11.657113525390624,-0.6276096285238861,-1.3985299958735704,-0.6176541978292167
1763694528215136500,11.667136474609375,-0.7134875845566392,-1.4546949506878852,-0.4935964410059154
1763694528225158700,11.67715869140625,-3.0737317377924915,0.31606267619132994,1.4631807472214102
1763694528235180500,11.6871806640625,-2.7573642334356903,1.2901958778828382,2.0948739917971193
1763694528245202400,11.697202392578125,-3.518305643084645,2.4352917954355475,2.932318941542506
1763694528255225600,11.7072255859375,-3.6013802321344612,2.3897405890941616,2.9723855789929625
1763694528265247500,11.71724755859375,-4.555448258657753,4.467897108715772,3.723456459751725
1763694528275269600,11.72726953125,-4.450355606806278,5.311282116034627,3.6780537219703193
1763694528285292500,11.73729248046875,-4.8066933025017375,5.987164777079224,3.787412506833672
1763694528295314400,11.747314453125,-5.102864406526089,6.275847863435745,3.919873934864998
1763694528305336800,11.7573369140625,-5.512123252809047,6.288998436909914,4.158005230113864
1763694528315358700,11.767358642578126,-5.455900430327653,6.427154277190565,3.9975066251218316
1763694528325381600,11.777381591796875,-5.432540013006329,6.453194142854214,3.926965354430675
1763694528335403800,11.78740380859375,-4.6019642183780665,6.995851405757665,4.335805098518729
1763694528345425700,11.79742578125,-4.2265749084711075,7.124783490619063,4.503057853946089
1763694528355448800,11.80744873046875,-3.4307278973966837,7.134391276919842,4.274425916187465
1763694528365470700,11.817470703125,-3.29822555283308,7.209667759439348,4.163461741954088
1763694528375492600,11.82749267578125,-0.4265910893559456,6.270109612044692,3.5916833062455056
1763694528385514800,11.8375146484375,-0.257478969797492,6.353883289274573,3.4581285300195215
1763694528395537700,11.84753759765625,1.6239385876715182,3.032390258100629,2.0994719871118663
1763694528405559600,11.8575595703125,3.623967619256675,1.1445704323738812,2.309962411241233
1763694528415581700,11.867581787109375,3.780900640721619,1.2083417705386876,2.1572033144600686
1763694528425603600,11.877603515625,5.831107369405031,-2.964671059092879,1.5450252099543809
1763694528435626800,11.887626708984374,8.3900647074759,-14.260405186116694,-3.2367674600467082
1763694528445648600,11.897648681640625,8.407350188797713,-14.251234037667512,-3.3606539519563317
1763694528455670500,11.90767041015625,8.13149911148548,-12.997713985753059,-8.197426750901341
1763694528465693700,11.917693603515625,7.72793350840807,-2.275991460317373,-8.417563539776205
1763694528475715600,11.927715576171876,6.418951681512594,-0.4788426701188087,-5.563467071077227
1763694528485737500,11.937737548828125,4.458715146611631,-0.5089969853639602,-2.9448250796332953
1763694528495759600,11.947759521484375,1.0091568765386938,-1.2576941227287053,-0.6715921242438256
1763694528505782500,11.957782470703124,0.9688196054533124,-1.2771873432278633,-0.5656753695931285
1763694528515804400,11.967804443359375,-3.019353081873059,-5.976073474222421,2.7610271398574113
1763694528525826800,11.977826904296874,-6.414059233295917,-8.137458896672726,3.720384797221422
1763694528535848700,11.9878486328125,-6.775593036329746,-8.569621648681164,3.9478231412813063
1763694528545871600,11.99787158203125,-6.684881668791174,-8.547344934943318,4.0027451102972025
1763694528555893800,12.007893798828125,-3.3455808859869838,-8.790161173138022,4.217833383610844
1763694528565915600,12.01791552734375,-2.808062739537656,-0.8489929103285073,3.440439144071936
1763694528575938800,12.027938720703125,-2.747469446887076,-0.8444435764610767,3.5463898740574717
1763694528585960700,12.037960693359375,-1.0601742393314837,3.4420541780531404,5.448356006297469
1763694528595982600,12.047982666015624,-1.412092949540913,2.8846652099639174,7.790123714861274
1763694528606004700,12.058004638671875,-1.3555350498862564,2.8977625919461247,7.801441812211275
1763694528616027600,12.068027587890626,-4.42257240460664,2.608003985312581,8.401324937158822
1763694528626049800,12.0780498046875,-4.342176971638202,2.6411387776732442,8.295235383224487
1763694528636071700,12.08807177734375,-5.960824467164278,4.59423625447452,5.998951660984754
1763694528646094600,12.098094482421875,-5.792421957179903,4.851446928724647,4.115209752221405
1763694528656116700,12.10811669921875,-4.877575641715526,4.4403345635294915,2.00034964184165
1763694528666138600,12.118138671875,-4.752448794355988,4.475540901467204,1.7791341178193687
1763694528676160500,12.128160400390625,-3.6047833185762164,2.55328689121902,-0.2657629236159846
1763694528686183700,12.13818359375,-3.272348768776655,-5.305077416175603,-3.0289143986836073
1763694528696205800,12.148205810546875,-2.3815393085904417,-6.643295858949423,-4.300696083475649
1763694528706227700,12.158227783203126,-2.2101894931077957,-6.622364130079746,-4.391080411016941
1763694528716249600,12.16824951171875,0.004025529189035296,-4.262828709635138,-5.958908988931775
1763694528726272800,12.178272705078125,1.476191327702999,-1.6453379340529442,-5.787414942672848
1763694528736294700,12.188294677734374,2.1361083578526974,0.5390642068475484,-4.781447217564285
1763694528746316500,12.198316650390625,2.2473031259715555,0.5478209292769431,-4.748341066776216
1763694528756339700,12.208339599609374,-0.6437678593814372,3.7249645262271165,-1.802264087385684
1763694528766361600,12.218361572265625,-0.5390028685817495,3.730735510843992,-1.7713298738092182
1763694528776384000,12.228384033203126,-2.9084160879075527,4.472619461062551,1.4809868914164601
1763694528786406000,12.238406005859375,-2.7966514109462497,4.1763714924097055,2.2658801084086297
1763694528796428800,12.2484287109375,-2.183179905629158,3.5569290959894655,2.840789827880263
1763694528806451000,12.258450927734375,-2.0505051271080967,3.5564445273429155,2.811496805639565
1763694528816472800,12.268472900390625,-0.8280231875360011,2.901436896544695,3.462530564370751
1763694528826495700,12.278495849609374,0.5779693627705798,1.3429057238072155,3.9721263924106953
1763694528836518000,12.288517822265625,1.244722851344198,0.7511755101770162,3.0290503000229596
1763694528846539800,12.298539794921876,1.3584358858942984,0.7414028887033463,2.9370795800730582
1763694528856561700,12.308561767578125,0.3111434860982001,0.566372485011816,0.01280333093907684
1763694528866584800,12.318584716796876,0.11373517331667243,0.153180390933156,-1.6919474172756075
1763694528876606700,12.328606689453125,0.30619828478097916,-0.45550095749795433,-2.972457475185394
1763694528886628900,12.33862890625,0.38186917344555255,-0.4686901094168424,-3.0510309534236786
1763694528896650800,12.348650634765624,-0.02069207489490509,-0.4335550831496715,-3.633995969057083
1763694528906673700,12.358673583984375,0.05936755024790764,-0.44748833143413064,-3.690834293088317
1763694528916695800,12.36869580078125,0.4306851537365466,0.2932335892677307,-3.875684080004692
1763694528926717700,12.3787177734375,2.8763141457259653,1.449514333179593,-4.671406003394723
1763694528936740900,12.388740966796876,3.3621348381638523,1.9822464143961667,-4.100431869806349
1763694528946762800,12.3987626953125,2.7573358841240405,1.6011054090946912,-2.229096145890653
1763694528956784600,12.40878466796875,2.48321849873662,0.6061094521164894,-0.1839731502123177
1763694528966806500,12.418806640625,2.5419687938690183,0.5987959142327308,-0.1643781498391181
1763694528976829700,12.42882958984375,2.71763048120141,-0.31833179016709323,0.9402856579516082
1763694528986851600,12.4388515625,2.1310838076889516,-1.621680579611659,0.781198892518878
1763694528996873700,12.448873779296875,1.4695477980352938,-1.769775045582652,-0.3282241655629128
1763694529006896600,12.458896728515626,0.7152222993947566,-1.7450012543320654,-2.1657786889731883
1763694529016918800,12.468918701171875,0.7307903092741966,-1.7544915517330169,-2.2272502257630227
1763694529026941000,12.47894091796875,0.5361107638694346,-2.0910610093802213,-4.171462093058229
1763694529036962800,12.488962890625,0.5089164674736559,-3.064344900766015,-7.359065124702453
1763694529046986000,12.498986083984375,1.1552724436521529,-3.68760247156024,-8.107390506145357
1763694529057007900,12.5090078125,1.4467724871255456,-3.60388140130043,-8.413644905027747
1763694529067029800,12.51902978515625,1.4275661207437513,-3.6054812377125023,-8.448395315891505
1763694529077052000,12.529052001953126,2.8411516469299793,-2.9101357513070103,-6.288050342404842
1763694529087074800,12.53907470703125,2.796186716043949,-2.901500024908781,-6.2808478636801235
1763694529097096700,12.5490966796875,3.6657144648790356,-2.686543269020319,-5.454637278524041
1763694529107118800,12.559118896484375,4.0868624863982195,-2.5867846716731786,-4.598956853255629
1763694529117141800,12.569141845703125,4.390251558977365,-3.4122289486318826,-4.6433390158176415
1763694529127163600,12.57916357421875,5.16571220010519,-4.390700471788644,-4.3878643715798855
1763694529137185800,12.589185791015625,6.025570787841081,-4.771512391266226,-3.8012934404090046
