time,seconds_elapsed,z,y,x
1763694516596801000,0.048801025390625,0.17079703509807587,-0.5658636689186096,0.2209686040878296
1763694516606823000,0.058822998046875,0.14337846636772156,-0.6179564595222473,0.2459045797586441
1763694516616845000,0.068844970703125,0.134977787733078,-0.6245458722114563,0.2670530080795288
1763694516626868000,0.078867919921875,0.13058623671531677,-0.5814759135246277,0.27628856897354126
1763694516636889900,0.088889892578125,0.13942287862300873,-0.4933375418186188,0.2532479763031006
1763694516646912000,0.098912109375,0.18223372101783752,-0.3556539714336395,0.23681972920894623
1763694516656935000,0.108934814453125,0.2572333812713623,-0.19646964967250824,0.23419252038002014
1763694516666956800,0.118956787109375,0.3439001142978668,-0.06240905076265335,0.22956500947475433
1763694516676979500,0.1289794921875,0.40959951281547546,0.024160729721188545,0.1989879310131073
1763694516687001600,0.139001708984375,0.48943573236465454,0.03750929236412048,0.19300833344459534
1763694516697024500,0.1490244140625,0.5559324622154236,0.019767312332987785,0.10178681463003159
1763694516707046700,0.159046630859375,0.6517410278320312,0.0578201562166214,-0.004023769870400429
1763694516717068800,0.16906884765625,0.7315908670425415,0.35181769728660583,-0.046115562319755554
1763694516727091500,0.179091552734375,0.854690670967102,0.6124897599220276,-0.0874081403017044
1763694516737113600,0.189113525390625,1.0384200811386108,0.7953045964241028,-0.16167332231998444
1763694516747135700,0.1991357421875,1.2140371799468994,0.8318737745285034,-0.28703656792640686
1763694516757158700,0.20915869140625,1.3310428857803345,0.6630112528800964,-0.5065295100212097
1763694516767180800,0.219180908203125,1.3646599054336548,0.4355890154838562,-0.7092030048370361
1763694516777202700,0.22920263671875,1.321977138519287,0.400294691324234,-0.8268928527832031
1763694516787224600,0.239224609375,1.2552324533462524,0.47798842191696167,-0.8745980858802795
1763694516797247700,0.249247802734375,1.219688057899475,0.5253087878227234,-0.8969467878341675
1763694516807269600,0.25926953125,1.222519874572754,0.5270872712135315,-0.9155721664428711
1763694516817291800,0.269291748046875,1.1885956525802612,0.5892568826675415,-0.8881165385246277
1763694516827314700,0.279314697265625,1.199652075767517,0.6212712526321411,-0.8420838117599487
1763694516837336600,0.289336669921875,1.2530447244644165,0.7111595869064331,-0.7679176926612854
1763694516847358700,0.299358642578125,1.3220282793045044,0.8554403781890869,-0.6791098117828369
1763694516857380600,0.309380615234375,1.3863452672958374,1.0336390733718872,-0.6104929447174072
1763694516867403800,0.31940380859375,1.3771981000900269,1.1916847229003906,-0.6115464568138123
1763694516877425700,0.32942578125,1.2458488941192627,1.2202377319335938,-0.6735759973526001
1763694516887447600,0.339447509765625,0.9670649170875549,1.1045042276382446,-0.7693662047386169
1763694516897470700,0.349470703125,0.6208704710006714,0.858050525188446,-0.829657793045044
1763694516907492600,0.35949267578125,0.3148716688156128,0.5251458287239075,-0.7960872650146484
1763694516917514500,0.369514404296875,0.1173015907406807,0.19738471508026123,-0.727526068687439
1763694516927536600,0.37953662109375,0.007047256920486689,-0.11530502140522003,-0.667083740234375
1763694516937559600,0.3895595703125,-0.0712752416729927,-0.3316895067691803,-0.6633548140525818
1763694516947581400,0.39958154296875,-0.10225126892328262,-0.40445294976234436,-0.7285516262054443
1763694516957603600,0.409603515625,-0.06864297389984131,-0.4190792739391327,-0.7781471610069275
1763694516967626500,0.41962646484375,-0.012503008358180523,-0.39997750520706177,-0.8089447617530823
1763694516977648600,0.429648681640625,0.04511155188083649,-0.32497596740722656,-0.812405526638031
1763694516987670800,0.4396708984375,0.06843817979097366,-0.26370301842689514,-0.8085505962371826
1763694516997692700,0.449692626953125,0.051847219467163086,-0.23651240766048431,-0.8566808700561523
1763694517007715600,0.459715576171875,-0.015325160697102547,-0.30029645562171936,-0.9480568170547485
1763694517017737700,0.46973779296875,-0.08874931186437607,-0.411583811044693,-1.0455766916275024
1763694517027759600,0.479759521484375,-0.12671400606632233,-0.393312931060791,-1.070314884185791
1763694517037782800,0.48978271484375,-0.1615164577960968,-0.32955339550971985,-1.0186340808868408
1763694517047804700,0.4998046875,-0.1634342074394226,-0.28165218234062195,-0.9131369590759277
1763694517057826800,0.509826904296875,-0.13063231110572815,-0.18914489448070526,-0.7572501301765442
1763694517067848700,0.5198486328125,-0.1089475229382515,-0.03495319187641144,-0.5453434586524963
1763694517077871600,0.52987158203125,-0.14194302260875702,0.1840001940727234,-0.3691532611846924
1763694517087893800,0.539893798828125,-0.16858288645744324,0.40763142704963684,-0.3009995222091675
1763694517097915600,0.54991552734375,-0.12212777137756348,0.30954399704933167,-0.3075423836708069
1763694517107938600,0.5599384765625,-0.06486821174621582,0.048718538135290146,-0.28516703844070435
1763694517117960700,0.569960693359375,-0.013544837012887001,-0.2708967328071594,-0.20925575494766235
1763694517127982600,0.579982666015625,0.0370488315820694,-0.538796603679657,-0.11993865668773651
1763694517138004500,0.59000439453125,0.013714480213820934,-0.6882290244102478,-0.07443109154701233
1763694517148027600,0.600027587890625,0.01913854107260704,-0.7239252328872681,-0.08876022696495056
1763694517158049500,0.610049560546875,-0.0013731258222833276,-0.001487109111621976,0.567926287651062
1763694517168071700,0.62007177734375,0.14171744883060455,-1.2878162860870361,0.17443785071372986
1763694517178094600,0.630094482421875,0.1026076003909111,-1.4221506118774414,0.547535240650177
1763694517188116500,0.640116455078125,0.20131580531597137,-2.0900487899780273,0.41599029302597046
1763694517198138600,0.650138671875,0.1857735961675644,-2.081993341445923,0.4670870304107666
1763694517208161500,0.66016162109375,0.1475662887096405,-2.1479012966156006,0.35545024275779724
1763694517218183700,0.67018359375,0.02761458419263363,-2.205610513687134,0.20357443392276764
1763694517228205600,0.68020556640625,-0.18444333970546722,-2.207092523574829,0.13183686137199402
1763694517238227700,0.690227783203125,-0.29823169112205505,-2.1460204124450684,0.20567698776721954
1763694517248250600,0.700250732421875,-0.26449131965637207,-1.8447562456130981,0.3324330747127533
1763694517258272800,0.710272705078125,-0.21024352312088013,-1.241887092590332,0.39665839076042175
1763694517268294700,0.720294677734375,-0.22306157648563385,-0.48918911814689636,0.3063308894634247
1763694517278316800,0.73031689453125,-0.3651542663574219,0.30481529235839844,0.21956351399421692
1763694517288339700,0.740339599609375,-0.3573181927204132,1.917334794998169,-0.2561438977718353
1763694517298361600,0.750361572265625,-0.47422510385513306,1.9547545909881592,-0.1703730672597885
1763694517308383700,0.7603837890625,-0.4597548246383667,1.7561938762664795,-0.11427730321884155
1763694517318406700,0.77040673828125,-0.33292415738105774,1.6329835653305054,-0.0057798586785793304
1763694517328428800,0.7804287109375,-0.1887880265712738,1.5351970195770264,0.09919289499521255
1763694517338450700,0.79045068359375,-0.09943657368421555,1.392435908317566,0.16807715594768524
1763694517348473600,0.8004736328125,-0.11060667037963867,1.1275293827056885,0.19668802618980408
1763694517358495700,0.810495849609375,-0.27338626980781555,0.6840323805809021,0.14006389677524567
1763694517368517600,0.820517578125,-0.3995695114135742,0.23714011907577515,0.12017780542373657
1763694517378539500,0.83053955078125,-0.2647150158882141,0.25567492842674255,0.14039093255996704
1763694517388562700,0.840562744140625,0.02479509450495243,0.5887058973312378,0.1307782530784607
1763694517398584600,0.85058447265625,0.24430854618549347,0.9827234745025635,0.1027442216873169
1763694517408606500,0.8606064453125,0.37874916195869446,1.3554574251174927,0.06554704904556274
1763694517418629600,0.870629638671875,0.4260740876197815,1.6730483770370483,0.009387909434735775
1763694517428651500,0.880651611328125,0.45398053526878357,1.8479101657867432,0.009545834735035896
1763694517438673700,0.890673583984375,0.486789345741272,1.9153121709823608,-0.008490157313644886
1763694517448695600,0.900695556640625,0.4765223264694214,1.9648863077163696,-0.058877166360616684
1763694517458718500,0.910718505859375,0.460747092962265,1.9731837511062622,-0.14002154767513275
1763694517468740600,0.92074072265625,0.4788486063480377,1.9144772291183472,-0.2567942440509796
1763694517478762800,0.9307626953125,0.41471490263938904,1.4369527101516724,-0.37514832615852356
1763694517488785700,0.94078564453125,0.09222366660833359,0.7464020252227783,-0.5317310094833374
1763694517498807600,0.9508076171875,-0.2361225187778473,0.36999163031578064,-0.6068156361579895
1763694517508829700,0.96082958984375,-0.27349919080734253,0.3373924195766449,-0.4726596772670746
1763694517518851800,0.970851806640625,-0.13396446406841278,0.07921892404556274,-0.28851062059402466
1763694517528874800,0.980874755859375,-0.11932665854692459,0.13284805417060852,-0.15548120439052582
1763694517538896600,0.990896728515625,-0.10099372267723083,0.13209837675094604,-0.08305466920137405
1763694517548918800,1.000918701171875,-0.0709034651517868,0.13568991422653198,-0.1479862630367279
1763694517558941700,1.010941650390625,-0.036921530961990356,0.1444365382194519,-0.21523427963256836
1763694517568963600,1.020963623046875,-0.0034463966730982065,0.16308026015758514,-0.22141894698143005
1763694517578985700,1.03098583984375,0.02172020822763443,0.2326042205095291,-0.16121472418308258
1763694517589007600,1.041007568359375,0.038544729351997375,0.2997872531414032,-0.06623148173093796
1763694517599030800,1.05103076171875,0.09563331305980682,0.22418808937072754,0.0032916669733822346
1763694517609052700,1.061052734375,0.1428477019071579,0.2640713155269623,-0.01744423806667328
1763694517619074600,1.071074462890625,0.15240179002285004,0.38629230856895447,-0.02907000109553337
1763694517629097700,1.08109765625,0.14360164105892181,0.4176377058029175,-0.039439018815755844
1763694517639119600,1.09111962890625,0.11226821690797806,0.3939076066017151,-0.06168600171804428
1763694517649141500,1.1011416015625,0.07121852040290833,0.3270260691642761,-0.09723414480686188
1763694517659163600,1.11116357421875,0.04868391528725624,0.2669914960861206,-0.13408243656158447
1763694517669186600,1.1211865234375,0.0435115247964859,0.2708283066749573,-0.20075227320194244
1763694517679208200,1.131208251953125,0.1528654396533966,0.44519585371017456,-0.204070046544075
1763694517689230300,1.141230224609375,0.34975188970565796,0.820468008518219,-0.05546911805868149
1763694517699253200,1.151253173828125,0.3130684196949005,0.9430810213088989,0.08734235912561417
1763694517709275400,1.161275390625,0.17838013172149658,0.9815367460250854,0.24081102013587952
1763694517719297500,1.171297607421875,0.08503925800323486,0.715643048286438,0.27307599782943726
1763694517729320200,1.1813203125,-0.02701750211417675,0.4532042443752289,0.2533872723579407
1763694517739342300,1.19134228515625,-0.12561118602752686,0.28932449221611023,0.16576765477657318
1763694517749364500,1.201364501953125,-0.13845907151699066,0.3472951054573059,0.14611166715621948
1763694517759386400,1.211386474609375,-0.11552073806524277,0.5608041882514954,0.23813080787658691
1763694517769409500,1.221409423828125,-0.08760149031877518,0.9552226066589355,0.42052751779556274
1763694517779431400,1.231431396484375,-0.18394213914871216,0.9371472001075745,0.49871018528938293
1763694517789453600,1.24145361328125,-0.17732444405555725,1.1613308191299438,0.6402127146720886
1763694517799476500,1.2514765625,-0.11123357713222504,1.5179530382156372,0.8039050102233887
1763694517809498400,1.261498291015625,-0.0014628743520006537,1.9655345678329468,0.9332104921340942
1763694517819520500,1.2715205078125,-0.02298920601606369,2.2002885341644287,1.0323001146316528
1763694517829542400,1.28154248046875,-0.1491929441690445,2.1413278579711914,1.0557790994644165
1763694517839565300,1.2915654296875,-0.3056057095527649,1.8899788856506348,0.9968541860580444
1763694517849587500,1.30158740234375,-0.43551763892173767,1.6131794452667236,0.8819896578788757
1763694517859609300,1.311609375,-0.46505770087242126,1.3743051290512085,0.7458803057670593
1763694517869632500,1.321632568359375,-0.3597475290298462,1.428374171257019,0.7069709897041321
1763694517879654400,1.331654296875,-0.16019366681575775,1.6868925094604492,0.8169853687286377
1763694517889676300,1.34167626953125,-0.02484436333179474,1.9637129306793213,1.0102964639663696
1763694517899698400,1.351698486328125,0.02490588277578354,2.164397716522217,1.1973830461502075
1763694517909721300,1.361721435546875,0.0516141913831234,2.316688299179077,1.274763822555542
1763694517919743200,1.3717431640625,0.10660367459058762,2.495560884475708,1.2954177856445312
1763694517929765400,1.381765380859375,0.23363618552684784,2.6011509895324707,1.2961570024490356
1763694517939788300,1.391788330078125,0.3858254551887512,2.672194480895996,1.3002783060073853
1763694517949810400,1.401810546875,0.4960281252861023,2.3537797927856445,1.2105121612548828
1763694517959832300,1.411832275390625,0.322330117225647,1.751086950302124,0.693608820438385
1763694517969855200,1.421855224609375,0.1607864797115326,1.5369839668273926,0.3702544867992401
1763694517979877400,1.43187744140625,0.004935103934258223,1.2291332483291626,0.1232026219367981
1763694517989899500,1.4418994140625,-0.09165801107883453,0.940905749797821,-0.016094813123345375
1763694517999921400,1.45192138671875,-0.13813017308712006,1.051119089126587,-0.12250248342752457
1763694518009944300,1.4619443359375,-0.20931273698806763,1.050742506980896,-0.15546096861362457
1763694518019966500,1.471966552734375,-0.2723116874694824,1.0232887268066406,-0.10809557884931564
1763694518029988400,1.48198828125,-0.3053191602230072,1.034307837486267,-0.1355980485677719
1763694518040011500,1.492011474609375,-0.30204614996910095,1.0899919271469116,-0.2785911560058594
1763694518050033400,1.502033447265625,-0.26492753624916077,1.2200145721435547,-0.46840688586235046
1763694518060055600,1.5120556640625,-0.2714647948741913,1.0757852792739868,-0.5162495374679565
1763694518070077400,1.522077392578125,-0.3117685317993164,0.8641446232795715,-0.35665106773376465
1763694518080100400,1.532100341796875,-0.3747381865978241,0.7113713622093201,-0.12305455654859543
1763694518090122500,1.54212255859375,-0.4641178548336029,0.5045089721679688,0.11771970987319946
1763694518100144400,1.552144287109375,-0.5082834362983704,0.3724782168865204,0.17481841146945953
1763694518110167600,1.56216748046875,-0.480953574180603,0.16010524332523346,0.14254063367843628
1763694518120189400,1.572189453125,-0.5107274651527405,0.02544330805540085,0.1931620091199875
1763694518130211300,1.58221142578125,-0.5101000070571899,-0.013624732382595539,0.2909703254699707
1763694518140233200,1.592233154296875,-0.4394061267375946,0.05728352814912796,0.3974355161190033
1763694518150256400,1.60225634765625,-0.4421635568141937,0.14050491154193878,0.4698553681373596
1763694518160278300,1.6122783203125,-0.48020097613334656,0.26695314049720764,0.5241119861602783
1763694518170300400,1.622300537109375,-0.4810505211353302,0.5519939064979553,0.5853867530822754
1763694518180323300,1.6323232421875,-0.5169326066970825,0.4804241359233856,0.6366081237792969
1763694518190345200,1.64234521484375,-0.4478326439857483,0.9434948563575745,0.784762978553772
1763694518200367400,1.652367431640625,-0.5631815791130066,1.0494776964187622,0.919106125831604
1763694518210390300,1.662390380859375,-0.7040889263153076,0.9800081253051758,1.0765000581741333
1763694518220412400,1.672412353515625,-0.8119426965713501,0.8475768566131592,1.1656293869018555
1763694518230434300,1.682434326171875,-0.9965471625328064,0.8145850896835327,1.2029634714126587
1763694518240456400,1.69245654296875,-1.0121990442276,0.9450631737709045,1.1855658292770386
1763694518250479400,1.702479248046875,-0.9874604344367981,1.2479135990142822,1.1636221408843994
1763694518260501500,1.71250146484375,-0.9936831593513489,1.543664813041687,1.1302647590637207
1763694518270523400,1.7225234375,-1.0318516492843628,1.8168069124221802,1.0588611364364624
1763694518280546300,1.73254638671875,-1.0798364877700806,1.7787891626358032,0.8856001496315002
1763694518290568400,1.742568359375,-1.126375436782837,1.6024764776229858,0.6431177258491516
1763694518300590300,1.75259033203125,-1.1440199613571167,1.3676685094833374,0.4074609875679016
1763694518310612500,1.762612548828125,-1.0698131322860718,1.1097639799118042,0.19702064990997314
1763694518320635400,1.772635498046875,-0.8720861673355103,0.8652306795120239,0.009372995235025883
1763694518330657500,1.782657470703125,-0.5789408683776855,0.6898375749588013,-0.15513046085834503
1763694518340679400,1.792679443359375,-0.2842985689640045,0.6418972015380859,-0.2525949776172638
1763694518350702300,1.802702392578125,0.04129497706890106,0.7611583471298218,-0.23610681295394897
1763694518360724500,1.812724365234375,0.09571480751037598,0.6723198294639587,-0.2246408313512802
1763694518370746400,1.822746337890625,-0.09112218767404556,0.6500201225280762,-0.25025883316993713
1763694518380768300,1.832768310546875,-0.3378981351852417,0.5268795490264893,-0.29250431060791016
1763694518390791400,1.84279150390625,-0.5444555878639221,0.4786531329154968,-0.33284080028533936
1763694518400813300,1.852813232421875,-0.6585166454315186,0.5790833234786987,-0.3554758131504059
1763694518410835500,1.86283544921875,-0.6586655378341675,0.7495416402816772,-0.3670720160007477
1763694518420858400,1.8728583984375,-0.5603379011154175,0.9720543026924133,-0.3627276122570038
1763694518430880300,1.88288037109375,-0.4367152750492096,1.1642203330993652,-0.3534454107284546
1763694518440902400,1.89290234375,-0.3598574995994568,1.219313144683838,-0.3780847191810608
1763694518450924300,1.90292431640625,-0.4118988811969757,1.339165449142456,-0.40950149297714233
1763694518460947200,1.912947265625,-0.5811659097671509,1.4546496868133545,-0.4462384581565857
1763694518470969300,1.92296923828125,-0.8387542963027954,1.5447173118591309,-0.48349741101264954
1763694518480991500,1.932991455078125,-1.1194008588790894,1.5494686365127563,-0.5040999054908752
1763694518491014400,1.943014404296875,-1.2925630807876587,1.4744421243667603,-0.4939010739326477
1763694518501036300,1.953036376953125,-1.2778373956680298,1.4788250923156738,-0.44619986414909363
1763694518511058400,1.963058349609375,-1.1504647731781006,1.6016818284988403,-0.36786216497421265
1763694518521081300,1.973081298828125,-1.0144113302230835,1.7154890298843384,-0.2725748121738434
1763694518531103500,1.983103515625,-0.8878289461135864,1.74129056930542,-0.17783764004707336
1763694518541125400,1.99312548828125,-0.7844639420509338,1.657379388809204,-0.10724975913763046
1763694518551147500,2.0031474609375,-0.7114546895027161,1.4718327522277832,-0.06979639083147049
1763694518561170400,2.01317041015625,-0.6726995706558228,1.2975075244903564,-0.0591067299246788
1763694518571192600,2.023192626953125,-0.6629931330680847,1.140932321548462,-0.08096782118082047
1763694518581214500,2.03321435546875,-0.6512534022331238,0.9575720429420471,-0.13103364408016205
1763694518591237400,2.0432373046875,-0.6208403706550598,0.7692844271659851,-0.19754981994628906
1763694518601259500,2.053259521484375,-0.5855284333229065,0.5898118615150452,-0.26396772265434265
1763694518611281400,2.063281494140625,-0.537143886089325,0.4565022885799408,-0.3116718828678131
1763694518621304300,2.07330419921875,-0.44719216227531433,0.3636549115180969,-0.3330219089984894
1763694518631326500,2.083326416015625,-0.32393893599510193,0.25414547324180603,-0.32867535948753357
1763694518641348400,2.093348388671875,-0.19260141253471375,0.1321689486503601,-0.3005252182483673
1763694518651370200,2.103370361328125,-0.0874539464712143,0.006031527183949947,-0.25313320755958557
1763694518661393400,2.113393310546875,-0.016155000776052475,-0.1254761666059494,-0.19566510617733002
1763694518671415300,2.123415283203125,0.04014395549893379,-0.2337869256734848,-0.1427651345729828
1763694518681437200,2.133437255859375,0.07400897890329361,-0.3439355194568634,-0.10484039783477783
1763694518691460400,2.14346044921875,0.07486385107040405,-0.48621198534965515,-0.09336536377668381
1763694518701482200,2.153482177734375,0.05330636352300644,-0.6263695955276489,-0.10488753020763397
1763694518711504100,2.163504150390625,0.03993622958660126,-0.7527928352355957,-0.1373986005783081
1763694518721526300,2.1735263671875,0.057365287095308304,-0.8607373833656311,-0.19289915263652802
1763694518731549200,2.183549072265625,0.11385652422904968,-0.9197069406509399,-0.2671680450439453
1763694518741571000,2.193571044921875,0.19164825975894928,-0.9499269127845764,-0.35344621539115906
1763694518751593500,2.203593505859375,0.26268434524536133,-0.9549986124038696,-0.4376305937767029
1763694518761616100,2.2136162109375,0.3108777105808258,-0.9178339838981628,-0.4926200807094574
1763694518771638300,2.22363818359375,0.31222420930862427,-0.8577999472618103,-0.5134260058403015
1763694518781660400,2.233660400390625,0.26817259192466736,-0.805148720741272,-0.5130167007446289
1763694518791682300,2.243682373046875,0.18274158239364624,-0.787667989730835,-0.5021147727966309
1763694518801705500,2.25370556640625,0.07287900149822235,-0.7771586179733276,-0.48798537254333496
1763694518811727400,2.263727294921875,-0.036496490240097046,-0.7805549502372742,-0.48109978437423706
1763694518821749200,2.273749267578125,-0.12480051815509796,-0.7458568811416626,-0.4789479374885559
1763694518831772400,2.2837724609375,-0.20751456916332245,-0.675443172454834,-0.4821171164512634
1763694518841794300,2.293794189453125,-0.2920321226119995,-0.5801967978477478,-0.4813445210456848
1763694518851816200,2.303816162109375,-0.380685031414032,-0.48179060220718384,-0.4751438796520233
1763694518861839400,2.31383935546875,-0.4557337164878845,-0.4079113304615021,-0.45821788907051086
1763694518871861200,2.323861328125,-0.5036599636077881,-0.3395034968852997,-0.4266487956047058
1763694518881883100,2.333883056640625,-0.5248392820358276,-0.281604528427124,-0.3863477110862732
1763694518891905300,2.3439052734375,-0.5177472829818726,-0.23596033453941345,-0.3540635406970978
1763694518901928200,2.35392822265625,-0.4988396167755127,-0.20780405402183533,-0.33727285265922546
1763694518911950300,2.363950439453125,-0.4834122061729431,-0.20269158482551575,-0.33291110396385193
1763694518921972200,2.37397216796875,-0.4799572825431824,-0.22948938608169556,-0.3282844126224518
1763694518931995100,2.3839951171875,-0.49391305446624756,-0.2598499655723572,-0.30779245495796204
1763694518942017300,2.394017333984375,-0.5153093934059143,-0.2307669073343277,-0.28332358598709106
1763694518952039200,2.4040390625,-0.5467246174812317,-0.18867191672325134,-0.2699294984340668
1763694518962061000,2.41406103515625,-0.5934188365936279,-0.16831444203853607,-0.27865639328956604
1763694518972084200,2.424084228515625,-0.6440231800079346,-0.21490591764450073,-0.3079274594783783
1763694518982106000,2.434106201171875,-0.6764146685600281,-0.3127046525478363,-0.34233444929122925
1763694518992128300,2.444128173828125,-0.6657695174217224,-0.39128121733665466,-0.35596850514411926
1763694519002151200,2.454151123046875,-0.628370463848114,-0.41265466809272766,-0.33964306116104126
1763694519012173000,2.464173095703125,-0.5764071345329285,-0.4120248258113861,-0.29383906722068787
1763694519022195500,2.474195556640625,-0.5234482884407043,-0.40609636902809143,-0.2341935932636261
1763694519032217300,2.48421728515625,-0.4815554618835449,-0.34793001413345337,-0.1942770630121231
1763694519042240300,2.494240234375,-0.447893887758255,-0.29265904426574707,-0.18034261465072632
1763694519052262400,2.504262451171875,-0.43449047207832336,-0.2677597999572754,-0.18579356372356415
1763694519062284300,2.5142841796875,-0.4488947093486786,-0.2722831964492798,-0.2015400379896164
1763694519072307500,2.524307373046875,-0.474232017993927,-0.31307828426361084,-0.21564574539661407
1763694519082329300,2.534329345703125,-0.4984140694141388,-0.36755749583244324,-0.2152760922908783
1763694519092351200,2.544351318359375,-0.508965253829956,-0.4259355962276459,-0.20429854094982147
1763694519102374400,2.55437451171875,-0.5003456473350525,-0.5010743141174316,-0.18235915899276733
1763694519112396300,2.564396240234375,-0.4603433609008789,-0.5669012665748596,-0.1500891000032425
1763694519122418200,2.574418212890625,-0.3896753191947937,-0.6156123280525208,-0.10493040829896927
1763694519132440300,2.5844404296875,-0.3142133355140686,-0.6432527303695679,-0.059535764157772064
1763694519142463200,2.594463134765625,-0.2528362572193146,-0.6434042453765869,-0.021269602701067924
1763694519152485400,2.6044853515625,-0.23825544118881226,-0.5905301570892334,0.011965316720306873
1763694519162507300,2.61450732421875,-0.25696656107902527,-0.4984896779060364,0.033852770924568176
1763694519172530200,2.6245302734375,-0.30195826292037964,-0.37850284576416016,0.04309793561697006
1763694519182552300,2.63455224609375,-0.3591768145561218,-0.2544195055961609,0.040589239448308945
1763694519192574200,2.64457421875,-0.4153308868408203,-0.12733158469200134,0.04078737646341324
1763694519202596000,2.65459619140625,-0.4458480477333069,-0.04868391528725624,0.06268388777971268
1763694519212619300,2.664619384765625,-0.4501006007194519,0.015330486930906773,0.10929373651742935
1763694519222641200,2.67464111328125,-0.441696435213089,0.08764569461345673,0.18207845091819763
1763694519232663000,2.6846630859375,-0.4011729955673218,0.19704195857048035,0.25948163866996765
1763694519242686200,2.694686279296875,-0.3308298587799072,0.3240627646446228,0.3327625095844269
1763694519252708000,2.7047080078125,-0.2651299238204956,0.3992443382740021,0.3912609815597534
1763694519262730200,2.714730224609375,-0.21028293669223785,0.4231046438217163,0.4278549253940582
1763694519272752400,2.72475244140625,-0.15807779133319855,0.4382857382297516,0.4422115087509155
1763694519282775000,2.734775146484375,-0.10498740524053574,0.45667433738708496,0.4430954158306122
1763694519292797400,2.74479736328125,-0.04777337983250618,0.46645238995552063,0.4364612102508545
1763694519302819300,2.7548193359375,0.005276787560433149,0.45802801847457886,0.432649165391922
1763694519312842500,2.764842529296875,0.046128880232572556,0.4553360939025879,0.4421449303627014
1763694519322864400,2.774864501953125,0.07604816555976868,0.4576045870780945,0.46204325556755066
1763694519332886300,2.78488623046875,0.101540207862854,0.4699254333972931,0.49193325638771057
1763694519342909400,2.794909423828125,0.11681130528450012,0.49451759457588196,0.5191704630851746
1763694519352931300,2.804931396484375,0.12002120912075043,0.5178838968276978,0.5425876379013062
1763694519362953200,2.814953125,0.12139007449150085,0.5255047678947449,0.5593311786651611
1763694519372975400,2.824975341796875,0.12008485943078995,0.5130079388618469,0.5687931180000305
1763694519382998300,2.834998291015625,0.11971015483140945,0.4484097361564636,0.5755019187927246
1763694519393020200,2.845020263671875,0.1244489848613739,0.3338261842727661,0.5865114331245422
1763694519403042300,2.855042236328125,0.14340509474277496,0.21834778785705566,0.6135531663894653
1763694519413065200,2.865065185546875,0.15571369230747223,0.12569667398929596,0.6506805419921875
1763694519423087400,2.87508740234375,0.14861343801021576,0.05101577937602997,0.6951982378959656
1763694519433109200,2.885109130859375,0.11200456321239471,-0.008141017518937588,0.7324164509773254
1763694519443131100,2.895131103515625,0.056403886526823044,-0.04608627036213875,0.7488608956336975
1763694519453154300,2.905154296875,-0.005335377063602209,-0.053040847182273865,0.7231893539428711
1763694519463176200,2.91517626953125,-0.057808440178632736,-0.044674791395664215,0.6636775732040405
1763694519473198000,2.925197998046875,-0.08868379890918732,-0.034756116569042206,0.5775402784347534
1763694519483221200,2.93522119140625,-0.09479867666959763,-0.028447087854146957,0.4931151568889618
1763694519493243100,2.9452431640625,-0.07538263499736786,-0.031505461782217026,0.4321844279766083
1763694519503265300,2.955265380859375,-0.04074050486087799,-0.05212179198861122,0.4134661555290222
1763694519513288200,2.9652880859375,-0.020557206124067307,-0.07656614482402802,0.4229877293109894
1763694519523310000,2.97531005859375,-0.02449921704828739,-0.0990818440914154,0.4462722837924957
1763694519533332200,2.985332275390625,-0.0520528145134449,-0.13111381232738495,0.45993298292160034
1763694519543354400,2.995354248046875,-0.09497551620006561,-0.16049699485301971,0.45446470379829407
1763694519553377000,3.005376953125,-0.13715918362140656,-0.15386439859867096,0.4278829097747803
1763694519563399400,3.0153994140625,-0.1684529334306717,-0.14052888751029968,0.38073429465293884
1763694519573421300,3.02542138671875,-0.1914791464805603,-0.13276471197605133,0.32135114073753357
1763694519583444500,3.035444580078125,-0.21679462492465973,-0.13140569627285004,0.2760379910469055
1763694519593466400,3.04546630859375,-0.24139957129955292,-0.14937137067317963,0.2510623335838318
1763694519603488300,3.05548828125,-0.27630722522735596,-0.19763104617595673,0.24446433782577515
1763694519613510400,3.065510498046875,-0.3145901560783386,-0.2440347671508789,0.26411181688308716
1763694519623533300,3.075533203125,-0.34603092074394226,-0.2711827754974365,0.2967885136604309
1763694519633555200,3.08555517578125,-0.3740428388118744,-0.2728312611579895,0.3399549126625061
1763694519643577300,3.095577392578125,-0.39066335558891296,-0.25745391845703125,0.37140578031539917
1763694519653600300,3.105600341796875,-0.4015546143054962,-0.231176495552063,0.38245683908462524
1763694519663622400,3.115622314453125,-0.4147343337535858,-0.2055789977312088,0.3712766170501709
1763694519673644300,3.125644287109375,-0.4158347547054291,-0.1756913959980011,0.3474876582622528
1763694519683666700,3.135666748046875,-0.41053134202957153,-0.11971521377563477,0.3187718689441681
1763694519693689600,3.145689697265625,-0.3849543333053589,-0.03319177404046059,0.29585909843444824
1763694519703711700,3.155711669921875,-0.3566683828830719,0.05636394023895264,0.2846413254737854
1763694519713733600,3.165733642578125,-0.32509979605674744,0.14915886521339417,0.2796154022216797
1763694519723756500,3.175756591796875,-0.29043102264404297,0.231194868683815,0.2719327211380005
1763694519733778700,3.18577880859375,-0.24764281511306763,0.27236494421958923,0.24526861310005188
1763694519743800600,3.195800537109375,-0.1956203728914261,0.2655264735221863,0.1986081600189209
1763694519753823700,3.20582373046875,-0.14146791398525238,0.23304150998592377,0.13196389377117157
1763694519763845600,3.215845703125,-0.08321099728345871,0.15251736342906952,0.06703069806098938
1763694519773867500,3.225867431640625,-0.008703210391104221,0.02913391776382923,0.021927936002612114
1763694519783889400,3.235889404296875,0.0877106785774231,-0.09131073951721191,0.008628908544778824
1763694519793912600,3.24591259765625,0.19040615856647491,-0.17055203020572662,0.016503609716892242
1763694519803934500,3.2559345703125,0.28397154808044434,-0.23123961687088013,0.034261833876371384
1763694519813956900,3.265956787109375,0.3476911187171936,-0.28854817152023315,0.03951758146286011
1763694519823979500,3.2759794921875,0.37881043553352356,-0.34932389855384827,0.022476013749837875
1763694519834001700,3.286001708984375,0.38247066736221313,-0.39842459559440613,-0.01085744146257639
1763694519844023800,3.29602392578125,0.35205817222595215,-0.46537354588508606,-0.04294506832957268
1763694519854045700,3.306045654296875,0.30595698952674866,-0.5254976153373718,-0.07409925758838654
1763694519864068900,3.31606884765625,0.27351969480514526,-0.5521776676177979,-0.11240643262863159
1763694519874090800,3.3260908203125,0.26190832257270813,-0.5681723356246948,-0.15444816648960114
1763694519884112600,3.336112548828125,0.269955575466156,-0.5729476809501648,-0.19608108699321747
1763694519894135800,3.3461357421875,0.28456008434295654,-0.574360191822052,-0.23606500029563904
1763694519904157700,3.35615771484375,0.3079431653022766,-0.5866299271583557,-0.2827555239200592
1763694519914179600,3.3661796875,0.335738867521286,-0.5900901556015015,-0.3404920697212219
1763694519924201700,3.37620166015625,0.35555917024612427,-0.6181798577308655,-0.4154754877090454
1763694519934224600,3.386224609375,0.3841356933116913,-0.7188476324081421,-0.5002257823944092
1763694519944246500,3.39624658203125,0.4466254413127899,-0.8727043271064758,-0.574355959892273
1763694519954268700,3.4062685546875,0.49509522318840027,-0.9796368479728699,-0.6500701308250427
1763694519964291600,3.41629150390625,0.4748693108558655,-0.9942978620529175,-0.7212218642234802
1763694519974313700,3.426313720703125,0.3852156102657318,-0.9951514005661011,-0.7906690835952759
1763694519984335600,3.436335693359375,0.24406300485134125,-0.9864639043807983,-0.873970627784729
1763694519994358500,3.446358642578125,0.09075413644313812,-0.9508563876152039,-0.969086766242981
1763694520004380700,3.456380615234375,-0.04255864396691322,-0.8863921761512756,-1.071082592010498
1763694520014402600,3.466402587890625,-0.11045300960540771,-0.783262312412262,-1.167386531829834
1763694520024424400,3.476424560546875,-0.10159453749656677,-0.6969410181045532,-1.2476227283477783
1763694520034447600,3.486447509765625,-0.055138617753982544,-0.6776067018508911,-1.3003637790679932
1763694520044469500,3.496469482421875,0.006969226058572531,-0.6928216218948364,-1.332802176475525
1763694520054491400,3.506491455078125,0.04842319339513779,-0.7039765119552612,-1.3583815097808838
1763694520064514600,3.5165146484375,0.031499601900577545,-0.7037475109100342,-1.3819172382354736
1763694520074536400,3.526536376953125,-0.06181569769978523,-0.6961785554885864,-1.4196851253509521
1763694520084558800,3.536558837890625,-0.23496697843074799,-0.6586665511131287,-1.4626834392547607
1763694520094580700,3.546580810546875,-0.4459711015224457,-0.592803418636322,-1.5221766233444214
1763694520104603600,3.556603759765625,-0.6608895063400269,-0.48974865674972534,-1.5980961322784424
1763694520114625800,3.566625732421875,-0.8303738832473755,-0.33245518803596497,-1.6558837890625
1763694520124647700,3.576647705078125,-0.8781312704086304,-0.24003496766090393,-1.6815990209579468
1763694520134670800,3.5866708984375,-0.7962353825569153,-0.279147744178772,-1.663206934928894
1763694520144692700,3.596692626953125,-0.6295478343963623,-0.37599971890449524,-1.6057639122009277
1763694520154714600,3.606714599609375,-0.42770421504974365,-0.48254427313804626,-1.5234519243240356
1763694520164736800,3.61673681640625,-0.24554717540740967,-0.5735697746276855,-1.4196938276290894
1763694520174759700,3.626759765625,-0.13199451565742493,-0.6208470463752747,-1.3043116331100464
1763694520184781600,3.636781494140625,-0.10373678058385849,-0.6209085583686829,-1.1887714862823486
1763694520194803700,3.6468037109375,-0.1624608188867569,-0.600878119468689,-1.0826867818832397
1763694520204826600,3.65682666015625,-0.28030329942703247,-0.5892075896263123,-0.9887555241584778
1763694520214848800,3.666848876953125,-0.42893990874290466,-0.590645432472229,-0.9080849289894104
1763694520224870700,3.67687060546875,-0.5915120244026184,-0.5761184096336365,-0.8208088874816895
1763694520234892500,3.686892578125,-0.735145092010498,-0.5223963260650635,-0.7347158193588257
1763694520244915700,3.696915771484375,-0.8501430749893188,-0.45026516914367676,-0.6761829853057861
1763694520254937600,3.7069375,-0.8957582116127014,-0.43165871500968933,-0.6106061339378357
1763694520264959500,3.71695947265625,-0.844822347164154,-0.4274328351020813,-0.5194495916366577
1763694520274982700,3.726982666015625,-0.7181946039199829,-0.39089158177375793,-0.4319354295730591
1763694520285004500,3.737004638671875,-0.5667926073074341,-0.338285893201828,-0.37448278069496155
1763694520295026400,3.7470263671875,-0.4120173752307892,-0.24242942035198212,-0.35152819752693176
1763694520305049600,3.757049560546875,-0.3034520149230957,-0.12841495871543884,-0.3654232621192932
1763694520315071500,3.767071533203125,-0.2479701191186905,0.004756405483931303,-0.41348639130592346
1763694520325093600,3.77709375,-0.24589578807353973,0.1362430602312088,-0.4831554889678955
1763694520335115800,3.78711572265625,-0.2802391052246094,0.26282522082328796,-0.5638058185577393
1763694520345138400,3.797138427734375,-0.3142649829387665,0.3783201277256012,-0.645633339881897
1763694520355160800,3.807160888671875,-0.33193185925483704,0.4952574074268341,-0.7274736166000366
1763694520365182700,3.8171826171875,-0.32544201612472534,0.5959022641181946,-0.7986583113670349
1763694520375205600,3.82720556640625,-0.2920965850353241,0.6212078928947449,-0.8590710759162903
1763694520385227800,3.837227783203125,-0.20425114035606384,0.6109496355056763,-0.910287082195282
1763694520395249700,3.847249755859375,-0.08728989958763123,0.6060960292816162,-0.9597159028053284
1763694520405271600,3.857271484375,0.02641483023762703,0.5912667512893677,-0.9961593747138977
1763694520415294700,3.867294677734375,0.12320874631404877,0.5707359313964844,-1.0262781381607056
1763694520425316600,3.877316650390625,0.21151597797870636,0.540870189666748,-1.063664436340332
1763694520435338800,3.8873388671875,0.2911285161972046,0.5249513983726501,-1.1229298114776611
1763694520445361700,3.897361572265625,0.32653096318244934,0.536246120929718,-1.1960290670394897
1763694520455383600,3.907383544921875,0.3206768035888672,0.5698142051696777,-1.2799804210662842
1763694520465405700,3.91740576171875,0.29643911123275757,0.5938127636909485,-1.362697720527649
1763694520475427600,3.927427490234375,0.2476385533809662,0.6394891738891602,-1.4274295568466187
1763694520485450800,3.93745068359375,0.21988655626773834,0.7078130841255188,-1.4567432403564453
1763694520495472600,3.94747265625,0.23353925347328186,0.7585912942886353,-1.4463633298873901
1763694520505494500,3.95749462890625,0.30730482935905457,0.8220126032829285,-1.4077799320220947
1763694520515517700,3.967517578125,0.45317360758781433,0.8259647488594055,-1.3475594520568848
1763694520525539600,3.97753955078125,0.6070084571838379,0.746941864490509,-1.2824103832244873
1763694520535561500,3.9875615234375,0.7164753079414368,0.5793581604957581,-1.2249501943588257
1763694520545583600,3.99758349609375,0.7904506921768188,0.40006911754608154,-1.1877378225326538
1763694520555606500,4.0076064453125,0.8404281139373779,0.30360090732574463,-1.1906635761260986
1763694520565628400,4.01762841796875,0.8396469950675964,0.2733127772808075,-1.2671040296554565
1763694520575650800,4.02765087890625,0.7749812006950378,0.27127304673194885,-1.4177340269088745
1763694520585673500,4.037673583984375,0.6487138271331787,0.30360540747642517,-1.6174309253692627
1763694520595695600,4.047695556640625,0.5045862197875977,0.341461181640625,-1.8321248292922974
1763694520605717800,4.0577177734375,0.42765572667121887,0.3761643171310425,-2.0178773403167725
1763694520615740400,4.067740478515625,0.43555840849876404,0.4229739010334015,-2.1497669219970703
1763694520625762800,4.0777626953125,0.500830352306366,0.42930182814598083,-2.2152349948883057
1763694520635784700,4.08778466796875,0.5706064701080322,0.34334298968315125,-2.215214490890503
1763694520645806600,4.097806640625,0.6568636298179626,0.22521287202835083,-2.148855447769165
1763694520655829800,4.107829833984375,0.7397595643997192,0.1338225156068802,-2.036468982696533
1763694520665851600,4.1178515625,0.8105828762054443,0.10787346959114075,-1.896548867225647
1763694520675873800,4.127873779296875,0.8793739080429077,0.09177492558956146,-1.7407201528549194
1763694520685897000,4.13789697265625,0.944579541683197,0.05668511614203453,-1.5891505479812622
1763694520695918800,4.1479189453125,1.0031794309616089,-0.02900501899421215,-1.468930721282959
1763694520705940700,4.157940673828125,1.0681196451187134,-0.17486394941806793,-1.4090478420257568
1763694520715962600,4.167962646484375,1.1338101625442505,-0.31921979784965515,-1.4038219451904297
1763694520725985800,4.17798583984375,1.1617324352264404,-0.32623857259750366,-1.4143643379211426
1763694520736007700,4.188007568359375,1.1364715099334717,-0.18360312283039093,-1.4258381128311157
1763694520746029800,4.19802978515625,1.0796204805374146,-0.0008905610884539783,-1.4393059015274048
1763694520756052700,4.208052734375,1.0218207836151123,0.21101850271224976,-1.4373987913131714
1763694520766074600,4.21807470703125,0.9563166499137878,0.41386720538139343,-1.4044989347457886
1763694520776096800,4.2280966796875,0.8697425723075867,0.6191913485527039,-1.2197818756103516
1763694520786118700,4.23811865234375,0.7685041427612305,0.6176906228065491,-0.8494349122047424
1763694520796141800,4.248141845703125,0.7000139951705933,0.5755051374435425,-0.40212854743003845
1763694520806163700,4.258163818359375,0.5866237878799438,0.4985314905643463,0.04187021777033806
1763694520816185600,4.268185546875,0.5217446684837341,0.3908838629722595,0.26544684171676636
1763694520826208800,4.278208740234375,0.46792033314704895,0.3416183292865753,0.1829509139060974
1763694520836230700,4.288230712890625,0.4544159770011902,0.27625635266304016,-0.08959486335515976
1763694520846252800,4.298252685546875,0.44927501678466797,0.16970035433769226,-0.3914948105812073
1763694520856275000,4.30827490234375,0.39563441276550293,0.05980394408106804,-0.5886978507041931
1763694520866297600,4.318297607421875,0.2374889850616455,-0.027060380205512047,-0.6123097538948059
1763694520876319700,4.32831982421875,-0.011752263642847538,-0.08668483048677444,-0.5239039659500122
1763694520886342000,4.338341796875,-0.20012617111206055,-0.16850405931472778,-0.3878073990345001
1763694520896364800,4.34836474609375,-0.27284830808639526,-0.31912899017333984,-0.2851196229457855
1763694520906387000,4.358386962890625,-0.24344754219055176,-0.5309227108955383,-0.2416808009147644
1763694520916408800,4.368408935546875,-0.13188746571540833,-0.6587595343589783,-0.21765562891960144
1763694520926430700,4.3784306640625,-0.06426260620355606,-0.8014495372772217,-0.34615635871887207
1763694520936454000,4.388453857421875,0.0006269080913625658,-0.7430837154388428,-0.5842594504356384
1763694520946475800,4.398475830078125,-0.03771515563130379,-0.6735712289810181,-0.7184222936630249
1763694520956497700,4.40849755859375,-0.2316417545080185,-0.5366352200508118,-0.7435181140899658
1763694520966520800,4.418520751953125,-0.5506053566932678,-0.5483406186103821,-0.5458114147186279
1763694520976542700,4.428542724609375,-0.7733417749404907,-0.5462449789047241,-0.2665744423866272
1763694520986564900,4.43856494140625,-0.93292236328125,-0.5395774841308594,-0.08361393958330154
1763694520996587800,4.448587890625,-1.140113353729248,-0.4931231439113617,-0.09630096703767776
1763694521006609700,4.458609619140625,-1.3517448902130127,-0.34431716799736023,-0.16009512543678284
1763694521016631800,4.4686318359375,-1.3338290452957153,-0.2144305408000946,-0.1046941876411438
1763694521026653700,4.47865380859375,-1.2071081399917603,-0.18874435126781464,-0.05306907743215561
1763694521036676600,4.488676513671875,-1.1619552373886108,-0.14814765751361847,-0.04920110106468201
1763694521046698800,4.49869873046875,-1.1829516887664795,-0.14857642352581024,-0.0797124058008194
1763694521056720600,4.508720703125,-1.189221739768982,-0.13457059860229492,-0.10254102200269699
1763694521066743800,4.518743896484375,-1.191210150718689,-0.09872151911258698,-0.06683549284934998
1763694521076765700,4.528765625,-1.2108402252197266,-0.07262732833623886,-0.028173580765724182
1763694521086787600,4.53878759765625,-1.339443564414978,-0.0651148185133934,-0.09090380370616913
1763694521096810000,4.54881005859375,-1.605454444885254,0.1798432618379593,-0.3929438292980194
1763694521106832600,4.55883251953125,-1.7760804891586304,0.4736802279949188,-0.7098019123077393
1763694521116854800,4.568854736328125,-2.0113189220428467,0.7247811555862427,-0.8906987309455872
1763694521126877000,4.578876953125,-2.2268242835998535,0.9385123252868652,-0.8708017468452454
1763694521136899600,4.588899658203125,-2.4458048343658447,1.1880398988723755,-0.6931396126747131
1763694521146922000,4.598921875,-2.638178586959839,1.5686055421829224,-0.4543065130710602
1763694521156944000,4.60894384765625,-2.6617977619171143,2.0232300758361816,-0.3065764307975769
1763694521166965800,4.6189658203125,-2.3577218055725098,2.1826446056365967,-0.29096126556396484
1763694521176989000,4.628989013671875,-1.7854979038238525,2.130810022354126,-0.2644100785255432
1763694521187010800,4.6390107421875,-1.2497637271881104,1.878030776977539,-0.028235100209712982
1763694521197032700,4.64903271484375,-1.000327467918396,1.5618799924850464,0.36250361800193787
1763694521207056000,4.659055908203125,-1.0183686017990112,1.4712276458740234,0.6318333745002747
1763694521217077800,4.669077880859375,-1.3157094717025757,1.459663987159729,0.9917766451835632
1763694521227099600,4.679099609375,-1.7496196031570435,1.2604997158050537,1.1138540506362915
1763694521237121800,4.689121826171875,-1.7306722402572632,1.1153239011764526,0.882269561290741
1763694521247144700,4.699144775390625,-1.5848506689071655,0.7882171273231506,0.5423426032066345
1763694521257166800,4.709166748046875,-1.6073356866836548,0.3018650412559509,0.3774290382862091
1763694521267188700,4.719188720703125,-1.7313069105148315,-0.39953354001045227,0.44883397221565247
1763694521277211600,4.729211669921875,-1.830269694328308,-0.9821423888206482,0.665724515914917
1763694521287233800,4.73923388671875,-1.9003007411956787,-1.4325876235961914,0.8843066096305847
1763694521297255700,4.749255615234375,-2.073443651199341,-1.5961802005767822,1.0586951971054077
1763694521307277600,4.759277587890625,-2.2930355072021484,-1.4479279518127441,1.1300207376480103
1763694521317300700,4.76930078125,-2.4762954711914062,-0.9739108085632324,1.054419755935669
1763694521327322600,4.779322509765625,-3.0237314701080322,-0.4518177807331085,0.5120566487312317
1763694521337344800,4.7893447265625,-3.389097213745117,0.3621941804885864,0.03977058082818985
1763694521347367700,4.79936767578125,-3.346752882003784,0.794257402420044,-0.2100464403629303
1763694521357389600,4.8093896484375,-2.9545812606811523,1.0195506811141968,-0.27751097083091736
1763694521367412000,4.819411865234375,-2.4250783920288086,1.04842209815979,-0.3093823492527008
1763694521377433900,4.829433837890625,-1.9194520711898804,0.9091038703918457,-0.345193088054657
1763694521387456800,4.839456787109375,-1.654699444770813,0.929341733455658,-0.34896570444107056
1763694521397479000,4.84947900390625,-1.6759920120239258,0.9669021964073181,-0.28770050406455994
1763694521407500800,4.859500732421875,-1.9382637739181519,1.09116792678833,-0.20099063217639923
1763694521417524000,4.86952392578125,-2.237277030944824,1.2033008337020874,-0.12634462118148804
1763694521427545900,4.8795458984375,-2.385521173477173,1.0995811223983765,0.010601244866847992
1763694521437567700,4.889567626953125,-2.40905499458313,1.086829662322998,0.22926807403564453
1763694521447590000,4.89958984375,-2.366804838180542,0.9511410593986511,0.5648140907287598
1763694521457612800,4.90961279296875,-2.3426482677459717,0.7311176061630249,0.9497274160385132
1763694521467634700,4.919634765625,-2.3106586933135986,0.5203486680984497,1.191430926322937
1763694521477656800,4.92965673828125,-2.2038516998291016,0.2532072365283966,1.292834997177124
1763694521487679700,4.9396796875,-2.0380988121032715,-0.1408737599849701,1.294998049736023
1763694521497701600,4.94970166015625,-1.590065598487854,-0.550290048122406,1.1967843770980835
1763694521507723800,4.959723876953125,-1.0751234292984009,-0.5889567136764526,0.8048813343048096
1763694521517745700,4.96974560546875,-0.7009551525115967,-0.392674058675766,0.26278263330459595
1763694521527768800,4.979768798828125,-0.48641437292099,-0.0636972188949585,-0.18280017375946045
1763694521537790700,4.989790771484375,-0.29850441217422485,0.2843683362007141,-0.35478419065475464
1763694521547812600,4.9998125,-0.0506269596517086,0.6408766508102417,-0.330474317073822
1763694521557835800,5.009835693359375,0.2582587003707886,0.9164906740188599,-0.24847373366355896
1763694521567857700,5.019857666015625,0.5740709900856018,1.1481404304504395,-0.2164452224969864
1763694521577879600,5.029879638671875,0.7520886659622192,1.314119815826416,-0.27439719438552856
1763694521587902000,5.03990185546875,0.8070118427276611,1.5073901414871216,-0.42168810963630676
1763694521597924600,5.049924560546875,0.6119760274887085,1.4313076734542847,-0.6370712518692017
1763694521607946800,5.05994677734375,0.07759705930948257,1.2672470808029175,-0.7171197533607483
1763694521617969000,5.069968994140625,-0.3030166029930115,1.0267380475997925,-0.5855398774147034
1763694521627991600,5.079991455078125,-0.5502601861953735,1.5584520101547241,-0.17140956223011017
1763694521638014000,5.090013916015625,-0.414978563785553,2.1035518646240234,0.2905071973800659
1763694521648035800,5.100035888671875,-0.37997370958328247,2.077623128890991,0.564117968082428
1763694521658057700,5.1100576171875,-0.7201091647148132,1.2708500623703003,0.5312798619270325
1763694521668081000,5.120080810546875,-1.1559418439865112,0.3816048800945282,0.3853985667228699
1763694521678103000,5.13010302734375,-1.4868899583816528,0.1172185018658638,0.28402212262153625
1763694521688125000,5.140125,-1.7285643815994263,0.21114206314086914,0.28463253378868103
1763694521698147800,5.15014794921875,-1.8927428722381592,0.12584900856018066,0.2570805251598358
1763694521708170000,5.160169921875,-2.029329299926758,0.05102723091840744,0.16347281634807587
1763694521718191900,5.17019189453125,-2.1614344120025635,0.09526153653860092,0.07278285920619965
1763694521728213800,5.1802138671875,-2.29882550239563,0.08020615577697754,-0.014342720620334148
1763694521738237000,5.19023681640625,-2.46484112739563,0.09414886683225632,-0.036137230694293976
1763694521748258800,5.2002587890625,-2.6308979988098145,0.09735798090696335,-0.01648496650159359
1763694521758281000,5.210281005859375,-2.792614459991455,0.017660219222307205,0.038974031805992126
1763694521768303900,5.220303955078125,-2.9479737281799316,-0.17666319012641907,0.04701411351561546
1763694521778325800,5.23032568359375,-3.1039206981658936,-0.3734548091888428,0.059065718203783035
1763694521788348000,5.240347900390625,-3.2109200954437256,-0.5527944564819336,0.030842600390315056
1763694521798369800,5.250369873046875,-2.25396990776062,-0.3340695798397064,-0.15770147740840912
1763694521808393000,5.26039306640625,-0.3381471633911133,-0.4274645149707794,-0.1886332929134369
1763694521818414800,5.270414794921875,1.4175444841384888,-0.3988163471221924,-0.18035219609737396
1763694521828436700,5.280436767578125,2.200294017791748,-0.14969441294670105,-0.21874432265758514
1763694521838460000,5.2904599609375,2.067730665206909,0.12924453616142273,-0.2225627601146698
1763694521848481800,5.300481689453125,1.1630783081054688,0.3195713460445404,-0.1898956298828125
1763694521858504000,5.31050390625,0.16349545121192932,0.373103529214859,-0.09290517121553421
1763694521868526000,5.320526123046875,-0.6084753274917603,0.40838855504989624,0.09433315694332123
1763694521878548700,5.330548828125,-1.0601035356521606,0.12287052720785141,-0.12561838328838348
1763694521888571000,5.34057080078125,-1.6519508361816406,-0.6938557028770447,0.27722787857055664
1763694521898593000,5.350593017578125,-1.894034504890442,-1.0953136682510376,0.23536750674247742
1763694521908616000,5.360615966796875,-1.8314553499221802,-1.0765759944915771,0.09906213730573654
1763694521918638000,5.37063818359375,-1.731142282485962,-0.43674322962760925,0.2508934736251831
1763694521928660000,5.380659912109375,-1.5761737823486328,-0.7176803350448608,0.10618209838867188
1763694521938681900,5.390681884765625,-1.3239686489105225,-0.43699944019317627,0.2651546895503998
1763694521948705000,5.400705078125,-0.8034930229187012,-0.510918140411377,0.35364940762519836
1763694521958727000,5.410726806640625,-0.2450273334980011,-0.44110018014907837,0.6046358346939087
1763694521968748800,5.420748779296875,0.0989135280251503,-0.4393185079097748,0.7988700270652771
1763694521978772000,5.43077197265625,0.5815497040748596,-0.4786938726902008,0.9927569627761841
1763694521988793900,5.4407939453125,0.8552693724632263,-0.18991534411907196,0.8867828249931335
1763694521998815700,5.450815673828125,0.7854873538017273,-0.10762712359428406,0.8456044793128967
1763694522008838000,5.460837890625,0.5727817416191101,-0.1478365957736969,0.705713152885437
1763694522018860800,5.47086083984375,0.46010822057724,-0.13036465644836426,0.6279613971710205
1763694522028883000,5.480883056640625,0.484167218208313,-0.1536465436220169,0.5291778445243835
1763694522038904800,5.49090478515625,0.6339263319969177,-0.16938449442386627,0.3976624011993408
1763694522048927700,5.500927734375,0.821586549282074,-0.40566521883010864,0.4214305877685547
1763694522058950000,5.510949951171875,0.9544020891189575,-0.4908943474292755,0.49429309368133545
1763694522068971800,5.5209716796875,0.9186310172080994,-0.4427103102207184,0.5656285285949707
1763694522078994000,5.530993896484375,0.8293429613113403,-0.309930682182312,0.5942553877830505
1763694522089016800,5.541016845703125,0.7688588500022888,-0.17980119585990906,0.5918891429901123
1763694522099038700,5.551038818359375,0.8054006099700928,-0.19823426008224487,0.5501760244369507
1763694522109061000,5.56106103515625,0.8031973838806152,-0.3042230010032654,0.4552548825740814
1763694522119083800,5.571083740234375,0.7201533913612366,-0.23605647683143616,0.43339216709136963
1763694522129106000,5.58110595703125,0.6585398316383362,-0.23373553156852722,0.3809705078601837
1763694522139128000,5.591128173828125,0.6923031210899353,-0.3164759576320648,0.2888251543045044
1763694522149150000,5.60114990234375,0.7923498153686523,-0.4643953740596771,0.189577117562294
1763694522159172900,5.6111728515625,0.8859375715255737,-0.5663856267929077,0.13213513791561127
1763694522169195000,5.621195068359375,0.8783313035964966,-0.49702122807502747,0.14484213292598724
1763694522179217000,5.631216796875,0.9069781303405762,-0.38801512122154236,0.2646457850933075
1763694522189240000,5.641239990234375,0.9752383828163147,-0.3957854211330414,0.3809308409690857
1763694522199262000,5.651261962890625,1.0366908311843872,-0.44278407096862793,0.4958510398864746
1763694522209283800,5.661283935546875,1.1015467643737793,-0.5724563002586365,0.5223979353904724
1763694522219306000,5.671305908203125,1.1218105554580688,-0.724016010761261,0.4585324227809906
1763694522229329000,5.681328857421875,1.1096779108047485,-0.7572983503341675,0.37420395016670227
1763694522239350800,5.691350830078125,1.019232988357544,-0.5670439600944519,0.46127042174339294
1763694522249373000,5.701373046875,0.8137669563293457,-0.5232621431350708,0.5336258411407471
1763694522259395800,5.711395751953125,0.5793296694755554,-0.5097963809967041,0.6153097748756409
1763694522269418000,5.72141796875,0.4285300374031067,-0.709433376789093,0.6217432022094727
1763694522279440000,5.73143994140625,0.34737181663513184,-0.9206382632255554,0.5493699312210083
1763694522289462800,5.741462890625,0.3085535764694214,-1.1381319761276245,0.4159085154533386
1763694522299485000,5.75148486328125,0.2698509097099304,-1.3004231452941895,0.24619805812835693
1763694522309506800,5.7615068359375,0.21889638900756836,-1.3767945766448975,0.11292441934347153
1763694522319528700,5.77152880859375,0.1356760710477829,-1.4088729619979858,0.06284154951572418
1763694522329552000,5.7815517578125,-0.09926346689462662,-1.337607502937317,0.2746709883213043
1763694522339573800,5.79157373046875,-0.2859995365142822,-1.4383729696273804,0.6707679629325867
1763694522349596000,5.801595947265625,-0.40012475848197937,-1.3250126838684082,0.7869148254394531
1763694522359618800,5.811618896484375,-0.4089401066303253,-1.0376391410827637,0.5520884990692139
1763694522369640700,5.821640625,-0.40214529633522034,-1.0558618307113647,0.2951051592826843
1763694522379663000,5.8316630859375,-0.40781092643737793,-0.8748611807823181,-0.10681433230638504
1763694522389685000,5.84168505859375,-0.3622487485408783,-0.7546902894973755,-0.387372761964798
1763694522399708000,5.8517080078125,-0.30880630016326904,-0.8717519640922546,-0.3725179135799408
1763694522409730000,5.86172998046875,-0.28331106901168823,-0.8371231555938721,-0.2661464512348175
1763694522419752000,5.871751953125,-0.32396236062049866,-0.7604901194572449,-0.23527111113071442
1763694522429775000,5.881775146484375,-0.3848635256290436,-0.7044671177864075,-0.26514750719070435
1763694522439797000,5.891796875,-0.44926780462265015,-0.6832555532455444,-0.34545406699180603
1763694522449819000,5.90181884765625,-0.56971275806427,-0.7041707038879395,-0.40194636583328247
1763694522459840800,5.9118408203125,-0.7884789109230042,-0.7942145466804504,-0.357448935508728
1763694522469864000,5.921864013671875,-1.0137370824813843,-0.837506115436554,-0.2331099510192871
1763694522479885800,5.9318857421875,-1.0164300203323364,-0.9087019562721252,-0.15487107634544373
1763694522489908000,5.941907958984375,-0.7126965522766113,-0.9203240275382996,-0.174185648560524
1763694522499931000,5.951930908203125,-0.3508043587207794,-0.7011663913726807,-0.19869364798069
1763694522509952800,5.961952880859375,-0.09235762804746628,-0.1727568656206131,-0.3134697675704956
1763694522519975000,5.971974853515625,-0.06762218475341797,0.36276036500930786,-0.43046775460243225
1763694522529996800,5.981996826171875,-0.1717589795589447,0.6639968752861023,-0.4609047770500183
1763694522540020000,5.99202001953125,-0.2556490898132324,0.641230583190918,-0.42432332038879395
1763694522550041900,6.002041748046875,-0.27809953689575195,0.3510110080242157,-0.41363632678985596
1763694522560063700,6.012063720703125,-0.3117717504501343,-0.01715608313679695,-0.48287105560302734
1763694522570087000,6.0220869140625,-0.3376629948616028,-0.33018189668655396,-0.5889439582824707
1763694522580108800,6.03210888671875,-0.3361343443393707,-0.5542275309562683,-0.6920197606086731
1763694522590130700,6.042130615234375,-0.33324134349823,-0.7219645977020264,-0.7686673998832703
1763694522600153000,6.052153076171875,-0.3402601182460785,-0.8561040163040161,-0.7882062196731567
1763694522610175700,6.06217578125,-0.3213484585285187,-0.9751297235488892,-0.7047674655914307
1763694522620198000,6.072197998046875,-0.2823256850242615,-0.9824774265289307,-0.5856163501739502
1763694522630220000,6.082219970703125,-0.2703542709350586,-0.8778505921363831,-0.509642481803894
1763694522640242700,6.09224267578125,-0.23668897151947021,-0.8498038053512573,-0.4669882357120514
1763694522650265000,6.10226513671875,-0.21459299325942993,-0.7186886072158813,-0.48997557163238525
1763694522660287000,6.112286865234375,-0.16809898614883423,-0.598712682723999,-0.5183190703392029
1763694522670308900,6.122308837890625,-0.12989407777786255,-0.5063132643699646,-0.521833598613739
1763694522680331300,6.132331298828125,-0.09815745800733566,-0.5038642287254333,-0.5089492797851562
1763694522690353200,6.142353271484375,-0.08592609316110611,-0.5636441707611084,-0.525634229183197
1763694522700375300,6.152375244140625,-0.08202189952135086,-0.6648949384689331,-0.5601213574409485
1763694522710398200,6.162398193359375,-0.10472162067890167,-0.7395505309104919,-0.6020320653915405
1763694522720420400,6.17242041015625,-0.11183305829763412,-0.8002429008483887,-0.6160919666290283
1763694522730442200,6.182442138671875,-0.13900236785411835,-0.8218581676483154,-0.6167100667953491
1763694522740464000,6.192464111328125,-0.13744014501571655,-0.86821049451828,-0.5925586819648743
1763694522750487300,6.2024873046875,-0.14733965694904327,-0.8437206149101257,-0.5650641918182373
1763694522760509200,6.21250927734375,-0.14463068544864655,-0.8535220623016357,-0.5159909129142761
1763694522770531000,6.222531005859375,-0.14734230935573578,-0.8989662528038025,-0.4528026282787323
1763694522780553200,6.23255322265625,-0.14286793768405914,-0.9331859946250916,-0.4011647403240204
1763694522790576000,6.242576171875,-0.14965499937534332,-0.9507149457931519,-0.3748393952846527
1763694522800598300,6.252598388671875,-0.1609364151954651,-0.9623153805732727,-0.3790130913257599
1763694522810620400,6.262620361328125,-0.16708512604236603,-0.9788855910301208,-0.3822712004184723
1763694522820643000,6.27264306640625,-0.16936106979846954,-0.9521557092666626,-0.3825194239616394
1763694522830665500,6.28266552734375,-0.17386819422245026,-0.9127883315086365,-0.37324094772338867
1763694522840687400,6.292687255859375,-0.1771811693906784,-0.8696957230567932,-0.36046522855758667
1763694522850709200,6.302709228515625,-0.1840451955795288,-0.7901148796081543,-0.35427552461624146
1763694522860732400,6.312732421875,-0.2175847887992859,-0.6805689334869385,-0.3664184808731079
1763694522870754300,6.32275439453125,-0.2199816256761551,-0.6884255409240723,-0.3529607355594635
1763694522880776200,6.332776123046875,-0.22505681216716766,-0.663938581943512,-0.3362126350402832
1763694522890799400,6.34279931640625,-0.21600712835788727,-0.5914718508720398,-0.3327856659889221
1763694522900821200,6.3528212890625,-0.2342548370361328,-0.442889541387558,-0.34870606660842896
1763694522910843400,6.362843505859375,-0.21533174812793732,-0.36357155442237854,-0.33187994360923767
1763694522920865300,6.372865234375,-0.17937028408050537,-0.33020374178886414,-0.27011245489120483
1763694522930888200,6.38288818359375,-0.155877485871315,-0.25654762983322144,-0.20184390246868134
1763694522940910300,6.392910400390625,-0.1435779333114624,-0.11696896702051163,-0.15144731104373932
1763694522950932200,6.40293212890625,-0.08158620446920395,-0.048532117158174515,-0.09305138140916824
1763694522960955400,6.412955322265625,-0.039378829300403595,0.033295370638370514,-0.06497420370578766
1763694522970977300,6.422977294921875,-0.0051801144145429134,0.12358718365430832,-0.06908665597438812
1763694522980999200,6.432999267578125,0.025588983669877052,0.20538191497325897,-0.09675130993127823
1763694522991021000,6.44302099609375,0.03838041052222252,0.2616659700870514,-0.1464054137468338
1763694523001044200,6.453044189453125,0.02853230945765972,0.2795325815677643,-0.20512385666370392
1763694523011066000,6.463066162109375,0.0017925737192854285,0.2755458354949951,-0.25531378388404846
1763694523021088300,6.473088134765625,-0.03574122115969658,0.24928918480873108,-0.2879777252674103
1763694523031111200,6.483111083984375,-0.071738101541996,0.18937020003795624,-0.30502861738204956
1763694523041133000,6.493133056640625,-0.1058041900396347,0.12715262174606323,-0.31125083565711975
1763694523051155500,6.503155517578125,-0.13107092678546906,0.086811862885952,-0.30459532141685486
1763694523061177300,6.51317724609375,-0.14482536911964417,0.09768740832805634,-0.2906864285469055
1763694523071200300,6.5232001953125,-0.1378294974565506,0.1718042492866516,-0.2652684152126312
1763694523081222400,6.533222412109375,-0.11935941874980927,0.2835422456264496,-0.24058277904987335
1763694523091244300,6.543244384765625,-0.08480063825845718,0.3986576497554779,-0.21429792046546936
1763694523101267500,6.553267333984375,-0.050642937421798706,0.49941593408584595,-0.1819615513086319
1763694523111289300,6.563289306640625,-0.02816825546324253,0.5975550413131714,-0.15128032863140106
1763694523121311200,6.573311279296875,-0.03633670136332512,0.7000635266304016,-0.12643596529960632
1763694523131333400,6.58333349609375,-0.013826066628098488,0.6901193261146545,-0.07163424044847488
1763694523141356300,6.593356201171875,-0.03207697719335556,0.6774898171424866,-0.03978256508708
1763694523151378200,6.603378173828125,-0.049911633133888245,0.6485665440559387,-0.031670842319726944
1763694523161400300,6.613400390625,-0.06655425578355789,0.6215144395828247,-0.042094722390174866
1763694523171423200,6.62342333984375,-0.08930404484272003,0.5959802865982056,-0.06537740677595139
1763694523181445400,6.6334453125,-0.12291553616523743,0.5472124814987183,-0.09150169044733047
1763694523191467300,6.64346728515625,-0.1594517081975937,0.48464417457580566,-0.11807284504175186
1763694523201489200,6.6534892578125,-0.20387057960033417,0.41150766611099243,-0.14578570425510406
1763694523211512300,6.66351220703125,-0.24498417973518372,0.32295382022857666,-0.17530284821987152
1763694523221534200,6.6735341796875,-0.28787198662757874,0.22634339332580566,-0.20457790791988373
1763694523231556000,6.68355615234375,-0.3267722725868225,0.13076892495155334,-0.2374759316444397
1763694523241579300,6.693579345703125,-0.35602760314941406,0.046365633606910706,-0.26593154668807983
1763694523251601200,6.70360107421875,-0.37008965015411377,-0.01810470223426819,-0.2857705056667328
1763694523261623300,6.713623291015625,-0.379267156124115,-0.06511029601097107,-0.2853587865829468
1763694523271645200,6.723645263671875,-0.38152632117271423,-0.08593807369470596,-0.26819923520088196
1763694523281668000,6.733668212890625,-0.381171852350235,-0.0956524908542633,-0.24777677655220032
1763694523291690200,6.743690185546875,-0.37689775228500366,-0.10790596157312393,-0.23619575798511505
1763694523301712400,6.75371240234375,-0.37275147438049316,-0.10727798938751221,-0.22885794937610626
1763694523311735000,6.763735107421875,-0.38289040327072144,-0.0911400318145752,-0.22852158546447754
1763694523321757400,6.77375732421875,-0.39980384707450867,-0.055328767746686935,-0.24305711686611176
1763694523331779300,6.783779296875,-0.41041070222854614,-0.006668821442872286,-0.2628055214881897
1763694523341801200,6.79380126953125,-0.4269617199897766,0.022426478564739227,-0.2699960768222809
1763694523351824400,6.803824462890625,-0.44968006014823914,0.03299896419048309,-0.27688565850257874
1763694523361846300,6.81384619140625,-0.4742456078529358,0.04908978193998337,-0.2811424434185028
1763694523371868400,6.823868408203125,-0.49795252084732056,0.10248083621263504,-0.3009931147098541
1763694523381891300,6.833891357421875,-0.5181520581245422,0.15889164805412292,-0.33392125368118286
1763694523391913200,6.843913330078125,-0.5360000729560852,0.18313919007778168,-0.3526565730571747
1763694523401935400,6.853935302734375,-0.5461706519126892,0.19293376803398132,-0.35358282923698425
1763694523411957200,6.863957275390625,-0.5351137518882751,0.18420898914337158,-0.3390590250492096
1763694523421980400,6.87398046875,-0.5067340135574341,0.1737121343612671,-0.3150847256183624
1763694523432002300,6.884002197265625,-0.4816926121711731,0.19115717709064484,-0.3020392060279846
1763694523442024200,6.894024169921875,-0.42253419756889343,0.1464104801416397,-0.2542317509651184
1763694523452047400,6.90404736328125,-0.3745245933532715,0.16805292665958405,-0.2278110533952713
1763694523462069200,6.9140693359375,-0.31479522585868835,0.22554151713848114,-0.21068772673606873
1763694523472091100,6.924091064453125,-0.2559257745742798,0.264052152633667,-0.19613754749298096
1763694523482113300,6.93411328125,-0.19386588037014008,0.28250226378440857,-0.18363294005393982
1763694523492136200,6.94413623046875,-0.1270516961812973,0.29348087310791016,-0.18082091212272644
1763694523502158000,6.954157958984375,-0.05397108942270279,0.30295586585998535,-0.17681552469730377
1763694523512180200,6.96418017578125,0.03863207995891571,0.3400534391403198,-0.15040655434131622
1763694523522203100,6.974203125,0.11160242557525635,0.38646647334098816,-0.1505620777606964
1763694523532225300,6.984225341796875,0.19771067798137665,0.37436720728874207,-0.11979244649410248
1763694523542247200,6.9942470703125,0.2914890944957733,0.34762296080589294,-0.032220788300037384
1763694523552269300,7.004269287109375,0.37597230076789856,0.4602019488811493,0.0369926393032074
1763694523562292200,7.014292236328125,0.4317373037338257,0.5702347159385681,0.12467162311077118
1763694523572314400,7.024314453125,0.4954949617385864,0.6440447568893433,0.22960017621517181
1763694523582336300,7.034336181640625,0.556952714920044,0.7180002331733704,0.331108957529068
1763694523592359400,7.044359375,0.6045290231704712,0.8205657601356506,0.4332864582538605
1763694523602381300,7.05438134765625,0.6489297747612,0.9348710179328918,0.5337755084037781
1763694523612403200,7.0644033203125,0.6926010847091675,1.0381544828414917,0.6198824048042297
1763694523622425300,7.07442529296875,0.7454440593719482,1.1140778064727783,0.6977684497833252
1763694523632448300,7.0844482421875,0.7882741093635559,1.1609618663787842,0.794317901134491
1763694523642470400,7.094470458984375,0.8092233538627625,1.170522928237915,0.9221107363700867
1763694523652492300,7.1044921875,0.8085655570030212,1.1332216262817383,1.0573982000350952
1763694523662515200,7.11451513671875,0.7663735747337341,1.0924196243286133,1.1698083877563477
1763694523672537300,7.124537353515625,0.7168909907341003,1.0111292600631714,1.26211678981781
1763694523682559700,7.134559814453125,0.6686129570007324,0.9355106949806213,1.3092947006225586
1763694523692581600,7.14458154296875,0.6225690245628357,0.9503612518310547,1.3201510906219482
1763694523702604800,7.154604736328125,0.6785436272621155,0.9980971217155457,1.3030657768249512
1763694523712626700,7.164626708984375,0.8426321744918823,0.9046664834022522,1.2902477979660034
1763694523722648800,7.17464892578125,0.8949118852615356,0.9118972420692444,1.3114392757415771
1763694523732671700,7.184671630859375,0.9429590106010437,0.9829711318016052,1.3165578842163086
1763694523742693600,7.194693603515625,0.999711811542511,1.1256084442138672,1.2745527029037476
1763694523752715800,7.2047158203125,1.012479543685913,1.1722673177719116,1.2573164701461792
1763694523762737700,7.214737548828125,0.9098005294799805,1.0682260990142822,1.3137767314910889
1763694523772760800,7.2247607421875,0.7959389686584473,0.9314616322517395,1.3841148614883423
1763694523782782700,7.23478271484375,0.6417757272720337,0.7565279006958008,1.4663658142089844
1763694523792804600,7.2448046875,0.46137535572052,0.6443390250205994,1.524105191230774
1763694523802827000,7.254826904296875,0.3383066654205322,0.618362307548523,1.497564435005188
1763694523812849700,7.264849609375,0.2867180407047272,0.6633276343345642,1.374720811843872
1763694523822871800,7.274871826171875,0.2822154462337494,0.7019807696342468,1.1841572523117065
1763694523832894000,7.28489404296875,0.3380528688430786,0.7089079022407532,0.9670425057411194
1763694523842916600,7.29491650390625,0.43574240803718567,0.6942487955093384,0.7702373266220093
1763694523852938800,7.304938720703125,0.5424124002456665,0.6304168105125427,0.6391075253486633
1763694523862961000,7.3149609375,0.6338176727294922,0.5467706918716431,0.5530482530593872
1763694523872982800,7.324982666015625,0.6690441370010376,0.470307856798172,0.5103021264076233
1763694523883006000,7.335005859375,0.6844726204872131,0.3997702896595001,0.480470210313797
1763694523893027800,7.34502783203125,0.6116191744804382,0.2590954899787903,0.5118499994277954
1763694523903049700,7.3550498046875,0.48632171750068665,0.10538528114557266,0.5721023678779602
1763694523913073000,7.365072998046875,0.38651734590530396,-0.022717297077178955,0.5594220161437988
1763694523923094800,7.3750947265625,0.3738793134689331,-0.21535518765449524,0.503961980342865
1763694523933116700,7.38511669921875,0.34444287419319153,-0.38150209188461304,0.4690700173377991
1763694523943138800,7.395138916015625,0.313961923122406,-0.46330854296684265,0.45609936118125916
1763694523953161700,7.40516162109375,0.30545976758003235,-0.5104507207870483,0.44639453291893005
1763694523963183900,7.415183837890625,0.31005746126174927,-0.5395668148994446,0.4258541166782379
1763694523973205800,7.425205810546875,0.33333268761634827,-0.4227033257484436,0.3477526307106018
1763694523983228700,7.435228759765625,0.35515010356903076,-0.24175989627838135,0.2509579360485077
1763694523993250800,7.445250732421875,0.4277172386646271,-0.16719672083854675,0.18505187332630157
1763694524003272700,7.455272705078125,0.4827519953250885,-0.1885792315006256,0.18157298862934113
1763694524013294600,7.465294677734375,0.5359707474708557,-0.14573030173778534,0.17823338508605957
1763694524023317800,7.47531787109375,0.5620636343955994,0.006099171470850706,0.13855893909931183
1763694524033339600,7.485339599609375,0.566580057144165,0.13050687313079834,0.10614268481731415
1763694524043361500,7.495361572265625,0.6062356233596802,0.20691563189029694,0.08949126303195953
1763694524053384700,7.505384765625,0.6536949872970581,0.23543062806129456,0.042028408497571945
1763694524063406600,7.515406494140625,0.6810874938964844,0.21139267086982727,-0.02051752619445324
1763694524073429000,7.525428955078125,0.6940000653266907,0.05504141375422478,-0.0026791400741785765
1763694524083451000,7.535450927734375,0.7525805830955505,-0.04397810995578766,0.043356530368328094
1763694524093473800,7.545473876953125,0.8650690317153931,-0.04782158508896828,0.0943741723895073
1763694524103496000,7.555495849609375,0.9780275225639343,-0.07527344673871994,0.11872585117816925
1763694524113517800,7.565517822265625,1.0542935132980347,-0.11974717676639557,0.08794290572404861
1763694524123541000,7.575541015625,1.1068898439407349,-0.16618818044662476,0.006567355245351791
1763694524133563000,7.58556298828125,1.1227450370788574,-0.27568137645721436,-0.04993613436818123
1763694524143584800,7.595584716796875,1.0337693691253662,-0.31717315316200256,-0.11270976811647415
1763694524153606700,7.605606689453125,0.9919129610061646,-0.39613693952560425,-0.14747653901576996
1763694524163629800,7.6156298828125,0.9306586980819702,-0.5391796231269836,-0.18296049535274506
1763694524173651700,7.625651611328125,0.8757117986679077,-0.6938453316688538,-0.2005714476108551
1763694524183673900,7.635673828125,0.8852341771125793,-0.7118871808052063,-0.2337975800037384
1763694524193696800,7.64569677734375,0.8758156895637512,-0.6480847597122192,-0.3046155571937561
1763694524203718700,7.65571875,0.5454260110855103,-0.4991813004016876,-0.3705303966999054
1763694524213740800,7.66574072265625,0.2633823752403259,-0.31102633476257324,-0.4129777252674103
1763694524223762700,7.6757626953125,0.22216010093688965,-0.19625979661941528,-0.4624834954738617
1763694524233785900,7.685785888671875,0.3670690953731537,-0.23614835739135742,-0.5431575775146484
1763694524243807700,7.695807861328125,0.5547534823417664,-0.277502179145813,-0.6322405338287354
1763694524253829600,7.70582958984375,0.7130715250968933,-0.5193318724632263,-0.6908926963806152
1763694524263852800,7.715852783203125,0.6276133060455322,-0.7610602974891663,-0.7066386342048645
1763694524273874700,7.725874755859375,0.4518321752548218,-0.9030936360359192,-0.6204603314399719
1763694524283896600,7.735896484375,0.3586955666542053,-1.112631916999817,-0.530487596988678
1763694524293919000,7.7459189453125,0.366340696811676,-1.3575327396392822,-0.4850196838378906
1763694524303941600,7.755941650390625,0.23064333200454712,-1.338045597076416,-0.44066527485847473
1763694524313963800,7.7659638671875,-0.06361918896436691,-0.9266511797904968,-0.38352689146995544
1763694524323986000,7.77598583984375,-0.1918346881866455,-0.5284119248390198,-0.35536128282546997
1763694524334008600,7.786008544921875,-0.12204734236001968,-0.48881441354751587,-0.35871875286102295
1763694524344031000,7.796031005859375,-0.07667480409145355,-0.41706541180610657,-0.3316578269004822
1763694524354052900,7.806052978515625,-0.03996552526950836,-0.34630706906318665,-0.2892190217971802
1763694524364074800,7.81607470703125,-0.006435528863221407,-0.3309057652950287,-0.2383241504430771
1763694524374098000,7.826097900390625,0.043529901653528214,-0.3698294460773468,-0.16835598647594452
1763694524384119800,7.836119873046875,0.12325429171323776,-0.3586713373661041,-0.1033753901720047
1763694524394141700,7.8461416015625,0.17976416647434235,-0.31480881571769714,-0.10799677670001984
1763694524404163800,7.856163818359375,0.22638466954231262,-0.23591399192810059,-0.2354695051908493
1763694524414186800,7.866186767578125,0.2696429193019867,-0.21910598874092102,-0.3756210207939148
1763694524424209000,7.876208984375,0.3019680976867676,-0.29094555974006653,-0.4351080656051636
1763694524434230800,7.886230712890625,0.3004285395145416,-0.2952668070793152,-0.45476672053337097
1763694524444253700,7.896253662109375,0.16387015581130981,-0.13844282925128937,-0.4745531976222992
1763694524454275800,7.90627587890625,0.09284072369337082,-0.08448958396911621,-0.4172068238258362
1763694524464297700,7.916297607421875,-0.16186293959617615,-0.21950839459896088,-0.2595871090888977
1763694524474319600,7.926319580078125,-0.3193071484565735,-0.31965601444244385,-0.02989851124584675
1763694524484342800,7.9363427734375,-0.2922142744064331,-0.389351487159729,0.09981074929237366
1763694524494364700,7.94636474609375,-0.25803714990615845,-0.341536283493042,0.23804105818271637
1763694524504386600,7.956386474609375,-0.18397648632526398,-0.16529467701911926,0.26644793152809143
1763694524514409700,7.96640966796875,-0.09085054695606232,0.027632426470518112,0.19043253362178802
1763694524524431600,7.976431640625,0.05036996304988861,0.29990309476852417,0.019363578408956528
1763694524534453800,7.986453857421875,0.2154819518327713,0.5844682455062866,-0.21801967918872833
1763694524544476000,7.996475830078125,0.36182957887649536,0.8789497017860413,-0.3661947548389435
1763694524554498600,8.00649853515625,0.44963932037353516,0.9510324001312256,-0.43674856424331665
1763694524564521000,8.01652099609375,0.2870381772518158,0.7730940580368042,-0.46093857288360596
1763694524574542800,8.02654296875,0.1472001075744629,0.43719038367271423,-0.4278160631656647
1763694524584565800,8.036565673828125,-0.018022676929831505,0.10746760666370392,-0.35488060116767883
1763694524594588000,8.046587890625,-0.2217949777841568,-0.2068099081516266,-0.3015281558036804
1763694524604609800,8.05660986328125,-0.40544790029525757,-0.44736260175704956,-0.2655693590641022
1763694524614631700,8.066631591796876,-0.39432573318481445,-0.7143386006355286,-0.23294509947299957
1763694524624654800,8.07665478515625,-0.201772540807724,-0.8502519726753235,-0.13633599877357483
1763694524634676700,8.0866767578125,-0.22064635157585144,-0.9639777541160583,-0.17089611291885376
1763694524644699000,8.096698974609374,-0.2921977639198303,-0.8584886193275452,-0.2557460069656372
1763694524654721800,8.1067216796875,-0.2792758345603943,-0.7494266033172607,-0.37537601590156555
1763694524664743700,8.11674365234375,-0.2311253696680069,-0.7499003410339355,-0.4563342332839966
1763694524674765800,8.126765869140625,-0.2437623292207718,-0.7772800326347351,-0.4754147231578827
1763694524684787200,8.136787109375,-0.241129532456398,-0.6579946875572205,-0.513911783695221
1763694524694810400,8.146810302734375,-0.21400150656700134,-0.5293509364128113,-0.5167155861854553
1763694524704832300,8.156832275390625,-0.2947482764720917,-0.29274290800094604,-0.5312952995300293
1763694524714854100,8.166854248046874,-0.44872185587882996,-0.027054520323872566,-0.5192553997039795
1763694524724877300,8.176877197265625,-0.6008594632148743,0.053944192826747894,-0.4194103181362152
1763694524734899200,8.186899169921874,-0.7740975618362427,-0.1354297250509262,-0.214494988322258
1763694524744921000,8.196921142578125,-0.6755145192146301,-0.2387894093990326,-0.045158956199884415
1763694524754943500,8.206943603515626,-0.6038198471069336,-0.10519646108150482,0.047994423657655716
1763694524764966100,8.216966064453125,-0.5262302160263062,0.006934072356671095,0.09888769686222076
1763694524774988300,8.22698828125,-0.4859746992588043,-0.07662633806467056,0.14531858265399933
1763694524785010400,8.237010498046875,-0.48443299531936646,-0.03604242205619812,0.14464879035949707
1763694524795033300,8.247033447265625,-0.4982635974884033,0.0007683219737373292,0.17908133566379547
1763694524805055500,8.257055419921874,-0.5043707489967346,0.18270030617713928,0.19383685290813446
1763694524815077400,8.267077392578125,-0.5495840311050415,0.4128488302230835,0.12646234035491943
1763694524825099300,8.277099365234376,-0.5157027840614319,0.7127774953842163,-0.014345116913318634
1763694524835122400,8.287122314453125,-0.47192704677581787,0.9156057238578796,-0.26015886664390564
1763694524845144300,8.297144287109376,-0.33689892292022705,0.8807355761528015,-0.3796514570713043
1763694524855166200,8.307166259765625,-0.12084493041038513,0.8882989883422852,-0.44779056310653687
1763694524865189400,8.317189453125,0.09914921969175339,0.5779797434806824,-0.4416290819644928
1763694524875211300,8.327211181640624,0.23467935621738434,0.3824634850025177,-0.4218199551105499
1763694524885233400,8.3372333984375,0.2804636061191559,0.21907828748226166,-0.37098366022109985
1763694524895255300,8.34725537109375,0.23578590154647827,-0.12362580001354218,-0.2647815942764282
1763694524905278200,8.3572783203125,0.10904872417449951,-0.12042547762393951,-0.3209284842014313
1763694524915300400,8.36730029296875,0.04592248424887657,0.09948024898767471,-0.44325360655784607
1763694524925322200,8.377322265625,0.060800231993198395,0.045108355581760406,-0.49989157915115356
1763694524935345400,8.387345458984376,0.05327014625072479,0.056664079427719116,-0.5108435750007629
1763694524945367300,8.3973671875,-0.08258755505084991,0.2533566355705261,-0.5274704694747925
1763694524955389200,8.40738916015625,-0.28904086351394653,0.4575366675853729,-0.4682420492172241
1763694524965411000,8.4174111328125,-0.3441706895828247,0.5501992106437683,-0.3158527612686157
1763694524975434200,8.427434326171875,-0.3130476474761963,0.5416089296340942,-0.1609308272600174
1763694524985456000,8.4374560546875,-0.1977197378873825,0.5994999408721924,-0.05048368126153946
1763694524995478300,8.447478271484375,-0.12967437505722046,0.7622105479240417,-0.023446736857295036
1763694525005501200,8.457501220703126,-0.2043589949607849,0.907810628414154,-0.05151405557990074
1763694525015523000,8.467523193359375,-0.3134508728981018,0.9845967292785645,-0.09246841073036194
1763694525025545500,8.47754541015625,-0.41371169686317444,0.9243469834327698,-0.11097098886966705
1763694525035567400,8.4875673828125,-0.4798622131347656,0.7873632907867432,-0.12078128010034561
1763694525045590500,8.497590576171875,-0.48682212829589844,0.6087011694908142,-0.09425539523363113
1763694525055612400,8.5076123046875,-0.43385982513427734,0.5055553317070007,-0.05632958561182022
1763694525065634300,8.51763427734375,-0.32183051109313965,0.4724825918674469,-0.030429011210799217
1763694525075657500,8.527657470703126,-0.2408461719751358,0.5013182163238525,-0.06322664022445679
1763694525085679400,8.537679443359375,-0.19507521390914917,0.5333622097969055,-0.08592768758535385
1763694525095701200,8.547701171875,-0.14460085332393646,0.4807104170322418,-0.08864464610815048
1763694525105723400,8.557723388671874,-0.07868389040231705,0.4189285635948181,-0.07490033656358719
1763694525115746300,8.567746337890625,-0.02870647981762886,0.3471827208995819,-0.06977641582489014
1763694525125768400,8.5777685546875,-0.009923471137881279,0.2830663323402405,-0.08640386164188385
1763694525135790300,8.587790283203125,-0.033910829573869705,0.25840944051742554,-0.14092542231082916
1763694525145813200,8.597813232421874,-0.07992945611476898,0.23704983294010162,-0.17186257243156433
1763694525155835400,8.60783544921875,-0.11982360482215881,0.21500471234321594,-0.16245920956134796
1763694525165857300,8.617857177734376,-0.1622174084186554,0.21714003384113312,-0.1500646024942398
1763694525175879200,8.627879150390624,-0.21189281344413757,0.1930283159017563,-0.12171311676502228
1763694525185902300,8.63790234375,-0.2470574527978897,0.19415509700775146,-0.09450812637805939
1763694525195924200,8.64792431640625,-0.2860291004180908,0.1714945286512375,-0.07904874533414841
1763694525205946000,8.657946044921875,-0.3176567852497101,0.13882339000701904,-0.07607825845479965
1763694525215968300,8.66796826171875,-0.33773648738861084,0.09413901716470718,-0.08428824692964554
1763694525225991200,8.6779912109375,-0.3487662374973297,0.057975683361291885,-0.08716019988059998
1763694525236013300,8.688013427734376,-0.387412428855896,0.11402856558561325,-0.13839195668697357
1763694525246035500,8.698035400390625,-0.3526861369609833,0.21928414702415466,-0.2009434849023819
1763694525256058000,8.70805810546875,-0.3096148371696472,0.24280785024166107,-0.22425280511379242
1763694525266080300,8.718080322265624,-0.2803592085838318,0.311685711145401,-0.24628381431102753
1763694525276102400,8.728102294921875,-0.27052071690559387,0.44450899958610535,-0.21534933149814606
1763694525286124300,8.738124267578126,-0.2611037790775299,0.5187222361564636,-0.20798994600772858
1763694525296147500,8.7481474609375,-0.2354591190814972,0.5373880863189697,-0.13868224620819092
1763694525306169300,8.75816943359375,-0.19797326624393463,0.6439142823219299,-0.049082592129707336
1763694525316191200,8.768191162109375,-0.18670809268951416,0.7716202735900879,0.013735786080360413
1763694525326214400,8.77821435546875,-0.163033127784729,0.5882989168167114,0.11953944712877274
1763694525336236300,8.788236328125,-0.15948845446109772,-0.009424926713109016,0.24063071608543396
1763694525346258400,8.798258544921875,-0.27249303460121155,-0.22520622611045837,0.11599531024694443
1763694525356280300,8.8082802734375,-0.5198080539703369,-0.3062603175640106,0.1000504344701767
1763694525366303200,8.81830322265625,-0.6029345989227295,-0.36307859420776367,-0.06526955217123032
1763694525376325400,8.828325439453126,-0.3648104667663574,-0.33025380969047546,-0.1981240063905716
1763694525386347300,8.83834716796875,-0.280527800321579,-0.38319557905197144,-0.21101823449134827
1763694525396370400,8.848370361328126,-0.41962602734565735,-0.20762430131435394,-0.1229938343167305
1763694525406392300,8.858392333984375,-0.4166361093521118,0.08688962459564209,0.024091754108667374
1763694525416414200,8.868414306640625,-0.38360410928726196,0.2929389178752899,0.09081006050109863
1763694525426436400,8.878436279296874,-0.3277597725391388,0.33798709511756897,0.13268214464187622
1763694525436459300,8.888459228515625,-0.2265404611825943,0.2894616425037384,0.16498629748821259
1763694525446481200,8.898481201171874,-0.06173100695014,0.06246950104832649,0.22575242817401886
1763694525456503300,8.90850341796875,0.1316581666469574,-0.15462899208068848,0.3210824131965637
1763694525466526200,8.918526123046876,0.3186599910259247,-0.16387388110160828,0.4304906725883484
1763694525476548000,8.928548095703125,0.48916515707969666,-0.051723647862672806,0.5539324283599854
1763694525486570200,8.9385703125,0.590330958366394,0.12510305643081665,0.6818291544914246
1763694525496592400,8.94859228515625,0.6597238779067993,-0.03990400582551956,0.7622299790382385
1763694525506615300,8.958615234375,0.7633399963378906,-0.18721942603588104,0.9544559121131897
1763694525516637400,8.968637451171874,0.9017024040222168,-0.2192913442850113,1.2510918378829956
1763694525526659300,8.978659423828125,1.1322189569473267,-0.1674869954586029,1.5407768487930298
1763694525536682200,8.98868212890625,1.4453898668289185,-0.03509753197431564,1.7978731393814087
1763694525546704400,8.998704345703125,1.7176907062530518,0.1547757238149643,1.9655601978302002
1763694525556726300,9.008726318359376,1.9052693843841553,0.4780925512313843,1.9609071016311646
1763694525566748400,9.01874853515625,1.9512760639190674,0.6291230916976929,1.6831481456756592
1763694525576771300,9.028771240234375,2.1562633514404297,0.4529688060283661,1.5265268087387085
1763694525586793500,9.03879345703125,2.1331536769866943,-0.09833722561597824,1.5394237041473389
1763694525596815400,9.0488154296875,1.878091812133789,-0.8826802372932434,1.714153528213501
1763694525606838300,9.05883837890625,1.563623070716858,-1.0617152452468872,1.6096816062927246
1763694525616860400,9.0688603515625,1.2489655017852783,-1.189337134361267,1.4017260074615479
1763694525626882300,9.07888232421875,1.0193113088607788,-1.1588973999023438,1.1583073139190674
1763694525636904200,9.088904296875,0.9536337852478027,-1.2410117387771606,0.9669287800788879
1763694525646927400,9.09892724609375,0.864784300327301,-1.1113864183425903,0.8315637707710266
1763694525656949200,9.10894921875,0.749197781085968,-1.085343360900879,0.7734863758087158
1763694525666971100,9.11897119140625,0.735591471195221,-0.8384488821029663,0.750164270401001
1763694525676993300,9.1289931640625,0.6848102807998657,-0.690014123916626,0.7245222926139832
1763694525687016000,9.139015869140625,0.6676734089851379,-0.5849835872650146,0.702633261680603
1763694525697038000,9.1490380859375,0.6500882506370544,-0.6021156907081604,0.6461686491966248
1763694525707060200,9.159060302734375,0.6726407408714294,-0.5206756591796875,0.5258587002754211
1763694525717083000,9.169082763671875,0.7557015419006348,-0.3338967561721802,0.3969865143299103
1763694525727105000,9.17910498046875,0.7322073578834534,-0.36504268646240234,0.22941188514232635
1763694525737127200,9.189127197265625,0.7301095724105835,-0.2516588568687439,0.07516718655824661
1763694525747149000,9.199149169921874,0.7566091418266296,-0.1863728016614914,-0.010454238392412663
1763694525757172200,9.209172119140625,0.9052875638008118,-0.27156439423561096,0.020771058276295662
1763694525767194000,9.219194091796876,0.8817180395126343,-0.3667830526828766,0.0501803457736969
1763694525777216000,9.229216064453125,0.8065369725227356,-0.29216501116752625,-0.009317868389189243
1763694525787239200,9.2392392578125,0.7862604856491089,-0.2048516869544983,-0.1302269846200943
1763694525797261000,9.249260986328125,0.7774217128753662,-0.07560208439826965,-0.34962430596351624
1763694525807283200,9.259283203125,0.7719553112983704,0.04969112202525139,-0.6012411117553711
1763694525817305000,9.26930517578125,0.7585678696632385,0.0458681546151638,-0.8115003108978271
1763694525827328000,9.279327880859375,0.6023545861244202,-0.0582667700946331,-0.9245176911354065
1763694525837350100,9.28935009765625,0.2933879494667053,-0.14655375480651855,-0.9723891019821167
1763694525847372000,9.2993720703125,0.09791005402803421,-0.11819934099912643,-1.0525749921798706
1763694525857395200,9.309395263671876,-0.04415707290172577,-0.23648656904697418,-1.1004998683929443
1763694525867417000,9.3194169921875,-0.18873156607151031,-0.35098332166671753,-1.1322150230407715
1763694525877439000,9.32943896484375,-0.2973818778991699,-0.23672838509082794,-1.2671195268630981
1763694525887460900,9.3394609375,-0.5289336442947388,-0.37611663341522217,-1.2174835205078125
1763694525897484000,9.349484130859375,-0.7150529026985168,-0.38705503940582275,-1.1494258642196655
1763694525907506000,9.359505859375,-0.8252992630004883,-0.45361703634262085,-1.0531401634216309
1763694525917528000,9.369528076171875,-0.8621456623077393,-0.5170993208885193,-0.9095030426979065
1763694525927551000,9.379551025390626,-0.9773780107498169,-0.645857572555542,-0.7630425095558167
1763694525937572900,9.38957275390625,-0.8665177822113037,-0.8829423189163208,-0.5994874238967896
1763694525947595000,9.399594970703125,-0.7126344442367554,-1.0719865560531616,-0.38150927424430847
1763694525957617200,9.4096171875,-0.6198323369026184,-1.1135238409042358,-0.22593939304351807
1763694525967640000,9.41964013671875,-0.5006212592124939,-1.0094554424285889,-0.18453362584114075
1763694525977662200,9.429662109375,-0.3242667615413666,-0.8692062497138977,-0.1435483694076538
1763694525987684000,9.43968408203125,-0.15949033200740814,-0.7114091515541077,-0.09659817814826965
1763694525997707000,9.44970703125,-0.08875463902950287,-0.47121545672416687,-0.05163842812180519
1763694526007729200,9.459729248046875,-0.08337797969579697,-0.21079985797405243,0.034033868461847305
1763694526017751000,9.4697509765625,-0.05383739992976189,-0.03834472596645355,0.1557174175977707
1763694526027773200,9.479773193359375,-0.07197778671979904,0.14729304611682892,0.2614632844924927
1763694526037796000,9.489796142578125,-0.05134627968072891,0.4355384111404419,0.20641416311264038
1763694526047818000,9.49981787109375,-0.006200105417519808,0.5138739943504333,0.08447307348251343
1763694526057840000,9.509840087890625,-0.07311016321182251,0.4186377227306366,0.0012271846644580364
1763694526067863000,9.519863037109374,-0.3050627112388611,0.2246810495853424,-0.033596575260162354
1763694526077885200,9.52988525390625,-0.39416220784187317,0.3162993788719177,-0.20436298847198486
1763694526087907000,9.539906982421876,-0.27538764476776123,0.3576681315898895,-0.3294423520565033
1763694526097929000,9.549928955078125,-0.1482589691877365,0.1259739100933075,-0.27011698484420776
1763694526107952000,9.5599521484375,0.10342758893966675,-0.18571393191814423,-0.1697826385498047
1763694526117974000,9.56997412109375,0.337312787771225,-0.2369648814201355,-0.12601971626281738
1763694526127996000,9.579995849609375,0.37992390990257263,-0.15915636718273163,-0.10267684608697891
1763694526138018000,9.59001806640625,0.34217730164527893,-0.6514462232589722,-0.013199425302445889
1763694526148041000,9.600041015625,0.21117828786373138,-0.1339186578989029,-0.42360052466392517
1763694526158063000,9.61006298828125,-0.13186748325824738,0.027158649638295174,-0.6970624327659607
1763694526168085000,9.6200849609375,-0.25410205125808716,-0.28089770674705505,-0.7286834716796875
1763694526178108000,9.63010791015625,-0.3215964138507843,-0.5987238883972168,-0.7765434384346008
1763694526188130000,9.640130126953125,-0.5037475824356079,-0.892425000667572,-0.829359769821167
1763694526198152200,9.650152099609375,-0.6247930526733398,-0.787225604057312,-0.8437509536743164
1763694526208174000,9.660174072265624,-0.8695215582847595,-0.676272451877594,-0.8894550800323486
1763694526218197000,9.670197021484375,-1.172692060470581,-0.4154597818851471,-1.010993242263794
1763694526228219100,9.68021923828125,-1.5291521549224854,-0.5459656119346619,-0.9571999907493591
1763694526238241000,9.690240966796875,-1.635180115699768,-0.4989893138408661,-0.9340134859085083
1763694526248264200,9.70026416015625,-1.5098075866699219,-0.445465087890625,-0.896614670753479
1763694526258286000,9.7102861328125,-1.353868007659912,-0.07356183230876923,-0.9576026797294617
1763694526268308200,9.72030810546875,-1.2830274105072021,0.40494030714035034,-1.0930463075637817
1763694526278330000,9.730330078125,-1.190267562866211,0.6846712827682495,-1.1976964473724365
1763694526288353000,9.74035302734375,-0.8830352425575256,1.3717734813690186,-1.2452940940856934
1763694526298375200,9.750375244140624,-0.5715268850326538,1.458621621131897,-1.2423089742660522
1763694526308397000,9.76039697265625,-0.6272101402282715,0.6989690065383911,-1.2216618061065674
1763694526318420200,9.770420166015626,-0.34297358989715576,-0.2897404730319977,-1.3687167167663574
1763694526328442000,9.780442138671875,0.350159615278244,-0.33090975880622864,-1.2719765901565552
1763694526338464000,9.790464111328125,0.7264581322669983,-0.19739936292171478,-0.9605646729469299
1763694526348486000,9.80048583984375,0.5904926061630249,0.1370619833469391,-0.8741240501403809
1763694526358509000,9.810509033203125,0.24822445213794708,0.5351965427398682,-0.9518409371376038
1763694526368531000,9.820531005859374,0.04309287667274475,0.782355785369873,-0.9993833899497986
1763694526378553000,9.830552978515625,0.07647320628166199,0.7732027173042297,-0.9922898411750793
1763694526388576000,9.840575927734376,-0.008402539417147636,0.5595248341560364,-0.9870423078536987
1763694526398598000,9.850597900390625,-0.06040901690721512,0.39613670110702515,-0.9753444194793701
1763694526408620000,9.8606201171875,-0.31365966796875,0.5094320774078369,-0.9893973469734192
1763694526418642000,9.870641845703124,-0.5603216290473938,0.593925952911377,-0.8703567385673523
1763694526428665000,9.8806650390625,-0.5208980441093445,0.36117684841156006,-0.8350043296813965
1763694526438687000,9.89068701171875,-0.4117896854877472,0.2185339331626892,-0.7916123867034912
1763694526448709000,9.900709228515625,-0.15751878917217255,0.18912038207054138,-0.7455722093582153
1763694526458731000,9.91073095703125,0.13482731580734253,0.3202562928199768,-0.7960686683654785
1763694526468754200,9.920754150390625,0.3776295781135559,0.3476423919200897,-0.8616154193878174
1763694526478776000,9.930776123046876,0.45368891954421997,0.43167099356651306,-1.0042439699172974
1763694526488798200,9.940798095703125,0.395177960395813,0.5607045888900757,-1.1402758359909058
1763694526498821000,9.950821044921875,0.35606756806373596,0.6152589321136475,-1.1348965167999268
1763694526508843000,9.960843017578124,0.1359514445066452,0.5972423553466797,-1.0893546342849731
1763694526518865200,9.970865234375,-0.3005036413669586,0.44741371273994446,-1.0170804262161255
1763694526528887000,9.980886962890626,-0.5338729619979858,0.3843950629234314,-0.8561937808990479
1763694526538910200,9.99091015625,-0.5419647097587585,0.4164382219314575,-0.6979473829269409
1763694526548932000,10.00093212890625,-0.516004741191864,0.47710931301116943,-0.6340848207473755
1763694526558954000,10.0109541015625,-0.5208969712257385,0.284788578748703,-0.5118885636329651
1763694526568977200,10.02097705078125,-0.48394057154655457,0.10498154163360596,-0.3493100702762604
1763694526578999000,10.0309990234375,-0.30211591720581055,0.4669914245605469,-0.4792187809944153
1763694526589021000,10.04102099609375,-0.3173508048057556,0.6523644924163818,-0.6718750596046448
1763694526599043000,10.05104296875,-0.2400088757276535,0.9368718266487122,-0.799927830696106
1763694526609066000,10.06106591796875,-0.25719505548477173,1.044019341468811,-0.8184162974357605
1763694526619088100,10.071088134765626,-0.3193902373313904,1.0096536874771118,-0.7614022493362427
1763694526629110000,10.081110107421875,-0.372466504573822,0.9583044052124023,-0.6964746713638306
1763694526639133000,10.0911328125,-0.4236740469932556,0.9313820004463196,-0.6644318103790283
1763694526649155000,10.101155029296875,-0.5142326951026917,0.7647197842597961,-0.5524740815162659
1763694526659177000,10.111177001953125,-0.607742965221405,0.7101122140884399,-0.39898228645324707
1763694526669199000,10.12119921875,-0.5703324675559998,0.8618292808532715,-0.24094736576080322
1763694526679222000,10.131221923828125,-0.4718894958496094,1.0284433364868164,-0.15459303557872772
1763694526689244400,10.141244384765624,-0.500164806842804,0.991504967212677,-0.13090422749519348
1763694526699266600,10.1512666015625,-0.5920625329017639,0.9173793792724609,-0.1560758799314499
1763694526709289500,10.16128955078125,-0.6078947186470032,0.8681497573852539,-0.17320454120635986
1763694526719311400,10.171311279296875,-0.5409473776817322,0.8030799627304077,-0.15801173448562622
1763694526729333500,10.18133349609375,-0.582581102848053,0.6430157423019409,-0.1301444172859192
1763694526739355600,10.191355712890624,-0.7553635835647583,0.36401230096817017,-0.03345915675163269
1763694526749378600,10.201378662109375,-0.869184672832489,0.20255017280578613,0.25630369782447815
1763694526759400700,10.211400634765624,-0.8942269086837769,0.021469073370099068,0.7819296717643738
1763694526769422600,10.221422607421875,-0.6561304330825806,-0.1548313945531845,1.3895902633666992
1763694526779445500,10.231445556640624,-0.3541117310523987,-0.6718848943710327,2.052639961242676
1763694526789467600,10.241467529296875,0.04201695695519447,-1.1506088972091675,2.6282758712768555
1763694526799489500,10.251489501953126,0.6307691931724548,-1.1626181602478027,3.0576066970825195
1763694526809511400,10.261511474609375,1.1550366878509521,-0.2906195819377899,3.320650815963745
1763694526819534600,10.27153466796875,1.6190663576126099,0.4925452470779419,3.358259916305542
1763694526829556500,10.281556396484374,1.815183401107788,1.178906798362732,3.211977005004883
1763694526839578600,10.29157861328125,1.8137421607971191,1.5515613555908203,3.0870792865753174
1763694526849600500,10.3016005859375,1.8318403959274292,1.8879207372665405,2.945600986480713
1763694526859623400,10.31162353515625,1.9144319295883179,2.0952043533325195,2.7759320735931396
1763694526869645600,10.3216455078125,1.921115756034851,2.1383326053619385,2.509377956390381
1763694526879667500,10.33166748046875,1.822810173034668,1.968959927558899,2.1497483253479004
1763694526889690400,10.3416904296875,1.6649824380874634,1.5394322872161865,1.6693018674850464
1763694526899712500,10.35171240234375,1.466188669204712,0.6801111698150635,1.2325931787490845
1763694526909734400,10.361734375,1.2000176906585693,-0.3036099374294281,0.9867318272590637
1763694526919756300,10.37175634765625,0.8350520133972168,-0.8680086135864258,0.9405823945999146
1763694526929779500,10.381779541015625,0.4608869254589081,-1.0752640962600708,0.9656299948692322
1763694526939801300,10.39180126953125,0.18750092387199402,-1.1959319114685059,1.0304148197174072
1763694526949823700,10.40182373046875,0.06259839981794357,-1.31735098361969,1.0423833131790161
1763694526959846400,10.411846435546876,0.1272389143705368,-1.3259663581848145,1.0044960975646973
1763694526969868500,10.42186865234375,0.3680243492126465,-1.1660679578781128,0.9240708351135254
1763694526979890700,10.431890625,0.681799590587616,-1.0116938352584839,0.8762612342834473
1763694526989912600,10.44191259765625,0.9905081391334534,-0.8976812958717346,0.9075410962104797
1763694526999935700,10.451935791015625,1.2273756265640259,-0.688450276851654,0.8462375402450562
1763694527009957600,10.46195751953125,1.4144275188446045,-0.6153231263160706,0.7327959537506104
1763694527019979500,10.4719794921875,1.5434693098068237,-0.6684406399726868,0.609393835067749
1763694527030002700,10.482002685546876,1.5990686416625977,-0.634803295135498,0.45919767022132874
1763694527040024600,10.492024658203125,1.5933444499969482,-0.6559123396873474,0.3600068986415863
1763694527050046500,10.50204638671875,1.5152734518051147,-0.8004255890846252,0.34763360023498535
1763694527060068600,10.512068603515624,1.3907275199890137,-0.8728275895118713,0.3364752233028412
1763694527070091500,10.522091552734375,1.2502784729003906,-1.0753788948059082,0.3504940867424011
1763694527080113400,10.532113525390624,1.1077157258987427,-1.1764439344406128,0.35004881024360657
1763694527090135600,10.542135498046875,0.9399176836013794,-1.1798498630523682,0.33234837651252747
1763694527100158500,10.552158447265626,0.7826263308525085,-1.256073236465454,0.30325573682785034
1763694527110180600,10.5621806640625,0.6158331036567688,-1.1754852533340454,0.22658893465995789
1763694527120202500,10.572202392578125,0.48428571224212646,-1.2336819171905518,0.16268399357795715
1763694527130224400,10.582224365234374,0.4864561855792999,-1.132094383239746,-0.05765077844262123
1763694527140247600,10.59224755859375,0.46481454372406006,-1.255084753036499,-0.27669763565063477
1763694527150269400,10.60226953125,0.4220077097415924,-1.3446910381317139,-0.4937732219696045
1763694527160291300,10.612291259765625,0.34293338656425476,-1.3258824348449707,-0.6407349705696106
1763694527170313500,10.6223134765625,0.2008974254131317,-1.3043649196624756,-0.7483983039855957
1763694527180336400,10.63233642578125,0.025370070710778236,-1.276847004890442,-0.8762305974960327
1763694527190358500,10.642358642578126,-0.15159724652767181,-1.1527050733566284,-1.0718435049057007
1763694527200380700,10.652380615234375,-0.3042216897010803,-0.9747962951660156,-1.292908787727356
1763694527210403300,10.6624033203125,-0.43630141019821167,-0.829589307308197,-1.4304900169372559
1763694527220425700,10.67242578125,-0.6127395629882812,-0.7019437551498413,-1.505838394165039
1763694527230447600,10.682447509765625,-0.8414204120635986,-0.7173208594322205,-1.4390294551849365
1763694527240469500,10.692469482421876,-1.1532680988311768,-0.6202832460403442,-1.3122326135635376
1763694527250492700,10.70249267578125,-1.4311997890472412,-0.5271421074867249,-1.1454945802688599
1763694527260514600,10.7125146484375,-1.4798978567123413,-0.4047759771347046,-0.9294077754020691
1763694527270536400,10.722536376953125,-1.1954681873321533,-0.15732571482658386,-0.7904570698738098
1763694527280559600,10.7325595703125,-0.7209171652793884,0.1323079764842987,-0.6619052290916443
1763694527290581500,10.74258154296875,-0.27643850445747375,0.40638267993927,-0.4415947198867798
1763694527300603600,10.752603759765625,-0.0797632709145546,0.6461433172225952,-0.04754061996936798
1763694527310625500,10.76262548828125,-0.05499560758471489,1.0601288080215454,0.25460511445999146
1763694527320648400,10.7726484375,-0.015776298940181732,1.3203058242797852,0.12767274677753448
1763694527330670600,10.782670654296876,-0.05777488276362419,1.3259538412094116,-0.33065035939216614
1763694527340692500,10.7926923828125,-0.16066531836986542,1.317112922668457,-1.0336697101593018
1763694527350715400,10.80271533203125,-0.1721818894147873,1.071458101272583,-1.7961509227752686
1763694527360737500,10.812737548828125,0.22200269997119904,0.3198690712451935,-1.9501316547393799
1763694527370759400,10.822759521484375,0.8996893167495728,-0.30478787422180176,-1.3364684581756592
1763694527380781300,10.83278125,1.3786073923110962,-0.4589654505252838,-0.47114887833595276
1763694527390804500,10.842804443359375,1.2875102758407593,-0.10502655059099197,0.03533641993999481
1763694527400826400,10.852826416015626,1.0025395154953003,0.1974174678325653,0.3038887679576874
1763694527410848500,10.8628486328125,0.622697114944458,0.29907190799713135,0.48107340931892395
1763694527420870700,10.87287060546875,0.07204916328191757,0.2855563759803772,0.3622759282588959
1763694527430893300,10.882893310546875,-0.45886293053627014,0.47342801094055176,-0.10596824437379837
1763694527440915700,10.892915771484375,-0.8121144771575928,0.5267711281776428,-0.7209981083869934
1763694527450937600,10.9029375,-0.9432621002197266,0.48764556646347046,-1.1675993204116821
1763694527460960500,10.91296044921875,-0.997774600982666,0.02942606620490551,-1.491653561592102
1763694527470982700,10.922982666015624,-1.0629684925079346,-0.23397734761238098,-1.6158421039581299
1763694527481004500,10.933004638671875,-1.230353832244873,-0.19146236777305603,-1.661714792251587
1763694527491026400,10.9430263671875,-1.3596739768981934,0.04037591814994812,-1.7095891237258911
1763694527501049600,10.953049560546875,-1.393181324005127,0.22180110216140747,-1.7830654382705688
1763694527511071500,10.963071533203125,-1.282814860343933,0.6193788051605225,-2.0245184898376465
1763694527521093600,10.97309375,-1.0290459394454956,1.0784082412719727,-2.2442402839660645
1763694527531116500,10.983116455078125,-0.6605632901191711,1.3200937509536743,-2.1500425338745117
1763694527541138400,10.993138427734374,-0.28851035237312317,1.1799787282943726,-1.7875036001205444
1763694527551160600,11.00316064453125,-0.13216203451156616,0.9937683939933777,-1.3367938995361328
1763694527561182500,11.013182373046876,-0.19580546021461487,0.8262364268302917,-0.9009633660316467
1763694527571205600,11.02320556640625,-0.2449551522731781,0.7386783361434937,-0.5949235558509827
1763694527581227500,11.0332275390625,-0.17707198858261108,0.5680863261222839,-0.4489583671092987
1763694527591249400,11.04324951171875,-0.06251397728919983,0.48843705654144287,-0.44159284234046936
1763694527601272600,11.0532724609375,0.0006825681775808334,0.6817042231559753,-0.49194738268852234
1763694527611294500,11.06329443359375,-0.0025419872254133224,1.0829099416732788,-0.5691475868225098
1763694527621316400,11.07331640625,-0.022553246468305588,1.4935287237167358,-0.6903496980667114
1763694527631338500,11.08333837890625,-0.09561414271593094,1.6655137538909912,-0.7795919179916382
1763694527641361400,11.093361328125,-0.1267414391040802,1.5201040506362915,-0.8572131991386414
1763694527651383300,11.10338330078125,-0.17658622562885284,1.2955011129379272,-0.9565877318382263
1763694527661405400,11.113405517578125,-0.2496630996465683,1.2374732494354248,-1.0929402112960815
1763694527671427600,11.123427490234375,-0.28266286849975586,1.2918349504470825,-1.1798378229141235
1763694527681450500,11.133450439453124,-0.2993305027484894,1.4627889394760132,-1.1423581838607788
1763694527691472600,11.14347265625,-0.31468844413757324,1.2886359691619873,-0.9459518790245056
1763694527701494800,11.153494873046874,-0.3810597360134125,1.2597553730010986,-0.7855808734893799
1763694527711517700,11.163517578125,-0.4402458369731903,1.201741099357605,-0.6418335437774658
1763694527721539800,11.173539794921876,-0.5108646154403687,0.8888659477233887,-0.4898277521133423
1763694527731561700,11.183561767578125,-0.6304962038993835,0.618140697479248,-0.364808052778244
1763694527741583600,11.19358349609375,-0.7418501377105713,0.45361328125,-0.28086867928504944
1763694527751606800,11.203606689453125,-0.8857961297035217,0.5188338160514832,-0.3425869047641754
1763694527761628700,11.213628662109375,-0.9467740058898926,0.556645393371582,-0.4251891076564789
1763694527771650600,11.223650634765624,-0.9733339548110962,0.5516200065612793,-0.48385322093963623
1763694527781673700,11.233673828125,-0.995224118232727,0.6308887600898743,-0.5424944162368774
1763694527791695600,11.243695556640626,-0.9772086143493652,0.6749827265739441,-0.6046398282051086
1763694527801717500,11.253717529296875,-0.9257824420928955,0.49521878361701965,-0.5871202349662781
1763694527811739600,11.26373974609375,-0.8274974226951599,0.4657517075538635,-0.5409428477287292
1763694527821762600,11.273762451171875,-0.7271614670753479,0.5006625652313232,-0.4745401442050934
1763694527831784700,11.28378466796875,-0.6547088623046875,0.4986976683139801,-0.38599857687950134
1763694527841806600,11.293806640625,-0.5639904141426086,0.5377755761146545,-0.2884214222431183
1763694527851828500,11.303828369140625,-0.4704926908016205,0.6112995743751526,-0.21733444929122925
1763694527861851600,11.3138515625,-0.3679487109184265,0.6178070306777954,-0.19114118814468384
1763694527871873500,11.32387353515625,-0.26581090688705444,0.6117243766784668,-0.2756403684616089
1763694527881895400,11.3338955078125,-0.15418104827404022,0.6260391473770142,-0.3603459298610687
1763694527891918600,11.343918701171875,-0.021801436319947243,0.7753034234046936,-0.43399351835250854
1763694527901940500,11.3539404296875,0.07604949176311493,0.9369187355041504,-0.49333247542381287
1763694527911962600,11.363962646484374,0.11492951214313507,1.012434720993042,-0.4878402352333069
1763694527921984800,11.37398486328125,0.14829093217849731,0.8535985350608826,-0.2897500693798065
1763694527932007400,11.38400732421875,0.19808192551136017,0.7309887409210205,-0.02695412002503872
1763694527942029800,11.39402978515625,0.24652110040187836,0.34885093569755554,0.45639950037002563
1763694527952051700,11.4040517578125,0.3046451210975647,-0.07220228761434555,1.0355589389801025
1763694527962075000,11.414074951171875,0.362042635679245,-0.44145941734313965,1.5315104722976685
1763694527972096800,11.4240966796875,0.45501944422721863,-0.688002347946167,1.8046332597732544
1763694527982118700,11.43411865234375,0.6566998362541199,-0.9059160351753235,1.9635918140411377
1763694527992140500,11.444140625,0.9989575743675232,-1.1272861957550049,2.176165819168091
1763694528002163700,11.454163818359374,1.457601547241211,-1.0868139266967773,2.5734081268310547
1763694528012185600,11.464185546875,1.9369271993637085,-0.8347049951553345,3.1500189304351807
1763694528022207700,11.474207763671876,2.2883222103118896,-0.6545663475990295,3.6606435775756836
1763694528032230700,11.484230712890625,2.405799388885498,-0.343887597322464,3.841061592102051
1763694528042252500,11.49425244140625,2.4005613327026367,0.0755099356174469,3.655266284942627
1763694528052274700,11.504274658203125,2.402343511581421,0.5284750461578369,3.300323486328125
1763694528062296600,11.514296630859375,2.397381067276001,0.8033393621444702,2.9682202339172363
1763694528072319700,11.52431982421875,2.357339859008789,0.7585843801498413,2.722949504852295
1763694528082341600,11.534341552734375,2.134549140930176,0.4109281599521637,2.44828200340271
1763694528092363500,11.544363525390626,1.6939592361450195,0.41006794571876526,2.0012505054473877
1763694528102385400,11.554385498046875,1.0265095233917236,0.4384590983390808,1.6180857419967651
1763694528112408600,11.56440869140625,0.4651714265346527,0.46119505167007446,1.4766660928726196
1763694528122430500,11.574430419921875,0.21645639836788177,0.2272331565618515,1.3778218030929565
1763694528132452600,11.58445263671875,0.130978524684906,-0.1850990206003189,1.227837085723877
1763694528142475500,11.5944755859375,0.2696234881877899,-0.7322475910186768,1.2288639545440674
1763694528152497400,11.604497314453125,0.7892965078353882,-0.8535412549972534,1.3580691814422607
1763694528162519800,11.614519775390624,1.425144076347351,-0.23270727694034576,1.3813366889953613
1763694528172541700,11.624541748046875,1.9312645196914673,0.2581479251384735,1.1171537637710571
1763694528182564600,11.634564697265626,2.072960615158081,0.17292490601539612,0.8863348960876465
1763694528192586800,11.644586669921875,1.8283910751342773,0.2559169828891754,0.794995903968811
1763694528202608600,11.654608642578125,1.6589897871017456,-0.1407107710838318,0.8004684448242188
1763694528212630800,11.664630859375,1.7058569192886353,-1.022589921951294,0.7881057858467102
1763694528222653700,11.67465380859375,1.7067818641662598,-1.4208976030349731,0.6996976137161255
1763694528232675600,11.684675537109374,1.6378268003463745,-1.7718290090560913,0.6417089104652405
1763694528242697700,11.69469775390625,1.5196572542190552,-1.9874603748321533,0.5532594323158264
1763694528252720600,11.704720703125,1.3395942449569702,-2.163815498352051,0.4246021509170532
1763694528262742500,11.714742431640625,1.1581780910491943,-2.216874599456787,0.27587392926216125
1763694528272764700,11.7247646484375,0.9656084179878235,-2.239285945892334,0.15477199852466583
1763694528282786600,11.73478662109375,0.7791293263435364,-2.188093662261963,0.051666390150785446
1763694528292809700,11.744809814453125,0.6173921227455139,-2.0824198722839355,-0.07396317273378372
1763694528302831600,11.75483154296875,0.41783639788627625,-1.9639254808425903,-0.25133129954338074
1763694528312853500,11.764853515625,0.207994744181633,-1.858530044555664,-0.4819820821285248
1763694528322876700,11.774876708984374,0.025900572538375854,-1.853976845741272,-0.7242967486381531
1763694528332898600,11.784898681640625,-0.13833363354206085,-1.871898889541626,-0.9916117787361145
1763694528342920400,11.79492041015625,-0.30878686904907227,-1.7522305250167847,-1.2743196487426758
1763694528352942600,11.804942626953125,-0.48385748267173767,-1.5850028991699219,-1.5437241792678833
1763694528362965500,11.814965576171875,-0.6254364252090454,-1.4932408332824707,-1.8016170263290405
1763694528372987600,11.824987548828124,-0.7403529286384583,-1.5713130235671997,-2.0044610500335693
1763694528383009800,11.835009765625,-0.8749067187309265,-1.606885552406311,-2.1040287017822266
1763694528393031700,11.84503173828125,-1.1016019582748413,-1.3313040733337402,-2.096146583557129
1763694528403054600,11.8550546875,-1.27229642868042,-1.0352556705474854,-1.9488991498947144
1763694528413076700,11.86507666015625,-1.3973175287246704,-0.7906720042228699,-1.6961302757263184
1763694528423098600,11.8750986328125,-1.7100341320037842,-0.30162057280540466,-1.202728033065796
1763694528433121800,11.885121826171876,-1.8204697370529175,0.23060764372348785,-0.5304039716720581
1763694528443143700,11.895143798828125,-1.0931490659713745,-0.16378813982009888,-0.09591534733772278
1763694528453165600,11.90516552734375,-0.058210309594869614,-0.5251588225364685,0.10618183016777039
1763694528463187700,11.915187744140624,0.5949144959449768,-0.36380085349082947,0.3888188600540161
1763694528473210600,11.925210693359375,0.8551772236824036,0.12472941726446152,0.6386427879333496
1763694528483232800,11.935232666015626,0.9650930762290955,0.47829148173332214,0.8112771511077881
1763694528493254700,11.945254638671875,0.9518476128578186,0.7912243604660034,0.7341576218605042
1763694528503277600,11.955277587890626,0.7728546857833862,1.0169730186462402,0.39799264073371887
1763694528513299700,11.9652998046875,0.48585325479507446,1.0608686208724976,-0.050221092998981476
1763694528523321600,11.975321533203125,0.2750549912452698,1.0054231882095337,-0.6132346391677856
1763694528533343500,11.985343505859374,0.32294610142707825,0.9737390279769897,-0.9209229350090027
1763694528543366700,11.99536669921875,0.3259674608707428,0.8015784621238708,-0.8733384013175964
1763694528553388500,12.005388427734376,0.37112799286842346,0.7696501016616821,-0.7410831451416016
1763694528563410400,12.015410400390625,0.6539520025253296,1.1773781776428223,-0.6119768619537354
1763694528573432600,12.0254326171875,0.7702146768569946,1.3979986906051636,-0.45008566975593567
1763694528583455500,12.03545556640625,0.6430306434631348,1.474252462387085,-0.3179076611995697
1763694528593477600,12.0454775390625,0.29765138030052185,1.2801575660705566,-0.2962750792503357
1763694528603499800,12.055499755859374,-0.33200058341026306,1.0437732934951782,-0.5097878575325012
1763694528613522400,12.0655224609375,-0.9100090861320496,0.7548519372940063,-0.6925544738769531
1763694528623544600,12.075544677734374,-1.3246268033981323,0.3192991614341736,-0.8337555527687073
1763694528633566700,12.085566650390625,-1.7468746900558472,-0.033187247812747955,-1.0457974672317505
1763694528643588600,12.095588623046876,-2.1139426231384277,-0.1830688863992691,-1.24127995967865
1763694528653611800,12.10561181640625,-2.2778759002685547,-0.21130532026290894,-1.3178738355636597
1763694528663633700,12.115633544921875,-2.242335319519043,-0.2001727670431137,-1.307106852531433
1763694528673655800,12.12565576171875,-2.0280678272247314,-0.10217403620481491,-1.3261548280715942
1763694528683678700,12.1356787109375,-1.7117968797683716,0.09744186699390411,-1.504899024963379
1763694528693700900,12.145700927734374,-1.3387318849563599,0.23677845299243927,-1.7078419923782349
1763694528703722800,12.15572265625,-0.8567095994949341,0.45970606803894043,-1.787079095840454
1763694528713745000,12.165744873046876,-0.35034415125846863,0.8339025974273682,-1.7184864282608032
1763694528723767800,12.175767822265625,0.007841677404940128,1.145945429801941,-1.5267037153244019
1763694528733789700,12.185789794921876,0.18361669778823853,1.075461983680725,-1.298883080482483
1763694528743811800,12.195811767578125,0.30189380049705505,0.7966827750205994,-1.1154333353042603
1763694528753833700,12.205833740234375,0.3369881510734558,0.5515401363372803,-1.0304028987884521
1763694528763856600,12.215856689453124,0.267754465341568,0.5161256790161133,-1.1040229797363281
1763694528773878800,12.225878662109375,0.13358362019062042,0.6131771206855774,-1.2192119359970093
1763694528783900700,12.235900634765626,-0.03719077631831169,0.8166250586509705,-1.3046910762786865
1763694528793923800,12.245923828125,-0.18270669877529144,0.9852529764175415,-1.3473360538482666
1763694528803945700,12.25594580078125,-0.33859723806381226,0.9462376236915588,-1.374053716659546
1763694528813967600,12.265967529296875,-0.5100555419921875,0.7500332593917847,-1.3581562042236328
1763694528823989800,12.27598974609375,-0.7078146934509277,0.5391793251037598,-1.3041036128997803
1763694528834012700,12.2860126953125,-0.8643845915794373,0.26636803150177,-1.2241039276123047
1763694528844034600,12.29603466796875,-0.9575419425964355,0.05235162004828453,-1.1449246406555176
1763694528854057000,12.306056884765624,-0.9606168270111084,0.1769755780696869,-1.0746605396270752
1763694528864078800,12.316078857421875,-0.9138330817222595,0.5304444432258606,-1.0043025016784668
1763694528874101800,12.326101806640626,-0.8184999227523804,0.839599072933197,-0.9091619253158569
1763694528884124000,12.3361240234375,-0.6772000193595886,1.070544958114624,-0.8483638167381287
1763694528894145800,12.346145751953125,-0.5373196601867676,1.2848892211914062,-0.8932809233665466
1763694528904169000,12.3561689453125,-0.39646026492118835,1.4874202013015747,-0.9840084314346313
1763694528914190800,12.36619091796875,-0.22245916724205017,1.57765793800354,-1.0348354578018188
1763694528924212700,12.376212646484374,-0.025441709905862808,1.3770968914031982,-1.040817379951477
1763694528934235000,12.38623486328125,0.19583608210086823,1.0371699333190918,-1.0011869668960571
1763694528944257800,12.3962578125,0.40675684809684753,0.9855238199234009,-0.9236313700675964
1763694528954279700,12.40627978515625,0.46964311599731445,1.228634238243103,-0.8278694748878479
1763694528964301800,12.4163017578125,0.40184250473976135,1.4238156080245972,-0.720272421836853
1763694528974324700,12.42632470703125,0.24819250404834747,1.4456309080123901,-0.5813712477684021
1763694528984347000,12.436346923828125,0.032467927783727646,1.2728372812271118,-0.4614778757095337
1763694528994368800,12.44636865234375,-0.175565704703331,0.9636771082878113,-0.3578569293022156
1763694529004390700,12.456390625,-0.39601579308509827,0.6840249300003052,-0.2739362120628357
