time,seconds_elapsed,z,y,x
1763692621804680700,0.0526806640625,-0.19795535220503807,0.48256943555697795,0.45826019307821986
1763692621814638600,0.062638671875,-0.21707272512912748,0.5564065329231321,0.4784444645814597
1763692621824597500,0.072597412109375,-0.16525719769597053,0.5750954513020813,0.4350720635838806
1763692621834556700,0.082556640625,-0.08732757031917572,0.5573553580805659,0.3691365331225097
1763692621844515600,0.092515625,0.056796822977066036,0.5689370748028159,0.28160642596855756
1763692621854473500,0.102473388671875,0.1701736113101244,0.5497609574288129,0.2078119987003505
1763692621864432600,0.1124326171875,0.23544191003441808,0.547856585112214,0.1547790583014488
1763692621874391600,0.1223916015625,0.24993805289864537,0.4848144380047917,0.13567016094475984
1763692621884350500,0.1323505859375,0.2077180368065834,0.44743426315933466,0.09240896523669362
1763692621894309600,0.1423095703125,0.1767740324884653,0.46094446372613307,0.051551908060908314
1763692621904267500,0.152267578125,0.05310965889692306,0.33246348363310096,0.09302271322086453
1763692621914226400,0.162226318359375,0.06821253548264503,0.33673283151537176,0.17109890946149825
1763692621924185600,0.172185546875,0.10483107830584049,0.4385154820360243,0.11173092082217335
1763692621934144500,0.18214453125,0.11614216139316558,0.46796311031654475,0.05765373206734657
1763692621944102400,0.192102294921875,0.14631050516366959,0.4914572370201349,0.02470847092941403
1763692621954061600,0.2020615234375,0.18717267690598963,0.5059412510551512,-0.05387172931060195
1763692621964020500,0.2120205078125,0.2749246101170778,0.5233689173266292,-0.1512920929685235
1763692621973979400,0.2219794921875,0.34313714559972286,0.5534317548960447,-0.20055925109311937
1763692621983937500,0.2319375,0.37772447485625743,0.6482276152692735,-0.2336659864030778
1763692621993896400,0.241896484375,0.45360126135647294,0.7287500356182456,-0.24627602325975895
1763692622003855400,0.25185546875,0.5244675262182951,0.8027792945556342,-0.2428841888643801
1763692622013814500,0.261814453125,0.5069149183928966,0.8629238205254077,-0.23248276796787976
1763692622023772400,0.2717724609375,0.3062561524480581,0.818141698860377,-0.2502420042812824
1763692622033731600,0.281731689453125,-0.002911503532528877,0.7196104513511061,-0.25509485113993285
1763692622043690500,0.2916904296875,-0.30682489224672316,0.6480890835814178,-0.21602482351139188
1763692622053649400,0.3016494140625,-0.4775181435167789,0.5359278085179626,-0.15465908518359064
1763692622063607600,0.311607666015625,-0.43632863951623435,0.36292014282569285,-0.07040829196125269
1763692622073566500,0.32156640625,-0.3234370043516159,0.1065371515713632,0.08549787067398429
1763692622083525600,0.331525634765625,-0.1619780298948288,-0.17043386968150734,0.22734803542792795
1763692622093484500,0.341484619140625,0.05855740290880203,-0.3854378257125616,0.33059067549854515
1763692622103442400,0.3514423828125,0.2313327211499214,-0.4815497371204197,0.3722622639276087
1763692622113401600,0.361401611328125,0.2632973006874323,-0.434729095365107,0.3596117489300668
1763692622123360500,0.371360595703125,0.1548404330998659,-0.27342414242625235,0.3598175006352365
1763692622133319700,0.381319580078125,0.06591945610940456,-0.12493687774538993,0.37667496580332516
1763692622143277600,0.391277587890625,-0.1097363860040903,-0.019426000481843946,0.3514978544488549
1763692622153236700,0.40123681640625,-0.22061785039007661,0.10152312280163169,0.32056349474191664
1763692622163195600,0.411195556640625,-0.18641046036183834,0.16599574110358953,0.2933031473726034
1763692622173154600,0.421154541015625,-0.1407891113936901,0.04549392319619655,0.22363427560180424
1763692622183112700,0.43111279296875,-0.03531564353108406,-0.11230126805603503,0.13161767068356275
1763692622193071000,0.441071044921875,0.11969313187301159,-0.18452829987704752,0.10874079909548162
1763692622203030000,0.451030029296875,0.24106968678832053,-0.14692717575728892,0.07061316688358783
1763692622212989200,0.4609892578125,0.3316238179385662,-0.0985332933358848,-0.03294438435509801
1763692622222948000,0.470947998046875,0.4012830450981855,-0.10436273014172912,-0.17994535600095987
1763692622232906000,0.480906005859375,0.4096966531783342,-0.14380831308439374,-0.33926205773204565
1763692622242865200,0.490865234375,0.4315571873307228,-0.16826880060210822,-0.41618864554613827
1763692622252824000,0.500823974609375,0.4024012354731559,-0.19610957820788025,-0.42650465318150815
1763692622262783000,0.510782958984375,0.33698388366699217,-0.2878679705813527,-0.37043380639143286
1763692622272741000,0.5207412109375,0.28231881202161313,-0.38560923675671216,-0.23709917572215197
1763692622282700000,0.530699951171875,0.15970540878772735,-0.4970011348828673,-0.07332564071267843
1763692622292659000,0.540658935546875,-0.02344049682021141,-0.5945549156621098,0.12442724772281943
1763692622302618000,0.5506181640625,-0.15404957498311997,-0.6879781725078821,0.2767317326042801
1763692622312576000,0.560575927734375,-0.2509972065627575,-0.7116479480393231,0.31432986104935406
1763692622322535000,0.570534912109375,-0.3324947555541992,-0.6801945328943431,0.2612060274966061
1763692622332494000,0.580494140625,-0.448379142794013,-0.595755523623526,0.2415381810829043
1763692622342453000,0.590452880859375,-0.5742921720951796,-0.4466773073121905,0.21070662416331468
1763692622352411100,0.6004111328125,-0.6042530105948448,-0.3109453331775963,0.1814295301441103
1763692622362370000,0.6103701171875,-0.5611673175841569,-0.2527607091039419,0.11282061575502157
1763692622372329000,0.620328857421875,-0.49955871041119093,-0.27845088454708455,0.06904321415312588
1763692622382288000,0.630287841796875,-0.3887263458639383,-0.36132951263338325,0.022359058259055018
1763692622392246000,0.64024609375,-0.30927813061773773,-0.427428563093394,0.0020019874721765515
1763692622402205000,0.650204833984375,-0.29681729297339915,-0.4637894778937101,-0.014124460007622837
1763692622412164000,0.6601640625,-0.3451923245638609,-0.4852738722100854,-0.028127193331718443
1763692622422123000,0.670123046875,-0.3519669332653284,-0.46166459469422694,-0.08825009199157356
1763692622432081000,0.680080810546875,-0.3386637995779514,-0.43920010329931974,-0.1457833394844085
1763692622442040000,0.6900400390625,-0.30446400833427906,-0.439983801022917,-0.17373919483721256
1763692622451999000,0.6999990234375,-0.2828939815610647,-0.4483186447784304,-0.20675803266800938
1763692622461958000,0.7099580078125,-0.24097616328597068,-0.45827086060270666,-0.2361724162660539
1763692622471916000,0.719916015625,-0.13540975644290446,-0.4666008820526302,-0.24582513768710196
1763692622481875000,0.729875,-0.03714344348013401,-0.45688013689666984,-0.3095712683454156
1763692622491833900,0.739833740234375,0.039515433308482166,-0.43112683308944105,-0.4187275163739919
1763692622501793000,0.74979296875,0.155390468198061,-0.4046574899673462,-0.44575748905353246
1763692622511751000,0.7597509765625,0.23600012843906878,-0.4318550012335181,-0.42716362854689355
1763692622521710000,0.7697099609375,0.26166473104953764,-0.504492513551563,-0.3639301235858351
1763692622531669200,0.779669189453125,0.2956242837965488,-0.5687044350907207,-0.293177548231557
1763692622541628200,0.789628173828125,0.3419587494701147,-0.6246143922306597,-0.2522962333973497
1763692622551586000,0.7995859375,0.34923663151860235,-0.6354021820962429,-0.2590812173623592
1763692622561545200,0.809545166015625,0.3183937494874,-0.5534305858522653,-0.3237902747686952
1763692622571504000,0.819504150390625,0.26297055295109745,-0.43527942272424697,-0.3667303487636149
1763692622581463000,0.829463134765625,0.14557634567022323,-0.3434225384123623,-0.38614012876302
1763692622591421200,0.839421142578125,0.0331353768825531,-0.23357436259686945,-0.3654300798200071
1763692622601380000,0.849380126953125,0.0190489838629961,-0.16470350933596492,-0.3628168285816908
1763692622611339000,0.859339111328125,-0.002735562443733215,-0.11079627032056451,-0.36096360193043947
1763692622621298200,0.869298095703125,-0.027307693642377853,-0.07089505256488919,-0.3281391176279634
1763692622631257000,0.879257080078125,-0.03732055361270904,-0.07868526804968715,-0.2816530415892601
1763692622641215000,0.889215087890625,-0.06408230381011963,-0.11983312486559151,-0.24863215793184934
1763692622651174100,0.899174072265625,-0.09916355406343937,-0.09370660383179784,-0.21799853473715483
1763692622661133000,0.909133056640625,-0.10530454103648662,-0.05685775938406586,-0.19081629410535095
1763692622671091200,0.91909130859375,-0.014868483307957649,-0.002412321838736534,-0.1953833828251809
1763692622681050000,0.929050048828125,0.13913900609910487,-0.013460077814757823,-0.20190569726601243
1763692622691009000,0.939009033203125,0.27969313969314097,0.0005675707548856735,-0.24477219456806779
1763692622700968000,0.948968017578125,0.45910862660109997,0.0002570435009896755,-0.23590412071868777
1763692622710927000,0.958927001953125,0.5823141505092382,-0.04840601125061512,-0.22846454530246554
1763692622720885000,0.968885009765625,0.6788561238974332,-0.014651041164994239,-0.24966793072037397
1763692622730844000,0.978843994140625,0.6902420257866382,0.018731442346423863,-0.24955168392956256
1763692622740803000,0.988802978515625,0.5806120227664708,0.10878507662862538,-0.2356295415610075
1763692622750762000,0.998761962890625,0.4270522771269083,0.23813874790295958,-0.2521899234786629
1763692622760720100,1.00872021484375,0.2524135031014681,0.34563217728585005,-0.267320564854145
1763692622770679000,1.018678955078125,0.11731062065064907,0.4170879324734211,-0.3096235830545425
1763692622780638000,1.028637939453125,0.031732524347305294,0.40365781140550966,-0.3389019922479987
1763692622790596900,1.038596923828125,0.003534603866934776,0.4057008615404367,-0.3565310263104737
1763692622800555000,1.048554931640625,0.014749240842461585,0.3848176479876041,-0.36830943464860316
1763692622810514000,1.058513916015625,-0.007312953361868858,0.35864801846444605,-0.3906558526217937
1763692622820472800,1.068472900390625,-0.03032148850560188,0.28753727732226253,-0.37568062100373206
1763692622830432000,1.078431884765625,-0.05234685783088207,0.19234131171554325,-0.3441073788713664
1763692622840390000,1.088389892578125,-0.038644495692849154,0.10345905930027365,-0.31721469577066597
1763692622850349000,1.09834912109375,-0.00720481681227684,0.03877484407424926,-0.33581118662580844
1763692622860308000,1.108307861328125,0.03639467093944549,0.01026668860092759,-0.34444662076309324
1763692622870267100,1.11826708984375,0.07703063271045685,0.03408157169148326,-0.37520452792458237
1763692622880225000,1.12822509765625,0.06150690036416053,0.09271306274980307,-0.4172959492009133
1763692622890184000,1.138183837890625,0.0586240384042263,0.13552081560194493,-0.4281701021756977
1763692622900143000,1.14814306640625,-0.006442600268125534,0.14389482232406733,-0.4129902878962457
1763692622910102000,1.15810205078125,-0.13435001825690268,0.1702852549910545,-0.3715609837904572
1763692622920060200,1.16806005859375,-0.20856091737151145,0.2315285359829664,-0.3190050132535398
1763692622930019000,1.17801904296875,-0.30523849983811374,0.275903392021358,-0.2979746463149786
1763692622939978200,1.187978271484375,-0.323813436448574,0.33369258703663945,-0.24331381245329975
1763692622949937200,1.197937255859375,-0.2731698754042387,0.4159109976485371,-0.16421514129713177
1763692622959895000,1.20789501953125,-0.1845727235406637,0.3803849262371659,-0.15448285183385013
1763692622969854200,1.217854248046875,-0.08704641529023646,0.2997562690347433,-0.1641527435854077
1763692622979813000,1.227813232421875,-0.07434650819301605,0.2806030941449106,-0.15197072288244962
1763692622989772000,1.23777197265625,-0.07077975562214851,0.30923209951892494,-0.0964513724952936
1763692622999730200,1.247730224609375,-0.05260054033100605,0.314753347158432,-0.06054112407192588
1763692623009689000,1.257689208984375,-0.060093526434898376,0.2834152289561927,-0.061113517132401464
1763692623019648000,1.26764794921875,-0.05119067353308201,0.28034692742675543,-0.06229878139421344
1763692623029607200,1.277607177734375,-0.055587447187304496,0.2769803736031055,-0.06565335251912474
1763692623039565000,1.28756494140625,-0.07775719341933726,0.2552840901017189,-0.08047711990252136
1763692623049524000,1.29752392578125,-0.14649872121214866,0.212983702249825,-0.10293635060042142
1763692623059483100,1.307483154296875,-0.21322540205121038,0.14645546659231184,-0.14257292607054114
1763692623069442000,1.317442138671875,-0.22446809607744217,0.07607815429121255,-0.12858151785805821
1763692623079400000,1.32739990234375,-0.15748305656313896,0.006183364810049534,-0.08220248239040374
1763692623089359000,1.337359130859375,-0.03907996450066566,-0.05114215821623802,-0.047899669163674115
1763692623099318000,1.347318115234375,0.038228900629282,-0.13686083203405142,-0.03689239132851362
1763692623109277000,1.35727685546875,0.030341946771740912,-0.236809106734395,-0.04945186704173684
1763692623119235000,1.367235107421875,-0.089458737128973,-0.24043606505990026,-0.05762669792994857
1763692623129194000,1.377194091796875,-0.1845429129242897,-0.1758355825945735,-0.14776304205954074
1763692623139153000,1.38715283203125,-0.18522037379443645,-0.024275778600573537,-0.22697233398333191
1763692623149112000,1.397112060546875,-0.20801029775142668,0.1094224977493286,-0.35373584263399244
1763692623159070000,1.407070068359375,-0.20867723722755907,0.22928601775318383,-0.44859410071894523
1763692623169029000,1.417029052734375,-0.18462591503262518,0.3101283177062869,-0.5131467985197902
1763692623178988000,1.426988037109375,-0.12088906365931033,0.3565916704565286,-0.5771193583451211
1763692623188947000,1.436947021484375,0.05547872611582279,0.35167964075654745,-0.5616216372229158
1763692623198905300,1.4469052734375,0.3111807493686676,0.24520196428745983,-0.5328790884718299
1763692623208864500,1.456864501953125,0.6256114404439925,0.09309212519526482,-0.5852661321826279
1763692623218823400,1.466823486328125,0.9014940819382667,-0.07711860325485467,-0.6212577752791345
1763692623228782300,1.4767822265625,1.0374591341763735,-0.15254296981245277,-0.5488271837100386
1763692623238740500,1.486740478515625,0.7865846772104501,-0.20378245092332362,-0.46629546936526894
1763692623248699400,1.496699462890625,0.40498073057234285,-0.20392302843779325,-0.3949405442036688
1763692623258658300,1.506658203125,0.10284721101224421,-0.12789163589775562,-0.31158626142963763
1763692623268617500,1.516617431640625,-0.1727127743989229,-0.054096916368603705,-0.25842837947681546
1763692623278575400,1.526575439453125,-0.41073184144496916,0.008683949454128741,-0.2018845083475113
1763692623288534500,1.536534423828125,-0.5769114146828651,0.0465028079777956,-0.10308818016126751
1763692623298493400,1.546493408203125,-0.6718845313191414,0.03804769884347915,-0.022067454901337623
1763692623308452400,1.556452392578125,-0.6781611273705959,-0.018697686207294464,0.04540522199943661
1763692623318410500,1.566410400390625,-0.6586053630292416,-0.1501376622363925,0.07439896903261542
1763692623328369400,1.576369384765625,-0.68751581569314,-0.27336276762783523,0.10460136120319366
1763692623338328300,1.586328369140625,-0.6862795518964528,-0.29309622662365437,0.11419701867476105
1763692623348287200,1.596287353515625,-0.6523866346448659,-0.2551207162335515,0.08675240077972411
1763692623358245400,1.606245361328125,-0.648583735230565,-0.2090089533999562,0.06441255867779254
1763692623368204300,1.616204345703125,-0.5844646065413952,-0.15766045895665884,0.0753426796235144
1763692623378163500,1.62616357421875,-0.4422755652219057,-0.1486924318641424,0.09659867201149464
1763692623388121300,1.636121337890625,-0.20784312449097633,-0.18194120599329472,0.15346432244107125
1763692623398080300,1.646080322265625,0.015658172380924224,-0.28578181195706126,0.15655498193278908
1763692623408039400,1.656039306640625,0.2035474731236696,-0.41592444165199993,0.15428835217505693
1763692623417998300,1.665998291015625,0.3118038497030735,-0.43738370152711864,0.1583554554834962
1763692623427956200,1.675956298828125,0.3221083860963583,-0.4279547789245844,0.20337401625290513
1763692623437915400,1.685915283203125,0.30483401069045063,-0.43887949304282664,0.27582813482806084
1763692623447874300,1.695874267578125,0.33945524221658707,-0.43781244833320376,0.3411570776984095
1763692623457833500,1.70583349609375,0.40077217296659945,-0.48011868140399455,0.37296529763042924
1763692623467791400,1.715791259765625,0.539736407020688,-0.5091308408766985,0.41791269285976884
1763692623477750300,1.725750244140625,0.6560580166339874,-0.5435843146204948,0.3633239013209939
1763692623487709400,1.73570947265625,0.7241612465232611,-0.5486158790469169,0.3150190123572945
1763692623497668600,1.745668701171875,0.7875842096418142,-0.5835729183986783,0.2517978554211557
1763692623507626500,1.75562646484375,0.7536386854201554,-1.1220432510063052,-0.1842271249733865
1763692623517585400,1.76558544921875,0.9116203391551971,-1.1462658381149171,-0.2325290913276374
1763692623527544600,1.775544677734375,0.9858949511557817,-0.9456702005341648,0.21640826987102627
1763692623537503500,1.78550341796875,0.7504273221582174,-1.112945752315223,0.06519552574902772
1763692623547461600,1.795461669921875,0.1699152526348829,-1.2204381587848065,0.12980024599805473
1763692623557420500,1.805420654296875,0.0471738391071558,-0.8708674730062484,0.23745324985682964
1763692623567379500,1.81537939453125,-0.49882688900530336,-0.7204021862506866,0.169144852784276
1763692623577338400,1.82533837890625,-1.4740718513309954,-1.1576105312108993,0.1809197539910674
1763692623587296500,1.835296630859375,-0.8681395093470812,-0.7446940392032265,0.33173765357658264
1763692623597255400,1.84525537109375,-0.32106793713271614,-0.9092106476649642,0.27198373435959217
1763692623607214300,1.85521435546875,-0.13150631926357745,-0.7070128355845808,0.2509958913885057
1763692623617173500,1.865173583984375,0.014690788653492926,-0.08766454718858004,0.3315799787968397
1763692623627131400,1.87513134765625,0.2392535772770643,0.39273441246151924,0.3770216603491455
1763692623637090600,1.885090576171875,0.40363574570417404,0.7040916874408721,0.5032795575652271
1763692623647049500,1.895049560546875,0.40124505117535586,1.0436831232577561,0.6249353678133338
1763692623657008400,1.90500830078125,0.14962708236575126,1.1748913363575935,0.6025386809576302
1763692623666966500,1.914966552734375,-0.09079729225635529,1.0779378595590592,0.4680149135690182
1763692623676925400,1.924925537109375,-0.25400749429464337,0.9090282768353819,0.4124580076504498
1763692623686884400,1.93488427734375,-0.332752529707551,0.638639556582272,0.47028811919800934
1763692623696843300,1.94484326171875,-0.17924305295050144,0.3328483912974596,0.5953810642879456
1763692623706801400,1.954801513671875,0.48608314276635645,0.2782417718410492,1.1161360727891325
1763692623716760300,1.96476025390625,0.4992383924156427,0.597993657939136,1.7587115075156092
1763692623726719500,1.974719482421875,-0.07942308080494404,0.4275815616980195,1.078962964823097
1763692623736678400,1.984678466796875,-0.2331932543247938,-0.4479404591158032,0.2509885848648846
1763692623746636300,1.99463623046875,-0.03330781084001064,-0.7890159960106015,0.17870375844202935
1763692623756595500,2.004595458984375,0.18902970294952393,-0.4760214752182364,0.0824397982776165
1763692623766554400,2.014554443359375,0.16432137815058231,-0.3978577468246221,-0.16565233449339867
1763692623776513300,2.02451318359375,-0.012077975806593894,-0.715162532031536,-0.3047857876345515
1763692623786471400,2.034471435546875,0.03677051851451397,-0.6938993792504072,-0.10272438835017382
1763692623796430300,2.044430419921875,0.0585410362958908,-0.5567699594080447,0.2960522999502718
1763692623806389200,2.05438916015625,0.022910335466265676,-0.345622824935615,0.6061293258607388
1763692623816348400,2.064348388671875,-0.028869536131620407,-0.041268706716597076,0.8709719562940299
1763692623826306300,2.074306396484375,-0.30133214004933834,0.2542033091276884,0.8890760605223477
1763692623836265200,2.08426513671875,-0.6514104830890893,0.5089607450067997,0.8103706264674663
1763692623846224400,2.094224365234375,-1.018336500555277,0.819765354539454,0.6774750448025763
1763692623856183600,2.10418359375,-1.2055910105258225,1.1179191568136215,0.5607197930123656
1763692623866141400,2.114141357421875,-1.0458101984143255,1.1649509571015835,0.5900679064411669
1763692623876100400,2.124100341796875,-0.7456663913667202,0.3994166667044163,1.0532651175301522
1763692623886059500,2.1340595703125,-0.8068360226005316,0.21093203041702507,0.647616789894551
1763692623896018400,2.144018310546875,-0.9490572126239538,0.14753624756634234,0.08559957748278975
1763692623905976600,2.1539765625,-0.9695394441604613,0.38085400505363937,0.3815163048872724
1763692623915935500,2.163935546875,-0.7959241679638623,0.5953259000346064,0.31220706020910294
1763692623925894400,2.173894287109375,-0.4536860170304775,0.3991583080291748,-0.12982437579231335
1763692623935852500,2.1838525390625,0.0360153162330389,0.2619596223428845,-0.3461929529737681
1763692623945811500,2.1938115234375,0.5164519775450229,0.30382717173546553,-0.26988734660223124
1763692623955770400,2.203770263671875,0.6782856305330991,0.3546566107407212,-0.16637999118082225
1763692623965729500,2.2137294921875,0.5857178214728832,0.37929420839101075,-0.0775251747617498
1763692623975687400,2.2236875,0.61190849378407,0.38164632447510954,0.039814544119220224
1763692623985646600,2.233646484375,0.7458931858599186,0.28011019606143234,-0.02695064209932461
1763692623995605500,2.24360546875,0.6697001730173826,0.23053251068294048,-0.17629138180436565
1763692624005564400,2.253564453125,0.5433107583761215,0.2765706237584352,-0.22613672340940683
1763692624015522600,2.2635224609375,0.6986006888091564,0.2674675721094012,-0.23118534856848416
1763692624025481500,2.2734814453125,0.8256757476270198,0.12393734531402587,-0.12741426417697221
1763692624035440400,2.2834404296875,0.7290203769922255,0.025128596037626266,0.03392645419500768
1763692624045399600,2.293399658203125,0.6368535499483347,0.1322404787570238,0.15029055124316362
1763692624055357400,2.303357421875,0.546534396597743,0.2941606409847736,0.0908849157408811
1763692624065316400,2.31331640625,0.4339133950680494,0.46285219704359765,0.03118040688987821
1763692624075275500,2.323275634765625,0.3123603145420551,0.5758309259697795,0.08093264511767774
1763692624085234400,2.333234375,0.40541152320504187,0.6568535509258508,0.2504955223846249
1763692624095192300,2.3431923828125,0.9095552233189343,0.8126818260192871,0.19900718107922002
1763692624105151500,2.3531513671875,0.09485153608322143,0.6728218121692537,-1.302977033522725
1763692624115110400,2.3631103515625,-0.3408580947518349,0.5353937016412615,-1.6188807197600603
1763692624125069300,2.3730693359375,0.06480886451900005,0.4786442249372601,-0.3162021577272564
1763692624135027500,2.38302734375,0.49448330684304237,0.5458277096331119,0.8975165566094219
1763692624144986400,2.392986328125,0.7062152554661035,0.13392711666971444,1.8413566191069781
1763692624154945300,2.4029453125,0.2781494173824787,-0.4110501136139035,1.795209931090474
1763692624164904400,2.412904541015625,0.03213584445118904,-0.4060720329403877,1.3563158250004053
1763692624174862300,2.4228623046875,-0.22001170119047164,0.09847849440872669,0.6742620010402053
1763692624184821200,2.4328212890625,-0.0818687203913927,0.5562874365881085,0.2212070849874988
1763692624194780400,2.442780517578125,-0.17512743432521818,0.7412941676318645,-0.010730908579193055
1763692624204739600,2.452739501953125,-0.6223942319631576,0.6326046603322029,-0.1474495556635782
1763692624214697500,2.462697509765625,-0.9934545727550983,0.5773807857602834,0.10490531258583068
1763692624224656400,2.472656494140625,0.46822775260210037,0.810000039589405,1.5265516878917813
1763692624234615600,2.482615478515625,-0.3716255734592676,0.6010925007373095,1.1748777462236581
1763692624244573400,2.492573486328125,-0.6107084703445435,0.34658903961926696,0.976263491718471
1763692624254532600,2.50253271484375,-0.28127251783907414,0.28132541707009073,1.1899664481535552
1763692624264491500,2.512491455078125,-0.19156769699454307,0.2418769115179777,0.9667515670076012
1763692624274450400,2.522450439453125,-0.003156418204307556,0.00755377638041973,0.9837935949623584
1763692624284408600,2.53240869140625,-0.13260697398185728,0.0269178175419569,0.9044201985180378
1763692624294367500,2.542367431640625,-0.08329320023655891,0.2651426362931728,0.9051754738647491
1763692624304326700,2.55232666015625,-0.11139759721457958,0.007345394326746463,0.7967230632565915
1763692624314285600,2.56228564453125,-0.1105599773466587,-0.11841390571743249,0.7647004699215293
1763692624324243500,2.572243408203125,-0.3840747206658125,0.2630389420121908,0.889148979628086
1763692624334202600,2.58220263671875,-0.8418933074563741,1.1850438970595598,0.8970592412959784
1763692624344161500,2.59216162109375,-0.7835141837239264,1.8224805075928567,0.8962811695955694
1763692624354120400,2.602120361328125,-0.8347264845669269,1.3698837471038103,1.0993544493362306
1763692624364078600,2.61207861328125,-0.7172001753389835,0.9780644036605953,1.1164211733408271
1763692624374037500,2.62203759765625,-0.6165010822713375,0.4930132342904806,0.8659061973370611
1763692624383996400,2.631996337890625,-0.34897827284336086,0.47880847558826206,0.8224117773950099
1763692624393955600,2.64195556640625,-0.0838122556746006,0.6111977151662111,0.7483239201381802
1763692624403913500,2.65191357421875,-0.37085634265244005,0.6205789992347359,0.6063092124722897
1763692624413872400,2.661872314453125,-1.67975458291769,-0.4084826012134552,0.49042657879814505
1763692624423831600,2.67183154296875,-2.315880403113365,-1.3195523207485675,0.049046939502656456
1763692624433790500,2.68179052734375,-2.8185663056343793,-1.4914689763337372,-0.3095189536362886
1763692624443748400,2.691748291015625,-2.6616221782535314,-1.0707257362231613,-0.6595626637540757
1763692624453707500,2.70170751953125,-4.540197205772996,-0.6939820890977978,-0.8251037929579615
1763692624463666400,2.71166650390625,-5.136280353915691,-0.20103636708557604,-0.7121836623512208
1763692624473625300,2.721625244140625,-0.9729337627738713,-0.686460169160366,-1.5479900511093436
1763692624483583500,2.73158349609375,2.3506454270243644,-1.0357520379975438,-2.382194411498308
1763692624493542400,2.74154248046875,2.1909294968426227,-0.7681807132527232,-3.1149770636335012
1763692624503501300,2.751501220703125,1.2366922512322664,0.7075184470191598,-0.988885949665308
1763692624513459500,2.76145947265625,0.8704816885590553,0.4572707436494529,0.13552925463672727
1763692624523418400,2.77141845703125,1.200994914907217,-0.29718028106689454,-0.2713740962949581
1763692624533377500,2.78137744140625,1.538075829207897,-0.528746957103163,0.032085100644640624
1763692624543336400,2.79133642578125,0.645715486317873,-1.4747697704672813,-0.49974495369829236
1763692624553294300,2.80129443359375,0.06081248835921287,-2.7601562022417783,-2.6405229838624593
1763692624563253500,2.81125341796875,-1.0380722976386547,-2.7862065892994403,-3.4130046091794966
1763692624573212400,2.82121240234375,-2.560342070427537,-2.3091005337148904,-2.291277730645984
1763692624583171300,2.83117138671875,-4.2829239876806735,-0.7701080280534922,0.10500716552510857
1763692624593129500,2.84112939453125,-4.511248759186268,0.9111825322598218,2.053722043327987
1763692624603088400,2.85108837890625,-2.021500566419959,0.9332700070358813,1.8838218421317636
1763692624613047300,2.86104736328125,-0.2692968333631754,-0.014701310047507285,0.6917761034861206
1763692624623006500,2.87100634765625,0.4391951348632574,-0.7085841765545308,0.16442703048214316
1763692624632964400,2.88096435546875,1.380389943549037,-0.9048151891849935,-0.4226929128736257
1763692624642923300,2.89092333984375,2.139881446650624,-0.3691813951775431,-0.9554083352163434
1763692624652882700,2.900882568359375,1.76852884491384,0.2952752511631697,-0.7497467925481498
1763692624662841600,2.910841552734375,1.0146645340442657,0.574469428358227,-0.2598411688841879
1763692624672799200,2.92079931640625,0.9065262308865785,0.2705865809127688,0.403870723503828
1763692624682758700,2.930758544921875,0.7671446482032537,-0.1338587276086211,0.3268402369238436
1763692624692717600,2.940717529296875,1.3932587774723768,-0.4644695691123604,0.3884874225415289
1763692624702675500,2.950675537109375,2.1037170773357152,-0.58665868251957,0.7944567257598042
1763692624712634600,2.960634521484375,2.965754762676358,-0.28541159040518105,1.4522256379649041
1763692624722593500,2.970593505859375,3.6693946146965026,0.042792993674427265,2.40666439749673
1763692624732552400,2.980552490234375,2.246970533016324,-1.104139345525205,0.3305877528890967
1763692624742510600,2.990510498046875,1.318980658340454,-1.2011795507591216,0.11100406785234808
1763692624752469500,3.000469482421875,0.1876753657311201,-0.2609543177578598,0.0013245266020298003
1763692624762428400,3.010428466796875,-1.5731933198183774,0.46688488662578165,-0.529588084102422
1763692624772387600,3.0203876953125,-2.8652947390615937,0.8509459440924226,-0.3896158420495689
1763692624782345500,3.030345458984375,-3.333445919296145,0.7972511057186872,-0.08526903035417199
1763692624792304600,3.0403046875,-3.126410019534826,0.21850779943354426,-0.10358107824474573
1763692624802263600,3.050263671875,-2.401832593426108,-0.19617862485609946,0.2328327504493296
1763692624812222500,3.060222412109375,-1.5450632038772105,0.01586648136936128,0.9789495159320533
1763692624822180600,3.0701806640625,-0.9155191001594066,0.13347959209792315,0.790381000753492
1763692624832139500,3.080139404296875,-0.26985096011459825,-0.043155835637450214,0.7973226365849375
1763692624842098400,3.090098388671875,0.31126959669589993,-0.3852257173318416,0.7932130093090236
1763692624852057300,3.100057373046875,0.8210060022503137,-0.6133493402421474,0.3980605759203434
1763692624862015500,3.110015380859375,1.446744868466258,-0.6175585554350167,0.2395443769171834
1763692624871974400,3.119974365234375,1.869381082716584,-0.4467736072935164,0.17053992387186734
1763692624881933600,3.12993359375,2.5814666915208098,-0.2703299758031964,-0.14404153731837868
1763692624891891500,3.139891357421875,3.562591944056749,0.0049758156511932605,-0.497995698878169
1763692624901850400,3.149850341796875,0.6371002181857824,-0.21324374142549932,0.468771065698564
1763692624911809500,3.1598095703125,2.396286065214872,-1.0225081602167339,-0.014814141038525849
1763692624921768400,3.1697685546875,2.2524469186007976,-0.9573763473536818,-0.2336637944459915
1763692624931726300,3.179726318359375,1.9926503195106982,-0.2789096611652523,-0.5613210833737626
1763692624941685500,3.189685546875,1.7791098601609467,0.18659874947555363,-1.300702804980427
1763692624951644400,3.19964453125,1.8953689259320496,0.46547538515403863,-2.240396707583964
1763692624961603300,3.209603271484375,2.1954157023459673,1.1360787906214593,-2.180257296180725
1763692624971561500,3.2195615234375,2.0693851841449735,1.5402249700658022,-2.1462787464722988
1763692624981520400,3.229520263671875,1.497907484948635,1.1296725037757307,-2.4391250899881123
1763692624991479300,3.239479248046875,1.0896347270935773,0.841972290976718,-2.358743685545027
1763692625001438500,3.2494384765625,0.6790940243065356,0.9189560158055275,-1.9588933035984635
1763692625011396400,3.259396240234375,0.22176643590331077,0.8634961405206472,-1.2691931296035646
1763692625021355300,3.269355224609375,-0.13267010234594345,0.4411282218176871,-0.5660263019226491
1763692625031314400,3.279314453125,-0.3077168726503849,-0.1095946394458413,-0.1312475221969187
1763692625041272300,3.289272216796875,-0.25971710411310195,-0.38665998791866,0.11989771453440189
1763692625051231500,3.2992314453125,-0.3200146286875009,-0.31171251815781,0.0518704724907875
1763692625061190400,3.3091904296875,-0.581152705514431,-0.012692527508363126,-0.07075345213711261
1763692625071149300,3.3191494140625,-0.9388140510290861,0.09267667626217008,-0.10686229187250136
1763692625081107500,3.329107421875,-1.223317221352458,-0.0207454855825752,0.13433233646973966
1763692625091066400,3.33906640625,-1.318236561974883,-0.2668833424806595,0.4698389871910214
1763692625101025300,3.349025390625,-1.4090636648476123,-0.44717678126692767,0.6248709973402321
1763692625110984400,3.358984375,-1.3906927263766526,-0.5454814534787088,0.5509890379190444
1763692625120942300,3.3689423828125,-0.9604963060051203,-0.45805129956789314,0.3528723576724529
1763692625130901500,3.378901611328125,-0.5485469054639339,-0.23307415798977016,0.08139291957318782
1763692625140860700,3.388860595703125,-0.153268069216609,-0.10586787400767207,-0.03203121503293514
1763692625150819600,3.398819580078125,0.2351718609213829,-0.051393794889748094,0.02755231605321169
1763692625160777500,3.408777587890625,0.4632137238323688,-0.09057787735201418,0.599489449454844
1763692625170736600,3.418736572265625,0.273463889914751,-0.5937669801548123,-0.5234539652615785
1763692625180695600,3.428695556640625,0.37047348081469533,-0.20694018430188296,-0.06803980926424265
1763692625190654500,3.438654541015625,0.5443196431577205,0.04542860287502408,-0.04841477907896041
1763692625200611800,3.44861181640625,0.6714671826899051,-0.053051645099371665,-0.28735797523260115
1763692625210570800,3.45857080078125,0.8799778311789035,0.040563773317635055,0.43985389103293415
1763692625220530000,3.468530029296875,0.6416805317133665,-0.3329686566762626,-0.07960135998129844
1763692625230487800,3.47848779296875,0.2047077490746975,-0.6695102034032344,-0.8937842382133007
1763692625240446700,3.48844677734375,0.1980067901313305,0.08969181523248553,0.2684565831467509
1763692625250406100,3.49840625,-0.010605565166473388,0.12048793551251291,0.06618073739409447
1763692625260365000,3.508364990234375,-0.11002280173003673,-0.14819237338751554,0.717900432562828
1763692625270322700,3.51832275390625,-0.2705155615031719,-1.1782843397967517,-0.5943617311775684
1763692625280282000,3.5282822265625,0.15816870073974132,-0.32550080501362677,0.7332815415680408
1763692625290241000,3.538240966796875,0.45994098577201364,-0.26023952055200933,0.09785685537904501
1763692625300200000,3.548199951171875,0.44312955170273777,0.0020148469537496568,-0.4562824632644653
1763692625310158000,3.558157958984375,0.5351005639135837,0.784516638764739,-0.22755583295971155
1763692625320117000,3.568116943359375,0.4926601830691099,0.18101868432089685,-1.9901246004253625
1763692625330076000,3.578075927734375,-0.08811024512946605,0.6656570351064205,-1.9141081131935118
1763692625340035000,3.58803515625,0.03111234662234783,0.9782263162240386,-1.6982433025494217
1763692625349993000,3.597992919921875,-0.008133622094988822,0.7719706070549786,-2.0241054882213474
1763692625359952000,3.607951904296875,0.09575929857790469,0.722150783483684,-1.612320046070218
1763692625369911000,3.6179111328125,0.5787696097701788,0.8255030214086174,-0.919345380449295
1763692625379869000,3.627868896484375,1.651658369246125,0.024739888980984687,-0.23159780182689427
1763692625389827800,3.637827880859375,1.8719839586913585,-1.0012386507600546,-1.5184887929454445
1763692625399787000,3.647787109375,2.0222084224283696,-0.01641965827271342,-0.9968298944070935
1763692625409746000,3.657745849609375,1.8624696958929299,0.3081815675526857,-1.6100772355794906
1763692625419704000,3.6677041015625,1.423240074238181,0.3124037152923643,-1.4885539656698703
1763692625429663000,3.6776630859375,1.713627041903138,-0.015393822356313466,-0.84572426392138
1763692625439622000,3.687621826171875,1.2744459355652331,-0.5545419080950319,-1.3282915075212716
1763692625449580800,3.697580810546875,1.2034779638946056,-0.3853704595647752,-0.5210755456924439
1763692625459539000,3.7075390625,1.1132815601408481,-0.790758748024702,-0.5697212109178305
1763692625469497900,3.717497802734375,0.8920102142781019,-0.8119755774460733,-0.5309022354409099
1763692625479457000,3.72745703125,0.6565764875501394,-0.5382417845487595,-0.7002981403768063
1763692625489416000,3.737416015625,0.18968144485652447,-0.37852337014898657,-0.9771148478507995
1763692625499373800,3.747373779296875,-0.4404758223235607,-0.23172946538254618,-0.9679366851389407
1763692625509333000,3.7573330078125,-1.1245149018168448,0.15930062737911937,-0.6776064160972833
1763692625519292000,3.7672919921875,-1.51371354136765,0.1635080159410834,-0.5179758261114359
1763692625529249800,3.777249755859375,-1.7823931196153162,-0.08557444304153322,-0.395690924179554
1763692625539209000,3.787208984375,-2.3240724773973227,-0.013169278174638747,-0.09359832115173339
1763692625549167900,3.79716796875,-2.340149751973152,0.07968640791624784,0.22189736880660055
1763692625559126800,3.807126708984375,-2.168365782856941,-0.20833763000965116,0.32804829753935333
1763692625569085000,3.8170849609375,-1.9626403811722992,-0.3430455217935145,0.5711532895475626
1763692625579043800,3.8270439453125,-1.9300339965999125,-0.3891949862889945,0.6672983725726604
1763692625589002800,3.837002685546875,-1.8525684796035289,-0.4356139153756201,0.6533288839310407
1763692625598962000,3.8469619140625,-1.4694628962308167,-0.5428722208283842,0.6721428899943828
1763692625608919800,3.856919921875,-0.8400409575879574,-0.5049688988916575,0.6760568485677242
1763692625618878700,3.866878662109375,-0.33958675964176654,-0.5852814758822321,0.6262286955595016
1763692625628838000,3.876837890625,-0.07321779642403126,-0.7447446003466844,0.40374388225376606
1763692625638795800,3.886795654296875,0.11080080036520958,-0.6710428197979926,0.19007482808828352
1763692625648755000,3.8967548828125,0.2089893719166517,-0.513479099214077,0.09808920283019543
1763692625658713900,3.9067138671875,0.2854085947304964,-0.4761936169147491,0.07105155830085277
1763692625668672800,3.9166728515625,0.2947808187097311,-0.5957036473058164,0.06508183624148368
1763692625678631000,3.926630859375,0.393766093596816,-0.7921887808278203,0.12442249848246574
1763692625688589800,3.93658984375,0.6514338639646768,-0.8592761116728186,0.20198036993741988
1763692625698549000,3.946549072265625,0.7547638900578022,-0.7233923079773783,0.013346972829103469
1763692625708508000,3.9565078125,0.5322194555193186,-0.4605718310214579,-0.4203197540014982
1763692625718465800,3.9664658203125,0.14044424347877502,-0.09487184821888804,-0.6229933669000863
1763692625728425000,3.976425048828125,-0.032116555228829384,0.05140183206573128,-0.46951136267185206
1763692625738384100,3.986384033203125,0.2771563146919012,-0.07065189145877956,-0.32288638473153114
1763692625748343000,3.996343017578125,0.5916571483939885,-0.16177300884202123,-0.2981429886192083
1763692625758301000,4.006301025390625,1.1354197421908379,-0.1872238225713372,-0.4425146346747875
1763692625768260000,4.016260009765625,1.3836094901174305,-0.13848667967021464,-0.5634755945265293
1763692625778219000,4.026218994140625,0.9300175811111927,-0.059834729368239636,-0.537808069306612
1763692625788177000,4.036177001953125,0.16792612464427947,-0.03927387963756919,-0.5876905828505754
1763692625798136000,4.046135986328125,-0.367352133923769,-0.057150750981271266,-0.46887657189965243
1763692625808095000,4.056094970703125,-0.7296393856734037,0.0023814883090555665,-0.3898082958817482
1763692625818054000,4.066053955078125,-0.813207895720005,0.07421162976697086,-0.2780038714319467
1763692625828012000,4.076011962890625,-0.5317138440847397,0.004948854579031467,-0.018779519271850585
1763692625837971000,4.085970947265625,-0.06059738430380821,-0.20258973400741814,0.24511808539628982
1763692625847929900,4.095929931640625,0.40529987952411173,-0.42317587408497925,0.3887923968374729
1763692625857889000,4.105888916015625,0.6610469109624624,-0.4918240245059132,0.3249491624802351
1763692625867847000,4.115846923828125,0.527490673431754,-0.3437966324217617,0.22248305974006652
1763692625877805800,4.125805908203125,0.1145376488059759,-0.18922756360918283,0.10572715036273002
1763692625887765000,4.135764892578125,0.06439093136787415,-0.12984978422820567,0.02698912921249866
1763692625897723000,4.145722900390625,0.33639176299273965,-0.18706220226883888,0.18008301090598106
1763692625907682000,4.15568212890625,0.3408955041527748,-0.3068447659909725,0.4453291075736284
1763692625917641000,4.165640869140625,0.14733575655817985,-0.43722237348556514,0.4316173930853605
1763692625927599900,4.175599853515625,-0.1205810206234455,-0.39173458776921033,0.3943652285337448
1763692625937558000,4.18555810546875,-0.3261252205222845,-0.22600918803960082,0.1964636523425579
1763692625947517000,4.195516845703125,-0.4349515059441328,-0.06015227088481188,0.03245733149051666
1763692625957475800,4.205475830078125,-0.4094166671931743,0.06946516589224339,0.021423896300792694
1763692625967435000,4.21543505859375,-0.3855699276596308,0.0534609565526247,-0.06490004993379116
1763692625977393000,4.225392822265625,-0.4169026390343904,-0.032381635905802245,-0.10056173042356967
1763692625987351800,4.235351806640625,-0.48627603498995303,-0.030990181547403333,-0.008649754923582076
1763692625997311000,4.24531103515625,-0.25441081439852714,-0.38095834221094843,0.8685428294509648
1763692626007270000,4.255269775390625,-0.542768906584382,-0.69049979993999,1.0322370156139136
1763692626017227800,4.265227783203125,-0.757830291891098,-0.6629726183280349,0.3656225336521864
1763692626027187000,4.27518701171875,0.4060311164081096,-0.49246845988929266,2.4767525175929066
1763692626037145900,4.285145751953125,-1.3482131825655699,-1.350480250714719,2.321699903047085
1763692626047104000,4.29510400390625,-0.17739304116964338,-0.8482675186634063,-1.1287176142036914
1763692626057063000,4.30506298828125,2.0009312411218882,0.944082639081776,-1.4542548057049511
1763692626067021800,4.315021728515625,0.8983855945289134,1.4585150934979318,-0.7849410016566515
1763692626076980700,4.324980712890625,-1.0193237580269574,0.07963526225090026,-0.3496212469220161
1763692626086939000,4.33493896484375,-1.5374199956476688,-0.5656196208178996,0.3922381533771753
1763692626096897800,4.344897705078125,-1.217673662507534,-0.34226620798408985,0.7131546993404626
1763692626106856700,4.354856689453125,-0.8707873935073613,-0.1517255159497261,0.19261516022086142
1763692626116816000,4.36481591796875,-0.658550417971611,0.16848375852704048,-0.16455752499401569
1763692626126773800,4.374773681640625,-0.6011410160541534,0.4787316109597683,0.04497077610492706
1763692626136733000,4.38473291015625,-0.5911965451449156,0.41044396441429853,-0.023706454280018805
1763692626146691800,4.39469189453125,-0.5511719932705164,0.24457155742943285,-0.03230886293053627
1763692626156651000,4.404651123046875,-0.520209868773818,0.12490735938996075,0.16286124247014522
1763692626166609000,4.41460888671875,0.04376899909973144,0.1835997868552804,0.3761544490605592
1763692626176568000,4.424568115234375,-0.2198176399230957,0.06669599343985319,0.8350356966465711
1763692626186527000,4.43452685546875,0.6253805542975663,-0.35762335159182546,0.778600692719221
1763692626196485600,4.444485595703125,0.6727607296317816,-0.24658888860121367,0.7527771001547574
1763692626206444500,4.454444580078125,0.593995235952735,-0.31181904727220533,0.42592882605493065
1763692626216403500,4.464403564453125,0.5071668473273515,-0.38844767505303024,-0.07350187406241894
1763692626226362400,4.4743623046875,0.339718277066946,-0.3672274846307933,-0.7946849815577268
1763692626236320500,4.484320556640625,-0.024034371060132977,-0.08161328432559967,-1.1492343325316905
1763692626246279400,4.494279541015625,-0.5159481196761131,1.2869468129590154,-0.8971575140386819
1763692626256238300,4.50423828125,0.04789338555335998,1.5710034085586666,-1.0791460663050412
1763692626266197500,4.514197509765625,1.2054700144946575,1.1609899445161223,-1.1405080052405596
1763692626276155400,4.5241552734375,4.332603672128916,1.764366464537382,-0.8346434824585914
1763692626286114600,4.534114501953125,-1.4368068272978067,0.08253551373705267,1.4116355611622333
1763692626296073500,4.544073486328125,-3.7717782998502254,-0.9085400549270212,1.468141876760125
1763692626306031400,4.55403125,-2.398433014115691,0.26923078238964077,0.7037906586676835
1763692626315990500,4.563990478515625,-1.1382955898880958,1.6056024282529948,0.056492287072539324
1763692626325949400,4.573949462890625,-0.6218365980803966,1.5788386322289705,-0.4699000697284937
1763692626335908400,4.583908447265625,-0.5668149680823087,1.0734617370583117,-0.429244234213233
1763692626345866500,4.593866455078125,-0.8579957164734602,0.9185366944149136,-0.3262310189843178
1763692626355825400,4.603825439453125,-1.0986521462857723,0.9076505587413907,0.023867782321572304
1763692626365784300,4.613784423828125,-1.1476812578707933,0.7140950489304959,0.23144728744029996
1763692626375743500,4.623743408203125,-0.49711950056552884,0.19995207898020742,0.05538052643835544
1763692626385701400,4.633701416015625,-0.5996925708115101,0.18999489471986888,0.08027940537333488
1763692626395660300,4.643660400390625,-2.2287094846606252,1.026815428956598,-0.010768062251806258
1763692626405619500,4.653619384765625,-3.2238848898589607,0.9839065538175403,-0.21224691240787505
1763692626415577300,4.663577392578125,-5.670356835478544,0.6815608528114855,0.2875678185909986
1763692626425536500,4.67353662109375,-7.375588974002003,0.5028738263085484,0.15874913097620008
1763692626435495400,4.683495361328125,-8.849299006283283,0.2973334258019924,-0.14391279637217522
1763692626445454300,4.693454345703125,-9.178542651087046,-0.3356237012296915,-0.16634966910779475
1763692626455412500,4.70341259765625,-8.840440577045083,0.04207447014153003,-0.6079375443264842
1763692626465371400,4.713371337890625,16.810068626141547,-0.8586290459409356,-0.6861310833364724
1763692626475330300,4.723330322265625,13.729162466675042,1.434446820168197,-1.228309915073216
1763692626485289500,4.73328955078125,6.117487439516187,1.4903119152531026,-0.7631815897911787
1763692626495247400,4.743247314453125,1.6903525492995977,0.08995704203993081,-0.9292398747369647
1763692626505206300,4.753206298828125,-1.1544640498787164,0.3776204299598932,0.33454759643077847
1763692626515165400,4.76316552734375,0.21662147423028943,0.6680228874549269,0.026789807248115537
1763692626525123300,4.773123291015625,1.176274315148592,-0.3280784004166722,-0.33352409860193727
1763692626535082200,4.783082275390625,1.7748393432348966,-0.10211685091108083,-0.19158669395595787
1763692626545041700,4.793041748046875,1.5436685346484182,0.17022066532224417,0.1936559014454484
1763692626555000600,4.80300048828125,1.274382807201147,0.21540654548257587,0.21602730772942302
1763692626564958500,4.81295849609375,0.9653414079487324,-0.03144523183852434,0.7174892214134335
1763692626574917600,4.822917724609375,0.6919763022333383,-0.3779387021288276,2.02704680237025
1763692626584876500,4.83287646484375,0.597618687146902,-0.43907063170075417,1.7218085947930812
1763692626594835500,4.84283544921875,0.19586568644940852,0.048910161380469795,0.41979076169133184
1763692626604793600,4.852793701171875,0.1874444795846939,0.5494032300323247,-0.13878975427001713
1763692626614752500,4.86275244140625,0.40521512385010716,0.5826829838216304,-0.18735183286517856
1763692626624711400,4.87271142578125,0.5159001888811588,0.399859149774909,-0.2941147560164332
1763692626634670600,4.882670654296875,0.4672364034771919,0.6524114768251776,-0.405782402344048
1763692626644628500,4.89262841796875,0.3439373560667038,0.6945441068947315,-0.1104945108950138
1763692626654587400,4.90258740234375,0.08152735960781574,0.09952391180843115,0.4401467364996671
1763692626664546600,4.912546630859375,-0.3023310879588127,0.3119441349565983,0.5629328659519552
1763692626674504400,4.92250439453125,-0.3708277010798454,0.5421434681624174,0.07896598468720913
1763692626684463600,4.932463623046875,-0.07535773106217383,0.6547931112647056,-0.591382130844891
1763692626694422500,4.942422607421875,0.2631587689995766,0.8559636261239647,-0.7134484215900302
1763692626704381400,4.95238134765625,0.3190717948794365,1.1224983012974261,-0.51931087410748
1763692626714339600,4.962339599609375,0.06704699883460997,1.0199898207202553,-0.2785296488717198
1763692626724298500,4.972298583984375,-0.2725362536758184,0.7457727743506432,-0.1164616026058793
1763692626734257400,4.98225732421875,-0.4086860148310661,0.5816808210417628,0.010010521882772445
1763692626744216300,4.99221630859375,-0.4225274931788444,0.3796981130167842,0.14228548743128774
1763692626754174500,5.002174560546875,-0.41944764734208584,0.2941048191443085,0.36468466828018425
1763692626764133400,5.01213330078125,-0.11317921993434428,0.31085370937138795,0.4416454506248235
1763692626774092500,5.022092529296875,-0.23896014728844164,0.2485021748766303,0.1281529171824455
1763692626784050400,5.032050537109375,-0.40161154640018937,0.2111225845530629,0.16758973229676485
1763692626794009300,5.04200927734375,-0.6154243929505347,-0.00022767127603292464,0.8887120495155453
1763692626803968500,5.051968505859375,-0.5237181691557169,-0.8296414363875985,1.081084340891242
1763692626813927400,5.061927490234375,0.492576011916995,-1.3938149500504136,0.14308423659354447
1763692626823885600,5.071885498046875,-0.44053953520953654,-0.26796675380319357,0.9972358448594808
1763692626833844500,5.081844482421875,-0.7863128745317458,-0.8034913883477449,0.5665633314087987
1763692626843803400,5.091803466796875,0.8437199383616447,-1.1769389165371655,0.02391892798691988
1763692626853762300,5.10176220703125,1.3479840499848126,-1.2947928502842783,0.42259646676182744
1763692626863720400,5.111720458984375,-1.2042682374894618,-0.5712596725314856,0.8315963698476553
1763692626873679400,5.121679443359375,-1.2593570875048636,0.44710137794315813,-0.9449532844364642
1763692626883638300,5.13163818359375,0.14630349090099334,0.4745718609318137,0.765719291575253
1763692626893596400,5.141596435546875,-0.6515683039993048,0.5472413758233189,1.0348261553242801
1763692626903555300,5.151555419921875,-1.1142840151816606,0.4709691602647304,1.3135580487698315
1763692626913514500,5.161514404296875,-1.0742822596609591,0.44306437751203775,0.7242550622865557
1763692626923473400,5.171473388671875,-0.9975947412997483,0.15732552791386842,0.08271510808765888
1763692626933431300,5.181431396484375,-0.7408171977698802,0.07939151662290096,0.8871163047567009
1763692626943390500,5.191390380859375,-0.7360679574161767,-0.021672610364854336,0.12895838834643364
1763692626953349400,5.201349365234375,-0.7889157505065202,-0.10251549483984708,-0.502005519041419
1763692626963308500,5.21130859375,-0.5772779099076986,-0.20029051715433596,-0.014988894817233084
1763692626973266400,5.221266357421875,-0.4535024771571159,-0.2627148246243596,-0.34595454110801216
1763692626983225300,5.231225341796875,-0.3514262505173683,-0.31772184157520533,-0.853001561447978
1763692626993184500,5.2411845703125,-0.07513678178787231,-0.2845629376865923,-1.047320310716331
1763692627003143400,5.251143310546875,0.2414759295016527,-0.1563378320507705,-1.2887103155001998
1763692627013101300,5.261101318359375,0.7017249583095312,0.08819207819402217,-1.294246906839311
1763692627023060500,5.271060546875,0.9620423664033413,0.0018919512264430522,-0.6251758255057036
1763692627033019600,5.28101953125,0.6701221978217363,-0.23717779391631483,-0.6830282950155436
1763692627042977500,5.2909775390625,0.35049569166898725,-0.31957989053204655,-1.0424795926868915
1763692627052936400,5.3009365234375,0.3190606889635324,-0.37338527660816906,-0.7720052399769425
1763692627062895600,5.3108955078125,0.23904314939677715,-0.4421487239718437,-0.590511193229258
1763692627072854500,5.3208544921875,0.07605857280790805,-0.47041591029614205,-0.43951808320730923
1763692627082812700,5.330812744140625,-0.07680559178292751,-0.4631074869789183,-0.4463847541064024
1763692627092771600,5.340771484375,-0.07218436172306537,-0.41912469899803395,-0.5462514880031347
1763692627102730500,5.35073046875,0.13666355589628218,-0.506364006511867,-0.40104689825475215
1763692627112689400,5.360689453125,0.21558979309499263,-0.7340773681208491,0.18572890783846377
1763692627122647600,5.3706474609375,0.33593934305012224,-0.8123015945300459,0.05115560221970081
1763692627132606500,5.3806064453125,0.6583622019231319,-0.8027030144490301,0.14057269216403365
1763692627142565400,5.3905654296875,0.86346041162014,-0.742912124222517,0.24551526802033186
1763692627152523500,5.4005234375,0.9406085332304239,-0.8748467519007622,0.45506768064722414
1763692627162482400,5.410482421875,0.9022118748188018,-0.9888473712205886,0.6212677121512592
1763692627172441600,5.420441650390625,0.8572896140307188,-0.993170641247183,0.6352240490503609
1763692627183022600,5.431022705078125,0.8671838160574435,-0.9565373392462729,0.4720132624901831
1763692627192981000,5.44098095703125,0.8035556857556104,-0.8922115820690989,0.3840770587533712
1763692627202940000,5.45093994140625,0.6797194627285004,-0.8623185481086373,0.3966936714813113
1763692627212898000,5.46089794921875,0.5573416218161583,-0.741301620285958,0.3515045764505863
1763692627222857000,5.47085693359375,0.43770986474156376,-0.5303213668130338,0.25361308814957734
1763692627232815900,5.48081591796875,0.2573264095842838,-0.3278890153244138,0.13583090446442364
1763692627242774000,5.49077392578125,0.044053076738119125,-0.15007804100364447,0.008539426416903733
1763692627252733000,5.50073291015625,-0.06465630430579185,0.10642959954366087,-0.17871186868324876
1763692627262692000,5.510692138671875,0.02136836672127247,0.304073401581496,-0.28298078306168317
1763692627272651300,5.5206513671875,0.030493922463059424,0.28924349671825766,-0.22672230474501848
1763692627282609000,5.53060888671875,-0.06446107399463653,0.24905600936710834,-0.17307532410100102
1763692627292568000,5.540568115234375,-0.18170915080308914,0.2554733290635049,-0.04784969254210591
1763692627302527200,5.55052734375,-0.6402852779626846,0.1444116858050227,0.1729476060681045
1763692627312486100,5.560486083984375,-0.14540157362520695,-0.09705489134639501,0.370857365565747
1763692627322444300,5.5704443359375,-0.47638709366023535,-0.3466974684298038,0.7559631828449666
1763692627332403200,5.5804033203125,0.22765783202946185,0.17505597652420402,0.34980770940482614
1763692627342362000,5.590362060546875,0.17548808433115481,0.3163979725603014,0.23297025922387837
1763692627352320300,5.6003203125,0.5532639971137047,0.18769465495347976,0.20186872625648974
1763692627362279200,5.610279052734375,1.1574912887454032,0.3124406132366508,-0.03266337545663118
1763692627372238000,5.620238037109375,0.4352729929834604,0.5455726388934999,-0.05275178536996245
1763692627382197200,5.630197265625,0.29527006353139873,0.40811179513968526,0.0656375704281032
1763692627392155100,5.640155029296875,0.46054479688405986,0.24207798704802988,0.06416822852790355
1763692627402114000,5.650114013671875,0.5434966363370418,0.25054011044502256,0.0788746531419456
1763692627412073200,5.6600732421875,0.683280370080471,0.27512729308232664,0.12556801525577901
1763692627422032100,5.6700322265625,0.5775204864919186,0.400142642891407,0.09731149645596741
1763692627431990300,5.679990234375,0.1985065563470125,0.37366818520277734,0.06771306152790785
1763692627441949200,5.68994921875,0.30828561244904995,0.24272768312841653,0.037235651808232066
1763692627451908000,5.699908203125,0.7535726344466209,0.03626088849194348,-0.20463249188140034
1763692627461866200,5.7098662109375,0.888710588210821,0.010360212103277444,-0.6130142630688846
1763692627471825200,5.7198251953125,1.2877706965625286,0.18476671174280343,-0.8863372832082211
1763692627481784000,5.7297841796875,1.453863760560751,0.27900033512338995,-0.9473108073480426
1763692627491743000,5.739742919921875,1.3281091366916895,0.000009644611179828643,-0.6949896587051451
1763692627501701000,5.749701171875,0.9266156637132167,-0.31307007024660705,-0.30613764063492416
1763692627511660000,5.759659912109375,0.9829875392764806,-0.3827816851805895,-0.25430823080688714
1763692627521619200,5.769619140625,0.7561977222532034,-0.33150990923531354,-0.44351095223575826
1763692627531578000,5.779578125,0.6929471930921077,-0.39106523714028296,-0.7544621306322514
1763692627541536000,5.789535888671875,0.6699415805578232,-0.586611555442214,-1.01319723797068
1763692627551495200,5.7994951171875,0.7563888609111309,-0.9072394937224686,-0.987478567085415
1763692627561454000,5.8094541015625,0.6144827281862497,-0.9824059399962425,-1.0948550920903681
1763692627571413000,5.8194130859375,0.4120715656161308,-0.6181900582715869,-1.603020156674832
1763692627581371100,5.82937109375,0.21221593274772166,-0.5119148455720395,-1.4203786934576927
1763692627591330000,5.839330078125,0.07808394115567206,-0.5136312941011041,-1.145105781359598
1763692627601289000,5.8492890625,0.33026246645748614,-0.3991539241150021,-0.9697926152039319
1763692627611247000,5.8592470703125,0.36658641024827954,-0.38674211324416097,-0.9190504160907119
1763692627621206000,5.8692060546875,0.2685796250045299,-0.4264301997058093,-1.189641600113362
1763692627631165000,5.8791650390625,0.1768219632834196,-0.3850020646438002,-1.6840394206300378
1763692627641124000,5.8891240234375,0.05002922853827476,-0.3252661194749176,-1.693227812474966
1763692627651082000,5.89908203125,-0.15750936004817484,-0.2701793152861297,-1.4512436411902307
1763692627661041000,5.909041015625,-0.16415946558713912,-0.17810279687419533,-0.9815682470630854
1763692627671000000,5.919,-0.3350526233434677,-0.17678747649192808,-0.9207982826713472
1763692627680959000,5.928958984375,-0.5523632488816976,-0.14509762224256992,-1.1820124204091726
1763692627690917000,5.938917236328125,-0.7239461424678564,-0.16115107755139468,-0.9131094817344099
1763692627700876000,5.9488759765625,-1.0250281071484089,-0.1837038317516446,-0.5682563990622759
1763692627710835000,5.9588349609375,-1.1448726301908492,-0.2107606193728745,-0.3241505594484508
1763692627720794000,5.968794189453125,-1.1503279729872942,-0.22494784241840243,-0.24592531012594698
1763692627730752000,5.978751953125,-1.1868746196180582,-0.2419336101412773,-0.17650179141834377
1763692627740711000,5.9887109375,-1.2034218497931957,-0.2744512935169041,-0.1139138178192079
1763692627750670000,5.998670166015625,-1.0132190114110708,-0.3107001262448728,-0.09360591993629931
1763692627760629200,6.008629150390625,-0.777108992856741,-0.3873530116841197,-0.1021530912682414
1763692627770587000,6.0185869140625,-0.7134539745479822,-0.4737083759702742,-0.12276917831748724
1763692627780546300,6.02854638671875,-0.6211895323485136,-0.4697096617229283,-0.15674290572032332
1763692627790505200,6.038505126953125,-0.4203735300153494,-0.5523555039666592,-0.21392872801497578
1763692627800464100,6.048464111328125,-0.35149814670979973,-0.614985709272325,-0.2624542739920318
1763692627810422300,6.05842236328125,-0.31906887226998804,-0.5235968808636069,-0.37831060418114065
1763692627820381200,6.068381103515625,-0.26516835525631904,-0.4311937608458101,-0.4926644208528101
1763692627830340000,6.078340087890625,-0.14755436774492262,-0.5014570913784205,-0.41412469875365493
1763692627840299000,6.088299072265625,-0.06722352444529534,-0.5839465740166604,-0.23534210292175411
1763692627850257200,6.098257080078125,-0.07395780113637447,-0.5443927083939314,-0.11509557494968176
1763692627860216000,6.108216064453125,-0.08560849144160747,-0.4820609015129506,-0.12173150583282112
1763692627870175200,6.11817529296875,-0.09149754948019981,-0.42721550486460325,-0.18647621907442807
1763692627880134100,6.128134033203125,-0.1317956575989723,-0.41775136481821534,-0.2154538917556405
1763692627890093000,6.138093017578125,-0.10947159758806228,-0.47953006786108016,-0.1383608613334596
1763692627900051200,6.14805126953125,-0.08952595714628696,-0.4215203619629144,-0.08272796756923198
1763692627910010000,6.158010009765625,-0.12109364632070063,-0.29842385138720273,-0.11740662837103008
1763692627919969000,6.167968994140625,-0.1538689577192068,-0.22967706289738415,-0.18118951084315776
1763692627929928200,6.17792822265625,-0.20266309150457382,-0.18769465495347976,-0.25131094868704673
1763692627939886000,6.187885986328125,-0.1795885053873062,-0.1862143532678485,-0.21443054005727172
1763692627949845000,6.197844970703125,-0.05829612162411212,-0.19639789362996815,-0.1689214192919433
1763692627959804200,6.20780419921875,-0.06388005923628806,-0.20000497821122407,-0.07518573549613357
1763692627969763000,6.21776318359375,-0.10854454587101936,-0.1556058645144105,-0.008520721716433763
1763692627979721000,6.227720947265625,-0.08083002499341964,-0.08690934490710496,-0.0200325880728662
1763692627989680000,6.23768017578125,-0.0350783276438713,-0.06957505600750447,-0.04861906947940588
1763692627999639000,6.24763916015625,0.05701368059813976,-0.14991846652776003,-0.021029782416671514
1763692628009598000,6.257597900390625,0.18484452621936798,-0.24196955823749303,0.019908523301780223
1763692628019557000,6.26755712890625,0.30280455068945883,-0.27405951772034165,0.07702274166494608
1763692628029515000,6.277514892578125,0.4124848225921392,-0.281278363057971,0.05575754305720329
1763692628039474000,6.287473876953125,0.5243640658438206,-0.2647588976725936,0.08442410396263003
1763692628049433000,6.29743310546875,0.5423392829954624,-0.19076076452583074,0.29558526696041226
1763692628059392000,6.30739208984375,0.4694727842271328,-0.1249251873075962,0.37107904549241066
1763692628069350000,6.317349853515625,0.32807460102438923,-0.008326514318585396,0.7404945416867733
1763692628079309000,6.32730908203125,0.151507489284873,0.25634996576756236,0.9762792738094925
1763692628089268000,6.33726806640625,0.03193652248680592,0.4106210745468735,0.957651584098488
1763692628099227100,6.34722705078125,-0.1589496219843626,0.5970914484024048,1.1137380717366934
1763692628109186000,6.35718603515625,-0.34268121852576733,0.7679533342376351,1.067663718304038
1763692628119144200,6.367144287109375,-0.3453869703531265,0.8515624685555696,0.936914501018077
1763692628129103000,6.37710302734375,-0.40366847892999647,0.8038608061820268,0.98508684964329
1763692628139062300,6.387062255859375,-0.45539106738269325,0.6689353261247277,0.7993632025018333
1763692628149021200,6.397021240234375,-0.3285135769635439,0.44441871473044153,0.5183417368143797
1763692628158980000,6.40697998046875,-0.2009422590613365,0.27130729640275236,0.28771657941192386
1763692628168938200,6.416938232421875,-0.1282417645096779,0.12477321161627769,0.11541428551003337
1763692628178897200,6.426897216796875,-0.09025544046461581,0.05256517675668001,0.029308804331719875
1763692628188856000,6.43685595703125,-0.09789221895337104,0.054394145749509334,-0.09366086499392985
1763692628198815200,6.446815185546875,-0.12560907791852952,0.10219196197390555,-0.21479732754305003
1763692628208773000,6.456773193359375,-0.01039630632996559,0.04524433234930038,-0.17082666839137672
1763692628218732000,6.46673193359375,0.076575290158391,-0.004333645290136337,-0.149756261703372
1763692628228691200,6.476691162109375,0.1161895076662302,0.074829615534842,-0.19926278154179453
1763692628238650000,6.486650146484375,0.09780454066991806,0.14030162013769149,-0.17093217459246515
1763692628248609000,6.496609130859375,-0.009034370326995849,0.1657701156541705,-0.18617782064974306
1763692628258568000,6.50656787109375,0.10665829373300074,0.17702157750874756,-0.3090929833091795
1763692628268526000,6.516526123046875,0.3329793242007494,0.20289280860722064,-0.47572176161929963
1763692628278485000,6.526485107421875,-0.34070144288539883,0.41430385471284387,-0.1797553863868117
1763692628288444200,6.536444091796875,-0.9477963989078998,1.0866901980742811,0.05540741444528102
1763692628298403300,6.5464033203125,-1.7399691053837536,1.1826073175624012,0.21626623105183243
1763692628308362200,6.5563623046875,-0.5950234099566936,0.30315497156232596,0.7525947293251752
1763692628318320400,6.5663203125,-1.7247130840629339,0.07410743874013423,1.077771855342388
1763692628328279300,6.576279296875,-0.7856891896754503,0.3854764041572809,0.8604099380083382
1763692628338238200,6.58623828125,-0.35122283689975736,0.40341859582215545,0.6407336062520742
1763692628348197000,6.596197021484375,0.01476911458671093,0.22701427342891692,0.5222150711163878
1763692628358156300,6.60615625,0.34654023204147816,0.1819964433118701,0.4560765654288232
1763692628368114200,6.6161142578125,0.2446528059720993,-0.010964753867685794,0.6114221715718507
1763692628378073000,6.626072998046875,-0.0415834717541933,-1.0034306078463793,0.5903738305851817
1763692628388032300,6.6360322265625,-0.1142109010696411,0.30475510023534297,0.3031647623039782
1763692628397991200,6.6459912109375,-0.28772388593554493,1.0530109235733747,0.17788579312264918
1763692628407950000,6.6559501953125,-0.29737901850938797,0.767321173813939,0.20914441634789108
1763692628417908200,6.665908203125,0.041271921586990355,0.21001491557210683,0.5931706216968595
1763692628427867100,6.6758671875,0.0516091912060976,0.23946897359341382,0.8530009769260882
1763692628437826000,6.685825927734375,0.33605624742805956,0.21691198160946368,0.7350988201230764
1763692628447785200,6.69578515625,0.3635416357249021,-0.41044688702374693,0.4814490532249212
1763692628457744100,6.705744140625,0.23770108713805674,-0.2983142535328865,0.3280336844921112
1763692628467703000,6.715703125,0.1183504850924015,0.2871744353592396,0.10449483208879828
1763692628477661200,6.7256611328125,0.09844868379235266,0.4122615352302789,0.03599646540209651
1763692628487620000,6.7356201171875,0.055095864278078076,0.2918368742123246,0.3121780898429453
1763692628497579000,6.7455791015625,-0.21409517062306402,0.28044980327934027,0.43680590163916344
1763692628507538200,6.7555380859375,-0.5806511857330798,0.4095461387917399,0.43821664521992204
1763692628517497000,6.7654970703125,-0.8977928893327712,0.4706956040203571,0.4625209192626178
1763692628527455000,6.775455078125,-0.9714987615346908,0.44219168633073563,0.434217200320214
1763692628537414100,6.7854140625,-0.8275327736705541,0.38222617018967864,0.2916537727303803
1763692628547373000,6.795373046875,-0.5633358937948942,0.2811661348551512,0.10619389109164476
1763692628557332200,6.805332275390625,-0.31202655254304407,0.23894611876308916,0.02888239561319351
1763692628567291100,6.815291015625,-0.19963877524733542,0.24219781403541563,0.06068608550056815
1763692628577250300,6.825250244140625,-0.11644961990714073,0.2837655036985874,0.08219795234575868
1763692628587208200,6.835208251953125,0.012425181809067725,0.31870237704515453,0.08928191925734281
1763692628597167400,6.84516748046875,0.06061491996049881,0.30930677219033237,0.10964607737213372
1763692628607126300,6.855126220703125,0.06858896757960319,0.29157851553708314,0.21849004458114504
1763692628617085200,6.865085205078125,0.07621054849922657,0.32043168505579234,0.30256007440909743
1763692628627044000,6.875044189453125,0.05974164425730705,0.3961126567229628,0.33293636184185743
1763692628637003300,6.885003173828125,0.10209551586210727,0.38080490521490573,0.2962237109944224
1763692628646961200,6.894961181640625,0.13804536564350128,0.32613691096007824,0.17969276947937904
1763692628656920300,6.90492041015625,0.19171090485751627,0.2574079503878951,0.05981039864458143
1763692628666879200,6.914879150390625,0.28996728094816204,0.14424305123984812,-0.011098170989006758
1763692628676838100,6.924838134765625,0.3410264370560646,0.06581658025681972,0.01777333790399134
1763692628686797000,6.934797119140625,0.348384983125329,0.014559563489258288,0.05091375628784298
1763692628696756200,6.944756103515625,0.33332010046243665,0.05945815114080905,0.03102094201184809
1763692628706714000,6.954714111328125,0.2983241904050112,0.16919219905734062,-0.005218428768031299
1763692628716673000,6.964673095703125,0.04416998111605644,0.5171519425079226,-0.19347484579011798
1763692628726632200,6.974632080078125,0.05870294885933399,0.4704740702241659,-0.1325246659932658
1763692628736591000,6.984591064453125,-0.11213175670802593,0.5110644392877817,-0.16541008670274168
1763692628746550000,6.994550048828125,-0.18318273048698902,0.556195082129538,-0.22119860942009836
1763692628756509200,7.00450927734375,-0.2315419799864292,0.5851452822819352,-0.24015516575928775
1763692628766468000,7.014468017578125,-0.21524317161440848,0.4911676064237952,-0.24307342782616614
1763692628776426000,7.024426025390625,-0.15305238063931464,0.27379589834809304,-0.3493083815805614
1763692628786385200,7.03438525390625,-0.14703531230688094,0.004647825805842876,-0.2660127336585894
1763692628796344300,7.04434423828125,-0.1359574534535408,-0.1836445027798414,-0.20837478368226436
1763692628806303200,7.05430322265625,-0.05570552060902118,-0.3110001321047544,-0.1251919119523838
1763692628816262100,7.06426220703125,0.06650397799909115,-0.4065063327044248,-0.030995734505355355
1763692628826221300,7.07422119140625,0.1760328587323427,-0.4634329195410013,0.021317147990688682
1763692628836180200,7.08418017578125,0.19334639710485935,-0.3611345745831728,0.024239830504357813
1763692628846138000,7.09413818359375,0.13004618358314038,-0.19754414105564355,0.013366810040734707
1763692628856097300,7.10409716796875,-0.003173369339108467,-0.05187105701267719,0.04994925863724202
1763692628866056200,7.11405615234375,-0.211599846675992,0.08163900328874588,0.08581192332552745
1763692628876015000,7.12401513671875,-0.389586762085557,0.16816577861905097,0.15586539223343132
1763692628885974300,7.133974365234375,-0.5545394238770007,0.18247078282535076,0.2824779846386984
1763692628895933200,7.14393310546875,-0.6951648691415786,0.16018062508404254,0.2743757805952802
1763692628905892000,7.15389208984375,-0.7529279068022966,0.15000789837688205,0.2540918663761578
1763692628915850200,7.163850341796875,-0.7654676549017428,0.11727496481537818,0.2781120445141569
1763692628925809200,7.17380908203125,-0.6269523336589335,0.012303601256012917,0.29060718628689647
1763692628935768000,7.18376806640625,-0.4238607876092195,-0.1668827530711889,0.2532805682595819
1763692628945727200,7.193727294921875,-0.272132349050045,-0.4449970991402864,0.20118227836228905
1763692628955686100,7.20368603515625,-0.2125146234333515,-0.6273883869886397,0.13430824320809914
1763692628965645000,7.21364501953125,-0.07360884156823158,-0.709414636029303,0.03130268156267702
1763692628975604000,7.22360400390625,0.019459318229556082,-0.7002040323525667,-0.093253343638964
1763692628985563400,7.2335634765625,0.01288461601436138,-0.7285615273088216,-0.13434459316311403
1763692628995521000,7.24352099609375,-0.016406944921612737,-0.7382388717144728,-0.20435097152628004
1763692629005480000,7.25347998046875,0.02947802341878414,-0.7208820787221193,-0.22141718407422303
1763692629015439400,7.263439453125,0.03604220423996448,-0.7364446817740797,-0.2961414578047581
1763692629025398300,7.273398193359375,0.1002297219902277,-0.7283920159608125,-0.3318228111093864
1763692629035357200,7.283357177734375,0.07299743167161941,-0.621897388356924,-0.3597235752740875
1763692629045316000,7.293316162109375,-0.05198094712793827,-0.4805678864762187,-0.3478726496890187
1763692629055275300,7.303275146484375,-0.16220950056314468,-0.36579847474098204,-0.38287433190010484
1763692629065234200,7.313234130859375,-0.25313772572278975,-0.23428514121472835,-0.35404249743036925
1763692629075192300,7.3231923828125,-0.3557563886761665,-0.11625965029299258,-0.3269158959759399
1763692629085151200,7.333151123046875,-0.33248423416018485,0.006811433580517769,-0.37757191464304923
1763692629095110100,7.343110107421875,-0.3089496293157339,0.09632599254995584,-0.48822870342768726
1763692629105069000,7.353069091796875,-0.30571488517820833,0.07824731502383947,-0.5565297574440017
1763692629115028200,7.3630283203125,-0.2186807448476553,0.02736526904851198,-0.4859391311857849
1763692629124987100,7.372987060546875,-0.1757107871711254,-0.05685498290508985,-0.5700291078232228
1763692629134946000,7.382946044921875,-0.028704700958728787,-0.1380292912915349,-0.5115857597481459
1763692629144905200,7.3929052734375,0.12640811934173107,-0.2529617846339941,-0.31439112624991683
1763692629154863000,7.402863037109375,0.2689467047512531,-0.418449576215446,-0.17517587657682596
1763692629164822000,7.412822021484375,0.40589842993915076,-0.6029895665302872,-0.04110997249092906
1763692629174781200,7.42278125,0.29603695625066756,-0.6604506986349821,0.011529438545741141
1763692629184740000,7.432739990234375,0.27249183001220223,-0.5731017932668327,-0.03555211916808039
1763692629194699000,7.442698974609375,0.1922369745582342,-0.42487142595648764,-0.12904175578095017
1763692629204658400,7.452658447265625,0.1254185237824917,-0.30925562652498484,-0.16045999001469463
1763692629214617600,7.46261767578125,0.10031155505478381,-0.27012773122936484,-0.1562365636333823
1763692629224576500,7.472576416015625,0.08496084118783473,-0.06571428892612458,-0.4754851398518309
1763692629234535400,7.482535400390625,-0.03876841433346271,0.03850128782987594,-0.5014729100020602
1763692629244493600,7.49249365234375,-0.1666705716252327,0.18394640833586454,-0.47073038307279347
1763692629254452500,7.502452392578125,-0.29509178435504435,0.28948621943295,-0.4682341458102688
1763692629264411400,7.512411376953125,-0.44050797102749345,0.38617870720773934,-0.18990294212009756
1763692629274370300,7.522370361328125,-0.49496203027069563,0.3730401164323091,-0.05007175250574946
1763692629284329500,7.53232958984375,-0.6640005000710487,0.11739274597615003,-0.12886333047412335
1763692629294288400,7.542288330078125,-1.0561626656025647,-0.4728030976936221,-0.09390095736011862
1763692629304247300,7.552247314453125,-0.46379181598126884,0.05183306308984756,-0.774915574465692
1763692629314206500,7.56220654296875,-0.17577917623221873,0.7341109781295061,-1.1176835214268415
1763692629324164400,7.572164306640625,-0.35543548615872855,0.616675562055409,-1.072389943108335
1763692629334123300,7.582123291015625,-0.4290115945011377,0.04319266051650047,-1.0008488477248698
1763692629344082400,7.59208251953125,-0.12517536267638205,0.015519640693068503,-0.6331157516594976
1763692629354041600,7.60204150390625,0.1261316404879093,-0.21484934999123215,-0.6111716308768839
1763692629364000500,7.61200048828125,0.19331074126958847,-0.44321343059390783,-0.2653451731279492
1763692629373959400,7.62195947265625,0.15122633425593376,-0.5101407485716044,0.08113748350739479
1763692629383918600,7.631918701171875,0.0018248773396015165,-0.49799716018289325,0.5873788865529
1763692629393877500,7.64187744140625,0.404055432420969,-0.29959654842838646,0.43275699157454073
1763692629403836400,7.65183642578125,0.12325170113742351,-0.2216262967802584,0.3937260538473725
1763692629413794600,7.661794677734375,-0.11856149749457835,-0.23717647874206302,0.3413837260611355
1763692629423753500,7.67175341796875,0.06771861448585986,-0.24210940509960055,0.21706994865015147
1763692629433712400,7.68171240234375,0.02350011805295944,-0.15946750837862492,0.2624662566907704
1763692629443671600,7.691671630859375,-0.09452186573743819,-0.20255612399876116,0.20592903449796138
1763692629453630500,7.70163037109375,0.022583587729930875,-0.25326719732135533,0.23612886938527225
1763692629463589400,7.71158935546875,0.1446843652665615,-0.2621631820909679,0.46108745239339766
1763692629473548300,7.72154833984375,0.2769236749798059,-0.28663316808938977,0.67395242363438
1763692629483507500,7.731507568359375,0.47434945035278797,-0.3393805695451796,0.8249741021636873
1763692629493466400,7.74146630859375,0.5093284092754126,-0.37908904120773074,0.9915740927707404
1763692629503424500,7.751424560546875,0.5581137752324342,-0.3770848617784679,1.0906548639215528
1763692629513383400,7.761383544921875,0.608102087238431,-0.3729986153781414,1.1461578476957976
1763692629523342300,7.77134228515625,0.5918991404563189,-0.35762130576521156,1.170579099181667
1763692629533301200,7.78130126953125,0.6298761121511459,-0.2674731250673532,1.111055116263032
1763692629543260700,7.7912607421875,0.6965484324544667,-0.14437602996975182,0.9915518809389322
1763692629553219600,7.801219482421875,0.7102642385959624,-0.04936199680119752,0.9146803112477063
1763692629563178500,7.811178466796875,0.7232371174156665,-0.031002018115669487,0.8672872033666819
1763692629573137400,7.821137451171875,0.7937824797600507,0.0016837153032422064,0.8502878455098718
1763692629583095600,7.831095458984375,0.8314841416448354,-0.06457607867643236,0.9007972587805241
1763692629593054500,7.841054443359375,0.7464531578302382,-0.1586972546584904,0.9629955024097114
1763692629603013600,7.851013671875,0.6734978117346763,-0.19444354469180106,0.8810323086678982
1763692629612972500,7.86097265625,0.7207844635665416,-0.20183160911649464,0.7314008423879742
1763692629622931500,7.870931396484375,0.768199710214138,-0.20473244512453673,0.5502219990693032
1763692629632890400,7.880890380859375,0.805177149477601,-0.21519947860315441,0.3692006843999028
1763692629642849500,7.890849609375,0.8153595207959413,-0.2966037963531911,0.25803689594119783
1763692629652808400,7.900808349609375,0.649109804931283,-0.7744397736474872,0.3012017916679382
1763692629662767400,7.910767333984375,0.9476280566036701,-0.11166121658682822,-0.17879136366024612
1763692629672725500,7.9207255859375,0.6558867517203092,0.13514891354963182,-0.2115209362208843
1763692629682684400,7.930684326171875,0.6995119584351778,-0.07089125317260622,-0.219154061447829
1763692629692643300,7.940643310546875,0.651871670860052,-0.1473860254406929,-0.24044015671312807
1763692629702602500,7.9506025390625,0.5723866307348012,-0.1553333311833441,-0.35653994026929137
1763692629712561400,7.9605615234375,0.5840495959997177,-0.11738441653922199,-0.47611558324247594
1763692629722520300,7.970520263671875,0.5233797309815883,-0.06641016223579645,-0.5694758578546345
1763692629732479500,7.9804794921875,0.5905331128001212,-0.09512816106751561,-0.6319587636440992
1763692629742438700,7.990438720703125,0.6169166773349046,-0.29587694338336584,-0.6088796474821865
1763692629752397600,8.0003974609375,0.7366781982690096,-0.42083647135198116,-0.5402279899299144
1763692629762355500,8.01035546875,0.7781213847696781,-0.5511999041907489,-0.32709786494672294
1763692629772314600,8.020314697265626,0.6989134080201387,-0.739594377976656,-0.09678557288572191
1763692629782273500,8.0302734375,0.5122895971685648,-0.8318279866464435,0.006366612422466278
1763692629792232400,8.040232421875,0.32184535124599933,-0.8674342836871742,-0.002999035685509443
1763692629802191600,8.050191650390625,0.18158581668436527,-0.9115290076099336,0.16846753804460166
1763692629812150500,8.060150634765625,-0.04810907413065433,-0.8923971677690744,0.27735388309061526
1763692629822109400,8.070109375,-0.13468319573402404,-0.8908400014549493,0.23446079004257916
1763692629832068400,8.080068359375,0.3211830879449844,-0.9749917182169854,-0.14912863132432103
1763692629842027500,8.090027587890624,-0.36978491402864455,-1.1562031486310065,-0.4043875869847834
1763692629851985400,8.0999853515625,-0.5636714093595743,-1.0678178859524428,-0.43027986087128517
1763692629861944300,8.1099443359375,-0.2663373990356922,-0.5279376865468919,0.03394976200535893
1763692629871903500,8.119903564453125,-0.23896599250733852,-0.2174251918286085,0.20922537262961266
1763692629881862400,8.1298623046875,-0.5074018251270056,-0.26147373852208255,-0.18394655446633695
1763692629891821300,8.1398212890625,-0.688817545941472,-0.33535394437760113,-0.3964152929313481
1763692629901780500,8.149780517578124,-0.7521615986049175,-0.2859516155660152,-0.45053792826309796
1763692629911739400,8.159739501953124,-0.781995011332631,-0.26140228072106836,-0.5371807311885058
1763692629921698600,8.169698486328125,-0.802788208514452,-0.2455574997268617,-0.7809357846032827
1763692629931657500,8.179657470703125,-0.7929822692930698,-0.12714710114076733,-0.6652549571115524
1763692629941615400,8.189615478515625,-0.7845084554582834,-0.03321837899088859,-0.21025274291597307
1763692629951574500,8.199574462890626,-0.7990928611278534,0.013650778081268071,-0.24290925024040042
1763692629961533400,8.209533447265626,-0.8068219940751791,0.013737287320941685,-0.3337268546324223
1763692629971492600,8.21949267578125,-0.8081552885055542,0.05361790068000555,-0.2817678270753473
1763692629981451500,8.229451416015625,-0.7648731961399317,0.10908668992370367,-0.24767361509799957
1763692629991410400,8.239410400390625,-0.7347603819489479,0.14740867566391824,-0.223083144525066
1763692630001369600,8.24936962890625,-0.6576157674700022,0.20152561190724372,-0.34537827559001744
1763692630011328500,8.25932861328125,-0.5627601397335529,0.21718977563753722,-0.4544000835839659
1763692630021287400,8.269287353515624,-0.46302024708688255,0.24841741920262575,-0.47053960974104697
1763692630031246300,8.279246337890624,-0.3618576281607151,0.2889817770421505,-0.49779718063138423
1763692630041204500,8.28920458984375,-0.2646551450371742,0.346015477515012,-0.5449577949307859
1763692630051163400,8.299163330078125,-0.16797522448301314,0.37223084587603805,-0.5812767702855169
1763692630061122300,8.309122314453125,-0.1500046835064888,0.4133601441219449,-0.5060099323771894
1763692630071081500,8.31908154296875,-0.07737550062537193,0.4089363363303244,-0.39857071739956734
1763692630081040400,8.329040283203126,-0.07973755358159541,0.33335853277668354,-0.2300738071300089
1763692630090999300,8.338999267578124,-0.09882102423608302,0.34266645934805273,-0.12853417158499358
1763692630100958500,8.34895849609375,-0.11805880866944789,0.4064864589601755,-0.17019421570673585
1763692630110917600,8.358917724609375,-0.1290390523672104,0.4888013156838715,-0.2517776894159615
1763692630120876500,8.36887646484375,-0.143594231942296,0.5922330485858023,-0.2638207400396466
1763692630130834400,8.37883447265625,-0.1948041946977377,0.6529417843095958,-0.20320158229544757
1763692630140793600,8.388793701171876,-0.21388415822088716,0.6520537494286894,-0.10562748938053845
1763692630150752500,8.39875244140625,-0.22709902910292148,0.6449167371556163,-0.004978080673515796
1763692630160711400,8.40871142578125,-0.19003508059978483,0.641300884746015,0.04528334918543696
1763692630170670600,8.418670654296875,-0.14519173026680945,0.6273107917077839,0.06361892408207058
1763692630180629500,8.42862939453125,-0.12407178534865379,0.6222995394170284,0.06114668874964117
1763692630190588400,8.43858837890625,-0.0744791946619749,0.6549379265628754,0.07955167562067508
1763692630200547300,8.44854736328125,-0.052284898510575294,0.6853599528335035,0.10474982976317405
1763692630210506200,8.45850634765625,0.022809797701239583,0.7292126846939325,0.11040288708880543
1763692630220465200,8.468465087890625,0.0895978533387184,0.6755078363828361,0.15861396028921007
1763692630230423300,8.47842333984375,0.12770283532738685,0.5151499550357461,0.21983093779608606
1763692630240382200,8.48838232421875,0.18634908556342125,0.14220628471523522,0.1069118301026523
1763692630250341000,8.498341064453125,0.17817513145804403,0.31597762825638054,0.12904606662988663
1763692630260300300,8.50830029296875,0.12111410458683967,0.8176984851375222,0.34441578723341226
1763692630270259500,8.518259521484374,0.27867782517075534,0.2556096687942743,0.18290362128466367
1763692630280218400,8.52821826171875,0.24562603491842747,-0.02036196615770459,0.49505043920651076
1763692630290177300,8.53817724609375,0.28440497064590453,0.11864172312393784,0.31344153390750285
1763692630300136400,8.548136474609375,0.4558808967262506,0.18150339909791946,0.12195493932515382
1763692630310095400,8.558095458984376,0.4767401448816061,0.09208572463169694,0.1776388326242566
1763692630320054300,8.56805419921875,0.49403790116310115,-0.06414134052097797,0.26476503515243527
1763692630330013200,8.57801318359375,0.6594955898672342,-0.21559213118255138,0.3035496699683368
1763692630339971300,8.587971435546875,0.7436556360661983,-0.3642125207237899,0.3653507309734821
1763692630349930200,8.59793017578125,0.652632718360424,-0.5051445477195083,0.41118791464939713
1763692630359889200,8.60788916015625,0.5045066882073879,-0.517853222645074,0.3365769103012979
1763692630369848300,8.617848388671876,0.38508243640363216,-0.41132717698961496,0.20382102936804294
1763692630379807200,8.62780712890625,0.29012568638026714,-0.3076813629455864,0.0996194811373949
1763692630389766100,8.63776611328125,0.11161562387943268,-0.18480609390512107,0.04759601004198193
1763692630399725300,8.647725341796875,-0.11244389139711856,-0.08992036329135299,-0.0003805237501859665
1763692630409684200,8.657684326171875,-0.23306582855284214,-0.036094080557674164,0.04740289862267673
1763692630419643400,8.667643310546875,-0.11258534569442272,0.03223842804282903,-0.007233458384871483
1763692630429602300,8.677602294921876,-0.09210603676736354,0.05008797298818826,-0.037174277009814974
1763692630439561500,8.6875615234375,-0.09435410795509815,0.04212751550301909,-0.04463029210418463
1763692630449519400,8.697519287109374,-0.1753489681214094,0.04886719902157783,-0.09964395799152552
1763692630459478300,8.707478271484375,-0.26017946092784405,0.07077800205647945,-0.1260072834558785
1763692630469437400,8.7174375,-0.32326340135037895,0.13492825653627513,-0.1554884486798197
1763692630479396400,8.727396240234375,-0.4151040651798248,0.18037717154696584,-0.22207089874260127
1763692630489355300,8.737355224609376,-0.5022714765012264,0.23394202686548232,-0.2699536898367107
1763692630499314400,8.747314453125,-0.5161678999066353,0.3495797458678484,-0.33101715728230774
1763692630509273300,8.7572734375,-0.5218710799843073,0.4275159491159022,-0.31623679064922033
1763692630519232300,8.767232177734375,-0.5846691892027854,0.4713995145060122,-0.2095011208310723
1763692630529191200,8.777191162109375,-0.6076829850435257,0.45829935604482885,-0.05891615321859717
1763692630539150300,8.787150390625,-0.5790075101792812,0.47010304495468735,0.0471354067929089
1763692630549109200,8.797109130859376,-0.5319336243152618,0.49358255861103534,0.14272336739189923
1763692630559068200,8.807068115234374,-0.5882400334268808,0.47571810835748907,0.2736240489125252
1763692630569026300,8.8170263671875,-0.6696762076199054,0.509366695459187,0.3788220608346164
1763692630578985200,8.826985107421875,-0.6359469564974307,0.657597355030477,0.37475890304893256
1763692630588944100,8.836944091796875,-0.5872153665542602,0.7609794035717844,0.3318367300368845
1763692630598903300,8.8469033203125,-0.47523383197188374,0.8530633746378123,0.2211746805552393
1763692630608862500,8.856862548828126,-0.3512257595092058,0.9207179839767515,0.14503558985702691
1763692630618821400,8.8668212890625,-0.22882570676505565,0.6776232211016118,0.1367269765213132
1763692630628780300,8.8767802734375,0.004365793994069099,0.1659982253216207,0.5011434953846037
1763692630638739500,8.886739501953125,-0.016601006188988684,0.3314949308618903,0.5685428878534585
1763692630648698400,8.896698486328125,0.06100947223603725,0.11351926554366945,0.5437937926527112
1763692630658657300,8.9066572265625,0.03455459603071213,0.05746186275705695,0.483030404132232
1763692630668616200,8.9166162109375,-0.005548866298794746,-0.046202509856969116,0.47085905095376074
1763692630678575400,8.926575439453124,0.0015735329270362853,0.17753157285749913,0.3268732624106109
1763692630688534300,8.9365341796875,0.00324818814098835,0.3449132153615355,0.08917546320818365
1763692630698493200,8.9464931640625,0.07471183437407017,0.42707653478533025,-0.07443433260694146
1763692630708451300,8.956451416015625,0.06566343552172184,0.32306802490875125,-0.2247241897303611
1763692630718410200,8.96641015625,0.050418520116806025,0.23505671010911464,-0.2985649403583258
1763692630728369200,8.976369140625,0.05159574720263481,0.21198884599357842,-0.31789705201163887
1763692630738328300,8.986328369140624,-0.013383797708153724,0.1603168186843395,-0.2507926969666034
1763692630748287200,8.996287353515624,-0.038407764327526094,0.14797522350549697,-0.23466113492026924
1763692630758246100,9.00624609375,0.01789747574031353,0.1777595363944769,-0.3497695693515241
1763692630768205300,9.016205322265625,0.0866834271967411,0.19903671770095824,-0.4697849919814616
1763692630778164500,9.02616455078125,0.09409750284552573,0.16578925874605774,-0.4691960861776024
1763692630788123400,9.036123291015626,0.1505401055574417,0.12045388711243867,-0.43033992049545045
1763692630798082300,9.046082275390624,0.24455051464140415,0.059137833145260804,-0.3668289868324995
1763692630808041200,9.056041259765625,0.33680151283740994,-0.07227627779021858,-0.24887999521307647
1763692630818000400,9.06600048828125,0.4401221865803003,-0.1960639855004847,-0.14640578223168849
1763692630827959300,9.075959228515625,0.5190782343953848,-0.2958519550725818,0.0159212802965194
1763692630837918200,9.085918212890626,0.5068056127995252,-0.4070050760067999,0.1692777584489435
1763692630847877400,9.09587744140625,0.46474575570523735,-0.4661635135486722,0.2768389193058014
1763692630857835300,9.105835205078124,0.40706279754340646,-0.5053584827311337,0.3341643692668527
1763692630867794200,9.115794189453124,0.3973977280974388,-0.4909104167923331,0.28507096027396617
1763692630877753300,9.12575341796875,0.4470967017680406,-0.46870355342030523,0.23900617838725446
1763692630887712300,9.135712158203125,0.4172124356359243,-0.5088403334975242,0.24789324919804928
1763692630897671200,9.145671142578125,0.34885084707140923,-0.502135136770457,0.2544580145411193
1763692630907630000,9.155630126953126,0.2907026094853878,-0.47048649131432174,0.24070348382443188
1763692630917589200,9.16558935546875,0.21444237662553786,-0.49763183400183914,0.2449844490792602
1763692630927548400,9.17554833984375,0.11262100152969359,-0.48773631680086255,0.24566278673224148
1763692630937507300,9.18550732421875,-0.04225391836166382,-0.45347515075877304,0.27925620958060027
1763692630947466500,9.195466552734375,-0.27874562970995903,-0.4143323501549661,0.33008747521676124
1763692630957425400,9.20542529296875,-0.07940905227959155,-0.4000128790318966,0.28482429203651843
1763692630967384300,9.21538427734375,0.1664215653002262,-0.47473172766864297,0.22370317611955104
1763692630977343200,9.22534326171875,-0.2510445528358221,-0.5327227288663386,0.40442660382092
1763692630987302400,9.235302490234375,-0.31553193031549454,-0.4234292643241584,0.33520825229659673
1763692630997261300,9.24526123046875,-0.2227531088531017,-0.2996754588834941,0.2737980172399431
1763692631007220200,9.25522021484375,-0.22497487655580042,-0.27533333704844115,0.2334280129287392
1763692631017179100,9.26517919921875,-0.17170973483622073,-0.27917613008171316,0.23065635625831782
1763692631027138300,9.27513818359375,-0.2342220128506422,-0.3095513946011662,0.2889259552016854
1763692631037096200,9.28509619140625,-0.20801263583898544,-0.3725476567402482,0.33313115376159547
1763692631047055400,9.295055419921875,-0.16666238831877708,-0.4433658446766436,0.37100897593088444
1763692631057014300,9.30501416015625,-0.20686580389142034,-0.49359936361536383,0.42837059318386017
1763692631066973200,9.31497314453125,-0.22211539547145365,-0.5724854149341583,0.5031691559933126
1763692631076932000,9.32493212890625,-0.25080606790482995,-0.5868273901499808,0.5578788704980164
1763692631086891300,9.334891357421874,-0.2571872933745384,-0.5548135646432638,0.5731478974308818
1763692631096850400,9.344850341796874,-0.22070962032675742,-0.5359294159531593,0.5626018073666841
1763692631106809300,9.354809326171875,-0.20898294217586516,-0.5283049124240875,0.5194545934271068
1763692631116768300,9.364768310546875,-0.2133376302540302,-0.49465150301679967,0.441824095127359
1763692631126727400,9.3747275390625,-0.2158177566319704,-0.44527474703788755,0.3762728147432208
1763692631136686300,9.384686279296876,-0.20048574746549128,-0.3709587801136076,0.30607977296784517
1763692631146645200,9.394645263671874,-0.15538871463239193,-0.2650466285727918,0.24749939104225485
1763692631156604400,9.4046044921875,-0.13851122958958148,-0.2261392441600561,0.191046084273234
1763692631166563300,9.414563232421875,-0.132549690836668,-0.15184885006844998,0.10954254393242299
1763692631176522200,9.424522216796875,-0.16090484770536423,-0.08128376011028886,0.07621869527306407
1763692631186481200,9.434481201171875,-0.1582698230266571,-0.02731105464324355,0.01779445375725627
1763692631196440300,9.4444404296875,-0.14371522797346115,0.031156039633601904,-0.03956548299528658
1763692631206398700,9.454398681640624,-0.13014789039194583,0.07546703665554523,-0.048204570394381877
1763692631216357600,9.464357666015625,-0.143495447742939,0.14498568630069494,-0.05900635225269943
1763692631226316800,9.47431689453125,-0.13051789274811743,0.1542152869388461,-0.048349093431606885
1763692631236275700,9.484275634765625,-0.0991010102212429,0.15876885858997702,-0.03403287371154874
1763692631246234600,9.494234619140625,-0.04207213205397129,0.13791384821832178,-0.018024097794666884
1763692631256193500,9.504193603515626,0.03942541693747043,0.09314882381856442,-0.014583675017207861
1763692631266151700,9.514151611328124,0.13797113136351108,0.01887318890467286,-0.02236117715090513
1763692631276110600,9.524110595703124,0.2605734286814928,-0.05383125116974115,-0.02735387087166309
1763692631286069500,9.534069580078125,0.38723289243578907,-0.07411971369981765,-0.05986877776831388
1763692631296028700,9.544028564453125,0.4769172550141811,-0.10504457492604852,-0.09969079280793666
1763692631305987600,9.553987548828125,0.5079740720570087,-0.13433145968690513,-0.15524126898571847
1763692631315946800,9.56394677734375,0.5270528665363788,-0.13882570236623287,-0.2051264859434217
1763692631325906000,9.573906005859374,0.505427894705534,-0.1046663892634213,-0.26065548094175756
1763692631335864800,9.58386474609375,0.4548837023824453,-0.0769466076888144,-0.3262281694401055
1763692631345823700,9.59382373046875,0.41070086178481574,-0.025771423985809085,-0.36070626616850493
1763692631355782700,9.60378271484375,0.37922961872220035,0.02499050274118781,-0.4114334138430655
1763692631365741800,9.613741943359376,0.3325648981809616,0.06792991914898157,-0.4358778270088136
1763692631375700700,9.62370068359375,0.26128011564612386,0.08989259850159287,-0.4179495177388191
1763692631385659600,9.63365966796875,0.22830431323945521,0.10075403812527656,-0.4061902524925768
1763692631395618600,9.64361865234375,0.21044307785630226,0.13313202076926828,-0.3631730216082185
1763692631405577700,9.65357763671875,0.19056524195373056,0.11437237524166703,-0.3209458451230079
1763692631415536600,9.66353662109375,0.15526421146988867,0.11502192519158125,-0.2833620374642312
1763692631425495600,9.67349560546875,0.17435060473382472,0.1342030110016465,-0.2896948206823319
1763692631435454700,9.683454833984374,0.20440438221395016,0.16834741879627108,-0.32722784800194205
1763692631445413600,9.69341357421875,0.2537561498820782,0.18596373950764536,-0.38142011450380087
1763692631455372800,9.703372802734375,0.29470249277651306,0.15505802137330174,-0.43690483196899293
1763692631465331700,9.713331787109375,0.2850532054215669,0.1439195183739066,-0.43737690646015104
1763692631475291000,9.723290771484375,0.27846038302779197,0.12334639368355274,-0.4390873636398464
1763692631485249800,9.733249755859376,0.2507218967527151,0.031740123131871224,-0.4047718370620161
1763692631495208700,9.743208740234374,0.22956045078039167,-0.082950816539675,-0.39074572286233306
1763692631505167600,9.753167724609375,0.24208441678881643,-0.14286109536215663,-0.473337496831268
1763692631515126800,9.763126708984375,0.25223288583755493,-0.11809037285149097,-0.5934396478965878
1763692631525085700,9.773085693359375,0.2091021846413612,-0.05309110032692551,-0.7437523744389415
1763692631535044600,9.783044677734376,0.11947744329571723,0.029196722259372473,-0.8654938171438872
1763692631545003800,9.793003662109374,0.01957271547615528,0.11051701498776674,-0.9729388042751699
1763692631554962700,9.802962646484374,-0.06677694972157477,0.18801672651469706,-1.0765566343337296
1763692631564921600,9.812921630859375,-0.10801672260463237,0.24495514991953968,-1.1796321742091327
1763692631574880500,9.822880615234375,-0.17845804005265234,0.29988223350197074,-1.2747455030336976
1763692631584840000,9.83283984375,-0.24740648859441278,0.34831250241100786,-1.3341457865074275
1763692631594798800,9.842798828125,-0.3214718417584896,0.40088118629902597,-1.3052145833164452
1763692631604757800,9.8527578125,-0.34192601624429225,0.4233082682929933,-1.2304399128392338
1763692631614716700,9.862716552734375,-0.37284663968682286,0.40866175717264414,-1.1616800456721335
1763692631624675800,9.87267578125,-0.3947913449913263,0.41326925096809863,-1.0854438512749969
1763692631634634800,9.882634765625,-0.34782501115500924,0.4116892883002758,-1.000394893412292
1763692631644593700,9.89259375,-0.31735330052375793,0.4183221504434943,-0.9495099248275161
1763692631654552600,9.902552490234376,-0.25877310126125813,0.39729835937619207,-0.9309037162959575
1763692631664511700,9.91251171875,-0.158100311678648,0.3653764499366283,-0.920219459870085
1763692631674470700,9.922470703125,-0.06850947260260581,0.3451400098547339,-0.8915323676332831
1763692631684429600,9.9324296875,-0.014463994160294532,0.3208759216919541,-0.8572846455946564
1763692631694388700,9.942388671875,0.07532265974879264,0.25070947566255924,-0.7922834733739494
1763692631704347600,9.95234765625,0.18392507328689098,0.17145546781420706,-0.7555611779153346
1763692631714306600,9.962306640625,0.30166648657023903,0.1289345690794289,-0.7403327021885663
1763692631724265700,9.972265625,0.44709202559292316,0.1086345622420311,-0.7267369422301649
1763692631734225000,9.982224853515625,0.598547492429614,0.05476634006276727,-0.7004541346561163
1763692631744183800,9.992183837890625,0.7139736145079135,-0.01141352054849267,-0.6771222858421504
1763692631754142700,10.002142822265625,0.8217781556665897,-0.06034107145518064,-0.6047720660328865
1763692631764101600,10.0121015625,0.9128530958205461,-0.10203004941046237,-0.532457721254602
1763692631774060800,10.022060791015624,0.9523854802638292,-0.1405406895905733,-0.44368740478120744
1763692631784019700,10.032019775390625,0.9196253664344549,-0.1735011482976377,-0.3445571684654802
1763692631793978600,10.041978515625,0.7505641002804041,-0.18295973538607357,-0.23028328516222535
1763692631803937800,10.051937744140625,0.5270020131319761,-0.1400315710246563,-0.13250197923742235
1763692631813896700,10.061896728515626,0.27024668143391606,-0.06041647477895021,-0.14624065479785203
1763692631823855600,10.071855712890626,0.015645897421240805,0.05947539453655481,-0.21124789143316447
1763692631833814500,10.081814453125,-0.16922259419560431,0.17240677718967198,-0.31467012585438786
1763692631843773700,10.091773681640625,-0.27392566220760345,0.25672522882074117,-0.4372444391869008
1763692631853732900,10.10173291015625,-0.33688042329251766,0.3119666390493512,-0.4851121057771146
1763692631863691800,10.11169189453125,-0.4303928197264671,0.30478344954699277,-0.5359330692149699
1763692631873650700,10.121650634765626,-0.5673346080422401,0.2585441148109734,-0.4933295702306553
1763692631883609900,10.13160986328125,-0.6644511664479971,0.1889404172308743,-0.43163799748197196
1763692631893568800,10.14156884765625,-0.6496160008877515,0.11870207500904797,-0.4251272273484617
1763692631903527700,10.151527587890625,-0.62802200871706,0.0411108858063817,-0.4037450512975454
1763692631913486600,10.161486572265625,-0.5558084208995103,-0.027379005312919615,-0.408027477857098
1763692631923445800,10.17144580078125,-0.4511047683656215,-0.10377966955676675,-0.39554161536935717
1763692631933404700,10.18140478515625,-0.32957682228088375,-0.19734116582944988,-0.4081800015376881
1763692631943363600,10.191363525390624,-0.11402560763061045,-0.2683208279378712,-0.47720918716546146
1763692631953322800,10.20132275390625,0.1606231081545353,-0.3300976312845945,-0.5491875414550305
1763692631963281700,10.21128173828125,0.3628589141577482,-0.38552535786554215,-0.5858434206139296
1763692631973240600,10.221240478515625,0.448780124810338,-0.4088791993156075,-0.5590770673066378
1763692631983199500,10.231199462890626,0.5597720638334751,-0.3981504461608827,-0.4906372258741408
1763692631993159000,10.241158935546874,0.6040671326339244,-0.39281434582993385,-0.3718920789083466
1763692632003117800,10.251117919921874,0.6397901879221201,-0.409649453035742,-0.26080321884937585
1763692632013076700,10.26107666015625,0.7158931843936442,-0.4359769034691155,-0.11542094357968308
1763692632023035600,10.27103564453125,0.7979384303957223,-0.4561432009242475,0.08809071844508871
1763692632032994800,10.280994873046875,0.7836386868864298,-0.5639658622615039,0.49995823112279175
1763692632042953700,10.29095361328125,0.6277835237860679,-0.5295613422259688,0.09071914898622781
1763692632052912600,10.30091259765625,0.4291816903710365,-0.10194266338795423,-0.2829196639915928
1763692632062871800,10.310871826171875,0.5366068768233061,-0.12198913385570048,0.4430681403717026
1763692632072830700,10.320830810546875,0.2276549094200134,-0.38675738387852904,0.5737951092932373
1763692632082789600,10.33078955078125,-0.015854571735858917,-0.43739451518207784,0.6773293527215719
1763692632092748500,10.34074853515625,-0.05506079296469688,-0.37104412030950185,0.7379303902871907
1763692632102707700,10.350707763671876,-0.1654635339230299,-0.34234731039628385,0.7959438955776393
1763692632112666600,10.36066650390625,-0.3174883250802755,-0.3537739826872945,0.8903645659629255
1763692632122625500,10.37062548828125,-0.4953653503745794,-0.3548449729196727,1.0121293164782226
1763692632132585700,10.380585693359375,-0.6983394075244664,-0.3422841820321977,1.059126629974693
1763692632142544600,10.390544677734376,-0.8866729449033737,-0.32454043554887174,1.0271962449677288
1763692632152503800,10.40050390625,-0.9277823694050311,-0.26239173014983536,0.849603443442285
1763692632162462700,10.410462646484374,-0.9133043467193841,-0.17258008792996404,0.6199471310719847
1763692632172421600,10.420421630859375,-0.868038971582055,-0.10323957133069633,0.4347445851951837
1763692632182380800,10.430380859375,-0.8015957838594913,-0.06271189223974943,0.3379560531673953
1763692632192339700,10.440339599609375,-0.7329822663605213,-0.07866787852346897,0.3262940742831677
1763692632202299400,10.45029931640625,-0.674084087190032,-0.15932853829935192,0.3974367449335754
1763692632212258300,10.46025830078125,-0.6124713883638382,-0.23382483022660017,0.4869571856545284
1763692632222217200,10.47021728515625,-0.5662000510543584,-0.2642904033780098,0.5419306291293352
1763692632232176400,10.48017626953125,-0.5304366637557745,-0.25532018432840703,0.5364165418829768
1763692632242135300,10.49013525390625,-0.4860562547594309,-0.1852861325070262,0.49463681690432126
1763692632252094200,10.50009423828125,-0.46142684041559695,-0.06485825661867857,0.44820532059706747
1763692632262053400,10.510053466796874,-0.4544400502681732,0.0065159577652812,0.4051796872105449
1763692632272012300,10.52001220703125,-0.4870914430260658,0.09269391965791582,0.4048950615828857
1763692632281971200,10.52997119140625,-0.5293354245156049,0.1583487334817648,0.41606984147205944
1763692632291930000,10.53993017578125,-0.5574164406180382,0.23450462918430565,0.39729554636459796
1763692632301889300,10.54988916015625,-0.560063155734539,0.3459560024127364,0.36882699224930254
1763692632311848400,10.559848388671876,-0.5286924504369497,0.449293042768538,0.30690329124517735
1763692632321807400,10.569807373046874,-0.4926075760990381,0.5891179853051901,0.2638280465632677
1763692632331766300,10.579766357421875,-0.36795360694825646,0.7126790446527301,0.18320673241708427
1763692632341725400,10.589725341796875,-0.27412615321576594,0.7643886274933814,0.19677343067778275
1763692632351684400,10.599684326171875,-0.1586702205210924,0.7916260323785245,0.22513799469564108
1763692632361644300,10.609644287109376,-0.06012625966072082,0.7676416379399598,0.31545729417670515
1763692632371603200,10.619603271484374,0.018935586616396903,0.7318598382018506,0.3972326737288385
1763692632381562000,10.62956201171875,0.14415478843450547,0.7211940672807395,0.43192594757787883
1763692632391521300,10.639521240234375,0.24888474445343017,0.7599604357875883,0.4564491981334984
1763692632401480200,10.649480224609375,0.3736702310293913,0.826085789732635,0.4685609666118398
1763692632411439000,10.659439208984375,0.4607283367574215,0.8688935425847768,0.5162334394235164
1763692632421398500,10.6693984375,0.5482914693981409,0.8669440159521996,0.5698498422661796
1763692632431357400,10.679357421875,0.6230681857019662,0.8358484743341803,0.6588325959138572
1763692632441316400,10.68931640625,0.6795365073770284,0.7896618926987051,0.7837821139451115
1763692632451275300,10.699275146484375,0.7614432216912508,0.7291416652843355,0.8407903146505356
1763692632461234400,10.709234375,0.8534627492189407,0.6348274509482086,0.9159598296642303
1763692632471193300,10.719193359375,0.9245844501465559,0.49373307299762964,0.9691864660043269
1763692632481152300,10.72915234375,0.961382441189885,0.3260436797186732,1.0071700866356492
1763692632491111200,10.739111083984374,0.9697855278760195,0.18987258351445196,0.9542166412137448
1763692632501070300,10.7490703125,1.0099579637885092,0.08132175403311848,0.8422402211979031
1763692632511029200,10.759029296875,1.0294231272369623,0.01041588781327009,0.671030106446892
1763692632520988200,10.76898828125,1.0320827018350363,-0.036871640801429746,0.48660106569323686
1763692632530948400,10.7789482421875,1.0069798247605561,-0.055263768190890544,0.3492388965409249
1763692632540907300,10.7889072265625,0.9392676400154828,-0.09980287488028407,0.23041703107710926
1763692632550866400,10.798866455078125,0.797549138817191,-0.1389442141793668,0.1538228900877759
1763692632560825300,10.808825439453125,0.6192167709708214,-0.16299728993996976,0.10775544131994247
1763692632570784300,10.8187841796875,0.4137269316077232,-0.21426965040713547,0.05747954454421997
1763692632580743400,10.828743408203126,0.2063052473992109,-0.20605214942097663,-0.0031068982404656707
1763692632590702300,10.838702392578124,0.025358313140273092,-0.16933613757267593,-0.08331486407909541
1763692632600661200,10.8486611328125,-0.15850187821686268,-0.07147782088890671,-0.15911948039224372
1763692632610620200,10.8586201171875,-0.34885084707140923,0.006350538070499897,-0.22046759173180908
1763692632620579300,10.868579345703125,-0.46414428268074986,0.0722277624733746,-0.2740416715363972
1763692632630538200,10.878538330078126,-0.5450409431695937,0.13237754914015532,-0.3264079464538023
1763692632640497200,10.8884970703125,-0.6341513052523136,0.14133549323007463,-0.33315756684448566
1763692632650456000,10.8984560546875,-0.732378455248475,0.08873860616087913,-0.29423405328085644
1763692632660415200,10.908415283203125,-0.8370879530012607,0.029957769759744405,-0.26164925948577
1763692632670374400,10.91837451171875,-0.8933084373950958,0.008597440214455127,-0.25867532170889895
1763692632680334300,10.928334228515626,-0.954288099014759,0.05192877854928374,-0.3054304056810215
1763692632690293200,10.938293212890626,-0.9844085119903087,0.12783362210020421,-0.3970199442936107
1763692632700252400,10.94825244140625,-0.957173299062252,0.283111715964973,-0.5012223327744751
1763692632710211300,10.95821142578125,-0.9641139119803905,0.41440366182550786,-0.6264987446725369
1763692632720170200,10.968170166015625,-0.991696330910921,0.5126335883006453,-0.7034121076788753
1763692632730129200,10.978129150390625,-1.0389140091598033,0.596215396220237,-0.7153275864001363
1763692632740088300,10.98808837890625,-1.0758353343218565,0.6699483025595545,-0.6858234786920249
1763692632750047200,10.998047119140624,-1.1148603537648916,0.7275124566473067,-0.6190785315439105
1763692632760006100,11.008006103515624,-1.141491755580902,0.7758104774788022,-0.5314252364017069
1763692632769965000,11.017965087890625,-1.0592816744059323,0.7580959570899606,-0.4801796543436125
1763692632779924500,11.027924560546875,-0.8604320037096739,0.74139105213508,-0.4837470645016059
1763692632789883400,11.03788330078125,-0.7212175942867994,0.7218633448444306,-0.48670416074153033
1763692632799842300,11.04784228515625,-0.5470896923929452,0.6869700183786451,-0.4966891463242471
1763692632809802200,11.05780224609375,-0.36909050202369686,0.6469727929025888,-0.46532768377903844
1763692632819761200,11.06776123046875,-0.26372107905745507,0.607883768312633,-0.41931828534137455
1763692632829720300,11.07772021484375,-0.17275485997498036,0.583129558545351,-0.3826578396052122
1763692632839679200,11.08767919921875,-0.06844166806340217,0.5920290504463017,-0.33086667942833153
1763692632849638100,11.09763818359375,-0.01896890436410904,0.6292093188054859,-0.27707506614923477
1763692632859597300,11.107597412109374,-0.027868834656476972,0.6702819184280931,-0.18872067353297023
1763692632869556200,11.11755615234375,-0.05308920063078403,0.6857528976738453,-0.0766969072440639
1763692632879515400,11.127515380859375,-0.1096317565858364,0.7025960420556366,0.030709674972435458
1763692632889474300,11.137474365234375,-0.15643793142437934,0.7360458917148411,0.1137626093128696
1763692632899433500,11.14743359375,-0.15859832432866094,0.7476767082758248,0.13716679271068424
1763692632909392400,11.157392333984374,-0.1386889242440462,0.7543038713306188,0.13093814572049303
1763692632919352300,11.167352294921875,-0.04514788623750209,0.7983768218129873,0.030378579854546114
1763692632929311200,11.177311279296875,0.14350187748372553,0.8842029015280306,-0.1426126918253489
1763692632939270100,11.187270263671875,0.3936602951347828,0.9625631754070519,-0.27256146118231117
1763692632949229300,11.197229248046876,0.5800742626279592,0.950407896580547,-0.2302249060384929
1763692632959188200,11.207188232421874,0.7252309215813875,0.8454065762743354,-0.11744161748602054
1763692632969147100,11.217147216796874,0.8107336145609617,0.6905242037288845,0.08004485683194361
1763692632979106300,11.227106201171875,0.8211094626247882,0.52928866276443,0.33903285208605227
1763692632989065500,11.2370654296875,0.9053197777062654,0.3497824288330972,0.5764671049814671
1763692632999024400,11.2470244140625,1.0234382076084614,0.09536007012724876,0.7930798113834112
1763692633008983300,11.2569833984375,1.0863842008650302,-0.13584113359749317,0.9495512066859751
1763692633018943200,11.266943115234374,1.1328870088428258,-0.3183955030530691,1.08983463357985
1763692633028902400,11.27690234375,1.1416121670901775,-0.4855684712424874,1.1784091352201997
1763692633038861300,11.286861328125,1.126756543263793,-0.6091684012956917,1.200549216966331
1763692633048820200,11.2968203125,1.122699961349368,-0.6600890257157385,1.1439168638359754
1763692633058779100,11.306779052734376,1.088611229264736,-0.697670714482665,1.0158831160537898
1763692633068738300,11.31673828125,0.9457324521154165,-0.7372717802479862,0.8695606281913817
1763692633078697200,11.326697265625,0.7242138534933328,-0.7342486330345273,0.7433251620028167
1763692633088656100,11.33665625,0.4391986419945955,-0.7204711598336696,0.6109500970806926
1763692633098615300,11.346615234375,0.1806692863613367,-0.6588631371825933,0.4847988385768607
1763692633108574500,11.356574462890626,-0.028287352329492567,-0.5563255766414106,0.3552371871076524
1763692633118534400,11.366534423828124,-0.17392741088569164,-0.463212408658117,0.216151372500509
1763692633128493300,11.376493408203125,-0.35178923861086364,-0.34686303425505755,0.08644090541144832
1763692633138452200,11.3864521484375,-0.47073301342129703,-0.27639862819239497,-0.04346778766345232
1763692633148411400,11.396411376953125,-0.6001116730064153,-0.17911694235280154,-0.1818354988628067
1763692633158370300,11.406370361328126,-0.6831260563015937,-0.11251578758955001,-0.34034473840221763
1763692633168329200,11.4163291015625,-0.6700543932825327,-0.05247238390669226,-0.46390119463987645
1763692633178288000,11.4262880859375,-0.6092033264786004,-0.03326192587167025,-0.5548740261262283
1763692633188247300,11.436247314453125,-0.4890390699625015,-0.06252250714749097,-0.6115415236352011
1763692633198206200,11.446206298828125,-0.35587153948843475,-0.12854951528459788,-0.6245443957343697
1763692633208166700,11.456166748046876,-0.2077314808100462,-0.1833332448735833,-0.5877291247626766
1763692633218125600,11.46612548828125,-0.012948913422226906,-0.27304741806834937,-0.5269963871087878
1763692633228084500,11.47608447265625,0.1077975268959999,-0.36002369073182344,-0.3869735473798588
1763692633238043600,11.486043701171875,0.1659334895223379,-0.46883594762831926,-0.22301057247919961
1763692633248002600,11.49600244140625,0.22010697825849054,-0.5848508293800055,-0.07477416358713526
1763692633257961500,11.50596142578125,0.25943770264983174,-0.6774496181003749,0.04069130412086379
1763692633267920400,11.51592041015625,0.310312734362483,-0.7176278992317616,0.11942953076707198
1763692633277879600,11.525879638671874,0.2940706246137619,-0.7353294140085578,0.1935370608387515
1763692633287839700,11.53583984375,0.25588205599486824,-0.7502779768154024,0.23860897749690338
1763692633297798700,11.545798583984375,0.15528291617035864,-0.7748027617409825,0.2905724802996963
1763692633307757600,11.555757568359375,0.08120937969982624,-0.7571668595463037,0.3191745246015489
1763692633317716500,11.565716552734376,0.04608195221722126,-0.7370765499368309,0.33710414904579517
1763692633327675600,11.575675537109374,0.017480711632966994,-0.7335401925042271,0.35263635695949197
1763692633337634600,11.585634521484375,0.0398497798293829,-0.7583458401978015,0.3201594805182889
1763692633347593500,11.595593505859375,0.10512217020690441,-0.7582756975710392,0.28718291092664
1763692633357552600,11.605552734375,0.1818628800600767,-0.7521461087748408,0.21465159892942756
1763692633367511600,11.615511474609375,0.22791794427037237,-0.7912485773682594,0.18230494300546124
1763692633377471500,11.625471435546874,0.22839900578558445,-0.8761030355721712,0.21858952290024608
1763692633387430400,11.635430419921875,0.2266238128066063,-0.9273653130367397,0.22960279208477585
1763692633397389600,11.6453896484375,0.27796938464045523,-0.8909121899083257,0.17942171571934595
1763692633407348700,11.6553486328125,0.36970074287652965,-0.8270584341570735,0.11397755810464731
1763692633417307600,11.6653076171875,0.43608664745390413,-0.7518535555690526,0.03400310876094736
1763692633427266600,11.6752666015625,0.49885319249033927,-0.7135790622323751,-0.052766571947140614
1763692633437225500,11.6852255859375,0.568767271193862,-0.6482888439372182,-0.08810928614824079
1763692633447185400,11.695185302734375,0.6555255171924829,-0.6368292922899127,-0.12259604110713117
1763692633457144600,11.70514453125,0.6687006405860185,-0.673362202656269,-0.10693682754659094
1763692633467103500,11.715103515625,0.6887889043688774,-0.7279866500303149,-0.04272623031483963
1763692633477062400,11.7250625,0.7378349670886993,-0.853726953113079,0.01755539343752898
1763692633487021600,11.735021484375,0.7637935842096805,-0.9419047105208038,0.06488136349963024
1763692633496980500,11.74498046875,0.7870733375102281,-0.9902192440956831,0.060253365772264075
1763692633506939600,11.754939697265625,0.7287713706672191,-1.0194807021543384,0.05153074654187075
1763692633516898600,11.764898681640625,0.6308370661377907,-0.9728358553573488,-0.00934549123593606
1763692633526858500,11.7748583984375,0.4487146583586931,-0.8723837227880954,-0.09861438661492429
1763692633536817700,11.784817626953124,0.13431553146541117,-0.7483946472868322,-0.20777298186421392
1763692633546776600,11.794776611328125,-0.2957441107839346,-0.5747489759519696,-0.28941930994288995
1763692633556735500,11.804735595703125,-0.7275830376654863,-0.3357861983150244,-0.37382421601470556
1763692633566694400,11.8146943359375,-0.9452882154792547,-0.18919921429753303,-0.4066849406743422
1763692633576653600,11.824653564453126,-1.1891022325396536,-0.11608926216214895,-0.4298603202849626
1763692633586612500,11.834612548828124,-1.327671329796314,-0.02716653160601854,-0.5013670750074088
1763692633596572700,11.84457275390625,-1.3644354185700416,0.05475976419150829,-0.5602262738743796
1763692633606531600,11.854531494140625,-1.3619026852220295,0.12520517329275607,-0.6253032512776553
1763692633616490500,11.864490478515625,-1.2808984727054833,0.17175532754361628,-0.6908621304463595
1763692633626449700,11.87444970703125,-1.2211445534884928,0.2258908223569393,-0.6827063695847988
1763692633636408600,11.88440869140625,-1.10607908141613,0.2284136188328266,-0.6309438875131309
1763692633646367500,11.894367431640624,-0.8680097454875707,0.17658932357132434,-0.5925930775372311
1763692633656326700,11.90432666015625,-0.5850298392087221,0.11844678507372736,-0.5769830186143518
1763692633666286600,11.91428662109375,-0.32437107033133505,0.07020341703891754,-0.5289084312751889
1763692633676245500,11.92424560546875,-0.07480828048586845,-0.026894436666369436,-0.4436684808850288
1763692633686204400,11.934204345703124,0.09307575858235359,-0.1963259974375367,-0.3103547834059223
1763692633696163600,11.94416357421875,0.21867840676009653,-0.30570553282797336,-0.1583724796835333
1763692633706122800,11.954122802734375,0.2984977934062481,-0.37759909491091964,-0.05389275383232161
1763692633716081700,11.96408154296875,0.3550163839638233,-0.3896083893954754,-0.025477573872078208
1763692633726040600,11.97404052734375,0.3694657650768757,-0.34325419610813257,-0.03337898551323451
1763692633735999500,11.98399951171875,0.31785248221755025,-0.27431539217755196,-0.0884731236251071
1763692633745959400,11.99395947265625,0.2864525508254766,-0.1661056312188506,-0.19559318965096026
1763692633755918600,12.003918701171875,0.22903204299211502,-0.07747399256378412,-0.2844147796538658
1763692633765877500,12.01387744140625,0.161768771058321,-0.03419409215524793,-0.3169664200980216
1763692633775836400,12.02383642578125,0.17136077526807783,0.03317234789207577,-0.37825993343982844
1763692633785795300,12.03379541015625,0.2680073780745268,0.13797697658240796,-0.4411022836588323
1763692633795754500,12.04375439453125,0.3192506585776806,0.16456453925669193,-0.4176598140772432
1763692633805714700,12.053714599609375,0.3780173203229904,0.10488310075402259,-0.33768278918396677
1763692633815673600,12.063673583984375,0.44072716673612594,0.012201602186262607,-0.23657767259869722
1763692633825632500,12.073632568359375,0.43542087702155113,-0.1018587844967842,-0.08988324615135788
1763692633835591700,12.083591796875,0.4226940819174051,-0.2028960234776139,0.002675722015276551
1763692633845550600,12.093550537109374,0.42282793743014335,-0.27826310689002276,0.04071118243169039
1763692633855509500,12.103509521484375,0.38811376692354677,-0.25321400582939385,-0.025223653909936545
1763692633865468400,12.113468505859375,0.3129097651183605,-0.1576664503060281,-0.13245083357207477
1763692633875427600,12.123427490234375,0.18359423389732837,-0.07352350137233733,-0.24780140619613228
1763692633885387800,12.1333876953125,0.07342121004164219,0.008063333337754011,-0.34452059931475665
1763692633895346700,12.1433466796875,-0.04404372438788414,0.06249620366245508,-0.4370560039427131
1763692633905305600,12.1533056640625,-0.14493629420101642,0.0902560249865055,-0.5210442007061094
1763692633915264500,12.163264404296875,-0.21304010861217976,0.07887509153336286,-0.529685480062291
1763692633925223700,12.1732236328125,-0.24352292515933513,0.024750410374999046,-0.5005620057022199
1763692633935182600,12.1831826171875,-0.22722703939676284,-0.08012099994122981,-0.458290040227212
1763692633945141500,12.1931416015625,-0.179670922973752,-0.16723960368484259,-0.43629144931100305
1763692633955101400,12.203101318359375,-0.1147387243360281,-0.19997458307296037,-0.48842597956545647
1763692633965060400,12.213060302734375,-0.007833177843689918,-0.16567045467197894,-0.5896753999922424
1763692633975019500,12.22301953125,0.08922668193876743,-0.091984894605726,-0.6639473085790872
1763692633984978400,12.232978515625,0.20277531970739363,-0.06661050711348653,-0.6584067717172205
1763692633994937600,12.2429375,0.38747020832300183,-0.12402034742236137,-0.5957401433913037
1763692634004896800,12.252896728515625,0.5288023405522108,-0.17948825988322495,-0.4539125192627311
1763692634014856700,12.262856689453125,0.7300263391643762,-0.2700947057425976,-0.3397986488267779
1763692634024815600,12.272815673828125,0.9206757522702217,-0.3757983290992677,-0.22644401752660048
1763692634034774500,12.2827744140625,1.1060457636684178,-0.48811187211498613,-0.12606496845986692
1763692634044733400,12.2927333984375,1.2666115886777638,-0.5143009369909763,-0.045193204950261856
1763692634054692600,12.302692626953124,1.3743518324285744,-0.557508941207081,0.04683702663453296
1763692634064651500,12.312651611328125,1.3882459177464246,-0.6237457927025855,0.14904005799172446
1763692634074610400,12.3226103515625,1.3128098607510328,-0.6223873638309538,0.29172945004878564
1763692634084570600,12.332570556640626,1.205099427616596,-0.678630790708959,0.4094597026173025
1763692634094529500,12.342529541015624,0.9593950667649507,-0.7362737091213464,0.5087493672784418
1763692634104488700,12.35248876953125,0.5962263560056686,-0.6640325026445091,0.5773491485130041
1763692634114447600,12.362447509765625,0.22761165480017662,-0.5178519074708223,0.562648569117859
