time,seconds_elapsed,z,y,x
1763692621800945400,0.0489453125,9.280075272369384,2.4794950942993164,2.008585555267334
1763692621810903600,0.058903564453125,9.241019857788086,2.5661352668762207,2.0609587165832517
1763692621820862500,0.068862548828125,9.281571648406981,2.587982357025146,2.059013427734375
1763692621830821600,0.078821533203125,9.347711469268798,2.554313896179199,1.994519620513916
1763692621840780500,0.088780517578125,9.470264666748045,2.5526678825378415,1.9087772735595703
1763692621850738400,0.098738525390625,9.603891046905517,2.539050860595703,1.836203035736084
1763692621860697600,0.108697509765625,9.688286655426024,2.535908470916748,1.760187133026123
1763692621870656500,0.118656494140625,9.724648593139648,2.498947982788086,1.7206828056335448
1763692621880615400,0.128615478515625,9.69831237487793,2.450914311981201,1.6859668815612792
1763692621890574300,0.13857421875,9.664494276428222,2.4621371322631833,1.6298527801513671
1763692621900532500,0.148532470703125,9.577854103851317,2.431760698699951,1.6123451805114746
1763692621910491400,0.158491455078125,9.498695811462401,2.3403321228027343,1.6979378898620605
1763692621920450600,0.168450439453125,9.570821136474608,2.4723124893188477,1.6711527587890624
1763692621930409500,0.178409423828125,9.569474398040771,2.532766081237793,1.5897499023437498
1763692621940367400,0.188367431640625,9.602693946075439,2.5763106239318847,1.5400702178955077
1763692621950326500,0.198326416015625,9.631574003601074,2.6048914062499997,1.4645032279968262
1763692621960285400,0.208285400390625,9.701754039764404,2.6479870361328124,1.3377601776123047
1763692621970244600,0.21824462890625,9.779715231323241,2.6809073089599607,1.2609960868835448
1763692621980202500,0.228202392578125,9.821314485168456,2.77727392578125,1.197100830078125
1763692621990161700,0.23816162109375,9.880271701049804,2.909403929901123,1.1646294700622557
1763692622000120600,0.24812060546875,9.952696301269532,2.999785042572021,1.159990704345703
1763692622010079700,0.258079833984375,9.968408249664305,3.113659259033203,1.1679214973449705
1763692622020037600,0.26803759765625,9.839420635223387,3.142240041351318,1.1563994018554686
1763692622029996500,0.27799658203125,9.537152675628661,3.095104196166992,1.1468225952148436
1763692622039955700,0.287955810546875,9.214234726715087,3.047818713378906,1.165228020477295
1763692622049914600,0.29791455078125,8.964339928436278,2.98152925491333,1.2319663917541503
1763692622059872500,0.30787255859375,8.932766394042968,2.8369793296813963,1.3052888175964354
1763692622069831700,0.317831787109375,9.03332286376953,2.614318575286865,1.4344260696411133
1763692622079790600,0.32779052734375,9.166051418304443,2.3249194496154786,1.5830162101745604
1763692622089749500,0.33774951171875,9.38512087020874,2.0700866104125977,1.7018284675598143
1763692622099707600,0.347707763671875,9.598803368377684,1.9143138648986815,1.7570447433471679
1763692622109666600,0.35766650390625,9.690231944274903,1.8956091644287107,1.7524059776306151
1763692622119625500,0.36762548828125,9.62169792175293,2.0183119995117185,1.7399860565185545
1763692622129584600,0.377584716796875,9.51201355819702,2.18321263885498,1.7576432937622068
1763692622139542500,0.38754248046875,9.382577030944823,2.307411849975586,1.7426795333862304
1763692622149501400,0.39750146484375,9.221118056488036,2.421585341644287,1.7012299171447753
1763692622159460600,0.407460693359375,9.216479290771483,2.532616443634033,1.6617255897521972
1763692622169419500,0.41741943359375,9.268852452087401,2.46438169631958,1.5888520767211913
1763692622179377700,0.427377685546875,9.346065455627441,2.29843359375,1.4662988792419434
1763692622189336000,0.437336181640625,9.48687444076538,2.1888988677978514,1.3908815269470214
1763692622199295000,0.447294921875,9.629030164337157,2.1980267616271973,1.3513771995544432
1763692622209254100,0.457254150390625,9.74245546798706,2.251597023773193,1.2491747161865234
1763692622219213000,0.467213134765625,9.81936919631958,2.264615495300293,1.0904092185974121
1763692622229171000,0.4771708984375,9.848398891448975,2.2315455848693846,0.902763663482666
1763692622239130000,0.487130126953125,9.873238733673094,2.197428211212158,0.7719803977966309
1763692622249089000,0.497089111328125,9.870844532012939,2.1812673500061033,0.7275380294799805
1763692622259048000,0.5070478515625,9.810690215301513,2.1152771667480468,0.7561188117980957
1763692622269006000,0.517006103515625,9.752331549835205,2.0157681602478026,0.8547299926757812
1763692622278965000,0.526965087890625,9.664344638824462,1.9056348838806152,1.009455274963379
1763692622288924000,0.536923828125,9.489867192840576,1.8124106567382812,1.211166764831543
1763692622298883000,0.546883056640625,9.332897346496582,1.711554911804199,1.386093123626709
1763692622308841000,0.556841064453125,9.230245950317382,1.6659154426574707,1.4815619148254393
1763692622318800000,0.5667998046875,9.139565562438964,1.6831237670898436,1.4586673614501953
1763692622328759000,0.576759033203125,9.043947133636474,1.7464204734802244,1.4223054237365722
1763692622338718000,0.586718017578125,8.900145396423339,1.8833388809204101,1.41093296585083
1763692622348675800,0.59667578125,8.834155213165282,2.0431518417358396,1.3826514587402343
1763692622358635000,0.606635009765625,8.856750491333008,2.1339818672180173,1.3159130874633789
1763692622368594000,0.616593994140625,8.909722203063964,2.1384709953308105,1.2592004356384277
1763692622378553000,0.626552978515625,9.002796792602538,2.070834798431396,1.2110171272277832
1763692622388511000,0.636510986328125,9.102605074310302,2.005293527984619,1.1647791076660157
1763692622398470000,0.646469970703125,9.153182584381103,1.954865655517578,1.1236287666320801
1763692622408429000,0.656428955078125,9.11083514251709,1.942146459197998,1.105073703765869
1763692622418388200,0.66638818359375,9.08479819946289,1.954865655517578,1.0541969184875488
1763692622428346000,0.67634619140625,9.080009796142578,1.986139914703369,0.963366893005371
1763692622438305000,0.686304931640625,9.118017747497557,2.0031986015319823,0.9252093040466308
1763692622448264200,0.69626416015625,9.147346717834472,1.993172882080078,0.8692448402404784
1763692622458223000,0.70622314453125,9.17368293609619,1.9922750564575193,0.8212111694335937
1763692622468181200,0.71618115234375,9.266009337615966,1.9731214431762694,0.7881412590026855
1763692622478140200,0.72614013671875,9.376142613983154,1.973271080780029,0.7326257080078125
1763692622488099000,0.73609912109375,9.46233387374878,1.9874866531372068,0.6187514915466308
1763692622498058000,0.74605810546875,9.56393780670166,2.00469497756958,0.5499181938171387
1763692622508016000,0.75601611328125,9.663895726013182,1.9819500617980956,0.5407902999877929
1763692622517975000,0.76597509765625,9.718363813781737,1.924938134765625,0.5779004257202148
1763692622527934000,0.775933837890625,9.736469963836669,1.8366519485473631,0.6404489440917969
1763692622537893000,0.78589306640625,9.794828629302978,1.7763479942321776,0.6941688438415526
1763692622547851000,0.79585107421875,9.810690215301513,1.7393875061035156,0.7000047103881836
1763692622557810200,0.80581005859375,9.798868844604492,1.7969979835510252,0.6549637916564941
1763692622567769000,0.81576904296875,9.750386260986328,1.9093758239746093,0.5868786819458007
1763692622577728000,0.82572802734375,9.662848262786865,2.0108301193237303,0.5696703575134276
1763692622587686100,0.83568603515625,9.524433479309081,2.119018106842041,0.5859808563232421
1763692622597645000,0.84564501953125,9.479542198181152,2.218527113342285,0.6040870063781738
1763692622607604000,0.85560400390625,9.475801258087158,2.262670206451416,0.6021417175292968
1763692622617563100,0.865563232421875,9.438840769958496,2.312499528503418,0.6245873580932617
1763692622627522000,0.87552197265625,9.431957440185545,2.3095067764282224,0.6802525466918945
1763692622637480000,0.88547998046875,9.411756363677977,2.27284556350708,0.7261912910461426
1763692622647439000,0.895439208984375,9.38571942062378,2.254290500640869,0.7683890953063964
1763692622657398000,0.90539794921875,9.362076679229736,2.274192301940918,0.8034042945861816
1763692622667356000,0.91535595703125,9.419088606262207,2.3184850326538085,0.8134300140380859
1763692622677315000,0.925315185546875,9.555109188079834,2.307860762786865,0.8179191421508789
1763692622687274000,0.93527392578125,9.706243167877197,2.2834698333740233,0.7827543052673339
1763692622697233000,0.94523291015625,9.880421338653564,2.2827216453552244,0.7725789482116698
1763692622707192000,0.955192138671875,10.03619408416748,2.2156839988708494,0.788440534210205
1763692622717150000,0.96514990234375,10.137648379516602,2.1944354591369626,0.7685387329101562
1763692622727108900,0.97510888671875,10.205434214019775,2.2201731269836427,0.7760206130981445
1763692622737068000,0.985068115234375,10.119991142272948,2.2789807052612305,0.7942764007568359
1763692622747027200,0.995027099609375,9.992350266265868,2.3974936874389647,0.8007108177185058
1763692622756984800,1.00498486328125,9.81233622894287,2.5149592063903805,0.8119336380004882
1763692622766944000,1.014944091796875,9.655067107391357,2.611774736022949,0.7944260383605957
1763692622776903200,1.024903076171875,9.54448491821289,2.6351182022094726,0.7564180870056152
1763692622786862000,1.034862060546875,9.498097261047363,2.62389538192749,0.7508814956665039
1763692622796820000,1.044820068359375,9.498396536254882,2.618358790588379,0.7478887435913085
1763692622806779100,1.054779052734375,9.485078789520264,2.6038439430236813,0.7486369316101074
1763692622816738000,1.064738037109375,9.46083749771118,2.5499744056701656,0.7588122886657714
1763692622826697200,1.074697265625,9.426271211242675,2.4616882194519043,0.7932289375305175
1763692622836655000,1.084655029296875,9.430012151336669,2.363525951385498,0.8375216682434081
1763692622846614000,1.094614013671875,9.44871685180664,2.2960393920898436,0.8476970252990722
1763692622856573200,1.1045732421875,9.487772266387939,2.2533926750183104,0.843956085205078
1763692622866532000,1.114531982421875,9.535207386779785,2.26641114654541,0.8285434120178222
1763692622876490200,1.124490234375,9.539097964477538,2.314744092559814,0.8014590057373047
1763692622886449200,1.13444921875,9.524134204101562,2.371007831573486,0.7936778503417968
1763692622896408000,1.144407958984375,9.492411032104492,2.4097639709472656,0.8135796516418456
1763692622906367000,1.154366943359375,9.366865082550047,2.426523382568359,0.8572738319396972
1763692622916325000,1.1643251953125,9.275735781860352,2.4850316856384276,0.9198223503112792
1763692622926284000,1.174283935546875,9.179369165039063,2.5623943267822265,0.9709984107971191
1763692622936243000,1.184242919921875,9.117269559478759,2.5987562644958495,1.014542953491211
1763692622946202000,1.1942021484375,9.146897805023192,2.712780118560791,1.1094131942749024
1763692622956160000,1.204159912109375,9.223961170959472,2.736722135162353,1.152957736968994
1763692622966119200,1.214119140625,9.319729237365722,2.664896085357666,1.145326219177246
1763692622976078000,1.224078125,9.355342987060546,2.627037771606445,1.158793603515625
1763692622986037000,1.234037109375,9.351901322174072,2.6568156547546384,1.2161048057556152
1763692622995995100,1.2439951171875,9.348758932495116,2.701856573486328,1.2705728935241698
1763692623005954000,1.2539541015625,9.361927041625975,2.6912323036193846,1.300500414276123
1763692623015913000,1.263912841796875,9.350105670928954,2.6982652709960937,1.3003507766723632
1763692623025872000,1.273871826171875,9.344569079589844,2.7307366310119625,1.3205518531799316
1763692623035830000,1.283830078125,9.3209263381958,2.7253496772766113,1.3238438804626464
1763692623045789000,1.293788818359375,9.267954626464844,2.7220576499938964,1.3156138122558594
1763692623055748000,1.303748046875,9.18041662826538,2.6815058593749996,1.3007996894836424
1763692623065707000,1.31370703125,9.134178608703612,2.627037771606445,1.307383744049072
1763692623075665000,1.323664794921875,9.15587606124878,2.5746646102905273,1.3673884231567381
1763692623085624000,1.3336240234375,9.263016585540772,2.530521517181396,1.4124293418884277
1763692623095583000,1.3435830078125,9.366565807342528,2.470067925262451,1.4526818572998046
1763692623105542000,1.3535419921875,9.388562535095215,2.3786393493652342,1.4606126502990722
1763692623115500000,1.3635,9.288454978179931,2.3567922592163084,1.4661492416381836
1763692623125459000,1.373458984375,9.166949243927002,2.416946575927734,1.4223054237365722
1763692623135417900,1.38341796875,9.132981507873534,2.5597008499145506,1.3491326354980469
1763692623145377300,1.393377197265625,9.121459412384032,2.7199627235412596,1.237203707885742
1763692623155335000,1.4033349609375,9.096170657348631,2.8541876541137694,1.1245265922546386
1763692623165293800,1.4132939453125,9.117868109893799,2.9478607940673824,1.0625766242980956
1763692623175253200,1.423253173828125,9.157522074890137,3.0054712715148924,0.988356372833252
1763692623185212200,1.433212158203125,9.297582872009277,3.017143004608154,0.9639654434204101
1763692623195170300,1.44317041015625,9.523386016082764,2.9273604423522945,0.9922469505310058
1763692623205129500,1.45312939453125,9.853935482788085,2.78355870513916,0.9736918876647949
1763692623215088400,1.46308837890625,10.123582444763183,2.5761609863281247,0.8934861320495605
1763692623225047300,1.47304736328125,10.356568193817138,2.4774001678466795,0.9276035057067871
1763692623235005400,1.48300537109375,10.239850862884522,2.436249826812744,1.0136451278686522
1763692623244964400,1.49296435546875,9.873089096069336,2.43265852432251,1.0931026954650878
1763692623254923300,1.50292333984375,9.51889688796997,2.520944710540771,1.1746551895141601
1763692623264882400,1.51288232421875,9.228899211883544,2.6440964584350586,1.2439374000549315
1763692623274840300,1.52284033203125,8.953117108154297,2.739565249633789,1.2919710708618164
1763692623284799200,1.53279931640625,8.75230344390869,2.829497449493408,1.3877391372680663
1763692623294758400,1.54275830078125,8.623764742279052,2.874388730621338,1.4791677131652832
1763692623304717300,1.55271728515625,8.568997379302978,2.8573300437927243,1.5586252807617187
1763692623314675500,1.562675537109375,8.58066911239624,2.784007617950439,1.6163853958129881
1763692623324634400,1.57263427734375,8.569147016906738,2.662801158905029,1.6428712516784667
1763692623334593500,1.582593505859375,8.540566234588622,2.6123732864379883,1.6683096443176268
1763692623344552400,1.592552490234375,8.575132521057128,2.6529250770568846,1.6627730529785156
1763692623354510300,1.60251025390625,8.570194480133056,2.709338453674316,1.6316484313964843
1763692623364469500,1.612469482421875,8.609399532318115,2.774430811309814,1.6180314094543455
1763692623374428400,1.622428466796875,8.709058176422118,2.807799996948242,1.637633935546875
1763692623384386300,1.63238623046875,8.916156620025633,2.807799996948242,1.6641197914123533
1763692623394345500,1.642345458984375,9.16111337738037,2.7479449554443356,1.6699556579589843
1763692623404304400,1.652304443359375,9.356540087890625,2.616862414550781,1.6347908210754394
1763692623414263600,1.662263671875,9.503933127593994,2.5698762069702146,1.633144807434082
1763692623424221400,1.672221435546875,9.533411735534667,2.5899276458740235,1.646462554168701
1763692623434180600,1.6821806640625,9.524583116912842,2.5938182235717773,1.7075146965026855
1763692623444139500,1.692139404296875,9.535207386779785,2.5911247467041014,1.7848773376464844
1763692623454098400,1.702098388671875,9.590722937774657,2.5585037490844726,1.828421880340576
1763692623464056600,1.712056640625,9.695469260406494,2.5157073944091795,1.8837877937316894
1763692623474015500,1.722015380859375,9.832986218261718,2.4850316856384276,1.8755577255249023
1763692623483974400,1.731974365234375,9.912443785858153,2.4597429306030274,1.8324620956420898
1763692623493933300,1.741933349609375,9.977536143493651,2.4411878677368164,1.7989432723999021
1763692623503891500,1.751891357421875,9.989058238983153,2.1918916198730467,1.617732134246826
1763692623513850400,1.761850341796875,10.033799882507324,1.654842259979248,1.1843816337585449
1763692623523809500,1.7718095703125,10.21545993347168,2.098517755126953,1.753004528045654
1763692623533768400,1.7817685546875,10.043077413940429,1.8595465019226074,1.7310078002929687
1763692623543726300,1.791726318359375,9.628132338714599,1.8549077362060546,1.7414824325561522
1763692623553685500,1.801685546875,9.21962168045044,1.9387047943115234,1.8561048370361326
1763692623563644400,1.81164453125,9.051877926635742,2.3822306518554686,1.854009910583496
1763692623573603300,1.821603271484375,7.850886518859863,1.908178723144531,1.728314323425293
1763692623583561500,1.8315615234375,8.036137872314452,2.206406467437744,1.8168997848510742
1763692623593520400,1.841520263671875,8.724321212005615,2.2575825279235837,1.7348983779907226
1763692623603479300,1.851479248046875,9.031826487731934,2.2233155166625975,1.5411176811218261
1763692623613438500,1.8614384765625,9.178620977020262,2.7832594299316407,1.4960767623901365
1763692623623396400,1.871396240234375,9.386617246246338,3.3571196403503416,1.4606126502990722
1763692623633355300,1.881355224609375,9.59521206588745,3.69021294631958,1.4841057540893554
1763692623643314400,1.891314453125,9.702502227783203,4.004302276611328,1.6096517036437987
1763692623653273300,1.9012734375,9.524583116912842,4.212148908233642,1.654842259979248
1763692623663231500,1.9112314453125,9.27079774093628,4.140173220825195,1.5906477279663085
1763692623673190400,1.9211904296875,9.084199649047852,3.931428763580322,1.527650296783447
1763692623683149300,1.9311494140625,8.973168547058105,3.6414310874938964,1.6181810470581053
1763692623693108200,1.941108154296875,9.017610915374755,3.2748189582824705,1.7411831573486327
1763692623703066400,1.95106640625,9.483881688690184,3.068917615509033,2.0561703132629394
1763692623713025300,1.961025390625,9.991901353454589,3.2513258544921873,2.859574607849121
1763692623722984200,1.970984130859375,9.422230995941161,3.402010921478271,2.677166368865967
1763692623732943600,1.980943603515625,9.099612322235107,2.6809073089599607,1.6469114669799805
1763692623742901200,1.9909013671875,9.192387636566162,2.024896054077148,1.3007996894836424
1763692623752860400,2.0008603515625,9.460089309692382,2.205209366607666,1.2431892120361328
1763692623762819600,2.010819580078125,9.535955574798583,2.4549545272827147,0.9778817405700683
1763692623772778500,2.020778564453125,9.374197325134277,2.223614791870117,0.751480046081543
1763692623782736400,2.030736328125,9.344718717193603,2.058564514923096,0.8074445098876952
1763692623792695600,2.040695556640625,9.418490055847167,2.1698948921203614,1.1929109771728514
1763692623802654500,2.050654541015625,9.382277755737304,2.3331495178222657,1.5499462997436522
1763692623812613400,2.06061328125,9.358186101531983,2.5911247467041014,1.8351555725097655
1763692623822571500,2.070571533203125,9.179518802642821,2.9179332733154295,1.9586065956115721
1763692623832530400,2.080530517578125,8.831910649108886,3.164236769104004,1.867477294921875
1763692623842489600,2.090489501953125,8.47233148727417,3.464110527038574,1.7289128738403319
1763692623852448500,2.100448486328125,8.183381274414062,3.7976527458190916,1.5363292778015136
1763692623862406400,2.110406494140625,8.206724740600585,3.999813148498535,1.3967173934936523
1763692623872365600,2.120365478515625,8.56750100326538,3.5257612197875976,1.6678607315063476
1763692623882324500,2.130324462890625,8.59907453765869,3.0138509773254394,1.6072575019836426
1763692623892283400,2.140283447265625,8.48475140838623,2.9617770912170407,0.7369651985168456
1763692623902241500,2.150241455078125,8.402001813507079,3.049165451812744,0.7136217323303222
1763692623912200400,2.160200439453125,8.515427117156982,3.352331237030029,0.7766191635131835
1763692623922159400,2.170159423828125,8.811709572601318,3.2386066581726074,0.28865093765258787
1763692623932117500,2.180117431640625,9.269151727294922,3.01340206451416,-0.15607202072143553
1763692623942076400,2.190076416015625,9.781959795379638,2.96881005859375,-0.25917232971191406
1763692623952035300,2.200035400390625,10.101585717010497,3.005171996307373,-0.22400749282836913
1763692623961994500,2.209994384765625,10.0617821144104,3.0168437294006347,-0.22041619033813475
1763692623971952400,2.219952392578125,10.022128149414062,3.011456775665283,-0.1396118843078613
1763692623981911300,2.229911376953125,10.169221913909912,2.925864066314697,-0.16654665298461913
1763692623991870500,2.239870361328125,10.180594371795653,2.797774277496338,-0.3151367935180664
1763692624001829400,2.249829345703125,10.040084661865233,2.8030115936279296,-0.4155436256408691
1763692624011787500,2.25978759765625,10.088866520690917,2.8076503593444824,-0.43409868850708005
1763692624021746400,2.269746337890625,10.29805989074707,2.682702960205078,-0.38636429290771485
1763692624031705300,2.279705322265625,10.250774407958984,2.5119664543151856,-0.239420166015625
1763692624041664300,2.289664306640625,10.160991845703125,2.549076580047607,-0.10594342346191406
1763692624051622400,2.299622314453125,10.071508558654784,2.6987141838073727,-0.09606734161376952
1763692624061581300,2.309581298828125,9.95299557647705,2.8570307685852048,-0.1924339584350586
1763692624071540500,2.31954052734375,9.853486569976805,3.017741555023193,-0.181959326171875
1763692624081499400,2.32949951171875,9.76774422302246,3.0843302886962887,-0.07870937957763671
1763692624091457300,2.339457275390625,10.289081634521484,3.2447417999267576,0.11776479415893554
1763692624101416400,2.34941650390625,10.006416201019286,3.2314240531921383,-0.8129811012268066
1763692624111375400,2.359375244140625,9.146149617004394,3.0801404357910154,-2.1091420249938966
1763692624121334300,2.369334228515625,9.35205095977783,2.98122997970581,-1.0839748016357422
1763692624131292400,2.37929248046875,9.80605144958496,3.110965782165527,0.09202712631225586
1763692624141251300,2.389251220703125,10.152312864685058,2.9420249275207517,1.2173019065856934
1763692624151210200,2.399210205078125,9.871592720031737,2.410063246154785,1.472134745788574
1763692624161169400,2.40916943359375,9.566332008361815,2.197577848815918,1.126172605895996
1763692624171127300,2.419127197265625,9.219472042846679,2.624493932342529,0.44577042160034175
1763692624181086200,2.429086181640625,9.26989991531372,3.186383134460449,-0.1283890640258789
1763692624191045600,2.439045654296875,9.274389043426513,3.510797459411621,-0.4789899696350097
1763692624201004500,2.449004638671875,9.019256929016112,3.559878593444824,-0.6293757614135742
1763692624210962400,2.45896240234375,8.11439833908081,3.440467785644531,-0.8494926765441894
1763692624220921600,2.468921630859375,9.50572877883911,3.6635774528503418,0.48632221221923827
1763692624230880500,2.478880615234375,9.375544063568114,3.69036258392334,0.7724293106079101
1763692624240838400,2.48883837890625,8.586953891754149,3.3756747032165526,0.20949264526367187
1763692624250797600,2.498797607421875,9.000851503753662,3.2601544731140133,0.5280711036682129
1763692624260756500,2.508756591796875,9.063250384521483,3.2418986854553222,0.3489548919677734
1763692624270715400,2.51871533203125,9.274089768218994,3.0603882720947264,0.2914940521240234
1763692624280673500,2.528673583984375,9.27543650665283,2.8618191719055175,0.2931400657653808
1763692624290632400,2.538632568359375,9.197475315093994,3.188328423309326,0.17687164764404295
1763692624300591400,2.54859130859375,9.26406404876709,3.0506618278503415,0.14859014053344727
1763692624310550500,2.558550537109375,9.171139096832276,2.8287492614746093,-0.09023147506713866
1763692624320508400,2.56850830078125,9.102156161499023,3.041683571624756,-0.001197100830078125
1763692624330467600,2.578467529296875,8.550292678833006,3.72178648071289,-0.06554127044677734
1763692624340426500,2.588426513671875,8.488941261291503,4.841375032043457,-0.1897404815673828
1763692624350385400,2.598385498046875,8.370877191925048,4.586841468048095,-0.1919850456237793
1763692624360343600,2.608343505859375,8.460061203765868,4.311807552337646,-0.1227028350830078
1763692624370302500,2.618302490234375,8.491784375762938,3.8090252037048336,-0.4563946914672851
1763692624380261400,2.628261474609375,8.670900587463379,3.6879683822631835,-0.6385036552429199
1763692624390220300,2.63822021484375,8.955212034606934,3.8845921936035155,-0.7314286071777343
1763692624400178400,2.648178466796875,8.901043222045898,4.0092403175354,-0.8677484642028808
1763692624410137300,2.658137451171875,7.928548435211181,3.5920506782531736,-1.0060136100769042
1763692624420096500,2.668096435546875,6.855347541046142,2.4148516494750973,-1.2931681716918944
1763692624430055400,2.678055419921875,6.3247325981140134,2.079962692260742,-1.7176900535583495
1763692624440013300,2.688013427734375,6.310965938568115,2.339284659576416,-1.945887399291992
1763692624449972500,2.697972412109375,5.562478644561767,2.7780221138000485,-2.236633263397217
1763692624459931400,2.707931396484375,3.3439515312194823,3.112911071014404,-1.9966145469665526
1763692624469890300,2.717890380859375,6.457161877441406,2.880074959564209,-2.533813544464111
1763692624479848400,2.727848388671875,10.708515837860107,2.1538836685180662,-3.266139977264404
1763692624489807400,2.737807373046875,11.827056925964355,1.8546084609985352,-4.168155452728271
1763692624499766300,2.747766357421875,11.021557704925536,2.8809727851867675,-2.757372124481201
1763692624509724400,2.757724365234375,10.3299327003479,3.209427325439453,-0.4966472068786621
1763692624519683300,2.767683349609375,10.643872393035888,2.0979192047119137,-0.3254617881774902
1763692624529642200,2.777642333984375,11.091139190673827,1.5548843406677244,0.004638765716552734
1763692624539601700,2.7876015625,10.641927104187012,0.8337807281494141,0.5639841285705566
1763692624549559300,2.797559326171875,9.88895068206787,-0.7879916213989258,-0.8258499351501465
1763692624559518500,2.8075185546875,9.036465253448485,-1.344493869781494,-1.9639935493469236
1763692624569477600,2.8174775390625,7.5822870201110835,-1.128117894744873,-1.0416273597717285
1763692624579436500,2.8274365234375,5.845592990875244,-0.07092822418212891,1.0896610305786132
1763692624589394700,2.837394775390625,4.691138877868652,1.7721581413269043,3.580678220367431
1763692624599353600,2.847353515625,6.47377165145874,2.4402900421142575,4.077923977661133
1763692624609312500,2.8573125,8.865878385162352,1.6211737991333006,2.902969512939453
1763692624619271400,2.867271484375,9.729885909271239,0.7830535804748535,1.94723413772583
1763692624629229600,2.8772294921875,10.59763437347412,0.31184476623535157,1.4164695571899413
1763692624639188500,2.8871884765625,11.575216838836669,0.5922656356811523,0.6027402679443359
1763692624649147400,2.8971474609375,11.667992153167724,1.2306196533203124,0.5078700271606446
1763692624659106600,2.9071064453125,10.893767191314696,1.659181750488281,0.9051578651428223
1763692624669064400,2.917064453125,10.585962640380858,1.4680945304870605,1.5248071823120117
1763692624679023600,2.927023681640625,10.453383723449706,1.0046668716430665,1.7717092285156248
1763692624688982500,2.936982421875,10.735300968933105,0.55545478515625,1.5707459266662598
1763692624698940400,2.9469404296875,11.579855604553222,0.2950853546142578,2.0425532913208007
1763692624708899600,2.956899658203125,12.160898419952392,0.31094694061279293,2.3165397438049316
1763692624718858500,2.9668583984375,13.397353939819336,0.9051578651428223,3.9737762054443357
1763692624728817400,2.9768173828125,12.46196927871704,0.12315174789428711,2.7023054862976075
1763692624738775600,2.986775634765625,11.205462319946289,-0.6106710609436035,1.7747019805908202
1763692624748734500,2.996734375,10.29805989074707,0.12060790863037109,2.1639093879699707
1763692624758693400,3.006693359375,8.629899884033202,0.9732429748535155,1.7761983566284179
1763692624768652500,3.016652587890625,7.0275804229736325,1.455076058959961,1.784428424835205
1763692624778610400,3.0266103515625,6.252756910705566,1.546803910064697,2.1820155380249022
1763692624788569300,3.0365693359375,6.2289645317077635,1.1335048484802246,2.2595278167724606
1763692624798528500,3.046528564453125,6.807762783050537,0.4879682258605957,2.2493524597167966
1763692624808487400,3.0564873046875,7.706635868835448,0.5225345123291015,2.8757354690551757
1763692624818445600,3.066445556640625,8.467692721557617,0.7454945419311523,2.8746880058288573
1763692624828404500,3.076404541015625,9.111134417724609,0.6602011077880859,2.3741502212524415
1763692624838363400,3.08636328125,9.799018482208252,0.3851671920776367,2.3313538665771483
1763692624848322300,3.096322265625,10.314071114349364,0.11417349166870117,1.7073650588989258
1763692624858280400,3.106280517578125,10.958560273742675,0.053121349334716794,1.1936591651916504
1763692624868239400,3.1162392578125,11.495011083221435,0.21248539733886718,0.8858546142578124
1763692624878198300,3.1261982421875,11.782464920043944,0.4343979637145996,0.4975450325012207
1763692624888156400,3.136156494140625,14.355333879089354,0.6916250045776366,-0.4508581001281738
1763692624898115300,3.146115234375,10.645219131469727,0.8307879760742187,0.44891281127929683
1763692624908074500,3.156074462890625,11.603797621154785,0.09741408004760742,0.3066074501037597
1763692624918033400,3.166033447265625,12.211027017211913,-0.2558803024291992,-0.11432312927246092
1763692624927991300,3.1759912109375,11.835436631774902,0.33264439315795896,-0.2684498611450195
1763692624937950500,3.185950439453125,11.606940010833739,0.9036614891052246,-0.8168716789245605
1763692624947909400,3.195909423828125,11.576563577270507,1.2165537185668944,-1.6201263359069824
1763692624957868500,3.20586865234375,11.852495318603514,1.739686781311035,-1.9276316116333008
1763692624967826400,3.215826416015625,11.93165361099243,2.4039281044006344,-1.6410756004333495
1763692624977785300,3.225785400390625,11.464933924865722,2.3038205474853513,-1.6665139930725097
1763692624987744500,3.23574462890625,10.940603761291504,1.8670283821105955,-1.6452654533386228
1763692624997703700,3.24570361328125,10.551396353912352,1.895459526824951,-1.1825859825134277
1763692625007661300,3.255661376953125,10.066420880126952,1.961300072479248,-0.3890577697753906
1763692625017620500,3.265620361328125,9.656413845825195,1.6889596336364745,0.526125814819336
1763692625027579600,3.27557958984375,9.352799147796631,1.1409867286682127,1.2409446479797364
1763692625037537500,3.28553759765625,9.3086560546875,0.7579144630432129,1.763329522705078
1763692625047496400,3.295496337890625,9.29533830795288,0.6769605194091797,1.9617489852905272
1763692625057455600,3.30545556640625,9.062502196502685,0.9536404487609863,2.0061913536071776
1763692625067414500,3.31541455078125,8.69603970489502,1.169717148590088,2.054374662017822
1763692625077372700,3.32537255859375,8.340650395965575,1.1375450637817381,2.2999299697875975
1763692625087331600,3.33533154296875,8.149263900756836,0.9460089309692382,2.7314848190307615
1763692625097290500,3.34529052734375,8.06965669555664,0.7390601249694824,3.018938655853271
1763692625107249400,3.35524951171875,7.976282830810546,0.6311714126586914,3.0520085662841794
1763692625117207600,3.36520751953125,8.276605501556396,0.6509235763549804,2.9114988563537594
1763692625127166500,3.37516650390625,8.726266500854491,0.8574234695434569,2.664896085357666
1763692625137125400,3.38512548828125,9.09138225402832,1.0398317085266113,2.4824878463745117
1763692625147084500,3.39508447265625,9.516951599121093,1.113453409576416,2.473210314941406
1763692625157042400,3.40504248046875,9.83238766784668,1.2093711135864258,3.0735563812255857
1763692625167001600,3.415001708984375,9.744101481628418,0.7550713485717773,2.4163480255126952
1763692625176960500,3.42496044921875,9.677812023162842,0.8230068206787109,2.2020669769287107
1763692625186919400,3.43491943359375,9.86994670639038,1.2919710708618164,2.681954772186279
1763692625196877000,3.444876953125,9.97259810256958,1.2641384765625,2.3790882621765137
1763692625206836000,3.4548359375,10.111461798858642,1.2271779884338379,2.6318261749267577
1763692625216795000,3.464794921875,10.176853431701659,1.2984054878234863,3.475632622528076
1763692625226753000,3.4747529296875,9.554361000061034,0.5379471855163573,1.7362451164245605
1763692625236712000,3.4847119140625,9.476250170898437,1.211166764831543,2.987963671875
1763692625246670800,3.4946708984375,9.298331060028076,1.490091258239746,3.070264353942871
1763692625256630000,3.504630126953125,9.202413356018067,1.5388731170654295,3.924545433807373
1763692625266588000,3.514587890625,8.897451919555664,0.4240729690551758,2.6378116790771484
1763692625276547000,3.524547119140625,9.160514826965331,0.7793126403808593,3.4220623603820797
1763692625286506000,3.534506103515625,9.553313536834716,1.3187562019348145,3.653252458190918
1763692625296465000,3.54446484375,9.617208793640136,1.3088801200866698,2.6843489738464354
1763692625306423000,3.554423095703125,9.648333415222167,2.287510048675537,3.205985660552978
1763692625316382000,3.5643818359375,9.757119953155517,2.1046528968811034,1.9352631294250486
1763692625326340900,3.5743408203125,9.23847601852417,2.1253028861999512,1.2460323265075683
1763692625336299800,3.5842998046875,8.99591346282959,2.62374574432373,1.4450503395080565
1763692625346258000,3.5942578125,9.118167385101318,2.697965995788574,1.440261936187744
1763692625356216800,3.604216796875,9.054421765899658,2.4021324531555175,1.4071920257568358
1763692625366176000,3.614176025390625,9.385869058227538,2.6478373985290524,2.1350293304443357
1763692625376134000,3.6241337890625,10.319906980895995,2.2653636833190918,3.140444390106201
1763692625386092800,3.6340927734375,10.890774439239502,0.9822212310791015,2.223016241455078
1763692625396052000,3.644052001953125,10.95571715927124,1.3371616271972655,2.216581824493408
1763692625406011000,3.654010986328125,10.971279470062255,2.1818659004211423,2.2809259941101074
1763692625415968800,3.66396875,10.408941355133056,2.122908684539795,1.7340005523681639
1763692625425928000,3.673927978515625,10.512490576934814,2.131138752746582,3.0348002418518063
1763692625435886800,3.683886962890625,10.270227296447754,1.3883376876831053,2.5369559341430663
1763692625445845800,3.693845703125,9.875483297729492,1.504755743408203,3.3207577026367185
1763692625455804000,3.703803955078125,9.83792425918579,1.2764087600708007,3.7198411918640133
1763692625465762800,3.7137626953125,9.488819729614256,1.0708066925048827,3.8851907440185545
1763692625475721700,3.7237216796875,9.203311181640624,1.3002011390686035,4.020912050628662
1763692625485681000,3.733680908203125,8.666710734558105,1.5770307060241697,3.9508816520690915
1763692625495638800,3.743638671875,8.018330997467041,1.6409259628295898,3.9941269195556637
1763692625505598000,3.753597900390625,7.142053189849853,2.0492869834899903,4.451419436645508
1763692625515556900,3.763556884765625,6.5309332160949705,2.218078200531006,4.852597852325439
1763692625525514800,3.7735146484375,6.163123986053466,2.00469497756958,5.108927067565918
1763692625535474000,3.783473876953125,5.576245304107665,1.936909143066406,5.477035572814941
1763692625545432800,3.793432861328125,5.278616110229492,2.1046528968811034,5.922357081604003
1763692625555392000,3.80339208984375,5.346252307128906,1.913416039276123,6.147412037658691
1763692625565350000,3.813349853515625,5.564274295806884,1.6868647071838379,6.367379315185547
1763692625575308800,3.823308837890625,5.633855781555176,1.6307506057739256,6.550984654998779
1763692625585268000,3.83326806640625,5.686827493286133,1.6027683738708496,6.53721799545288
1763692625595227000,3.843226806640625,5.951835689544677,1.504755743408203,6.497564030456543
1763692625605185000,3.85318505859375,6.5780690612792965,1.505354293823242,6.450877098083495
1763692625615144000,3.86314404296875,7.211784313201904,1.5080477706909179,6.376507209014892
1763692625625103000,3.87310302734375,7.590068175506591,1.3485340850830076,6.159383045959473
1763692625635061000,3.88306103515625,7.8429557258605955,1.336263801574707,5.84185205078125
1763692625645020000,3.89302001953125,8.018330997467041,1.5087959587097166,5.635501795196533
1763692625654979000,3.90297900390625,8.144924410247802,1.615936483001709,5.54811343460083
1763692625664938000,3.91293798828125,8.215104446411132,1.5611691200256346,5.449951166534423
1763692625674896100,3.922896240234375,8.297105853271484,1.3890858757019042,5.439177259063721
1763692625684855000,3.93285498046875,8.532785079193115,1.2599486236572266,5.462969638061523
1763692625694814000,3.94281396484375,8.760683149719238,1.3581108917236326,5.3679497596740715
1763692625704772900,3.95277294921875,8.677035729217529,1.5846622238159178,4.94118331375122
1763692625714731000,3.96273095703125,8.328679387664794,1.965041012573242,4.578312124633789
1763692625724690000,3.97268994140625,7.992144416809081,2.2471078956604003,4.611681310272217
1763692625734648800,3.98264892578125,8.222287051391602,2.2099977699279783,4.75653051071167
1763692625744608000,3.99260791015625,8.501810095214843,2.110638401031494,4.838382279968261
1763692625754566000,4.00256591796875,8.980051876831054,2.0638018310546875,4.756979423522949
1763692625764525000,4.012525146484375,9.40472339630127,2.084451820373535,4.605396530914306
1763692625774484000,4.02248388671875,9.184307205963135,2.187851404571533,4.64130955581665
1763692625784441900,4.03244189453125,8.41487064743042,2.241571304321289,4.657171141815185
1763692625794401000,4.042401123046875,7.755268090057372,2.2451626068115234,4.736329434204102
1763692625804360000,4.05235986328125,7.305607090759277,2.299780332183838,4.907664490509033
1763692625814318800,4.06231884765625,7.061847434234619,2.3950994857788084,4.969015908050537
1763692625824277000,4.072277099609375,7.224802784729003,2.4061726684570313,5.2165165046691895
1763692625834236000,4.08223583984375,7.632565254974365,2.242768405151367,5.470301880645752
1763692625844194800,4.09219482421875,8.12696789779663,2.03671742477417,5.6946086486816405
1763692625854154000,4.102154052734375,8.481459381103516,1.895459526824951,5.674108296966552
1763692625864111900,4.11211181640625,8.503306471252442,2.012925045776367,5.595997467803954
1763692625874070800,4.12207080078125,8.121880219268798,2.1920412574768067,5.470002605438232
1763692625884030000,4.132030029296875,7.864054627990722,2.3178864822387695,5.384260258483886
1763692625893987800,4.14198779296875,8.087762845611572,2.2960393920898436,5.4147863296508785
1763692625903946800,4.15194677734375,8.22288560180664,2.222866603851318,5.730820948791504
1763692625913906000,4.161906005859375,8.060977714538573,2.0727800872802735,5.7974096824645995
1763692625923864800,4.17186474609375,7.811531829071044,2.0636521934509275,5.777208605957031
1763692625933823000,4.181822998046875,7.55924282913208,2.2191256637573242,5.6501662803649895
1763692625943782000,4.191781982421875,7.407211023712158,2.4039281044006344,5.4327428421020505
1763692625953740800,4.20174072265625,7.372794374847412,2.571522220611572,5.3764791030883785
1763692625963699700,4.21169970703125,7.428459563446045,2.6370634910583495,5.321113189697265
1763692625973657900,4.221657958984375,7.4055650100708,2.5522189697265625,5.265896913909912
1763692625983616800,4.23161669921875,7.340622290039062,2.5103204406738278,5.272181693267822
1763692625993576000,4.241575927734375,7.401375157165527,2.3745991340637205,5.796212581634522
1763692626003535000,4.25153515625,7.556549352264404,1.9259855979919434,6.584204203033447
1763692626013492700,4.26149267578125,6.847117472839355,1.754351266479492,5.837662197875976
1763692626023452000,4.271451904296875,7.939771255493164,2.1440075866699217,6.846818197631835
1763692626033411000,4.2814111328125,7.196371640014648,1.4336778816223144,8.454674250030518
1763692626043368700,4.29136865234375,6.5972226745605465,1.280000062561035,5.492897158813476
1763692626053328000,4.301327880859375,9.269600640106201,2.7754782745361326,3.7292683609008788
1763692626063287000,4.311287109375,9.32047742538452,4.132092790222168,4.575169734954834
1763692626073246000,4.321245849609375,7.267599139404297,3.187580235290527,4.9540521476745605
1763692626083204000,4.3312041015625,6.16117869720459,2.0774188529968263,5.6772506866455075
1763692626093163000,4.3411630859375,6.292859788513184,2.1262007118225097,6.226869605255127
1763692626103122000,4.351121826171875,6.674884590911865,2.3671172538757324,6.016329496765136
1763692626113081000,4.3610810546875,6.941089888000488,2.58558815536499,5.427804801177978
1763692626123039000,4.3710390625,7.044489472198486,2.961028903198242,5.527912358093261
1763692626132998000,4.380997802734375,7.068880401611327,3.0201357566833495,5.5912090644836425
1763692626142957000,4.39095703125,7.116465159606933,2.831891651153564,5.4984337501525875
1763692626152916000,4.400916015625,7.127987255096435,2.6669910118103024,5.6474728034973145
1763692626162873900,4.410873779296875,7.374440388488769,2.6026468421936033,5.79052635269165
1763692626172833000,4.4208330078125,7.930344086456298,2.710685192108154,6.303633695983886
1763692626182792000,4.4307919921875,7.63570764465332,2.1863550285339355,6.386084015655517
1763692626192750300,4.440750244140625,8.525303199005126,2.1256021614074707,6.389376042938232
1763692626202709500,4.45070947265625,8.148814987945556,2.185157927703857,6.292261238098144
1763692626212668400,4.46066845703125,8.122628407287598,2.015468885040283,5.91831686630249
1763692626222627300,4.47062744140625,7.832032180786133,2.027140618133545,5.418976182556152
1763692626232585500,4.48058544921875,7.490559169006347,2.052579010772705,4.9528550468444825
1763692626242544400,4.49054443359375,6.834996826934814,3.058742258453369,5.222950921630859
1763692626252503300,4.50050341796875,6.86297905883789,3.948038537597656,5.352088173675536
1763692626262462500,4.51046240234375,7.517643575286865,3.4262522132873534,5.34969397201538
1763692626272420400,4.52042041015625,10.84034656677246,3.922600144958496,5.187935722351074
1763692626282379300,4.530379150390625,8.215553359222412,3.2001497940063475,7.139060437774658
1763692626292338400,4.54033837890625,3.2237925354003902,1.4857517677307128,8.196699021148682
1763692626302296300,4.55029638671875,4.0328830589294435,2.0241478660583496,7.435193255615234
1763692626312255500,4.56025537109375,5.531802935791015,3.5899557518005367,6.691943277740478
1763692626322214400,4.57021435546875,6.307224998474121,4.067748620605468,6.046705930328369
1763692626332173300,4.58017333984375,6.595875936126709,3.558681492614746,5.851279219818115
1763692626342131500,4.59013134765625,6.394912634277343,3.2501287536621093,5.922057806396484
1763692626352090400,4.60009033203125,6.171354054260253,3.2172084808349606,6.135740304565429
1763692626362049300,4.61004931640625,6.066158818817138,3.070114716339111,6.425438705444336
1763692626372008400,4.620008544921875,6.350470265960693,2.710236279296875,6.349572440338134
1763692626381966300,4.62996630859375,7.185148819732666,2.2468086204528808,6.17344898071289
1763692626391925500,4.639925537109375,5.535843151092529,3.072209642791748,6.177339558410644
1763692626401884700,4.649884765625,4.689941777038574,3.4249054748535155,5.800851347351074
1763692626411842300,4.65984228515625,2.721608737182617,3.1760581398010252,5.973832417297363
1763692626421801500,4.669801513671875,0.8152256652832031,3.002628157043457,6.001814649200439
1763692626431760600,4.6797607421875,-0.536899722290039,2.91119958114624,5.353135636901855
1763692626441719600,4.689719482421875,-1.107018992614746,2.296338667297363,4.763713115692139
1763692626451677400,4.699677490234375,-0.7398083129882812,2.3542484199523925,3.9948751075744626
1763692626461636600,4.70963671875,13.442394858551024,2.386719779968262,2.7780221138000485
1763692626471595500,4.719595458984375,25.93952897415161,3.0918121688842772,2.2960393920898436
1763692626481554400,4.729554443359375,17.4665989364624,4.662258820343017,1.8339584716796873
1763692626491512600,4.7395126953125,12.367697588348388,3.421164534759521,1.9615993476867675
1763692626501471500,4.749471435546875,8.296058390045166,2.6541221778869626,2.6900352027893066
1763692626511430400,4.759430419921875,8.646360020446776,3.4778771865844726,2.9978397537231443
1763692626521388500,4.769388427734375,9.948057535552978,2.605190681457519,2.4389433036804196
1763692626531347500,4.779347412109375,10.709413663482666,2.3508067550659177,2.3027730842590333
1763692626541306400,4.789306396484375,10.754155307006835,2.739565249633789,2.731185543823242
1763692626551265500,4.799265625,10.424204390716552,2.844760485076904,2.859424970245361
1763692626561223400,4.809223388671875,10.162488221740722,2.7320833694458004,3.1144074470520016
1763692626571182600,4.8191826171875,9.780014506530762,2.3980922378540037,4.169502191162109
1763692626581141500,4.8291416015625,9.714622873687743,2.174982570648193,4.895543844604492
1763692626591100400,4.839100341796875,9.341127414703369,2.552967157745361,3.6127006675720215
1763692626601058600,4.84905859375,9.131934044647217,3.1567548889160153,2.7820623291015623
1763692626611017500,4.859017578125,9.2948893951416,3.42849677734375,2.588131994628906
1763692626620976400,4.868976318359375,9.452757067108154,3.2857425033569334,2.5781062751770016
1763692626630935600,4.878935546875,9.445125549316407,3.345896820068359,2.4046762924194334
1763692626640893400,4.8888935546875,9.331700245666504,3.712209674072265,2.5673323677062987
1763692626650852400,4.898852294921875,9.11652137145996,3.1766566902160642,3.1316157714843746
1763692626660811500,4.9088115234375,8.738836059570312,3.107224842071533,3.485209429168701
1763692626670769400,4.918769287109375,8.500164081573486,3.4268507637023924,3.2439936119079587
1763692626680728300,4.928728271484375,8.681973770141601,3.5161844131469726,2.525733113861084
1763692626690687500,4.9386875,9.055768504333496,3.69006330871582,2.1525369300842283
1763692626700646400,4.948646484375,9.229647399902344,3.9974189468383785,2.3163901062011716
1763692626710604500,4.9586044921875,9.076268856048584,4.039167838287353,2.5350106452941894
1763692626720563500,4.9685634765625,8.719233533477782,3.8298248306274414,2.76440509185791
1763692626730522400,4.9785224609375,8.479963005065917,3.61344885559082,2.908057191467285
1763692626740481300,4.988481201171875,8.436717737579345,3.4657565406799313,3.0547020431518552
1763692626750439400,4.998439453125,8.41502028503418,3.3060932174682613,3.244592162322998
1763692626760398300,5.0083984375,8.577377085113525,3.3351229125976563,3.4352304695129394
1763692626770357200,5.018357177734375,8.726116863250732,3.273172944641113,3.2686838165283203
1763692626780315400,5.0283154296875,8.49058727493286,3.240252671813965,3.049015814208984
1763692626790274300,5.0382744140625,8.311171788024902,3.1090204933166503,3.60716407623291
1763692626800233500,5.0482333984375,8.148964625549317,2.569576931762695,4.323030372619629
1763692626810192400,5.0581923828125,8.889072213745116,1.5400702178955077,3.5736452529907226
1763692626820150300,5.068150390625,8.978854776000976,2.268206797790527,3.845836054229736
1763692626830109400,5.078109375,7.71860687713623,2.4359505516052247,4.197484423065185
1763692626840068400,5.088068359375,8.997709114074706,1.7194857048034666,3.5645173591613766
1763692626850027500,5.098027587890625,10.201094723510742,1.5026608169555664,3.4811692138671875
1763692626859985400,5.1079853515625,8.40798731765747,1.7102081733703611,4.679167869567871
1763692626869944600,5.117944580078125,7.115567333984375,3.029413288116455,2.6581623931884764
1763692626879903500,5.127903564453125,8.615085761260985,3.0820857246398923,3.5995325584411617
1763692626889861400,5.137861328125,8.583512226867676,3.2591070098876953,4.3819875885009765
1763692626899820500,5.147820556640625,7.767538373565674,3.1344588859558105,4.518457083129882
1763692626909779500,5.157779541015625,7.784148147583007,3.147028444671631,4.374954621124267
1763692626919738600,5.167738525390625,7.8158713195800775,2.9037177009582518,3.291728007507324
1763692626929696500,5.177696533203125,8.094047624969482,2.719064897918701,3.755903854370117
1763692626939655400,5.187655517578125,8.24203921508789,2.637961316680908,3.6447231147766113
1763692626949614600,5.197614501953125,8.187271852111817,2.5004443588256833,2.5106197158813477
1763692626959573500,5.207573486328125,8.372822480773925,2.356492984008789,2.6874913635253903
1763692626969531600,5.21753173828125,8.598775262451172,2.242020217132568,2.6253917579650876
1763692626979490600,5.227490478515625,8.717886795043945,2.114678616333008,1.9544167427062986
1763692626989449500,5.237449462890625,8.96942760696411,2.0732290000915525,1.5771803436279297
1763692626999408400,5.247408447265625,9.325265828704833,2.0623054550170896,1.291522158050537
1763692627009366500,5.257366455078125,9.764302558135986,2.2768857788085937,1.0806827743530272
1763692627019325400,5.267325439453125,10.183587123870849,2.2780828796386716,1.4870985061645507
1763692627029284400,5.277284423828125,10.08123500289917,1.9984101982116698,1.8781015647888182
1763692627039242500,5.287242431640625,9.698162737274169,1.7966987083435058,1.4431050506591796
1763692627049201400,5.297201416015625,9.574861351776123,1.7188871543884277,1.5943886680603025
1763692627059160600,5.30716064453125,9.540295065307618,1.604414387512207,1.8876783714294432
1763692627069119500,5.317119384765625,9.398737892150878,1.514931100463867,2.0575170516967773
1763692627079077400,5.327077392578125,9.236231454467774,1.4808137268066406,2.1347300552368162
1763692627089036500,5.33703662109375,9.189993434906006,1.4787188003540037,2.0210054763793943
1763692627098995500,5.346995361328125,9.324966553497314,1.455076058959961,1.962646810913086
1763692627108954400,5.356954345703125,9.5384994140625,1.1219827529907227,2.521094348144531
1763692627118912500,5.36691259765625,9.58294178237915,0.9871592720031738,2.5567080978393553
1763692627128871400,5.376871337890625,9.894786548614501,0.865054987335205,2.4993968955993653
1763692627138830300,5.386830322265625,10.162039308929442,0.903362213897705,2.602946117401123
1763692627148788500,5.39678857421875,10.314370389556885,0.7832032180786133,2.7371710479736326
1763692627158747400,5.406747314453125,10.318560242462157,0.5761047744750977,2.9144916084289547
1763692627168706300,5.416706298828125,10.2778588142395,0.5021837982177734,2.9556419494628905
1763692627179288300,5.427288330078125,10.303297206878662,0.47285482788085936,2.7902923973083493
1763692627189246500,5.43724658203125,10.286537795257567,0.4993406837463379,2.586037068176269
1763692627199205000,5.447205078125,10.206182402038573,0.48811786346435543,2.53471137008667
1763692627209164000,5.4571640625,10.100687891387938,0.5295674797058105,2.4595932929992674
1763692627219122200,5.4671220703125,9.991901353454589,0.6841431243896484,2.306514024353027
1763692627229081000,5.4770810546875,9.8572275100708,0.8840589630126953,2.136675344085693
1763692627239040300,5.487040283203125,9.657162033843994,1.0485106895446776,1.9614497100830077
1763692627248999200,5.496999267578125,9.503783489990234,1.2508207298278808,1.7431284461975096
1763692627258957000,5.50695703125,9.53191535949707,1.4992191520690916,1.537227103424072
1763692627268916200,5.516916259765625,9.611971477508545,1.5456068092346191,1.534832901763916
1763692627278875100,5.526875244140625,9.524134204101562,1.486948868560791,1.5810709213256835
1763692627288834000,5.536833984375,9.485378064727783,1.4808137268066406,1.6660650802612305
1763692627298792200,5.546792236328125,8.86213744506836,1.4446014266967773,1.8312649948120117
1763692627308751000,5.556751220703125,9.504830953216553,1.240495735168457,1.9978116477966308
1763692627318710000,5.5667099609375,8.999654402923584,0.8897451919555663,2.4685715492248534
1763692627328668200,5.576668212890625,9.6396544342041,1.1749544647216796,2.1890485054016113
1763692627338627000,5.586626953125,9.75502502670288,1.5626654960632322,1.9238906715393065
1763692627348586000,5.5965859375,9.986813674926758,1.4172177452087402,1.862988166809082
1763692627358545200,5.606545166015625,10.607660092926025,1.4392144729614258,1.7157447647094726
1763692627368503000,5.6165029296875,10.375272894287109,1.679682102203369,1.5421651443481443
1763692627378462000,5.6264619140625,9.814580792999267,1.7051204948425291,1.6738462356567383
1763692627388421000,5.636421142578125,10.051457119750976,1.4636054023742675,1.684769780731201
1763692627398380000,5.646380126953125,10.097695139312744,1.4285902030944824,1.6789339141845703
1763692627408338200,5.656338134765625,10.235361734771727,1.4226046989440917,1.709160710144043
1763692627418297000,5.666297119140625,10.268730920410155,1.52585464553833,1.69180274810791
1763692627428256000,5.676256103515625,10.020482135772705,1.5432126075744628,1.641973426055908
1763692627438214100,5.686214111328125,9.649979428863524,1.4317325927734375,1.5804723709106445
1763692627448173000,5.696173095703125,10.375422531890868,1.2351087814331054,1.3793594314575195
1763692627458132000,5.706132080078125,10.382455499267577,1.0586860466003418,0.9795277542114257
1763692627468091100,5.716091064453125,10.824185705566405,1.1517606361389159,0.5805939025878906
1763692627478049000,5.726049072265625,11.051036312866211,1.2894272315979003,0.42751463394165035
1763692627488008000,5.736008056640625,11.116128670501709,1.1142015975952149,0.565630142211914
1763692627497967000,5.745967041015625,10.643722755432128,0.7582137382507323,0.9695020347595215
1763692627507926000,5.755926025390625,10.650007534790038,0.5876268699645996,1.1978490180969237
1763692627517884000,5.7658837890625,10.48271269378662,0.6440402465820312,1.0582371337890624
1763692627527843000,5.775843017578125,10.354173992156982,0.6504746635437011,0.783352855682373
1763692627537802000,5.785802001953125,10.325293934631347,0.5110124168395995,0.4616320075988769
1763692627547761000,5.795760986328125,10.372878692626953,0.2319382858276367,0.3676595924377441
1763692627557719000,5.805718994140625,10.353425804138183,0.005835866546630859,0.3839700912475586
1763692627567678000,5.815677978515625,10.14453170928955,0.2798223190307617,-0.08200140686035155
1763692627577637000,5.82563720703125,9.955988328552246,0.5663783302307128,-0.3064578125
1763692627587595000,5.835594970703125,9.743203656005859,0.5687725318908691,-0.002992752075195312
1763692627597554000,5.845553955078125,9.920524216461182,0.6964134078979491,0.12135609664916991
1763692627607513000,5.85551318359375,10.041880313110351,0.8059481338500976,0.09023147506713866
1763692627617472300,5.86547216796875,9.99683939437866,0.8298901504516601,0.026785131072998045
1763692627627430100,5.87543017578125,9.855431858825684,0.9035118515014647,-0.6209960556030273
1763692627637389000,5.88538916015625,9.791087689208984,1.038185694885254,-0.7603086647033691
1763692627647348200,5.89534814453125,9.562142155456542,1.1879729362487792,-0.608426496887207
1763692627657307100,5.90530712890625,9.451410328674315,1.3548188644409178,-0.18315642700195311
1763692627667265300,5.915265380859375,9.377040439605713,1.4950292991638183,0.20171148986816406
1763692627677224200,5.92522412109375,9.086294575500487,1.61533793258667,-0.04219780426025391
1763692627687183000,5.93518310546875,8.914510606384276,1.7323545387268064,0.10369885940551757
1763692627697142000,5.94514208984375,8.615235398864746,1.7998410980224608,0.520289948272705
1763692627707100200,5.95510009765625,8.378807984924316,1.8715175102233885,0.8598176712036132
1763692627717059000,5.96505908203125,8.340800033569336,1.927332336425781,1.0313023651123046
1763692627727018200,5.975018310546875,8.28693049621582,1.981052236175537,1.108964281463623
1763692627736977200,5.98497705078125,8.234856610107421,1.994519620513916,1.2181997322082518
1763692627746935000,5.99493505859375,8.336759818267822,2.009184105682373,1.2476783401489258
1763692627756894200,6.004894287109375,8.579472011566162,1.965041012573242,1.2773065856933592
1763692627766853000,6.01485302734375,8.701426658630371,1.8842367065429686,1.2527660186767577
1763692627776812000,6.02481201171875,8.744671926116943,1.88977329788208,1.2425906616210938
1763692627786770200,6.034770263671875,8.938901535797118,1.8550573738098144,1.172859538269043
1763692627796729000,6.04472900390625,9.053523940277099,1.7718588661193846,1.1068693550109863
1763692627806688000,6.05468798828125,9.085995300292968,1.8116624687194822,1.0078092613220215
1763692627816647200,6.064647216796875,9.123853614044188,1.9461866744995115,0.8469488372802734
1763692627826605000,6.07460498046875,9.220220230865477,1.9500772521972656,0.8409633331298828
1763692627836564000,6.08456396484375,9.334992272949219,1.85775085067749,1.0045172340393065
1763692627846523100,6.094523193359375,9.341426689910888,1.8508675209045409,1.1745055519104004
1763692627856482000,6.10448193359375,9.324368003082276,1.9334674781799315,1.2171522689819336
1763692627866440000,6.11443994140625,9.311199893951416,1.9964649093627929,1.1682207725524902
1763692627876399000,6.124399169921875,9.2826191116333,2.052579010772705,1.1155483360290526
1763692627886358000,6.13435791015625,9.265859700012207,2.0171148986816405,1.1578957778930663
1763692627896317000,6.14431689453125,9.303718013763428,2.0299837326049803,1.2418424736022948
1763692627906276000,6.154276123046875,9.268702814483643,2.1739351074218747,1.228375089263916
1763692627916234000,6.16423388671875,9.241768045806884,2.2872107734680176,1.1686696853637695
1763692627926193000,6.17419287109375,9.192088361358643,2.3582886352539063,1.0926537826538085
1763692627936152000,6.184152099609375,9.157671712493896,2.388814706420898,1.0869675537109373
1763692627946111000,6.194111083984375,9.258976370239257,2.402581365966797,1.1510124481201172
1763692627956069000,6.204069091796875,9.313893370819091,2.3874679679870603,1.2388497215270995
1763692627966028000,6.214028076171875,9.258527457427977,2.4302643226623535,1.3422493057250975
1763692627975987200,6.2239873046875,9.255534705352783,2.507926239013672,1.3715782760620117
1763692627985946000,6.233946044921875,9.300126711273192,2.5499744056701656,1.3410522048950195
1763692627995904000,6.243904052734375,9.358036463928222,2.5106197158813477,1.3476362594604492
1763692628005863200,6.25386328125,9.486126252746581,2.399738251495361,1.3814543579101561
1763692628015822000,6.263822021484375,9.615862055206298,2.335244444274902,1.4330793312072754
1763692628025781200,6.27378125,9.726593881988524,2.3177368446350095,1.4559738845825194
1763692628035740200,6.283740234375,9.826851076507568,2.3350948066711426,1.4202104972839356
1763692628045698000,6.293697998046875,9.916484001159667,2.3804350006103516,1.612644455718994
1763692628055657200,6.3036572265625,9.827748902130127,2.486528061676025,1.732055263519287
1763692628065616100,6.3136162109375,9.746046770477294,2.5680805557250976,1.964442462158203
1763692628075575000,6.323574951171875,9.533711010742186,2.833238389587402,2.3521534934997557
1763692628085534200,6.3335341796875,9.403376657867431,3.0636802993774412,2.342277411651611
1763692628095492000,6.3434921875,9.23817674331665,3.247884189605713,2.4666262603759765
1763692628105451000,6.353450927734375,9.015067076110839,3.4687492927551267,2.526930214691162
1763692628115410200,6.36341015625,8.941744650268554,3.603872048950195,2.3561937088012694
1763692628125369000,6.373369140625,8.940547549438476,3.6144963188171384,2.366069790649414
1763692628135327000,6.383326904296875,8.842983831787109,3.5296517974853514,2.278531792449951
1763692628145286100,6.3932861328125,8.911068941497803,3.3289877708435056,1.9734207183837889
1763692628155245000,6.4032451171875,9.045293872070312,3.148075907897949,1.7338509147644041
1763692628165204000,6.413203857421875,9.147795630645751,2.9885622222900388,1.5131354492187499
1763692628175163100,6.4231630859375,9.183409380340576,2.895786907958984,1.4031518104553222
1763692628185121000,6.43312109375,9.208698135375975,2.863465185546875,1.2829928146362304
1763692628195080000,6.443079833984375,9.171288734436034,2.9104513931274414,1.1451765815734862
1763692628205039400,6.453039306640625,9.230395587921143,2.905513352203369,1.1082160934448242
1763692628214998300,6.462998291015625,9.356989000701903,2.8197710052490232,1.158045415496826
1763692628224957200,6.472957275390625,9.39709187850952,2.858676782226562,1.1236287666320801
1763692628234915300,6.482915283203125,9.428815050506591,2.9391818130493164,1.118541088104248
1763692628244874200,6.492874267578125,9.323919090270996,2.9824270805358886,1.153556287384033
1763692628254833200,6.502833251953125,9.2826191116333,3.012055326080322,1.0763432838439941
1763692628264792300,6.512792236328125,9.683647889709473,3.023577421569824,0.9458592933654785
1763692628274751200,6.522751220703125,9.126696728515624,3.21780703125,1.0651204635620117
1763692628284709000,6.532709228515625,8.585756790924071,3.8221933128356933,1.4956278495788573
1763692628294668300,6.542668212890625,7.64827720336914,4.2971430671691895,1.6102502540588377
1763692628304627200,6.552627197265625,8.00680890197754,3.8238393264770507,2.060659441375732
1763692628314586000,6.562586181640625,8.123376595306397,3.0775965965270995,2.574365335083008
1763692628324545000,6.572544921875,7.695861961364746,3.4385224967956542,2.561346863555908
1763692628334503200,6.582503173828125,8.840439992523192,3.525461944580078,2.257432890319824
1763692628344462000,6.592462158203125,8.980201514434814,3.403507297515869,2.168847428894043
1763692628354421200,6.602421142578125,9.428815050506591,3.261501211547851,2.0527286483764646
1763692628364380200,6.612380126953125,9.510068269348144,3.253869693756103,2.1531354804992673
1763692628374339000,6.622339111328125,9.230096312713622,2.2281039199829102,2.2661118713378903
1763692628384297200,6.632297119140625,9.037363079071044,2.7670985687255856,2.024297503662109
1763692628394256100,6.642256103515625,9.005639907073974,4.016572560119629,1.8671780197143553
1763692628404215000,6.652215087890625,8.789263932037352,3.946542161560058,1.802384937286377
1763692628414174000,6.662174072265625,9.143605777740477,3.4483985786437987,2.0581156021118163
1763692628424133000,6.672133056640625,9.198373140716551,3.144185330200195,2.437446927642822
1763692628434092300,6.68209228515625,9.433154541015625,3.3541268882751463,2.4568998161315916
1763692628444050200,6.69205029296875,9.540295065307618,2.82186593170166,2.183960826873779
1763692628454009000,6.702009033203125,9.508571893310547,2.56014976272583,2.024896054077148
1763692628463968300,6.71196826171875,9.316437210083008,3.1293712074279783,1.8264765914916992
1763692628473927200,6.72192724609375,9.286808964538574,3.4585739356994627,1.6481085678100584
1763692628483886300,6.73188623046875,9.254936154937743,3.4023101966857907,1.8381483245849608
1763692628493844200,6.74184423828125,9.062951109313964,3.35173268661499,2.034772135925293
1763692628503803100,6.75180322265625,8.719233533477782,3.4771289985656737,2.0651485694885254
1763692628513762300,6.76176220703125,8.351424303436279,3.6017771224975585,2.0651485694885254
1763692628523721200,6.77172119140625,8.173804467773436,3.6200329101562496,2.0566192260742184
1763692628533680000,6.78168017578125,8.259995727539062,3.5711014137268062,1.9295769004821777
1763692628543639300,6.791639404296875,8.476371702575683,3.4804210258483885,1.6994342658996582
1763692628553597200,6.80159716796875,8.77849002456665,3.404704398345947,1.525256095123291
1763692628563556000,6.81155615234375,8.945186315155029,3.398569256591797,1.4818611900329588
1763692628573515300,6.821515380859375,9.037213441467285,3.423858011627197,1.4616601135253906
1763692628583474200,6.83147412109375,9.145999979400635,3.4671032791137693,1.4203601348876953
1763692628593433000,6.84143310546875,9.251494490051268,3.4858079795837402,1.3717279136657714
1763692628603392000,6.85139208984375,9.257779269409179,3.4708442192077635,1.4145242683410644
1763692628613350100,6.86135009765625,9.279327084350586,3.478176461791992,1.4686930809020995
1763692628623309000,6.87130908203125,9.260472746276855,3.571400688934326,1.447893453979492
1763692628633268200,6.881268310546875,9.28306802444458,3.6159926948547363,1.3839981971740722
1763692628643227100,6.89122705078125,9.323470177459717,3.587561550140381,1.2141595169067383
1763692628653186000,6.90118603515625,9.388412897491454,3.5519478004455562,1.0327987411499022
1763692628663145000,6.91114501953125,9.456946920013428,3.4606688621520996,0.8749310691833495
1763692628673103000,6.92110302734375,9.529371520233154,3.388693174743652,0.8089408859252929
1763692628683062000,6.93106201171875,9.55136824798584,3.3502363105773925,0.7817068420410156
1763692628693021200,6.941021240234375,9.530269345855713,3.39003991317749,0.725293465423584
1763692628702980400,6.95098046875,9.503184939575196,3.519027527618408,0.6025906303405761
1763692628712939300,6.960939208984375,9.355642262268066,3.7165491645812985,0.5648819541931152
1763692628722898200,6.970898193359375,9.227702111053466,3.9209541313171385,0.4052186309814453
1763692628732856300,6.980856201171875,9.099013771820069,4.039167838287353,0.25842414169311523
1763692628742815200,6.990815185546875,8.945635227966308,4.106953672790527,0.17971476211547852
1763692628752774100,7.000774169921875,8.895955543518065,4.205714491271973,0.09023147506713866
1763692628762733300,7.0107333984375,8.86138925704956,4.205265578460693,0.07631517791748046
1763692628772692200,7.020692138671875,8.908375464630126,4.060566015625,-0.03127425918579101
1763692628782651100,7.030651123046875,8.931868568420409,3.8099230293273925,-0.04608838195800781
1763692628792610000,7.040610107421875,8.90553235015869,3.604769874572754,0.028880057525634766
1763692628802568200,7.050568115234375,8.980650427246093,3.4570775596618653,0.06928221054077148
1763692628812527000,7.060527099609375,9.07776523208618,3.3643022453308102,0.15322890625
1763692628822486300,7.070486328125,9.213336901092529,3.273322582244873,0.19826982498168944
1763692628832445200,7.080445068359375,9.271695566558837,3.315370748901367,0.19393033447265623
1763692628842404000,7.090404052734375,9.228151023864745,3.4831145027160644,0.15741875915527342
1763692628852363000,7.100363037109375,9.125798902893067,3.6451720275878903,0.15233108062744138
1763692628862322200,7.110322265625,8.923937775421143,3.7907694160461425,0.20694880599975585
1763692628872280000,7.120280029296875,8.726266500854491,3.91975703048706,0.24346038131713865
1763692628882239000,7.130239013671875,8.558223471832274,3.9636008483886718,0.381126976776123
1763692628892198100,7.1401982421875,8.392125731658934,3.968389251708984,0.43155484924316406
1763692628902157000,7.150156982421875,8.299350417327881,3.943100496673584,0.40357261734008787
1763692628912116000,7.160115966796875,8.276306226348876,3.93277550201416,0.41539398803710936
1763692628922075400,7.170075439453125,8.352172491455077,3.8284780921936035,0.4267664459228515
1763692628932034300,7.180034423828125,8.559719847869873,3.6508582565307615,0.3987842140197754
1763692628941992200,7.1899921875,8.768913217926025,3.3701381118774414,0.3327940307617187
1763692628951951400,7.199951416015625,8.847622597503662,3.0973487602233885,0.28446108474731446
1763692628961910300,7.20991015625,8.980500789642333,2.943670941162109,0.18285715179443357
1763692628971869200,7.219869140625,9.118616297912597,2.886958289337158,0.061650692749023434
1763692628981828000,7.229828125,9.163208303833008,2.851943090057373,-0.011073182678222656
1763692628991787300,7.239787353515625,9.135076434326171,2.7971757270812985,-0.060303954315185544
1763692629001746200,7.24974609375,9.163657216644287,2.786850732421875,-0.09606734161376952
1763692629011705000,7.259705078125,9.201964443206787,2.7705402336120604,-0.13138181610107422
1763692629021663200,7.269663330078125,9.233986890411376,2.7443536529541013,-0.18480244064331053
1763692629031622100,7.2796220703125,9.268702814483643,2.792985874176025,-0.201112939453125
1763692629041581000,7.2895810546875,9.157372437286377,2.945765867614746,-0.17372925796508787
1763692629051540200,7.299540283203125,9.045293872070312,3.0526071166992184,-0.19348142166137694
1763692629061499100,7.3094990234375,8.953416383361816,3.1658827827453613,-0.16953940505981444
1763692629071458000,7.3194580078125,8.844180932617187,3.2995091629028317,-0.1131260284423828
1763692629081417000,7.3294169921875,8.826074782562255,3.4042554855346676,-0.1253963119506836
1763692629091376000,7.339376220703125,8.875604829406738,3.5085528953552245,-0.17178396911621094
1763692629101334000,7.349333984375,8.869170412445067,3.506009056091308,-0.2733879020690918
1763692629111293200,7.359293212890625,8.948328704833983,3.4352304695129394,-0.19093758239746092
1763692629121252000,7.369252197265625,9.012822512054443,3.3364696510314937,-0.1919850456237793
1763692629131211300,7.379211181640625,9.11607245864868,3.2276831130981445,-0.20231004028320312
1763692629141170200,7.389170166015625,9.298779972839355,3.0768484085083005,0.013766659545898436
1763692629151129300,7.39912939453125,9.454552718353272,2.8980314720153806,0.20709844360351562
1763692629161088300,7.409088134765625,9.634866030883789,2.658461668395996,0.36855741806030273
1763692629171047200,7.419047119140625,9.606584523773193,2.4938603042602536,0.4827309097290039
1763692629181006000,7.429006103515625,9.578153379058838,2.483984222412109,0.4964975692749023
1763692629190964200,7.438964111328125,9.529970070648194,2.573617147064209,0.4032733421325683
1763692629200923400,7.44892333984375,9.469815753936768,2.6541221778869626,0.34715924072265625
1763692629210882300,7.45888232421875,9.453056342315673,2.6527754394531247,0.38621465530395505
1763692629220841500,7.468841552734375,9.438092581939697,2.770091320800781,0.17043723068237304
1763692629230800400,7.47880029296875,9.375095150756835,2.899827123260498,-0.02483984222412109
1763692629240759300,7.48875927734375,9.241618408203124,2.964769843292236,0.0962169792175293
1763692629250718500,7.498718505859375,9.135674984741211,3.087323040771484,0.06688800888061523
1763692629260677600,7.508677734375,8.993369623565673,3.125031716918945,0.2700958747863769
1763692629270635300,7.51863525390625,8.916755170440673,3.1708208236694335,0.5460276161193848
1763692629280594400,7.528594482421875,8.84163709335327,2.9843723693847655,0.5404910247802734
1763692629290553600,7.5385537109375,8.429385494995117,2.408117957305908,0.5740098480224609
1763692629300512500,7.548512451171875,8.667309284973143,2.3980922378540037,0.20605098037719724
1763692629310471400,7.558471435546875,9.231143775939941,3.1467291694641113,-0.3687070556640625
1763692629320430600,7.5684306640625,9.155576786041259,3.3897406379699704,-0.35942952423095703
1763692629330389500,7.578389404296875,8.990227233886719,2.7398645248413085,-0.27578210372924805
1763692629340348400,7.588348388671875,9.198672415924072,2.503137835693359,0.02289455337524414
1763692629350307600,7.5983076171875,9.492111756896971,2.3693618179321287,0.3010708587646484
1763692629360265500,7.608265380859375,9.654468556976317,2.011727944946289,0.4198831161499023
1763692629370224400,7.618224365234375,9.655366382598876,1.8764555511474608,0.8828618621826171
1763692629380183600,7.62818359375,9.484929151916504,1.7950526947021483,1.3274351829528808
1763692629390142500,7.638142578125,9.76160908126831,1.913266401672363,1.5095441467285156
1763692629400101400,7.648101318359375,9.801562321472167,1.9904794052124022,1.3016975151062011
1763692629410060300,7.658060302734375,9.415048390960694,1.988683753967285,1.3766659545898436
1763692629420019500,7.66801953125,9.502137476348876,1.8924667747497557,1.2030863342285156
1763692629429978400,7.677978271484375,9.61406640396118,1.922992845916748,1.2250830619812012
1763692629439937300,7.687937255859375,9.459939672088623,1.8885761970520019,1.223137773132324
1763692629449895400,7.6978955078125,9.516203411102294,1.779340746307373,1.1629834564208983
1763692629459854300,7.707854248046875,9.66673884048462,1.691204197692871,1.3506290115356445
1763692629469813200,7.717813232421875,9.776423204040526,1.643320164489746,1.581370196533203
1763692629479772700,7.727772705078125,9.98486838607788,1.5491981117248534,1.754351266479492
1763692629489731600,7.737731689453125,10.085873768615722,1.4668974296569823,1.92164610748291
1763692629499690500,7.7476904296875,10.127024109649657,1.4073416633605955,2.0600608909606932
1763692629509649400,7.7576494140625,10.181941110229491,1.402553260040283,2.1461025131225586
1763692629519608600,7.767608642578125,10.203638562774657,1.370680450439453,2.2076035682678223
1763692629529566500,7.77756640625,10.192415742492676,1.4125789794921875,2.1785738731384274
1763692629539525600,7.787525634765625,10.284143593597411,1.5273510215759276,2.092681888580322
1763692629549484500,7.797484619140625,10.301800830841064,1.6383821235656737,1.9967641845703124
1763692629559443500,7.807443359375,10.31721350402832,1.679682102203369,1.9692308654785156
1763692629569402400,7.81740234375,10.353874716949463,1.7143980262756346,1.9642928245544433
1763692629579361500,7.827361572265625,10.420313813018797,1.7028759307861328,2.030881558227539
1763692629589320400,7.837320556640625,10.365396812438965,1.5945383056640625,2.1344307800292968
1763692629599279400,7.847279296875,10.255712448883056,1.5451578964233397,2.1363760688781737
1763692629609238300,7.85723828125,10.269778383636474,1.5316905120849609,2.044947492980957
1763692629619196400,7.867196533203125,10.321552994537353,1.5272013839721679,1.8869301834106444
1763692629629155300,7.8771552734375,10.36255369796753,1.5264531959533691,1.7137994758605957
1763692629639114500,7.887114501953125,10.365995362854003,1.498470964050293,1.586457875061035
1763692629649073400,7.897073486328125,10.260800127410889,1.0622773490905761,1.6187795974731445
1763692629659032300,7.9070322265625,10.40594860305786,1.2918214332580567,1.2993033134460448
1763692629668991500,7.916991455078125,10.33591820449829,1.854758098602295,1.0883142921447753
1763692629678950700,7.92695068359375,10.225036740112303,1.7024270179748535,1.126920793914795
1763692629688909600,7.93690966796875,10.25376716003418,1.5753846923828123,1.097442185974121
1763692629698868500,7.946868408203125,10.172663578796387,1.5544354278564452,1.019630632019043
1763692629708826600,7.95682666015625,10.133159251403807,1.5658078857421873,0.8857049766540527
1763692629718785500,7.96678564453125,10.10622448272705,1.63449154586792,0.7621043159484863
1763692629728744400,7.976744384765625,10.143334608459472,1.661875227355957,0.6744166801452637
1763692629738703600,7.98670361328125,10.15725090560913,1.5295955856323242,0.656909080505371
1763692629748662500,7.99666259765625,10.258405925750731,1.3877391372680663,0.7000047103881836
1763692629758621400,8.006621337890625,10.32948378753662,1.3108254089355469,0.8616133224487305
1763692629768580400,8.016580322265625,10.29117656097412,1.1517606361389159,1.1245265922546386
1763692629778539500,8.02653955078125,10.134057077026366,1.0633248123168946,1.2987047630310058
1763692629788498400,8.03649853515625,9.906159006500243,1.055244381713867,1.3210007659912109
1763692629798456300,8.046456298828126,9.760112705230712,1.0740987197875975,1.4047978240966796
1763692629808415500,8.05641552734375,9.529970070648194,1.1007342132568358,1.5930419296264648
1763692629818374400,8.06637451171875,9.383923769378661,1.1813888816833495,1.5943886680603025
1763692629828333300,8.076333251953125,9.581146131134032,1.160738892364502,1.3456909706115723
1763692629838292500,8.08629248046875,9.451709603881836,1.0652701011657715,0.9603741409301757
1763692629848251400,8.09625146484375,8.868422224426268,0.9810241302490234,0.8481459381103515
1763692629858210600,8.10621044921875,9.112630793762207,1.4592659118652342,1.0803834991455077
1763692629868169500,8.11616943359375,9.261220934295654,1.9167080665588379,1.504157192993164
1763692629878128600,8.126128662109375,9.070133714294434,2.0157681602478026,1.2271779884338379
1763692629888086500,8.13608642578125,8.819490727996826,1.9111714752197264,0.8907926551818847
1763692629898045400,8.14604541015625,8.732551280212402,1.9506758026123046,0.8022071937561035
1763692629908004600,8.156004638671876,8.694094416046141,2.016665985870361,0.7492354820251464
1763692629917963500,8.165963623046874,8.66386762008667,2.025793879699707,0.5443816024780274
1763692629927922400,8.17592236328125,8.653991538238525,2.129792014312744,0.42586862030029293
1763692629937881300,8.18588134765625,8.674042977142333,2.23468797454834,0.8693944778442382
1763692629947840500,8.195840576171875,8.663119432067871,2.318933945465088,1.0380360572814942
1763692629957799400,8.20579931640625,8.65010096054077,2.3368904579162595,0.8795698348999023
1763692629967758300,8.21575830078125,8.643367268371582,2.350058567047119,0.9066542411804198
1763692629977716500,8.225716552734376,8.667907835388183,2.3943512977600094,0.9416694404602051
1763692629987675400,8.23567529296875,8.718036432647704,2.4212860664367675,0.9879074600219726
1763692629997634300,8.24563427734375,8.766967929077149,2.46423205871582,0.9183259742736816
1763692630007593500,8.255593505859375,8.875305554199219,2.4769512550354,0.7811082916259765
1763692630017552400,8.265552490234375,8.959551525115966,2.4830863967895507,0.7402572257995605
1763692630027511300,8.27551123046875,9.087641313934325,2.505232762145996,0.7104793426513671
1763692630037470500,8.285470458984374,9.172186560058593,2.53456173248291,0.6738181297302246
1763692630047429600,8.2954296875,9.284115487670897,2.578704825592041,0.646733723449707
1763692630057388500,8.305388427734375,9.315539384460449,2.59830735168457,0.7139210075378417
1763692630067347500,8.315347412109375,9.361178853607177,2.6316765373229978,0.847846662902832
1763692630077305600,8.3253056640625,9.393799851226806,2.55386498336792,1.0262146865844726
1763692630087264500,8.335264404296876,9.361777404022217,2.5321675308227536,1.2184990074157713
1763692630097223400,8.345223388671876,9.34037922668457,2.600402278137207,1.2536638442993164
1763692630107182600,8.3551826171875,9.309254605102538,2.684049698638916,1.2101193016052245
1763692630117141500,8.3651416015625,9.296984321594238,2.7973253646850584,1.199495031738281
1763692630127100400,8.375100341796875,9.250596664428711,2.893392706298828,1.284489190673828
1763692630137059300,8.385059326171875,9.209595960998534,2.916436897277832,1.403301448059082
1763692630147018500,8.3950185546875,9.18759923324585,2.9140426956176757,1.5315408744812011
1763692630156977400,8.404977294921874,9.201515530395508,2.906560815429687,1.6163853958129881
1763692630166935600,8.414935546875,9.245359348297118,2.899228572845459,1.661875227355957
1763692630176894500,8.42489453125,9.268104264068603,2.890250316619873,1.6747440612792968
1763692630186853400,8.434853271484375,9.309553880310059,2.902969512939453,1.7000328163146972
1763692630196812300,8.444812255859375,9.348758932495116,2.9288568183898924,1.7356465660095213
1763692630206771500,8.454771484375,9.38482159500122,2.964171292877197,1.7471686614990234
1763692630216730400,8.46473046875,9.472060317993163,2.948309706878662,1.8097171798706053
1763692630226689300,8.474689208984374,9.516203411102294,2.793584424591064,1.8816928672790527
1763692630236648400,8.4846484375,9.56408744430542,2.5411457870483396,1.9168577041625976
1763692630246607400,8.494607421875,9.600898294830321,2.261473105621338,1.7405846069335937
1763692630256566300,8.504566162109375,9.524134204101562,2.9152397964477537,2.0688895095825193
1763692630266524400,8.5145244140625,9.641450085449218,2.6607062324523922,1.890371848297119
1763692630276483300,8.5244833984375,9.694421797180174,2.121561946105957,2.0720318992614746
1763692630286442200,8.534442138671874,9.67227543182373,2.159869172668457,2.1040543464660644
1763692630296401200,8.544401123046875,9.839270997619629,2.263418394470215,1.7800889343261719
1763692630306360300,8.5543603515625,9.939079279327393,2.2014684265136717,1.7480664871215819
1763692630316319200,8.5643193359375,9.93399160079956,2.0305822830200193,1.7987936347961424
1763692630326278100,8.574278076171876,10.063727403259277,1.860893240356445,1.8164508720397947
1763692630336237300,8.5842373046875,10.222193625640868,1.7010802795410156,1.829768618774414
1763692630346196200,8.5941962890625,10.196755233001708,1.5456068092346191,1.8511667961120604
1763692630356155400,8.6041552734375,10.06118356399536,1.4682441680908203,1.7829320487976072
1763692630366114300,8.6141142578125,9.92770682144165,1.55129303817749,1.6240169136047362
1763692630376072400,8.624072509765625,9.836577520751952,1.6771382629394531,1.4522329444885254
1763692630386031400,8.63403125,9.693673609161376,1.7953519699096678,1.3338695999145507
1763692630395990300,8.643990234375,9.492111756896971,1.933916390991211,1.2482768905639647
1763692630405949400,8.653949462890624,9.284115487670897,1.9991583862304687,1.1984475685119629
1763692630415908400,8.663908447265625,9.364171605682373,2.081758343505859,1.1662754837036131
1763692630425867300,8.6738671875,9.424176284790038,2.136226431274414,1.0185831687927245
1763692630435826200,8.683826171875,9.448417576599121,2.1396680961608885,0.9958382530212402
1763692630445785300,8.693785400390626,9.388263259887696,2.133682592010498,0.9106944564819336
1763692630455744300,8.703744140625,9.304466201782226,2.1541829437255857,0.8409633331298828
1763692630465703200,8.713703125,9.228599936676025,2.2198738517761227,0.8022071937561035
1763692630475662300,8.723662353515625,9.152434396362304,2.290053887939453,0.7457938171386719
1763692630485621200,8.733621337890625,9.045742784881591,2.3527520439147946,0.6792050834655762
1763692630495579100,8.7435791015625,8.999205490112304,2.4631845954895017,0.6212953308105469
1763692630505538300,8.753538330078126,9.00204860458374,2.5840917793273923,0.6136638130187988
1763692630515497200,8.763497314453126,8.944587764739989,2.6623522460937497,0.7104793426513671
1763692630525456100,8.7734560546875,8.890269314575194,2.70065947265625,0.8575731071472168
1763692630535415300,8.783415283203125,8.900594309234618,2.715323957824707,1.0238204849243164
1763692630545374500,8.79337451171875,8.933065669250487,2.7697920455932614,1.1329062980651854
1763692630555333400,8.80333349609375,8.917952271270751,2.794482250213623,1.268029054260254
1763692630565292300,8.813292236328126,8.810662109374999,2.8067525337219235,1.4350246200561523
1763692630575251500,8.82325146484375,8.804975880432128,2.94980608291626,1.4788684379577637
1763692630585210400,8.83321044921875,8.849867161560057,3.0915128936767577,1.455674609375
1763692630595169300,8.843169189453125,8.928576541137694,3.187729872894287,1.3724761016845701
1763692630605128200,8.853128173828125,9.055319591522217,3.2843957649230955,1.2782044113159179
1763692630615087400,8.86308740234375,9.184007930755614,3.2103251510620114,1.2527660186767577
1763692630625045200,8.873045166015626,9.375095150756835,2.5782559127807616,1.4006079711914061
1763692630635004200,8.883004150390626,9.452008879089355,2.648884861755371,1.8020856620788572
1763692630644963300,8.89296337890625,9.48732335357666,2.43250888671875,1.6431705268859862
1763692630654922200,8.902922119140625,9.534010285949707,2.3924060089111325,1.7140987510681152
1763692630664881200,8.912881103515625,9.489119004821777,2.1288941886901855,1.6237176383972167
1763692630674840300,8.92284033203125,9.508571893310547,2.2782325172424316,1.5408184059143066
1763692630684799200,8.93279931640625,9.498396536254882,2.4154501998901368,1.2696750679016113
1763692630694758100,8.942758056640624,9.56917512283325,2.532466806030273,1.0543465560913086
1763692630704717300,8.95271728515625,9.604788872528076,2.447023734283447,0.8572738319396972
1763692630714676500,8.962676513671875,9.587131635284424,2.3133973541259762,0.7368155609130859
1763692630724635400,8.972635498046875,9.597456629943848,2.2533926750183104,0.6678326255798339
1763692630734594300,8.98259423828125,9.568127659606933,2.1808184371948243,0.702847824859619
1763692630744553200,8.99255322265625,9.510816457366943,2.1350293304443357,0.7471405555725097
1763692630754512400,9.002512451171874,9.552415711212157,2.1312883903503415,0.6549637916564941
1763692630764470300,9.01247021484375,9.623792848205566,2.1628619247436522,0.5015852478027344
1763692630774429400,9.022429443359375,9.664643914031982,2.1347300552368162,0.44322658233642576
1763692630784388400,9.032388427734375,9.68559317855835,2.089988411712646,0.4649240348815918
1763692630794347300,9.04234716796875,9.782558345794676,2.026242792510986,0.5150526321411133
1763692630804306200,9.05230615234375,9.874585472106933,1.9066823471069334,0.6004957038879394
1763692630814265300,9.062265380859374,9.969006800079345,1.7708114028930664,0.723946726989746
1763692630824224300,9.072224365234375,10.06836616897583,1.661127039337158,0.8520365158081055
1763692630834183200,9.08218310546875,10.090961447143554,1.5315408744812011,1.0319009155273438
1763692630844142000,9.09214208984375,10.06133320159912,1.4597148246765135,1.1487678840637205
1763692630854101200,9.102101318359376,10.005817650604248,1.4037503608703612,1.2282254516601563
1763692630864060400,9.112060302734376,9.967061511230469,1.4028525352478027,1.2074258247375487
1763692630874019300,9.122019287109374,10.005817650604248,1.435772808074951,1.1315595596313477
1763692630883978200,9.131978271484375,10.017938296508788,1.4037503608703612,1.1110592079162598
1763692630893937400,9.1419375,9.955838690948486,1.4034510856628417,1.0925041450500488
1763692630903896300,9.151896240234375,9.901071327972412,1.4457985275268554,1.0672153900146484
1763692630913854500,9.1618544921875,9.821015209960937,1.4456488899230957,1.0383353324890137
1763692630923813400,9.1718134765625,9.730035546875,1.4508862060546874,1.0398317085266113
1763692630933772300,9.181772216796874,9.619303720092773,1.4963760375976562,1.0281599754333495
1763692630943731200,9.191731201171875,9.36641616973877,1.5427636947631835,1.067963578033447
1763692630953690400,9.2016904296875,9.377040439605713,1.5894506271362303,1.059134959411621
1763692630963649300,9.211649169921875,9.705794255065918,1.55129303817749,0.975487538909912
1763692630973608200,9.221608154296876,9.507374792480467,1.4782698875427245,1.0555436569213867
1763692630983567400,9.2315673828125,9.190741622924804,1.5300444984436035,1.1155483360290526
1763692630993526300,9.2415263671875,9.355193349456787,1.6674118186950682,0.9838672447204589
1763692631003485200,9.251485107421875,9.320627062988281,1.7459715606689452,0.9593266777038574
1763692631013444000,9.261444091796875,9.39035818634033,1.7419313453674314,0.9009680122375487
1763692631023403500,9.271403564453125,9.355941537475585,1.712303099822998,0.9469067565917968
1763692631033362400,9.281362548828126,9.348010744476317,1.6582839248657226,0.9970353538513183
1763692631043321300,9.2913212890625,9.406519047546386,1.575683967590332,1.0274117874145507
1763692631053280300,9.3012802734375,9.387664709472656,1.5037082801818846,1.073200894165039
1763692631063239400,9.311239501953125,9.367014720153808,1.4294880287170408,1.1489175216674803
1763692631073198300,9.3211982421875,9.349507120513916,1.3675380607604979,1.2123638656616211
1763692631083157200,9.3311572265625,9.328258580780028,1.3787608810424803,1.2339116806030272
1763692631093116200,9.3411162109375,9.363872330474853,1.3947721046447754,1.216254443359375
1763692631103075300,9.351075439453124,9.380631742095947,1.3857938484191894,1.173458088684082
1763692631113033200,9.361033203125,9.392602750396728,1.4052467369079589,1.0875661041259765
1763692631122992400,9.370992431640625,9.375394425964355,1.4341267944335936,1.0037690460205078
1763692631132951300,9.380951416015625,9.390208548736572,1.4974235008239745,0.9283516937255859
1763692631142910200,9.39091015625,9.440935696411133,1.5952864936828612,0.8527847038269043
1763692631152869000,9.400869140625,9.462483511352538,1.6473603797912597,0.7785644523620605
1763692631162828300,9.410828369140624,9.476699083709716,1.7003320915222166,0.719457598876953
1763692631172787200,9.420787109375,9.462184236145019,1.771559590911865,0.6410474945068358
1763692631182746000,9.43074609375,9.434650917053222,1.823334201812744,0.6184522163391113
1763692631192705300,9.440705322265625,9.457096557617186,1.887828009033203,0.5422866760253906
1763692631202663700,9.45066357421875,9.476549446105956,1.9313725517272948,0.5346551582336425
1763692631212622600,9.46062255859375,9.465625901031494,1.9921254188537596,0.52986675491333
1763692631222581500,9.47058154296875,9.47475379486084,2.0190601875305174,0.5355529838562011
1763692631232540700,9.480540771484375,9.505429503631591,2.010381206512451,0.5600935508728027
1763692631242499600,9.49049951171875,9.550021509552002,1.986289552307129,0.5906196220397949
1763692631252458800,9.500458740234375,9.620201545715332,1.9256863227844236,0.6172551155090331
1763692631262418000,9.51041796875,9.718363813781737,1.8442834663391112,0.6133645378112793
1763692631272376800,9.520376953125,9.839570272827148,1.7408838821411132,0.6088754096984863
1763692631282335700,9.530335693359374,9.967959336853026,1.6807295654296874,0.5960065757751465
1763692631292294700,9.540294677734375,10.08737014465332,1.6343419082641601,0.5587468124389648
1763692631302253800,9.55025390625,10.126724834442138,1.5855600494384765,0.5057751007080078
1763692631312212700,9.560212646484375,10.159345832061767,1.5610194824218748,0.4583399803161621
1763692631322171600,9.570171630859376,10.148123011779784,1.5791256324768066,0.41973347854614257
1763692631332130600,9.580130615234374,10.111312161254883,1.6127940933227538,0.35883097381591794
1763692631342089700,9.59008984375,10.050708931732178,1.6587328376770019,0.330699104309082
1763692631352048600,9.600048583984375,10.021230323791503,1.7289128738403319,0.3043628860473633
1763692631362007600,9.610007568359375,9.98486838607788,1.7892168281555174,0.2825157958984375
1763692631371966700,9.619966796875,9.907206469726562,1.835604485321045,0.3184288208007812
1763692631381926000,9.62992578125,9.849895267486572,1.8523638969421385,0.35778351058959956
1763692631391884800,9.639884765625,9.827000714111328,1.9033903198242186,0.4125508735656738
1763692631401842700,9.6498427734375,9.80620108718872,1.925536685180664,0.4875193130493164
1763692631411801900,9.6598017578125,9.766397484588623,1.9211971946716306,0.5488707305908203
1763692631421760800,9.6697607421875,9.752331549835205,1.9463363121032713,0.5770026000976562
1763692631431719700,9.6797197265625,9.788394212341307,1.9812018737792967,0.5518634826660156
1763692631441678800,9.689678955078126,9.822361948394775,2.0210054763793943,0.5301660301208496
1763692631451637800,9.6996376953125,9.880720613861083,2.007987004852295,0.47285482788085936
1763692631461596700,9.7095966796875,9.877578224182129,1.968781952667236,0.4703109886169433
1763692631471555600,9.7195556640625,9.878775325012207,1.9521721786499022,0.47884033203125
1763692631481514800,9.7295146484375,9.860519537353515,1.878251202392578,0.4961982940673828
1763692631491473700,9.7394736328125,9.828048177337646,1.7383400428771971,0.5282207412719726
1763692631501432600,9.7494326171875,9.83777462158203,1.6379332107543945,0.44756607284545896
1763692631511391700,9.759391845703124,9.85632968444824,1.6151882949829102,0.32411504974365235
1763692631521350700,9.7693505859375,9.841515561676024,1.656787548828125,0.143652099609375
1763692631531309600,9.7793095703125,9.769240599060058,1.7338509147644041,-0.019303250885009764
1763692631541268700,9.789268798828125,9.682450788879393,1.8200421745300293,-0.15861585998535155
1763692631551228000,9.799227783203126,9.577554828643798,1.8972551780700682,-0.29074586410522457
1763692631561186800,9.809186767578124,9.526678043365479,1.9639935493469236,-0.41150341033935545
1763692631571145700,9.819145751953124,9.471611405181884,2.03043264541626,-0.514603719329834
1763692631581104600,9.829104736328125,9.400832818603515,2.0849007331848144,-0.5921159980773926
1763692631591063800,9.839063720703125,9.311499169158935,2.1487959899902345,-0.609025047302246
1763692631601022700,9.849022705078125,9.281122735595703,2.1996727752685548,-0.531812043762207
1763692631610981600,9.858981689453126,9.261370571899414,2.2074539306640624,-0.464774397277832
1763692631620940800,9.86894091796875,9.21812530441284,2.215983274078369,-0.3812766143798828
1763692631630899700,9.878899658203125,9.25089593963623,2.2168810997009274,-0.29882629470825195
1763692631640858600,9.888858642578125,9.271246653747559,2.230498121643066,-0.21487959899902342
1763692631650817500,9.898817626953125,9.328408218383789,2.2219687782287596,-0.17791911087036133
1763692631660776700,9.908776611328125,9.41040962524414,2.1868039413452145,-0.1548749198913574
1763692631670735600,9.918735595703126,9.507674067687988,2.1556793197631836,-0.12764087600708007
1763692631680694800,9.92869482421875,9.573065700531005,2.1191677444458006,-0.08798691101074219
1763692631690653700,9.93865380859375,9.64728595199585,2.064849294281006,-0.025438392639160156
1763692631700612900,9.94861279296875,9.75412720108032,1.9713257919311522,0.04384381790161133
1763692631710571800,9.95857177734375,9.871891995239258,1.9054852462768554,0.0613514175415039
1763692631720530700,9.96853076171875,10.001777435302733,1.8709189598083495,0.07197568740844726
1763692631730489900,9.97848974609375,10.158896919250488,1.8174983352661132,0.08200140686035155
1763692631740448800,9.98844873046875,10.300454092407225,1.7420809829711914,0.09801263046264648
1763692631750407700,9.99840771484375,10.403105488586425,1.6880618080139158,0.14036007232666015
1763692631760366600,10.00836669921875,10.506505072784423,1.6253636520385741,0.21263503494262695
1763692631770325800,10.01832568359375,10.57309380645752,1.6027683738708496,0.2792237686157226
1763692631780284700,10.02828466796875,10.5720463432312,1.5720926651000975,0.3616740882873535
1763692631790243600,10.03824365234375,10.433781197357177,1.579424907684326,0.46402620925903315
1763692631800202500,10.048202392578125,10.233117170715332,1.6307506057739256,0.5651812294006348
1763692631810161700,10.05816162109375,9.970353538513184,1.7357962036132812,0.5725134719848632
1763692631820120800,10.068120849609375,9.706542443084716,1.8905214859008788,0.5003881469726562
1763692631830079700,10.078079833984376,9.472060317993163,2.0772692153930663,0.3960907371520996
1763692631840038700,10.08803857421875,9.349207845306395,2.215983274078369,0.24555530776977538
1763692631849997800,10.097997802734374,9.2573303565979,2.3316531417846678,0.16684592819213867
1763692631859956700,10.107956787109375,9.188497058868407,2.3843255783081054,0.09367313995361327
1763692631869915600,10.11791552734375,9.043498220825194,2.3828292022705075,0.08589198455810547
1763692631879874800,10.127874755859375,8.914061693572998,2.327014376068115,0.13242927932739257
1763692631889833700,10.137833740234376,8.890718227386474,2.274042664337158,0.143652099609375
1763692631899792600,10.147792724609374,8.920945023345947,2.198176399230957,0.11477204208374023
1763692631909751600,10.15775146484375,8.973617459869384,2.11946701965332,0.0857423469543457
1763692631919710700,10.167710693359375,9.075221392822264,2.0337246726989746,0.04608838195800781
1763692631929669600,10.177669677734375,9.200617704772949,1.9051859710693357,0.00987608184814453
1763692631939628500,10.187628662109375,9.38422304458618,1.7839795120239257,-0.10145429534912109
1763692631949587700,10.197587646484376,9.660902973937988,1.690007096862793,-0.2201169151306152
1763692631959547000,10.207546875,9.903764804840087,1.5875053382873534,-0.3286041778564453
1763692631969505800,10.217505859375,10.038887561035155,1.512536898803711,-0.3628711891174316
1763692631979464700,10.227464599609375,10.134655627441406,1.4864999557495115,-0.34880525436401366
1763692631989424600,10.237424560546875,10.222492900848389,1.4820108276367188,-0.28655601119995117
1763692631999383800,10.2473837890625,10.255263536071777,1.4495394676208495,-0.19856910018920898
1763692632009342700,10.2573427734375,10.308534523010254,1.4235025245666504,-0.08828618621826172
1763692632019301600,10.267301513671875,10.408492442321776,1.41093296585083,0.06449380722045898
1763692632029260500,10.277260498046875,10.43213518371582,1.340004741668701,0.43080666122436523
1763692632039219700,10.2872197265625,10.335768566894531,1.2656348526000976,0.48931496429443355
1763692632049178600,10.2971787109375,10.070461095428467,1.615936483001709,-0.1815104133605957
1763692632059137800,10.3071376953125,10.139743305969239,1.8640356300354002,0.3458125022888183
1763692632069096700,10.3170966796875,9.99070425262451,1.6270096656799315,0.7496843948364257
1763692632079056000,10.327055908203125,9.643245736694336,1.5260042831420897,0.8255506599426269
1763692632089014800,10.337014892578125,9.5645363571167,1.6011223602294922,0.9484031326293945
1763692632098973700,10.3469736328125,9.472658868408203,1.6760907997131347,1.006761798095703
1763692632108932600,10.3569326171875,9.331101695251464,1.707813971710205,1.1013327636718748
1763692632118891800,10.366891845703124,9.146748167419434,1.7182886039733887,1.2304700157165527
1763692632128850700,10.3768505859375,8.960598988342285,1.7411831573486327,1.3121721473693846
1763692632138809600,10.3868095703125,8.743175550079345,1.7744027053833007,1.304390991973877
1763692632148768800,10.396768798828125,8.652644799804687,1.8240823898315428,1.1646294700622557
1763692632158727700,10.406727783203126,8.64486364440918,1.9087772735595703,0.9057564155578612
1763692632168686600,10.4166865234375,8.690203838348388,1.9764134704589842,0.6750152305603027
1763692632178645500,10.4266455078125,8.755595471191405,2.0144214218139647,0.5021837982177734
1763692632188604700,10.436604736328125,8.829067534637451,2.0196587379455564,0.4358943397521972
1763692632198563800,10.446563720703125,8.891466415405272,1.9415479087829588,0.47270519027709956
1763692632208523300,10.456523193359375,8.965836304473877,1.8296189811706542,0.5470750793457031
1763692632218482200,10.466482177734376,9.00249751739502,1.7681179260253905,0.598251139831543
1763692632228441300,10.47644140625,9.05262611465454,1.7449240974426268,0.6121674369812011
1763692632238400300,10.486400146484375,9.10440072555542,1.767818650817871,0.5633855781555176
1763692632248359200,10.496359130859375,9.143456140136719,1.8559551994323729,0.5045779998779296
1763692632258318000,10.506318115234375,9.1546789604187,1.9340660285949707,0.4531026641845703
1763692632268277500,10.516277587890626,9.140463388061523,1.9933225196838378,0.42886137237548827
1763692632278236400,10.526236328125,9.096320294952392,2.0521300979614256,0.4504091873168945
1763692632288196400,10.5361962890625,9.067589875030517,2.0992659431457517,0.44981063690185547
1763692632298155300,10.5461552734375,9.059509444427489,2.178873148345947,0.4138976119995117
1763692632308114200,10.5561142578125,9.086893125915527,2.268805348205566,0.376039298248291
1763692632318073300,10.5660732421875,9.119663761138915,2.3740005836486815,0.33833062210083004
1763692632328032300,10.5760322265625,9.216030377960205,2.485480598449707,0.28042086944580075
1763692632337991200,10.5859912109375,9.328857131195068,2.5285762283325193,0.28086978225708004
1763692632347950300,10.595950439453125,9.447669388580321,2.5430910758972165,0.3254617881774902
1763692632357909200,10.6059091796875,9.566182370758057,2.506579500579834,0.4070142822265625
1763692632367868200,10.6158681640625,9.642796823883057,2.4438813446044922,0.5427355888366698
1763692632377827300,10.625827392578126,9.763404732513427,2.4019828155517575,0.6136638130187988
1763692632387786500,10.635786376953124,9.87009634399414,2.3937527473449705,0.6717232032775878
1763692632397745400,10.645745361328125,9.995941568756104,2.4443302574157713,0.7104793426513671
1763692632407704300,10.655704345703125,10.090811809539794,2.4705168380737303,0.7746738746643066
1763692632417663200,10.665663330078125,10.187926614379883,2.475903791809082,0.8656535377502441
1763692632427622400,10.675622314453125,10.265139617919921,2.4431331565856933,0.9638158058166504
1763692632437581300,10.685581298828126,10.333075090026854,2.392106733703613,1.125574055480957
1763692632447540200,10.695540283203124,10.40026237411499,2.3136966293334957,1.2373533454895018
1763692632457499400,10.70549951171875,10.492738413238525,2.2316952224731446,1.3254898941040039
1763692632467458300,10.715458251953125,10.570101054382324,2.088940948486328,1.4113818786621093
1763692632477418200,10.725418212890625,10.633547398376464,1.9189526306152342,1.4622586639404296
1763692632487377400,10.73537744140625,10.635193412017822,1.7604864082336424,1.449838742828369
1763692632497336300,10.74533642578125,10.669759698486327,1.6347908210754394,1.3423989433288575
1763692632507295500,10.75529541015625,10.704325984954833,1.5463549972534179,1.1649287452697754
1763692632517254400,10.76525439453125,10.715848080444335,1.499668064880371,0.950647696685791
1763692632527213300,10.77521337890625,10.694449903106689,1.4788684379577637,0.7721300354003906
1763692632537172200,10.785172119140626,10.657339777374267,1.4622586639404296,0.6229413444519043
1763692632547131400,10.79513134765625,10.536881506347656,1.4380173721313476,0.5105635040283203
1763692632557090300,10.80509033203125,10.358962395477294,1.442207225036621,0.4291606475830078
1763692632567049200,10.81504931640625,10.15740054321289,1.423053611755371,0.3624222763061523
1763692632577008000,10.825008056640625,9.952546663665771,1.4462474403381347,0.3037643356323242
1763692632586967300,10.83496728515625,9.744999307250977,1.504157192993164,0.20904373245239258
1763692632596926200,10.84492626953125,9.560047229003906,1.6291045921325682,0.1249473991394043
1763692632606885000,10.854885009765624,9.361328491210937,1.7676690132141113,0.030825346374511717
1763692632616844300,10.86484423828125,9.20540610809326,1.8650830932617186,-0.02498947982788086
1763692632626804200,10.87480419921875,9.106196376800536,1.9731214431762694,-0.08589198455810547
1763692632636763400,10.884763427734375,9.02703808441162,2.038513076019287,-0.12868833923339842
1763692632646722300,10.894722412109376,8.917353720855713,2.037764888000488,-0.10295067138671875
1763692632656681200,10.90468115234375,8.807669357299805,2.003946789550781,-0.07796119155883789
1763692632666640400,10.914640380859375,8.726565776062012,1.9815011489868164,-0.0805050308227539
1763692632676599300,10.924599365234375,8.666112184143065,2.040458364868164,-0.1274912384033203
1763692632686558200,10.93455810546875,8.60625714263916,2.120963395690918,-0.22131401596069333
1763692632696517000,10.94451708984375,8.621819453430176,2.2774843292236326,-0.3534440200805664
1763692632706476300,10.954476318359376,8.630648072052,2.4455273582458497,-0.493504817199707
1763692632716435200,10.964435302734374,8.59907453765869,2.5698762069702146,-0.6040870063781738
1763692632726394000,10.97439404296875,8.549095578002929,2.676268543243408,-0.6382043800354004
1763692632736353300,10.984353271484375,8.50450357208252,2.762010890197754,-0.6483797370910644
1763692632746312400,10.9943125,8.47233148727417,2.8321909263610836,-0.5856815811157227
1763692632756272400,11.0042724609375,8.42744020614624,2.8796260467529295,-0.5199906730651855
1763692632766231300,11.014231201171874,8.470236560821533,2.8827684364318844,-0.4565443290710449
1763692632776190200,11.024190185546875,8.645162919616698,2.8381764305114743,-0.4736030158996582
1763692632786149400,11.0341494140625,8.822034567260742,2.800168479156494,-0.49260699157714843
1763692632796108300,11.0441083984375,8.960449350738525,2.745700391387939,-0.5168482833862305
1763692632806067200,11.054067138671876,9.173533298492432,2.6837504234313965,-0.5180453842163085
1763692632816026000,11.064026123046874,9.303867651367186,2.637362766265869,-0.486471849822998
1763692632825985300,11.0739853515625,9.400234268188475,2.577208449554443,-0.44577042160034175
1763692632835944200,11.083944091796875,9.504531678009032,2.5698762069702146,-0.40237551651000975
1763692632845903400,11.0939033203125,9.581595043945311,2.5770588119506836,-0.34222119979858395
1763692632855862300,11.1038623046875,9.595960253906249,2.612074011230469,-0.2558803024291992
1763692632865821400,11.113821533203126,9.568277297210694,2.643497908020019,-0.13377601776123046
1763692632875781400,11.123781494140625,9.52533130493164,2.646191384887695,-0.015562310791015624
1763692632885740300,11.133740234375,9.464578437805175,2.673126153564453,0.09277531433105468
1763692632895699200,11.14369921875,9.45470235595703,2.6809073089599607,0.14514847564697264
1763692632905658400,11.153658447265625,9.460538222503661,2.677764919281006,0.1541267318725586
1763692632915617300,11.1636171875,9.520393264007568,2.7033529495239255,0.07212532501220703
1763692632925576200,11.173576171875,9.686191728973387,2.7549779228210447,-0.09187748870849609
1763692632935535000,11.18353515625,9.924863706970214,2.8419173706054686,-0.263661457824707
1763692632945494300,11.193494384765625,10.139144755554199,2.8721441665649414,-0.2929904281616211
1763692632955453400,11.203453369140625,10.28444286880493,2.782810517120361,-0.18914193115234373
1763692632965412400,11.213412353515626,10.423306565093993,2.6363153030395505,-0.01571194839477539
1763692632975371300,11.223371337890624,10.43198554611206,2.468870824432373,0.26605565948486326
1763692632985331200,11.233331298828125,10.494384426879883,2.2999299697875975,0.5385457359313964
1763692632995290400,11.243290283203125,10.607510455322265,2.0739771881103515,0.7965209648132324
1763692633005249300,11.253249267578125,10.689811137390135,1.823334201812744,0.9983820922851562
1763692633015208200,11.263208251953126,10.7382937210083,1.6401777748107909,1.1701660614013671
1763692633025167000,11.2731669921875,10.755352407836913,1.4909890838623046,1.296759474182129
1763692633035126300,11.283126220703124,10.747720890045166,1.3676876983642576,1.359158354949951
1763692633045085200,11.293085205078125,10.732906767272949,1.317110188293457,1.3184569267272948
1763692633055044000,11.303044189453125,10.708815113067626,1.3313257606506348,1.219995383453369
1763692633065003500,11.31300341796875,10.606612629699706,1.3165116378784179,1.055992569732666
1763692633074962400,11.32296240234375,10.398915635681151,1.3506290115356445,0.9243114784240722
1763692633084922400,11.33292236328125,10.119991142272948,1.4022539848327635,0.7749731498718261
1763692633094881300,11.34288134765625,9.835829332733153,1.4878466941833495,0.6302735870361328
1763692633104840200,11.352840087890625,9.593715689849853,1.6320973442077635,0.4939537300109863
1763692633114799400,11.36279931640625,9.417143317413329,1.7796400215148924,0.33010055389404297
1763692633124758300,11.37275830078125,9.247903187561034,1.9399018951416014,0.1833060646057129
1763692633134717200,11.38271728515625,9.08434928665161,2.06200617980957,0.029328970336914062
1763692633144676000,11.392676025390625,8.958055149078369,2.1815666252136228,-0.12943652725219726
1763692633154635300,11.40263525390625,8.840290354919434,2.28556475982666,-0.2888005752563476
1763692633164594200,11.41259423828125,8.806921169281006,2.367416529083252,-0.452653751373291
1763692633174554400,11.422554443359376,8.858695780181884,2.4097639709472656,-0.5749076736450195
1763692633184513300,11.43251318359375,8.959252249908447,2.388365793609619,-0.6603507453918457
1763692633194472200,11.44247216796875,9.09721812057495,2.336142269897461,-0.6935702934265137
1763692633204431600,11.452431640625,9.233986890411376,2.2655133209228513,-0.6908768165588378
1763692633214390500,11.462390625,9.4113074508667,2.180219886779785,-0.6434416961669921
1763692633224349400,11.472349365234376,9.58922656173706,2.0929811637878415,-0.5240308883666992
1763692633234308600,11.48230859375,9.650428341674804,1.982847887420654,-0.354940396118164
1763692633244267500,11.492267578125,9.704297879028319,1.8659809188842773,-0.1836053398132324
1763692633254226400,11.502226318359375,9.751583361816406,1.769763939666748,-0.038756139373779294
1763692633264186600,11.5121865234375,9.800365220642089,1.7176900535583495,0.06494272003173827
1763692633274145500,11.5221455078125,9.806500362396239,1.71739077835083,0.16355390090942382
1763692633284104700,11.532104736328124,9.764601833343505,1.7193360671997069,0.24615385818481444
1763692633294063600,11.542063720703124,9.67841057357788,1.7247230209350586,0.3161842567443848
1763692633304022500,11.5520224609375,9.585335984039306,1.744175909423828,0.378583137512207
1763692633313981400,11.5619814453125,9.532513909912108,1.7956512451171873,0.4263175331115722
1763692633323940600,11.571940673828125,9.484629876708984,1.8281226051330566,0.45415012741088867
1763692633333899500,11.5818994140625,9.489418280029296,1.8351555725097655,0.4522048385620117
1763692633343859500,11.591859375,9.535506661987304,1.8339584716796873,0.42721535873413086
1763692633353818600,11.601818603515625,9.60897872543335,1.8486229568481445,0.3716998077392578
1763692633363777500,11.611777587890625,9.664793551635741,1.8403928886413574,0.3161842567443848
1763692633373736700,11.62173681640625,9.682750064086914,1.7666215499877929,0.3333925811767578
1763692633383695600,11.631695556640626,9.675567459106444,1.6967407890319823,0.3660135787963867
1763692633393654500,11.641654541015624,9.701155489349365,1.7151462142944336,0.32456396255493164
1763692633403613400,11.651613525390625,9.788244574737549,1.777395457458496,0.26351182022094727
1763692633413572600,11.661572509765625,9.859472074127197,1.8574515754699705,0.1858499038696289
1763692633423532500,11.671532470703125,9.914239437103271,1.9137153144836425,0.0900818374633789
1763692633433491500,11.681491455078126,9.981426721191406,1.9692308654785156,0.032920272827148434
1763692633443450400,11.691450439453124,10.072556021881104,2.016665985870361,0.0022445640563964844
1763692633453409500,11.701409423828125,10.11265889968872,1.9704279663085937,-0.00852934341430664
1763692633463368700,11.71136865234375,10.123283169555663,1.9256863227844236,0.06643909606933593
1763692633473327600,11.72132763671875,10.17610524368286,1.807472615814209,0.11372457885742186
1763692633483286500,11.73128662109375,10.210521892547607,1.6753426116943357,0.16699556579589842
1763692633493246500,11.74124658203125,10.245237816619872,1.599925259399414,0.1788169364929199
1763692633503205600,11.75120556640625,10.232518620300292,1.544409708404541,0.14739303970336914
1763692633513164500,11.76116455078125,10.136301641082763,1.5617676704406738,0.08544307174682617
1763692633523123500,11.77112353515625,10.000580334472655,1.6425719764709472,-0.013467384338378905
1763692633533082400,11.781082275390625,9.732130473327636,1.765274811553955,-0.13721768264770506
1763692633543041500,11.79104150390625,9.349806395721435,1.9176058921813963,-0.23448212509155272
1763692633553000400,11.80100048828125,8.871265338897704,2.150142728424072,-0.33833062210083004
1763692633562959400,11.81095947265625,8.583212951660157,2.353799507141113,-0.40237551651000975
1763692633572919600,11.82091943359375,8.362647123718261,2.437297290039062,-0.4267664459228515
1763692633582878500,11.83087841796875,8.16542476196289,2.516904495239258,-0.4896142395019531
1763692633592837600,11.840837646484376,8.102576968383788,2.6014497413635254,-0.5750573112487792
1763692633602796500,11.850796630859374,8.10182878036499,2.656666017150879,-0.6293757614135742
1763692633612755500,11.86075537109375,8.15345375366211,2.6969185325622558,-0.7231985389709472
1763692633622714600,11.870714599609375,8.233060958862303,2.731933731842041,-0.7499836700439453
1763692633632673500,11.880673583984375,8.315810553741455,2.739565249633789,-0.7082347785949706
1763692633642633500,11.890633544921876,8.518569506835936,2.674472891998291,-0.654365241241455
1763692633652592600,11.900592529296874,8.804676605224609,2.5796026512145995,-0.6305728622436523
1763692633662551600,11.910551513671875,9.086593850708008,2.4947581298828125,-0.5632359405517577
1763692633672510700,11.9205107421875,9.35354733581543,2.3766940605163573,-0.48033670806884765
1763692633682469600,11.9304697265625,9.567828384399414,2.2053590042114255,-0.32995091629028317
1763692633692428500,11.940428466796876,9.702651865386962,2.0465935066223144,-0.15203180541992187
1763692633702387500,11.950387451171874,9.810241302490233,1.942745009613037,0.004638765716552734
1763692633712347400,11.960347412109375,9.873687646484374,1.893514237976074,0.09352350234985352
1763692633722306600,11.970306640625,9.909151758575439,1.9122189384460448,0.11252747802734374
1763692633732265500,11.980265380859375,9.879523513031005,1.9726725303649901,0.11043255157470702
1763692633742224400,11.990224365234376,9.840168823242188,2.075473564147949,0.0326209976196289
1763692633752183600,12.00018359375,9.79378116607666,2.186654303741455,-0.06045359191894531
1763692633762142700,12.010142822265625,9.721955116271973,2.243366955566406,-0.08813654861450194
1763692633772101600,12.0201015625,9.687388829803465,2.2939444656372068,-0.11626841812133788
1763692633782061600,12.0300615234375,9.753528650665283,2.3874679679870603,-0.1731307075500488
1763692633792020500,12.0400205078125,9.840468098449707,2.4634838706970212,-0.15352818145751954
1763692633801979600,12.049979736328124,9.888202494049072,2.43235924911499,-0.060603229522705075
1763692633811938600,12.0599384765625,9.947608622741699,2.351704580688476,0.058657940673828124
1763692633821897500,12.0698974609375,9.97125136413574,2.2321441352844236,0.22026655273437498
1763692633831856400,12.0798564453125,9.942670581817627,2.1467010635375976,0.3595791618347168
1763692633841815600,12.089815673828125,9.947907897949218,2.060210528564453,0.43783962860107417
1763692633851774500,12.0997744140625,9.920075303649902,2.059013427734375,0.421978042602539
1763692633861734700,12.109734619140625,9.849745629882811,2.1704934425354003,0.33099837951660155
1763692633871693600,12.119693603515625,9.72973627166748,2.295141566467285,0.21083938369750976
1763692633881652500,12.129652587890625,9.60224503326416,2.413953823852539,0.11686696853637694
1763692633891611600,12.139611572265625,9.48073929901123,2.507327688598633,0.030226795959472655
1763692633901570600,12.149570556640626,9.364620518493652,2.564638890838623,-0.060603229522705075
1763692633911529500,12.159529541015624,9.280823460388183,2.5864859809875487,-0.09801263046264648
1763692633921489400,12.169489501953125,9.23144305114746,2.542791800689697,-0.06853402252197265
1763692633931448600,12.179448486328125,9.236231454467774,2.4628853202819823,-0.05431845016479492
1763692633941407500,12.189407470703125,9.285462226104736,2.3491607414245603,-0.029628245544433593
1763692633951366400,12.199366455078126,9.33978067626953,2.2848165718078612,-0.07631517791748046
1763692633961325600,12.20932568359375,9.437344393920897,2.2890064247131345,-0.18405425262451172
1763692633971284700,12.21928466796875,9.548974046325682,2.323273435974121,-0.30151977157592774
1763692633981243600,12.22924365234375,9.64698667678833,2.348113278198242,-0.3338414939880371
1763692633991203600,12.23920361328125,9.823259774017334,2.280327443695068,-0.31438860549926756
1763692634001162500,12.24916259765625,9.996540119171142,2.169296341705322,-0.19437924728393555
1763692634011121400,12.259121337890624,10.178798720550537,2.0548235748291015,-0.08230068206787108
1763692634021080600,12.26908056640625,10.392630856323242,1.8978537284851074,0.020949264526367185
1763692634031039500,12.27903955078125,10.586112277984618,1.7408838821411132,0.11956044540405272
1763692634040998400,12.288998291015625,10.775254209136962,1.6332944450378417,0.18255787658691405
1763692634050958600,12.29895849609375,10.906935300445555,1.584512586212158,0.2518400871276855
1763692634060917500,12.30891748046875,10.980557001495361,1.476623873901367,0.3308487419128418
1763692634070876700,12.318876708984375,10.93072767944336,1.452981132507324,0.45489831542968745
1763692634080835600,12.328835693359375,10.835109250640869,1.4086884017944334,0.5777507881164551
1763692634090794500,12.33879443359375,10.663325281524658,1.3423989433288575,0.6796539962768554
1763692634100753700,12.348753662109376,10.309881261444092,1.3730746520996093,0.7748235122680663
1763692634110713600,12.358713623046874,9.94027638015747,1.5272013839721679,0.7760206130981445
1763692634120672500,12.368672607421875,9.536703762817382,1.7281646858215332,0.737414111328125
1763692634130631400,12.37863134765625,9.215431827545165,1.962646810913086,0.6616974838256836
1763692634140590300,12.38859033203125,9.017461277770996,2.1561282325744626,0.5743091232299804
1763692634150549800,12.3985498046875,8.968230506134033,2.2463597076416013,0.5123591552734374
1763692634160508700,12.4085087890625,8.902389960479736,2.250998473358154,0.4982932205200195
1763692634170468600,12.418468505859375,8.874707003784179,2.2137387100219725,0.5487210929870605
1763692634180427500,12.428427490234375,8.90044467163086,2.1484967147827145,0.5939116493225097
1763692634190386400,12.438386474609375,8.929324729156493,2.13862063293457,0.6432920585632323
1763692634200345300,12.448345458984376,9.031377574920654,2.214187622833252,0.6132149002075195
1763692634210304300,12.45830419921875,9.16111337738037,2.3042694602966307,0.5027823486328125
1763692634220263200,12.46826318359375,9.25089593963623,2.4130559982299804,0.40611645660400386
1763692634230223000,12.47822314453125,9.35264951019287,2.46408242111206,0.3286041778564453
1763692634240182300,12.488182373046875,9.392752388000488,2.449118660736084,0.3000233955383301
1763692634250141200,12.49814111328125,9.431209252166747,2.354398057556152,0.2979284690856933
1763692634260100000,12.50810009765625,9.458443296051025,2.2719477378845214,0.28999767608642574
1763692634270059000,12.51805908203125,9.499443999481201,2.2176292877197263,0.29882629470825195
1763692634280018200,12.52801806640625,9.55645592651367,2.201917339324951,0.3001730331420898
1763692634289978400,12.537978271484375,9.55136824798584,2.1926398078918456,0.3227683113098144
1763692634299937300,12.547937255859376,9.535955574798583,2.2177789253234863,0.3719990829467773
1763692634309896200,12.557896240234374,9.450063590240479,2.2450129692077634,0.41374797439575195
1763692634319855000,12.567855224609374,9.319729237365722,2.325817275238037,0.42661680831909177
1763692634329814300,12.577814208984375,9.126547090911865,2.4651298843383787,0.40057986526489253
1763692634339773200,12.587773193359375,8.837147965240478,2.676418180847168,0.3318962051391601
1763692634349733000,12.597733154296876,8.569595929718018,2.8725930793762204,0.2793734062194824
1763692634359692000,12.607692138671876,8.297255490875244,3.057395520019531,0.266205297088623
1763692634369651200,12.617651123046874,8.068160319519043,3.238157745361328,0.21188684692382811
1763692634379610000,12.627610107421875,7.901164753723144,3.3482910217285156,0.16654665298461913
1763692634389569300,12.6375693359375,7.819312984466552,3.3858500602722166,0.20006547622680662
1763692634399528200,12.647528076171875,7.782951046752929,3.3569700027465816,0.2232593048095703
1763692634409488100,12.657488037109376,7.78893655090332,3.2773627975463864,0.21577742462158203
1763692634419447300,12.667447265625,7.867645930480957,3.2166099304199216,0.16729484100341796
1763692634429406200,12.67740625,8.041824101257324,3.1688755348205566,0.009576806640625
1763692634439365000,12.687365234375,8.28648158340454,3.137302000427246,-0.17073650588989256
1763692634449324000,12.697323974609375,8.510937989044189,3.1108161445617672,-0.32920272827148434
1763692634459283200,12.707283203125,8.778938937377928,3.040935383605957,-0.4144961624145508
1763692634469243100,12.7172431640625,9.055319591522217,2.91119958114624,-0.37933132553100585
1763692634479202300,12.727202392578125,9.310302068328857,2.7582699501037595,-0.28520927276611324
1763692634489161200,12.7371611328125,9.516203411102294,2.5698762069702146,-0.19168577041625975
1763692634499120000,12.7471201171875,9.730334822082519,2.4616882194519043,-0.1744774459838867
1763692634509079300,12.757079345703126,9.871891995239258,2.4802432823181153,-0.2123357597351074
1763692634519038200,12.7670380859375,9.93399160079956,2.4817396583557128,-0.23597850112915036
1763692634528998100,12.776998046875,9.955539415740967,2.4857798736572265,-0.26396073303222656
1763692634538957000,12.78695703125,9.990404977416992,2.555660634613037,-0.25947160491943355
1763692634548916200,12.796916259765625,10.084975942993163,2.6114754608154294,-0.24705168380737302
1763692634558875100,12.806875244140626,10.152462502288818,2.588281632232666,-0.21143793411254883
1763692634568834000,12.816833984375,10.217704497528075,2.4926632034301757,-0.14859014053344727
1763692634578794200,12.826794189453125,10.285191056823729,2.360682836914062,-0.09861118087768554
1763692634588753200,12.836753173828125,10.409689543151854,2.286612223052978,-0.07422025146484375
1763692634598712300,12.84671240234375,10.392780493927,2.290652438354492,-0.05910685348510742
1763692634608671200,12.856671142578126,10.436474674224852,2.3027730842590333,0.007781155395507812
1763692634618630100,12.866630126953124,10.44440546722412,2.233939786529541,0.11656769332885741
1763692634628589000,12.876589111328125,10.455628287506103,2.2315455848693846,0.09352350234985352
1763692634638549000,12.886549072265625,10.454131911468505,2.300378882598877,0.1140238540649414
