time,seconds_elapsed,z,y,x
1763694527060219100,0.17621923828125,0,0,0
1763694527070215400,0.18621533203125,-0.10620403289794922,0.013558626174926758,0.007318377494812012
1763694527090218000,0.206218017578125,-0.07670021057128906,0.16544628143310547,-0.025798439979553223
1763694527110269200,0.226269287109375,0.19270610809326172,0.17446279525756836,-0.1629796028137207
1763694527120214000,0.236214111328125,0.3305540084838867,0.1349942684173584,-0.1185767650604248
1763694527130400000,0.24639990234375,0.43338489532470703,0.07069182395935059,0.033203840255737305
1763694527140255000,0.2562548828125,0.47722339630126953,-0.05064558982849121,0.12945044040679932
1763694527150249500,0.26624951171875,0.5063362121582031,-0.08486199378967285,0.1999882459640503
1763694527160264700,0.2762646484375,0.2855415344238281,-0.04946398735046387,-0.18852758407592773
1763694527170207000,0.28620703125,0.37511634826660156,0.2221667766571045,0.025274991989135742
1763694527180268300,0.296268310546875,0.31114768981933594,0.4605700969696045,0.11587858200073242
1763694527190261000,0.306260986328125,-0.065826416015625,0.45156431198120117,-0.14107483625411987
1763694527200285400,0.316285400390625,-0.39154911041259766,0.3079807758331299,-0.06333261728286743
1763694527210291500,0.32629150390625,-0.6637144088745117,0.14876723289489746,-0.11576491594314575
1763694527220289300,0.336289306640625,-1.4204511642456055,-0.43661773204803467,-0.4079856872558594
1763694527230292000,0.3462919921875,-0.912898063659668,0.21935558319091797,-0.20615211129188538
1763694527240315400,0.3563154296875,-0.43973731994628906,0.693173885345459,0.32655149698257446
1763694527250326500,0.366326416015625,-0.7323312759399414,0.8241329193115234,-0.029703259468078613
1763694527260347600,0.37634765625,-1.080221176147461,0.1834712028503418,-0.9834417104721069
1763694527270363100,0.386363037109375,-0.05983161926269531,0.052910804748535156,-0.42642271518707275
1763694527280344300,0.39634423828125,0.26253700256347656,0.36388540267944336,-0.12820906937122345
1763694527290345200,0.40634521484375,-0.1728048324584961,0.7190537452697754,0.15017028152942657
1763694527300358700,0.416358642578125,-0.5637969970703125,0.8170921802520752,0.5501609444618225
1763694527310365000,0.426364990234375,-0.9011096954345703,0.5247094631195068,1.0318928956985474
1763694527320383700,0.4363837890625,-0.7183771133422852,0.23128795623779297,1.442488193511963
1763694527330395400,0.4463955078125,-0.0017671585083007812,0.17342281341552734,1.7269477844238281
1763694527340391200,0.45639111328125,0.6834506988525391,0.17668938636779785,1.7629770040512085
1763694527350396200,0.466396240234375,0.993983268737793,-0.15352821350097656,1.5725493431091309
1763694527360389400,0.476389404296875,1.0488662719726562,-0.49986279010772705,1.0989580154418945
1763694527370389500,0.486389404296875,1.087925910949707,-0.439170241355896,0.604398250579834
1763694527380391200,0.49639111328125,0.9588088989257812,-0.21685266494750977,0.27274903655052185
1763694527390392000,0.50639208984375,0.6521787643432617,0.09323954582214355,0.15896886587142944
1763694527400405500,0.516405517578125,0.4237642288208008,0.2839353084564209,0.15053442120552063
1763694527410411500,0.52641162109375,0.4625110626220703,0.40674543380737305,0.06845268607139587
1763694527420419300,0.53641943359375,0.696589469909668,0.3210413455963135,-0.18145662546157837
1763694527430426000,0.546426025390625,0.9119186401367188,-0.016189217567443848,-0.2187461405992508
1763694527440461800,0.5564619140625,1.0906896591186523,-0.33232319355010986,-0.06637939810752869
1763694527450481000,0.56648095703125,1.3324661254882812,-0.40575647354125977,-0.06739163398742676
1763694527460475100,0.57647509765625,1.5807390213012695,-0.3130221366882324,-0.3215499520301819
1763694527470483700,0.586483642578125,1.5792665481567383,-0.268896222114563,-0.5972979664802551
1763694527480454700,0.59645458984375,1.3854141235351562,-0.246049165725708,-0.8106783628463745
1763694527490459400,0.60645947265625,1.0028390884399414,-0.19091105461120605,-0.9527689218521118
1763694527500484400,0.616484375,0.6498279571533203,-0.18926644325256348,-0.7925944924354553
1763694527510491100,0.6264912109375,0.2964143753051758,-0.1701596975326538,-0.49763622879981995
1763694527520476700,0.6364765625,0.08236980438232422,-0.21523141860961914,-0.19337144494056702
1763694527530481400,0.6464814453125,-0.21138763427734375,-0.3159130811691284,0.046715766191482544
1763694527540518700,0.6565185546875,-0.3821849822998047,-0.3755197525024414,0.15125367045402527
1763694527550526500,0.6665263671875,-0.2962932586669922,-0.34587132930755615,0.0334627628326416
1763694527560528400,0.6765283203125,-0.1876211166381836,-0.18846094608306885,-0.19289463758468628
1763694527570535700,0.68653564453125,-0.31868457794189453,0.009159564971923828,-0.4478970170021057
1763694527580543000,0.69654296875,-0.6429433822631836,0.11451852321624756,-0.8089858889579773
1763694527590550300,0.70655029296875,-2.0611724853515625,-0.2462019920349121,-1.711859107017517
1763694527600546800,0.716546875,-0.5535478591918945,0.49670469760894775,-0.030802011489868164
1763694527610553000,0.726552978515625,0.1445293426513672,0.9056475162506104,0.6691081523895264
1763694527620547000,0.736547119140625,-1.987386703491211,0.011377334594726562,-0.29149049520492554
1763694527630552000,0.746552001953125,-1.811990737915039,-0.15666615962982178,-0.25558918714523315
1763694527640567300,0.7565673828125,-0.37860870361328125,0.31954407691955566,0.17188042402267456
1763694527650573300,0.7665732421875,-0.022904396057128906,0.44038820266723633,-0.0011946409940719604
1763694527660587000,0.7765869140625,-0.4819068908691406,0.2769742012023926,-0.36835551261901855
1763694527670593800,0.78659375,-0.6685085296630859,0.35339784622192383,-0.42221346497535706
1763694527680588300,0.79658837890625,-0.9366235733032227,0.3201115131378174,-0.3471902012825012
1763694527690593800,0.80659375,-1.3622064590454102,0.2605624198913574,-0.24011945724487305
1763694527700598300,0.816598388671875,-1.348876953125,0.18620657920837402,-0.5731396079063416
1763694527710603800,0.826603759765625,-1.080301284790039,0.03480696678161621,-1.2280042171478271
1763694527720617200,0.8366171875,-0.20868968963623047,0.3657548427581787,-1.0217381715774536
1763694527730623500,0.84662353515625,0.32875919342041016,0.5656750202178955,-1.0540354251861572
1763694527740619300,0.856619384765625,0.9990262985229492,0.5032477378845215,0.4321359395980835
1763694527750624500,0.86662451171875,0.6835060119628906,0.7306268215179443,1.7799603939056396
1763694527760644000,0.87664404296875,-0.23140621185302734,0.4465363025665283,1.891553521156311
1763694527770650600,0.886650634765625,-0.17946815490722656,-0.40213167667388916,0.9927232265472412
1763694527780656600,0.89665673828125,0.17774105072021484,-0.6491982936859131,0.43870723247528076
1763694527790663200,0.9066630859375,0.4517955780029297,-0.20303475856781006,-0.12343227863311768
1763694527800653600,0.916653564453125,0.8476047515869141,0.11578249931335449,-0.9618738889694214
1763694527810658300,0.926658203125,1.023707389831543,-0.03884601593017578,-1.32680082321167
1763694527820687400,0.936687255859375,1.0898923873901367,-0.2631272077560425,-0.7984715700149536
1763694527830694700,0.946694580078125,0.9866628646850586,-0.5062837600708008,-0.03504335880279541
1763694527840696800,0.95669677734375,0.8985786437988281,-0.8192096948623657,0.4517028331756592
1763694527850703600,0.96670361328125,0.8282527923583984,-0.8251266479492188,0.7817189693450928
1763694527860694800,0.97669482421875,0.7253313064575195,-0.6765701770782471,0.5299746990203857
1763694527870700000,0.986699951171875,0.553257942199707,-0.3597559928894043,0.25142228603363037
1763694527880712700,0.996712646484375,0.45600414276123047,-0.25888633728027344,0.20135653018951416
1763694527890718700,1.00671875,0.30893802642822266,0.03285861015319824,0.23252105712890625
1763694527900726500,1.0167265625,-0.13361549377441406,0.4749608039855957,-0.03792428970336914
1763694527910732800,1.02673291015625,-0.6773967742919922,0.5475839376449585,-0.14617013931274414
1763694527920723500,1.036723388671875,-0.7932195663452148,0.46021556854248047,0.05232596397399902
1763694527930728000,1.04672802734375,-0.5150871276855469,-0.017015457153320312,0.28276026248931885
1763694527940744000,1.056743896484375,0.042433738708496094,-0.6559332609176636,0.5211517810821533
1763694527950749700,1.066749755859375,0.6893768310546875,-0.8870760202407837,0.25368690490722656
1763694527960768000,1.07676806640625,0.7535877227783203,-0.5908803939819336,-0.47445058822631836
1763694527970775000,1.086775146484375,0.24310016632080078,0.0494542121887207,-0.9166440963745117
1763694527980758800,1.0967587890625,-0.485809326171875,0.4213235378265381,-1.127312183380127
1763694527990763300,1.10676318359375,-0.7819747924804688,0.49829649925231934,-1.2681372165679932
1763694528000779800,1.11677978515625,-0.5937662124633789,0.4123525619506836,-1.1707956790924072
1763694528010785500,1.12678564453125,-0.39289283752441406,0.1281583309173584,-0.6134626865386963
1763694528020795000,1.136794921875,-0.32528114318847656,0.0516505241394043,-0.09751152992248535
1763694528030801000,1.14680078125,-0.588078498840332,0.023198843002319336,-0.05747342109680176
1763694528040796700,1.156796630859375,-0.7316875457763672,-0.19362080097198486,-0.08229827880859375
1763694528050801700,1.1668017578125,-0.7713804244995117,-0.42609095573425293,0.17052412033081055
1763694528060809200,1.176809326171875,-0.8081293106079102,-0.550605297088623,0.42673301696777344
1763694528070814700,1.186814697265625,-0.965846061706543,-0.5771276950836182,0.6087355613708496
1763694528080831700,1.196831787109375,-1.173130989074707,-0.5288267135620117,0.6964225769042969
1763694528090838000,1.206838134765625,-1.2884817123413086,-0.8501713275909424,0.2851743698120117
1763694528100850700,1.2168505859375,-1.246612548828125,-1.333960771560669,-0.1742563247680664
1763694528110857700,1.226857666015625,-1.2309646606445312,-0.7292251586914062,0.6160969734191895
1763694528120867300,1.236867431640625,-1.5503034591674805,-0.2457047700881958,1.3147401809692383
1763694528130875000,1.246875,-1.9845495223999023,-0.36039984226226807,1.686158299446106
1763694528140860200,1.256860107421875,-2.036510467529297,-0.7741701602935791,1.8425835371017456
1763694528150865200,1.266865234375,-1.8092546463012695,-1.170617938041687,1.9502555131912231
1763694528160864000,1.276864013671875,-1.655705451965332,-1.3978569507598877,1.9553910493850708
1763694528170868500,1.286868408203125,-1.6958913803100586,-1.4272911548614502,1.66538405418396
1763694528180886300,1.29688623046875,-1.024587631225586,-1.291792392730713,1.3073999881744385
1763694528190892000,1.30689208984375,0.26019287109375,-1.0836454629898071,0.9997186660766602
1763694528200895700,1.316895751953125,1.1132144927978516,-1.2192566394805908,0.6155719757080078
1763694528210901200,1.3269013671875,1.2000856399536133,-1.50480055809021,0.31513237953186035
1763694528220929000,1.336928955078125,1.589167594909668,-1.4567654132843018,0.21549487113952637
1763694528230936800,1.346936767578125,1.9356250762939453,-1.4010348320007324,0.38562726974487305
1763694528240898800,1.35689892578125,1.9939279556274414,-1.2469098567962646,0.577796220779419
1763694528250902000,1.366902099609375,2.0493154525756836,-0.9760576486587524,0.39781856536865234
1763694528260940000,1.37693994140625,2.0580129623413086,-0.834388256072998,-0.05140256881713867
1763694528270946800,1.38694677734375,1.925187110900879,-0.6922110915184021,-0.362285852432251
1763694528280945700,1.396945556640625,1.356022834777832,-0.2388063669204712,-0.7823030948638916
1763694528290951400,1.406951416015625,0.6983566284179688,0.2697467803955078,-1.0760340690612793
1763694528300949500,1.416949462890625,0.2989015579223633,0.6231533288955688,-1.1474967002868652
1763694528310954500,1.42695458984375,0.1057119369506836,0.8430402278900146,-1.055645227432251
1763694528320988000,1.43698779296875,0.2908649444580078,1.0103939771652222,-0.8886847496032715
1763694528330995700,1.44699560546875,0.8325662612915039,0.9467157125473022,-0.6788723468780518
1763694528340975000,1.45697509765625,0.9856100082397461,0.711600661277771,-0.6772379875183105
1763694528350980000,1.46697998046875,1.371199607849121,0.40230751037597656,-1.0675265789031982
1763694528360994800,1.476994873046875,1.2893638610839844,0.7653203010559082,-1.274183988571167
1763694528371000800,1.487000732421875,-0.1389293670654297,0.8765230178833008,-0.9048781394958496
1763694528381017600,1.497017578125,-2.1932506561279297,0.4983013868331909,-0.5029120445251465
1763694528391024600,1.507024658203125,-2.519780158996582,0.6093317270278931,-0.2648501396179199
1763694528401009200,1.517009033203125,-1.48150634765625,0.9405295848846436,-0.40050435066223145
1763694528411014000,1.527013916015625,-1.1779050827026367,0.9801841974258423,-0.8900890350341797
1763694528421050400,1.53705029296875,-1.275735855102539,0.9088097810745239,-1.2826459407806396
1763694528431058400,1.547058349609375,-0.737605094909668,1.0047156810760498,-1.3134818077087402
1763694528441047800,1.5570478515625,0.25537109375,0.8852579593658447,-1.1532347202301025
1763694528451054000,1.56705419921875,1.7430009841918945,0.13402903079986572,-1.2549655437469482
1763694528461030700,1.57703076171875,1.5255374908447266,0.3786594867706299,-1.4340400695800781
1763694528471033600,1.58703369140625,0.3978309631347656,-0.691540539264679,-0.003322601318359375
1763694528481067500,1.597067626953125,-0.7484798431396484,-0.27620112895965576,-0.2509636878967285
1763694528491073800,1.60707373046875,-1.5968914031982422,0.9816857576370239,-0.6879584789276123
1763694528501066800,1.617066650390625,-2.2410926818847656,0.7828208208084106,-0.4060389995574951
1763694528511071700,1.62707177734375,-2.433807373046875,0.4804368019104004,-0.5786068439483643
1763694528521065000,1.63706494140625,-2.211658477783203,0.679084062576294,-1.020359992980957
1763694528531068700,1.647068603515625,-1.6476030349731445,0.8815549612045288,-1.5409705638885498
1763694528541110000,1.657110107421875,-0.5263757705688477,0.5180568695068359,-1.8793866634368896
1763694528551117600,1.66711767578125,1.3511457443237305,-0.1119527816772461,-1.8842687606811523
1763694528561090000,1.677090087890625,1.7556648254394531,-0.179895281791687,-1.3635802268981934
1763694528571093800,1.68709375,1.611410140991211,-0.07403373718261719,-1.2848803997039795
1763694528581134300,1.69713427734375,1.4585847854614258,0.19815576076507568,-1.4428021907806396
1763694528591142000,1.707141845703125,1.1557350158691406,0.1139214038848877,-0.9548556804656982
1763694528601117400,1.717117431640625,1.3716163635253906,0.13713312149047852,-0.7250664234161377
1763694528611122000,1.727121826171875,2.09085750579834,0.41785913705825806,-0.9519832134246826
1763694528621156400,1.73715625,2.4423322677612305,0.3709161877632141,-0.6847033500671387
1763694528631164000,1.747163818359375,1.9341325759887695,0.09261935949325562,-0.6294995546340942
1763694528641137400,1.757137451171875,0.6961660385131836,0.09855562448501587,-0.8929557800292969
1763694528651141600,1.7671416015625,-0.26474857330322266,0.2971513867378235,-1.0830556154251099
1763694528661147600,1.777147705078125,-0.5285634994506836,0.6214415431022644,-0.802517294883728
1763694528671151900,1.78715185546875,-0.7896003723144531,0.5940077900886536,-0.25890469551086426
1763694528681185800,1.797185791015625,-1.1757535934448242,0.4786660671234131,0.06876718997955322
1763694528691193000,1.807193115234375,-1.0468807220458984,0.48580431938171387,-0.19615387916564941
1763694528701171000,1.8171708984375,-0.7079887390136719,0.6441607475280762,-0.695649266242981
1763694528711175200,1.827175048828125,-0.3011159896850586,0.6916099786758423,-1.1156188249588013
1763694528721201000,1.837200927734375,0.13612842559814453,0.6137628555297852,-1.550588607788086
1763694528731207200,1.847207275390625,-0.9346246719360352,0.8286383152008057,-1.5525914430618286
1763694528741215700,1.8572158203125,-0.4752006530761719,1.0285032987594604,-1.4899306297302246
1763694528751222500,1.867222412109375,0.9593925476074219,0.7414209246635437,-0.06301426887512207
1763694528761233700,1.877233642578125,-0.43314170837402344,-0.07414722442626953,0.6223963499069214
1763694528771240700,1.88724072265625,-1.3417634963989258,-0.5149478912353516,0.5528659224510193
1763694528781251800,1.897251953125,-0.6577215194702148,-0.5752040147781372,0.7728003263473511
1763694528791259400,1.90725927734375,-0.3450279235839844,-0.24293506145477295,1.0840771198272705
1763694528801247700,1.917247802734375,-0.07281303405761719,-0.3206632435321808,-0.10095322132110596
1763694528811253200,1.927253173828125,0.8415088653564453,-0.25335991382598877,-0.558850884437561
1763694528821245200,1.9372451171875,1.2122182846069336,-0.26306816935539246,-0.8294230699539185
1763694528831249400,1.94724951171875,1.4804677963256836,-0.3678010106086731,-1.0194350481033325
1763694528841266400,1.957266357421875,1.5397863388061523,-0.40879756212234497,-0.6114318370819092
1763694528851271700,1.967271728515625,2.640838623046875,-0.45886126160621643,-0.09097754955291748
1763694528861287200,1.977287109375,1.100478172302246,-0.12090754508972168,-0.24811506271362305
1763694528871293700,1.987293701171875,0.726287841796875,0.26602494716644287,-0.04484760761260986
1763694528881289200,1.997289306640625,0.8617458343505859,-0.07128196954727173,0.04974550008773804
1763694528891294500,2.00729443359375,1.0473756790161133,-0.35157084465026855,0.29897886514663696
1763694528901303800,2.0173037109375,1.1539621353149414,-0.3840780258178711,0.8103629946708679
1763694528911309600,2.0273095703125,0.9959430694580078,-0.3090221881866455,1.0371427536010742
1763694528921327900,2.037327880859375,-11.055931091308594,1.519399881362915,-0.5979967713356018
1763694528931335000,2.0473349609375,-3.1896986961364746,1.9817144870758057,-1.337137222290039
1763694528941320400,2.057320556640625,7.950139999389648,-0.5638306140899658,-0.2683170437812805
1763694528951325400,2.067325439453125,-2.511821746826172,0.7881119251251221,-1.8532917499542236
1763694528961348900,2.077348876953125,1.172201156616211,1.4413208961486816,-1.7102844715118408
1763694528971355600,2.087355712890625,3.6671371459960938,-0.1695193648338318,-1.8858321905136108
1763694528981366800,2.09736669921875,-0.7009334564208984,0.6372085213661194,-1.6766985654830933
1763694528991374000,2.1073740234375,-1.0247907638549805,1.2891426086425781,-1.603348970413208
1763694529001352200,2.117352294921875,1.6536569595336914,2.1706411838531494,-1.0999518632888794
1763694529011356400,2.1273564453125,0.05765056610107422,0.9392764568328857,-0.9130920171737671
1763694529021388800,2.137388916015625,5.5066680908203125,-2.276984214782715,-0.7205492854118347
1763694529031396000,2.14739599609375,3.490243911743164,-1.1647286415100098,-0.2983911633491516
1763694529041391600,2.1573916015625,0.8781681060791016,0.06253725290298462,0.01767563819885254
1763694529051397600,2.167397705078125,-0.3536062240600586,0.4803047180175781,0.9436817169189453
1763694529061404700,2.17740478515625,-1.3608789443969727,0.4573800563812256,0.9094599485397339
1763694529071410700,2.18741064453125,-28.62734603881836,2.1295175552368164,-1.327635645866394
1763694529081424100,2.197424072265625,10.159892082214355,1.3250410556793213,0.6950923204421997
1763694529091431000,2.207430908203125,2.0794029235839844,0.060890115797519684,0.4343278408050537
1763694529101420800,2.2174208984375,1.0480976104736328,-0.6516639590263367,0.47035491466522217
1763694529111426000,2.227426025390625,0.4795246124267578,-0.3877616822719574,0.05087614059448242
1763694529121450000,2.237449951171875,0.6906642913818359,-0.5672718286514282,-0.20741963386535645
1763694529131456800,2.247456787109375,0.8156929016113281,-0.2293931543827057,-0.0933915376663208
1763694529141445000,2.257445068359375,0.5226001739501953,-0.09696020931005478,-0.19849014282226562
1763694529151450000,2.2674501953125,-0.2259073257446289,0.014120623469352722,-0.4805130362510681
1763694529161461000,2.2774609375,-0.9480752944946289,0.295501172542572,-0.35301798582077026
1763694529171466800,2.287466796875,-1.4729890823364258,0.4268539547920227,-0.3595814108848572
1763694529181461200,2.297461181640625,-1.9691400527954102,0.34259551763534546,-0.305364727973938
1763694529211481600,2.327481689453125,-0.8370542526245117,0.42151153087615967,1.0415422916412354
1763694529221487600,2.337487548828125,-0.2505340576171875,0.684104859828949,0.952754020690918
1763694529231492900,2.347492919921875,0.6185770034790039,0.5018594264984131,0.986514687538147
1763694529241509600,2.357509521484375,1.0579614639282227,0.1056833267211914,1.1885647773742676
1763694529251516000,2.367515869140625,1.114659309387207,-0.353796124458313,0.9793317317962646
1763694529261522000,2.37752197265625,0.7842903137207031,-1.0312955379486084,0.9567363858222961
1763694529271528200,2.387528076171875,0.7601966857910156,-1.5577993392944336,1.4182533025741577
1763694529281533400,2.397533447265625,0.7116146087646484,-2.0728402137756348,1.9405553340911865
1763694529291539700,2.407539794921875,0.6901741027832031,-2.4192118644714355,2.161332607269287
1763694529301533000,2.417532958984375,0.9958133697509766,-2.2394773960113525,2.480153799057007
1763694529311538000,2.427537841796875,1.2899961471557617,-2.1017162799835205,2.404010772705078
1763694529321559600,2.4375595703125,1.3505582809448242,-1.8786373138427734,2.068737506866455
1763694529331566300,2.44756640625,1.2080202102661133,-1.8595412969589233,1.7935395240783691
1763694529341570300,2.4575703125,1.3122835159301758,-1.8865243196487427,1.4190129041671753
1763694529351576800,2.467576904296875,1.7920684814453125,-1.7175076007843018,0.7958059310913086
1763694529361565700,2.477565673828125,1.8710412979125977,-0.9933834671974182,-0.6494712829589844
1763694529371570200,2.487570068359375,1.2494897842407227,-0.6214263439178467,-1.538179636001587
1763694529381601300,2.497601318359375,0.00293731689453125,-0.05154132843017578,-2.3529961109161377
1763694529391608600,2.507608642578125,-0.2643470764160156,0.40457937121391296,-2.6172993183135986
1763694529401592000,2.517592041015625,0.21407222747802734,0.48571693897247314,-2.1155526638031006
1763694529411596800,2.5275966796875,0.39743709564208984,0.07099083065986633,-1.770949125289917
1763694529421606400,2.5376064453125,0.1470632553100586,-0.25273364782333374,-1.415975570678711
1763694529431611600,2.547611572265625,0.0987539291381836,-0.436455100774765,-0.5890321731567383
1763694529441619700,2.55761962890625,0.3645038604736328,-0.48044297099113464,0.3680582046508789
1763694529451625200,2.567625244140625,0.5792760848999023,-0.5061803460121155,0.5755124092102051
1763694529461636400,2.57763623046875,0.6584243774414062,-0.5358270406723022,0.5296554565429688
1763694529471642600,2.587642578125,0.45615386962890625,-0.5217870473861694,0.42999935150146484
1763694529481643300,2.597643310546875,0.23511600494384766,-0.7306093573570251,0.5315427780151367
1763694529491648800,2.607648681640625,0.15418720245361328,-1.0831505060195923,0.6758465766906738
1763694529501654500,2.617654541015625,-0.1276111602783203,-1.3830082416534424,0.8681869506835938
1763694529511660300,2.627660400390625,0.19868755340576172,-1.3838398456573486,1.5471835136413574
1763694529521663200,2.637663330078125,-2.9076180458068848,-0.38822129368782043,-1.1138296127319336
1763694529531668500,2.64766845703125,-0.18514251708984375,0.976616621017456,-1.356389045715332
1763694529541685800,2.657685791015625,-0.2451925277709961,1.3856439590454102,1.1123900413513184
1763694529551692300,2.6676923828125,-0.7954921722412109,0.22336304187774658,1.6732196807861328
1763694529561702400,2.677702392578125,-1.3214921951293945,-0.5839828848838806,0.9123673439025879
1763694529571709400,2.68770947265625,-1.2794480323791504,-1.4223051071166992,0.0753016471862793
1763694529581710300,2.69771044921875,-0.34642744064331055,-1.4216712713241577,-0.15621519088745117
1763694529591716600,2.707716552734375,0.5019035339355469,-0.9762332439422607,0.31618833541870117
1763694529601727700,2.717727783203125,0.3894681930541992,-0.024954497814178467,0.5454659461975098
1763694529611734500,2.727734619140625,1.249101161956787,-0.45189177989959717,0.3483257293701172
1763694529621733000,2.737733154296875,0.3865804672241211,-0.5264251232147217,0.49547433853149414
1763694529631739000,2.74773876953125,-0.03542041778564453,-0.8766945600509644,0.9209246635437012
1763694529641744400,2.757744384765625,-0.1345210075378418,-1.2404015064239502,1.0688929557800293
1763694529651750400,2.76775048828125,-0.35463571548461914,-1.4611945152282715,0.9221100807189941
1763694529661756000,2.777755859375,-0.38360071182250977,-1.6476044654846191,0.6844806671142578
1763694529671761700,2.78776171875,0.05281829833984375,-1.5902029275894165,0.6878094673156738
1763694529681780500,2.797780517578125,0.061086177825927734,-1.3352826833724976,-0.10542917251586914
1763694529691787500,2.80778759765625,-0.13735055923461914,-1.2781116962432861,-0.6126046180725098
1763694529701788000,2.817787841796875,-0.12333440780639648,-1.29319429397583,-0.5928783416748047
1763694529711794400,2.82779443359375,0.09123086929321289,-1.6067341566085815,-0.0010995864868164062
1763694529721787000,2.837786865234375,-0.20000696182250977,-2.3377907276153564,0.019336223602294922
1763694529731792000,2.8477919921875,-0.46915626525878906,-2.8036458492279053,-0.20264196395874023
1763694529741799000,2.857798828125,0.12352228164672852,-2.978119373321533,0.7763857841491699
1763694529751804000,2.867803955078125,0.6477823257446289,-2.579895496368408,1.917604923248291
1763694529761826800,2.877826904296875,0.8517065048217773,-1.9160453081130981,2.237619400024414
1763694529771833600,2.88783349609375,0.9206414222717285,-1.4576809406280518,2.4350099563598633
1763694529781827600,2.89782763671875,0.9043154716491699,-1.0195674896240234,2.4094114303588867
1763694529791833300,2.907833251953125,1.0099668502807617,-0.8422103524208069,2.5330429077148438
1763694529801820000,2.91781982421875,1.0287599563598633,-0.6662035584449768,2.930535316467285
1763694529811823600,2.92782373046875,0.7133893966674805,-0.5298491716384888,3.6005687713623047
1763694529821852400,2.937852294921875,0.022243976593017578,-0.3770434856414795,4.290109634399414
1763694529831858400,2.9478583984375,-0.5486977100372314,-0.1734853982925415,4.888225078582764
1763694529841843500,2.957843505859375,-1.1770782470703125,0.21959173679351807,5.126449108123779
1763694529851847700,2.96784765625,-1.7470293045043945,0.7814571857452393,5.059937953948975
1763694529861875200,2.977875244140625,-2.0111215114593506,1.2200417518615723,4.719130992889404
1763694529871881700,2.9878818359375,-1.928800106048584,1.618367075920105,4.038841247558594
1763694529881880800,2.997880859375,-1.698692798614502,2.1281328201293945,3.2361040115356445
1763694529891886600,3.007886474609375,-1.73622465133667,2.549640655517578,2.6104650497436523
1763694529901879300,3.01787939453125,-1.9130148887634277,2.7468924522399902,2.200267791748047
1763694529911883800,3.0278837890625,-1.977250576019287,2.708611488342285,1.8474764823913574
1763694529921908200,3.037908203125,-1.8490076065063477,2.4614391326904297,1.4439787864685059
1763694529931914500,3.04791455078125,-1.863182544708252,2.360952854156494,1.0254735946655273
1763694529941929500,3.057929443359375,-1.6902728080749512,2.1895461082458496,0.7511982917785645
1763694529951936800,3.067936767578125,-1.4855010509490967,1.8663462400436401,0.37640953063964844
1763694529961912800,3.077912841796875,-1.4356138706207275,1.7187201976776123,-0.12219715118408203
1763694529971916800,3.087916748046875,-1.3920738697052002,1.7630748748779297,-0.7678413391113281
1763694529981947400,3.097947509765625,-1.1005704402923584,1.939725399017334,-1.7233943939208984
1763694529991954200,3.1079541015625,-0.6843845844268799,2.0242319107055664,-2.6929664611816406
1763694530001953500,3.11795361328125,-0.4011566638946533,1.6851937770843506,-3.3749876022338867
1763694530011959600,3.12795947265625,-0.045856475830078125,0.8495144844055176,-3.5834712982177734
1763694530021966800,3.137966796875,0.29753804206848145,-0.16166305541992188,-3.470937728881836
1763694530031972900,3.147972900390625,0.371265172958374,-0.8610901832580566,-3.3235106468200684
1763694530041977600,3.1579775390625,0.13956594467163086,-1.0544910430908203,-3.392843723297119
1763694530051983600,3.167983642578125,-0.27100253105163574,-0.6922674179077148,-3.7760181427001953
1763694530061995300,3.177995361328125,-0.5335667133331299,-0.15077590942382812,-4.214672088623047
1763694530072001800,3.188001708984375,-0.3973252773284912,0.2867465019226074,-4.764948844909668
1763694530082001000,3.1980009765625,-0.023421049118041992,0.6034297943115234,-5.2685394287109375
1763694530092006700,3.208006591796875,0.38004279136657715,0.7643394470214844,-5.300210952758789
1763694530102019000,3.21801904296875,0.7982807159423828,0.8519101142883301,-5.050226211547852
1763694530112025300,3.228025390625,1.0302066802978516,0.8190526962280273,-4.707177639007568
1763694530122033000,3.238032958984375,0.9944486618041992,0.6840047836303711,-4.388416767120361
1763694530132039400,3.248039306640625,0.7794065475463867,0.5849871635437012,-4.146913528442383
1763694530142036200,3.2580361328125,0.6503176689147949,0.5024514198303223,-3.854757785797119
1763694530152041700,3.268041748046875,0.8094987869262695,0.6165785789489746,-3.639159679412842
1763694530162054000,3.278053955078125,1.12923002243042,0.9744811058044434,-3.4679460525512695
1763694530172060000,3.288059814453125,1.4622881412506104,1.224745750427246,-3.2497215270996094
1763694530182061000,3.29806103515625,1.810084342956543,1.1899266242980957,-3.0482306480407715
1763694530192066600,3.308066650390625,2.046962022781372,0.9613900184631348,-2.9411001205444336
1763694530202068200,3.318068115234375,2.094491720199585,0.616523265838623,-3.0048508644104004
1763694530212073500,3.328073486328125,1.9234265089035034,0.2988109588623047,-3.2850399017333984
1763694530222087400,3.33808740234375,1.8236294984817505,0.11971569061279297,-3.478577136993408
1763694530232093400,3.348093505859375,1.824129581451416,-0.027336597442626953,-3.6312003135681152
1763694530242101000,3.35810107421875,1.9111732244491577,-0.4174213409423828,-3.7976536750793457
1763694530252107300,3.368107177734375,2.0626964569091797,-0.9734907150268555,-3.949343681335449
1763694530262103800,3.378103759765625,2.105526924133301,-1.3906993865966797,-3.9429187774658203
1763694530272109000,3.388109130859375,2.0424797534942627,-1.6047682762145996,-4.045899391174316
1763694530282118400,3.398118408203125,1.799910306930542,-1.7210807800292969,-4.178472518920898
1763694530292124200,3.408124267578125,1.46490478515625,-1.8314719200134277,-4.292675018310547
1763694530302129200,3.418129150390625,1.1711812019348145,-2.0408477783203125,-4.269594192504883
1763694530312134700,3.428134765625,0.763724684715271,-2.3649206161499023,-4.098565101623535
1763694530322138600,3.438138671875,0.2510227560997009,-2.6699719429016113,-3.718172550201416
1763694530332144000,3.44814404296875,-0.45699822902679443,-3.2903614044189453,-2.513302803039551
1763694530342155500,3.458155517578125,-0.30902454257011414,-4.164646625518799,-0.6746954917907715
1763694530352161500,3.46816162109375,0.06210414320230484,-3.4067234992980957,-1.4351654052734375
1763694530362141000,3.478140869140625,0.011101752519607544,-1.869173526763916,-3.597095012664795
1763694530372144000,3.48814404296875,0.22561654448509216,-1.3366293907165527,-3.30073881149292
1763694530382171100,3.498171142578125,0.9088207483291626,-1.6493020057678223,-1.3293523788452148
1763694530392177000,3.508177001953125,3.1737704277038574,-1.2169923782348633,-0.06304359436035156
1763694530402191600,3.518191650390625,2.934516429901123,-0.8804111480712891,-0.09254074096679688
1763694530412198400,3.528198486328125,2.91196870803833,-0.14793157577514648,-0.6282587051391602
1763694530422202600,3.53820263671875,2.5240139961242676,0.21604537963867188,-0.19730567932128906
1763694530432209200,3.548209228515625,0.6458245515823364,0.2651329040527344,0.0998086929321289
1763694530442217500,3.558217529296875,0.5654664635658264,0.34131336212158203,1.1201157569885254
1763694530452224000,3.56822412109375,1.0175464153289795,0.2794475555419922,2.1476964950561523
1763694530462220800,3.578220703125,0.1987236738204956,1.0627174377441406,0.8346352577209473
1763694530472226600,3.5882265625,-0.4311094284057617,1.6571424007415771,-0.03458881378173828
1763694530482237000,3.59823681640625,-0.8070931434631348,1.6843273639678955,0.08647441864013672
1763694530492243000,3.608242919921875,-0.5006687641143799,1.741980791091919,1.0233330726623535
1763694530502250000,3.61825,0.07734036445617676,1.8848114013671875,2.517514228820801
1763694530512256000,3.628256103515625,-0.6003191471099854,2.098353862762451,2.0159993171691895
1763694530522258700,3.6382587890625,-1.1769273281097412,2.087251663208008,1.5234160423278809
1763694530532264400,3.648264404296875,-0.49033355712890625,1.8581209182739258,2.360233783721924
1763694530542270700,3.658270751953125,-1.2320599555969238,2.25252628326416,2.0200886726379395
1763694530552276500,3.6682763671875,-0.8843750953674316,1.9100309610366821,3.2118663787841797
1763694530562283500,3.678283447265625,-0.6693620681762695,1.578110933303833,4.531750202178955
1763694530572289300,3.688289306640625,0.6337957382202148,0.5134243965148926,6.194494247436523
1763694530582269400,3.69826953125,1.2345623970031738,-0.6901395320892334,6.766660690307617
1763694530592272600,3.708272705078125,1.4711756706237793,-1.4915881156921387,6.482346534729004
1763694530602321700,3.71832177734375,1.0854543447494507,-2.54040265083313,5.803328514099121
1763694530612329500,3.72832958984375,0.7394223213195801,-3.5986804962158203,5.63692569732666
1763694530622327300,3.738327392578125,0.7152924537658691,-2.1831445693969727,2.748257637023926
1763694530632334000,3.748333984375,0.43779778480529785,-0.9162290096282959,0.49903011322021484
1763694530642338300,3.75833837890625,0.9404363632202148,-1.8314461708068848,1.1754679679870605
1763694530652344800,3.7683447265625,1.7390466928482056,-2.7253785133361816,1.340592861175537
1763694530662344700,3.7783447265625,1.78280770778656,-2.2727038860321045,0.680567741394043
1763694530672350700,3.788350830078125,1.6257306337356567,-1.809490442276001,0.23111343383789062
1763694530682353400,3.798353515625,0.9279035329818726,-1.6367568969726562,0.11931896209716797
1763694530692359000,3.80835888671875,-0.0377192497253418,-1.309082269668579,0.32056617736816406
1763694530702372400,3.818372314453125,0.21855449676513672,-0.9358565807342529,0.1481180191040039
1763694530712378600,3.828378662109375,-1.2095391750335693,-1.3930432796478271,0.52215576171875
1763694530722389000,3.838388916015625,0.1020503044128418,-0.3816089630126953,0.3115854263305664
1763694530732395500,3.8483955078125,0.28374719619750977,0.31607723236083984,0.4439048767089844
1763694530742397200,3.858397216796875,-0.30011463165283203,0.7296910285949707,0.0433349609375
1763694530752403500,3.868403564453125,-1.4332923889160156,0.8931796550750732,-0.9926004409790039
1763694530762396700,3.878396728515625,-1.8665130138397217,1.1190147399902344,-2.2573728561401367
1763694530772401700,3.888401611328125,-0.6974527835845947,1.8020797967910767,-3.0126113891601562
1763694530782411300,3.898411376953125,0.7911503314971924,2.6225388050079346,-2.991832733154297
1763694530792416800,3.908416748046875,1.3218988180160522,2.7337560653686523,-1.9869136810302734
1763694530802440400,3.9184404296875,1.083282709121704,2.1514248847961426,-0.08451557159423828
1763694530812447700,3.92844775390625,1.2414134740829468,2.238269329071045,1.774430751800537
1763694530822446800,3.93844677734375,1.6376597881317139,2.535719156265259,2.937183380126953
1763694530832453000,3.948453125,2.1407196521759033,2.7031118869781494,3.9747114181518555
1763694530842425600,3.958425537109375,3.4217755794525146,2.591980218887329,4.0421857833862305
1763694530852428500,3.968428466796875,1.7940081357955933,1.6836066246032715,3.990994453430176
1763694530862441000,3.97844091796875,0.5461602210998535,-1.0306150913238525,-0.2044363021850586
1763694530872445000,3.98844482421875,-0.6233558654785156,-3.713914394378662,-3.7902040481567383
1763694530882450700,3.99845068359375,-2.3772599697113037,-4.505610942840576,-4.673818588256836
1763694530892455000,4.008454833984375,-2.5209784507751465,-4.301614284515381,-3.610013008117676
1763694530902450200,4.0184501953125,-1.5548136234283447,-4.00477933883667,-1.3509674072265625
1763694530912453000,4.028453125,-0.28518474102020264,-2.557511806488037,0.7880463600158691
1763694530922487800,4.03848779296875,0.5069801807403564,-1.5535125732421875,4.0744547843933105
1763694530932494000,4.048494140625,1.092299222946167,-1.3560400009155273,7.58965539932251
1763694530942494700,4.05849462890625,0.46934235095977783,-0.38286781311035156,8.515144348144531
1763694530952500500,4.06850048828125,-5.153489112854004,-2.7602920532226562,3.581185817718506
1763694530962518000,4.07851806640625,-2.4938511848449707,-1.3263497352600098,-0.9986939430236816
1763694530972525000,4.088525146484375,1.5929405689239502,-1.2590532302856445,-2.1981139183044434
1763694530982525400,4.098525390625,2.1426641941070557,-2.231325149536133,-4.662840843200684
1763694530992531700,4.10853173828125,-0.864886999130249,-2.5696449279785156,-4.512988567352295
1763694531002504700,4.118504638671875,-3.8501832485198975,-1.7400918006896973,-4.31320858001709
1763694531012507400,4.12850732421875,-3.315725088119507,-0.3782658576965332,-2.039320468902588
1763694531022560800,4.138560791015625,-0.790440559387207,0.8831372261047363,1.9964985847473145
1763694531032568600,4.148568603515625,2.4249255657196045,3.1776838302612305,1.445115566253662
1763694531042562800,4.158562744140625,3.392350196838379,5.65787410736084,-1.1018633842468262
1763694531052569300,4.1685693359375,2.859029531478882,6.786006927490234,-2.8332042694091797
1763694531062575400,4.178575439453125,1.7496569156646729,6.650813579559326,-2.9991555213928223
1763694531072582000,4.188581787109375,0.674896776676178,5.385578632354736,-1.967747688293457
1763694531082593800,4.19859375,-0.04159736633300781,4.058440685272217,-3.1570024490356445
1763694531092600800,4.208600830078125,0.8932871222496033,3.143707752227783,-2.734431266784668
1763694531102565000,4.218565185546875,2.128884792327881,3.710723876953125,-1.9298381805419922
1763694531112567800,4.22856787109375,1.858321189880371,4.81107234954834,-1.0311837196350098
1763694531122605300,4.238605224609375,1.6696494817733765,4.955214500427246,-0.870521068572998
1763694531132611600,4.248611572265625,2.2263314723968506,7.440769672393799,-1.2800860404968262
1763694531142627300,4.25862744140625,1.329318881034851,8.16446304321289,-3.1493377685546875
1763694531152634400,4.26863427734375,-1.0836036205291748,8.585794448852539,-3.3647680282592773
1763694531162635000,4.278635009765625,-1.3117245435714722,1.9348697662353516,-2.258686065673828
1763694531172641500,4.2886416015625,-1.37333345413208,-2.9667654037475586,-0.7225208282470703
1763694531182648600,4.298648681640625,-1.1981779336929321,-5.7799072265625,0.166290283203125
1763694531192655000,4.308655029296875,-1.9818514585494995,-7.235809326171875,1.4253745079040527
1763694531202686000,4.31868603515625,-3.155902862548828,-7.875335693359375,1.9202954769134521
1763694531212695000,4.328695068359375,-3.995968818664551,-7.668439865112305,2.178697347640991
1763694531222669300,4.33866943359375,-3.56605863571167,-13.260540008544922,4.3186869621276855
1763694531232674800,4.3486748046875,-1.355249047279358,-13.197636604309082,2.2654616832733154
1763694531242677500,4.358677490234375,0.14272797107696533,-8.679335594177246,0.25669002532958984
1763694531252682800,4.368682861328125,0.5875104665756226,-5.197281837463379,-0.1909022331237793
1763694531262695000,4.37869482421875,0.3912067413330078,-2.856973648071289,-0.1914825439453125
1763694531272700700,4.38870068359375,0.8122905492782593,-0.11976814270019531,-0.6052803993225098
1763694531282706200,4.3987060546875,1.5001742839813232,1.8291044235229492,0.4934115409851074
1763694531292712000,4.4087119140625,1.4094616174697876,2.38828182220459,0.4744534492492676
1763694531302712800,4.418712890625,1.5035860538482666,2.5120315551757812,0.21735858917236328
1763694531312718300,4.42871826171875,1.08701753616333,1.287808895111084,-0.6253089904785156
1763694531322733300,4.4387333984375,0.3148503303527832,0.2258615493774414,-0.7945246696472168
1763694531332739600,4.448739501953125,-0.6623563766479492,0.3590841293334961,-2.270063877105713
1763694531342742800,4.45874267578125,-0.7323932647705078,1.3033156394958496,-2.695939540863037
1763694531352748800,4.468748779296875,-0.31530654430389404,1.3928828239440918,-1.9107542037963867
1763694531362757400,4.47875732421875,-0.20257782936096191,1.028195858001709,-0.7924404144287109
1763694531372763600,4.488763671875,-0.11121547222137451,0.4882993698120117,0.40706968307495117
1763694531382761200,4.49876123046875,-0.00019431114196777344,0.010793685913085938,1.2208664417266846
1763694531392766500,4.508766357421875,0.05810832977294922,-0.589167594909668,1.4820191860198975
1763694531402748000,4.518747802734375,0.16742241382598877,-1.019662857055664,1.318577527999878
1763694531412750800,4.528750732421875,-0.051122307777404785,-1.2759132385253906,1.0588343143463135
1763694531422793500,4.53879345703125,-0.16401994228363037,-1.2694578170776367,0.7198486328125
1763694531432800500,4.548800537109375,-0.10740506649017334,-0.9636898040771484,0.46254730224609375
1763694531442796000,4.558796142578125,0.010720491409301758,-0.30945491790771484,0.18289947509765625
1763694531452801800,4.5688017578125,0.31105268001556396,1.1065545082092285,0.2169632911682129
1763694531462801200,4.57880126953125,0.6711996793746948,2.5731821060180664,0.5877265930175781
1763694531472806100,4.58880615234375,-0.4050559997558594,1.9991555213928223,0.32871389389038086
1763694531482814200,4.598814208984375,-0.26070892810821533,0.8032636642456055,0.12051844596862793
1763694531492819500,4.6088193359375,1.2268173694610596,1.1335911750793457,0.8929886817932129
1763694531502809300,4.618809326171875,1.1393405199050903,1.5631346702575684,0.9512820243835449
1763694531512813300,4.628813232421875,0.17987966537475586,2.036956310272217,0.35706543922424316
1763694531522844000,4.638843994140625,-0.07896602153778076,2.645517349243164,0.3622550964355469
1763694531532850400,4.648850341796875,0.23696887493133545,2.539724826812744,0.7377347946166992
1763694531552873000,4.668873046875,-0.27726054191589355,2.1979918479919434,-0.676917552947998
1763694531562869200,4.678869140625,0.5166090130805969,2.3849539756774902,-0.05465269088745117
1763694531572875300,4.688875244140625,-0.11703097820281982,2.655796527862549,-0.04107999801635742
1763694531582869500,4.698869384765625,-0.42428159713745117,3.4729042053222656,-0.5252482891082764
1763694531592874500,4.70887451171875,-0.055358171463012695,4.17836856842041,0.2605257034301758
1763694531612860700,4.728860595703125,0.05943155288696289,5.584510326385498,0.5984914302825928
1763694531622901800,4.73890185546875,0.4308927655220032,4.321381568908691,0.625754714012146
1763694531632908300,4.748908203125,0.22474324703216553,3.989421844482422,0.6629295349121094
1763694531642909000,4.758908935546875,0.7689496278762817,2.693167209625244,1.7387582063674927
1763694531652915000,4.7689150390625,1.8771836757659912,1.3657045364379883,1.1766825914382935
1763694531662920200,4.778920166015625,3.5943567752838135,-4.401921272277832,-2.9926772117614746
1763694531672926200,4.78892626953125,1.375313401222229,-4.697432518005371,-2.9095826148986816
1763694531682933500,4.79893359375,-1.2102469205856323,-4.8187665939331055,-2.020460367202759
1763694531692939500,4.808939453125,0.7145130634307861,-8.408622741699219,-2.3425419330596924
1763694531702910700,4.81891064453125,2.3109512329101562,-10.893857955932617,-3.7853569984436035
1763694531712913400,4.828913330078125,-0.012225866317749023,-8.899168014526367,-2.8825860023498535
1763694531722956800,4.838956787109375,-0.8148434162139893,-6.350253105163574,-1.9351658821105957
1763694531732963300,4.84896337890625,-1.2795366048812866,-0.5352039337158203,-1.6095300912857056
1763694531742968300,4.85896826171875,0.15971910953521729,2.915928363800049,-0.5982405543327332
1763694531752974800,4.868974853515625,2.071092128753662,1.9289393424987793,1.0286383628845215
1763694531762980000,4.87897998046875,2.8440442085266113,-0.3499765396118164,2.369424343109131
1763694531772986600,4.888986572265625,2.422454357147217,-1.2842512130737305,2.5217480659484863
1763694531782996500,4.89899658203125,1.8122706413269043,-0.7088813781738281,1.8503472805023193
1763694531793003000,4.9090029296875,1.766094446182251,-0.4339580535888672,0.5106377601623535
1763694531802971600,4.9189716796875,2.031165838241577,-1.3523197174072266,-0.33476585149765015
1763694531823015000,4.939014892578125,1.2271980047225952,-3.8049964904785156,-0.4499911069869995
1763694531833021400,4.949021484375,0.7508172988891602,-3.5084524154663086,-1.1522160768508911
1763694531843021800,4.959021728515625,-0.8274006843566895,-3.672713279724121,-1.7707866430282593
1763694531853027800,4.96902783203125,-0.5947357416152954,-3.8720827102661133,-3.455562114715576
1763694531863040500,4.97904052734375,0.6142272353172302,-3.33461856842041,-5.2432379722595215
1763694531873047300,4.98904736328125,1.3629142045974731,-3.524655342102051,-6.185938835144043
1763694531883050800,4.99905078125,1.1941417455673218,-2.5240325927734375,-5.986271858215332
1763694531893057000,5.00905712890625,0.1503084897994995,-0.38857460021972656,-4.774641990661621
1763694531903061200,5.019061279296875,-0.6181702613830566,0.8654756546020508,-2.4086761474609375
1763694531913067500,5.029067626953125,-1.6096103191375732,3.9573116302490234,1.1784144639968872
1763694531923068700,5.039068603515625,0.8029513955116272,3.210421562194824,2.7800838947296143
1763694531933074200,5.04907421875,1.7870841026306152,-0.1810293197631836,2.7050342559814453
1763694531943083300,5.059083251953125,1.8861547708511353,-1.1667709350585938,2.4683523178100586
1763694531953089000,5.069089111328125,0.8671573996543884,-1.5742645263671875,1.6524872779846191
1763694531963092200,5.07909228515625,0.09046924114227295,-1.2359123229980469,0.5450087785720825
1763694531973098000,5.089097900390625,0.4995708465576172,-0.0022039413452148438,-1.470016598701477
1763694531983091500,5.099091552734375,0.6380006670951843,0.41556644439697266,-2.68450927734375
1763694531993096000,5.109095947265625,-0.30236899852752686,-0.16614437103271484,-2.3428359031677246
1763694532003079400,5.119079345703125,-0.5686485767364502,-0.7691583633422852,-1.492898941040039
1763694532013081900,5.129081787109375,-0.2298135757446289,-1.2176790237426758,-0.8357992172241211
1763694532023127000,5.139126953125,0.11142396926879883,-1.5262632369995117,-0.22097480297088623
1763694532033133600,5.149133544921875,0.1569763422012329,-1.844162940979004,0.29172658920288086
1763694532043125200,5.159125244140625,0.47692418098449707,-1.7230558395385742,0.7035140991210938
1763694532053130200,5.169130126953125,0.9271230697631836,-1.3980703353881836,0.8094984292984009
1763694532063171600,5.179171630859375,1.2534515857696533,-0.9793233871459961,0.6790908575057983
1763694532073180400,5.189180419921875,1.6224989891052246,-0.5764255523681641,0.36877763271331787
1763694532083186000,5.19918603515625,1.7407758235931396,-0.26999664306640625,-0.02231574058532715
1763694532093194500,5.209194580078125,1.6886029243469238,-0.08348464965820312,-0.44483482837677
1763694532103168800,5.219168701171875,1.6093896627426147,0.08371543884277344,-0.8164442777633667
1763694532113173800,5.229173828125,1.5027903318405151,0.1885995864868164,-1.0696337223052979
1763694532123192600,5.239192626953125,1.2789463996887207,0.24051380157470703,-1.210006833076477
1763694532133199000,5.24919921875,0.9925569891929626,0.25833892822265625,-1.1903765201568604
1763694532143199500,5.259199462890625,0.7601265907287598,0.17503643035888672,-1.054245114326477
1763694532153205200,5.269205322265625,0.6544635891914368,0.08636474609375,-0.8678845167160034
1763694532163215400,5.27921533203125,0.5757148861885071,-0.15571212768554688,-0.6688424944877625
1763694532173221000,5.28922119140625,0.41451677680015564,-0.3547821044921875,-0.4362908601760864
1763694532183227600,5.2992275390625,0.32763785123825073,-0.6063337326049805,-0.03027939796447754
1763694532193233700,5.309233642578125,0.30276739597320557,-0.8341903686523438,0.44719064235687256
1763694532203191600,5.319191650390625,0.33353784680366516,-0.9338245391845703,0.875083327293396
1763694532213193000,5.32919287109375,0.2406957745552063,-0.9205312728881836,1.1373556852340698
1763694532223254300,5.339254150390625,-0.06469190120697021,-0.8570547103881836,1.2864208221435547
1763694532233261600,5.349261474609375,-0.44367387890815735,-0.6576728820800781,1.3354212045669556
1763694532243260000,5.359260009765625,-0.7341510057449341,-0.47544384002685547,1.1541898250579834
1763694532253266400,5.369266357421875,-0.8142333030700684,-0.37193775177001953,0.8871889114379883
1763694532263255300,5.37925537109375,-0.7498368620872498,-0.27005958557128906,0.6261022090911865
1763694532273260000,5.389260009765625,-0.5444910526275635,-0.1835346221923828,0.3863084316253662
1763694532283289900,5.399289794921875,-0.21297478675842285,-0.1263561248779297,0.23493993282318115
1763694532293297000,5.409296875,-0.023468375205993652,-0.04094886779785156,0.18137764930725098
1763694532303281200,5.41928125,-0.031581759452819824,0.02046966552734375,0.05755925178527832
1763694532313286000,5.429285888671875,-0.18755555152893066,0.06329727172851562,-0.1267460584640503
1763694532323314700,5.439314697265625,-0.25699520111083984,0.06393241882324219,-0.2572198510169983
1763694532333322000,5.449322021484375,-0.27001917362213135,0.07487773895263672,-0.44043874740600586
1763694532343321300,5.4593212890625,-0.3500722646713257,0.005595207214355469,-0.5585424900054932
1763694532353327900,5.469327880859375,-0.4704345464706421,-0.048465728759765625,-0.6073052883148193
1763694532363339500,5.479339599609375,-0.7047799825668335,-0.006253242492675781,-0.5751945376396179
1763694532373346600,5.4893466796875,-0.6859346628189087,-0.001735687255859375,-0.4085853397846222
1763694532383347700,5.49934765625,-0.6636689901351929,0.08437156677246094,-0.17100930213928223
1763694532393354000,5.50935400390625,-0.8621584177017212,0.2806129455566406,0.04125577211380005
1763694532403326200,5.519326171875,-1.111750602722168,0.4631223678588867,0.24308538436889648
1763694532413329200,5.5293291015625,-1.2630841732025146,0.6324243545532227,0.4072110056877136
1763694532423370000,5.539369873046875,-1.2774403095245361,0.7697877883911133,0.5920386910438538
1763694532433376800,5.549376708984375,-1.1695985794067383,0.9469394683837891,0.7829917669296265
1763694532443380500,5.55938037109375,-0.8364099264144897,1.0343990325927734,0.9320443868637085
1763694532453387000,5.569386962890625,-0.6133972406387329,1.0083274841308594,1.0627567768096924
1763694532463399000,5.57939892578125,-0.49039292335510254,0.9359655380249023,1.1464985609054565
1763694532473406000,5.589406005859375,-0.3426215648651123,0.7936639785766602,1.1601192951202393
1763694532483409400,5.599409423828125,-0.2517423629760742,0.5384740829467773,1.1467607021331787
1763694532493416200,5.609416259765625,-0.037587881088256836,0.3134899139404297,1.0671336650848389
1763694532503398700,5.619398681640625,0.06818318367004395,0.012928009033203125,0.9630569815635681
1763694532513403000,5.62940283203125,0.09831738471984863,-0.253448486328125,0.8814948797225952
1763694532523436000,5.63943603515625,0.07162737846374512,-0.4285554885864258,0.8166278004646301
1763694532533443300,5.649443359375,0.045453786849975586,-0.4696836471557617,0.7718623876571655
1763694532543438000,5.65943798828125,0.04852128028869629,-0.38668155670166016,0.6702578067779541
1763694532553443800,5.66944384765625,0.11405801773071289,-0.2085285186767578,0.6118605732917786
1763694532563453200,5.679453125,0.221968412399292,-0.05504417419433594,0.6204359531402588
1763694532573459500,5.68945947265625,0.304384708404541,0.09752082824707031,0.6763975620269775
1763694532583460400,5.69946044921875,0.4417150020599365,0.2346487045288086,0.8174244165420532
1763694532593465900,5.7094658203125,0.6375732421875,0.38959217071533203,0.9048277735710144
1763694532603456500,5.71945654296875,0.8674173355102539,0.5574159622192383,0.9959111213684082
1763694532613460700,5.729460693359375,1.0748116970062256,0.7239971160888672,0.9618332982063293
1763694532623501800,5.739501708984375,1.151271104812622,0.8418979644775391,0.8561736345291138
1763694532633510000,5.749510009765625,1.0938682556152344,0.8447656631469727,0.7426328063011169
1763694532643497000,5.7594970703125,1.1475069522857666,0.8429975509643555,0.545966386795044
1763694532653502700,5.769502685546875,1.2644026279449463,0.8462362289428711,0.3101552426815033
1763694532663511300,5.77951123046875,1.2639291286468506,0.9884500503540039,0.0019012391567230225
1763694532673517300,5.789517333984375,1.1534473896026611,1.1934375762939453,-0.4017994999885559
1763694532683526100,5.799526123046875,1.101839303970337,1.380239486694336,-0.7413205504417419
1763694532693532400,5.809532470703125,1.1613352298736572,1.4055719375610352,-1.1022108793258667
1763694532703496700,5.81949658203125,1.143841028213501,1.3363285064697266,-1.3886860609054565
1763694532713498600,5.82949853515625,0.9724903106689453,1.158254623413086,-1.6197785139083862
1763694532723547100,5.839547119140625,0.8284296989440918,0.9096431732177734,-1.742937445640564
1763694532733554000,5.849553955078125,0.8913695812225342,0.585479736328125,-1.7250754833221436
1763694532743569700,5.859569580078125,1.0344641208648682,0.30492115020751953,-1.6040326356887817
1763694532753577200,5.8695771484375,1.1885511875152588,0.1105356216430664,-1.4108270406723022
1763694532763567400,5.8795673828125,1.41497802734375,0.04026603698730469,-1.005610466003418
1763694532773573400,5.889573486328125,1.5758512020111084,0.07483959197998047,-0.42333635687828064
1763694532783582200,5.899582275390625,1.6682367324829102,0.23328399658203125,0.2123105525970459
1763694532793588200,5.909588134765625,1.5078681707382202,0.46294307708740234,0.8920358419418335
1763694532803573800,5.91957373046875,1.0127546787261963,0.6925449371337891,1.469198226928711
1763694532813577700,5.92957763671875,0.5361196994781494,0.745997428894043,1.9614427089691162
1763694532823613400,5.939613525390625,-0.03468656539916992,0.5237207412719727,2.440347194671631
1763694532833620700,5.949620849609375,-0.6188328266143799,0.030897140502929688,2.82499098777771
1763694532843613700,5.95961376953125,-0.6746917963027954,-0.6704349517822266,3.096850633621216
1763694532853619500,5.969619384765625,-0.09988260269165039,-1.4759387969970703,3.241750717163086
1763694532863629800,5.9796298828125,0.6536358594894409,-2.166685104370117,3.156022787094116
1763694532873636000,5.989635986328125,1.3952460289001465,-2.5522642135620117,2.3853378295898438
1763694532883644700,5.999644775390625,1.669732689857483,-2.5376062393188477,0.6701427102088928
1763694532893651200,6.009651123046875,0.9693520069122314,-2.0604448318481445,-1.6099045276641846
1763694532903704800,6.019704833984375,-0.07206356525421143,-1.2874555587768555,-3.4173755645751953
1763694532913716000,6.029716064453125,-0.8923377394676208,-0.43790340423583984,-4.006619930267334
1763694532923664600,6.03966455078125,-0.9095930457115173,0.48792362213134766,-3.107116222381592
1763694532933669400,6.04966943359375,-0.3505622148513794,1.264266014099121,-1.2428034543991089
1763694532943678500,6.059678466796875,0.057531118392944336,1.8041691780090332,0.5536450147628784
1763694532953684000,6.06968408203125,0.15372586250305176,1.9928507804870605,1.7880744934082031
1763694532963685600,6.079685546875,0.00964665412902832,1.859764575958252,2.32643461227417
1763694532973690600,6.089690673828125,-0.11453092098236084,1.4060497283935547,2.1064553260803223
1763694532983674600,6.099674560546875,-0.3122992515563965,0.6855487823486328,1.3135830163955688
1763694532993677600,6.109677490234375,-0.6909947395324707,-0.05689430236816406,0.3055141568183899
1763694533003704000,6.1197041015625,-1.219633936882019,-0.6869564056396484,-0.6331291198730469
1763694533013709300,6.129709228515625,-1.5913666486740112,-1.1569223403930664,-1.278886079788208
1763694533023714600,6.139714599609375,-1.5075181722640991,-1.4578847885131836,-1.6077353954315186
1763694533033719800,6.1497197265625,-0.9729207158088684,-1.5286436080932617,-1.5780212879180908
1763694533043730700,6.159730712890625,-0.2974867522716522,-1.3749656677246094,-1.1496082544326782
1763694533053736400,6.169736328125,0.12441259622573853,-1.0025386810302734,-0.5274831652641296
1763694533063748600,6.17974853515625,0.22647571563720703,-0.5744819641113281,0.10689783096313477
1763694533073755100,6.189755126953125,0.08097052574157715,-0.07196998596191406,0.6303185820579529
1763694533083754800,6.199754638671875,-0.18649530410766602,0.3854331970214844,0.8933173418045044
1763694533093760500,6.209760498046875,-0.5651724338531494,0.726348876953125,0.9740737676620483
1763694533103764200,6.21976416015625,-0.919192910194397,0.9274139404296875,0.9516384601593018
1763694533113769700,6.229769775390625,-1.055260181427002,0.946192741394043,0.9239585399627686
1763694533123774200,6.239774169921875,-0.9592081308364868,0.7927122116088867,0.9300676584243774
1763694533133779700,6.24977978515625,-0.6950204372406006,0.4816761016845703,0.8269898891448975
1763694533143777800,6.25977783203125,-0.389472633600235,0.08984184265136719,0.7295830845832825
1763694533153782500,6.269782470703125,-0.09733548760414124,-0.3204975128173828,0.5471138954162598
1763694533163785700,6.27978564453125,0.0661582201719284,-0.5868244171142578,0.39467287063598633
1763694533173790200,6.289790283203125,0.1347913146018982,-0.6807565689086914,0.31552940607070923
1763694533183792000,6.299792236328125,0.2144850492477417,-0.5644512176513672,0.252261757850647
1763694533193796400,6.30979638671875,0.40955469012260437,-0.2813720703125,0.20960396528244019
1763694533203816000,6.31981591796875,0.5468953847885132,-0.03252220153808594,0.27763980627059937
1763694533213821700,6.32982177734375,0.4749791622161865,0.1487293243408203,0.2640819549560547
1763694533223849000,6.339848876953125,0.36266279220581055,0.27689075469970703,0.15947836637496948
1763694533233857000,6.34985693359375,0.12546579539775848,0.17541217803955078,0.06998622417449951
1763694533243826400,6.359826416015625,-0.019300758838653564,-0.04529762268066406,-0.04709959030151367
1763694533253830700,6.36983056640625,0.028287440538406372,-0.3132619857788086,-0.18149301409721375
1763694533263859000,6.37985888671875,0.14647531509399414,-0.551823616027832,-0.2841953635215759
1763694533273865500,6.389865478515625,0.11405861377716064,-0.6320285797119141,-0.3645462691783905
1763694533283874800,6.399874755859375,-0.09615340828895569,-0.5066127777099609,-0.428680956363678
1763694533293881600,6.409881591796875,-0.23989281058311462,-0.26688385009765625,-0.4534386396408081
1763694533303891000,6.419890869140625,-0.20340779423713684,-0.15193462371826172,-0.3389286696910858
1763694533313898000,6.42989794921875,-0.0021743178367614746,-0.18529701232910156,0.005170583724975586
1763694533323898000,6.439898193359375,0.1909545361995697,-0.24242019653320312,0.41498392820358276
1763694533333904400,6.449904296875,0.16640084981918335,-0.1466236114501953,0.7115546464920044
1763694533343910100,6.45991015625,0.002631574869155884,0.10632514953613281,0.7449260950088501
1763694533353916400,6.46991650390625,-0.15074658393859863,0.3488130569458008,0.5493310689926147
1763694533363925000,6.479925048828125,-0.21257203817367554,0.31824493408203125,0.25119662284851074
1763694533373931300,6.48993115234375,-0.3024708032608032,0.19210529327392578,-0.03300929069519043
1763694533383929000,6.49992919921875,-0.4244534373283386,0.008839607238769531,-0.302529901266098
1763694533393934800,6.509934814453125,-0.5726489424705505,-0.09294509887695312,-0.523647665977478
1763694533403970000,6.519969970703125,-0.5313303470611572,-0.12305068969726562,-0.6292640566825867
1763694533413978400,6.529978271484375,-0.3222176432609558,-0.20568180084228516,-0.5949472188949585
1763694533423954700,6.53995458984375,-0.38928526639938354,-0.1736316680908203,-0.3646899461746216
1763694533433960000,6.5499599609375,-0.21855229139328003,-0.2566366195678711,-0.1302519142627716
1763694533443960000,6.5599599609375,-0.19436883926391602,-0.3110837936401367,-0.02177688479423523
1763694533453964800,6.56996484375,-0.1752527952194214,-0.2700624465942383,-0.11615011096000671
1763694533463981000,6.57998095703125,0.009791553020477295,-0.1814441680908203,-0.2924586832523346
1763694533473986800,6.58998681640625,0.187250018119812,-0.1120290756225586,-0.45344382524490356
1763694533483991000,6.599990966796875,0.2571222186088562,-0.1620922088623047,-0.5134827494621277
1763694533493996800,6.609996826171875,0.20259445905685425,-0.19777393341064453,-0.5733715891838074
1763694533503997700,6.619997802734375,0.12078547477722168,-0.14282703399658203,-0.700336217880249
1763694533514003000,6.6300029296875,0.07908129692077637,0.040656089782714844,-0.8851053714752197
1763694533524024600,6.640024658203125,0.09573632478713989,0.24256229400634766,-1.0222924947738647
1763694533534031400,6.65003125,0.16486793756484985,0.3913421630859375,-1.1444675922393799
1763694533544031000,6.660031005859375,0.16648966073989868,0.33435916900634766,-1.2129135131835938
1763694533554037000,6.670037109375,0.16210263967514038,0.09610462188720703,-1.1608002185821533
1763694533564059400,6.680059326171875,0.2522154450416565,-0.24658679962158203,-0.9937918186187744
1763694533574067200,6.690067138671875,0.36925357580184937,-0.5596780776977539,-0.7891255617141724
1763694533584060200,6.70006005859375,0.4800492525100708,-0.7047557830810547,-0.5373857021331787
1763694533594066400,6.71006640625,0.42701369524002075,-0.6201667785644531,-0.32519158720970154
1763694533604048600,6.720048583984375,0.42553526163101196,-0.4831972122192383,-0.19516170024871826
1763694533614052600,6.730052490234375,0.5036856532096863,-0.37035369873046875,-0.1330830156803131
1763694533624083000,6.7400830078125,0.5465373396873474,-0.22901248931884766,-0.15787911415100098
1763694533634089500,6.75008935546875,0.5251293778419495,-0.08305931091308594,-0.293053537607193
1763694533644093200,6.76009326171875,0.47789937257766724,0.09139060974121094,-0.3757168650627136
1763694533654099500,6.770099365234375,0.36698514223098755,0.2559967041015625,-0.4494553208351135
1763694533664110800,6.78011083984375,0.231941819190979,0.30556583404541016,-0.4185405373573303
1763694533674117600,6.79011767578125,0.19323503971099854,0.15908145904541016,-0.4212595820426941
1763694533684113000,6.80011279296875,0.1815948486328125,-0.15215110778808594,-0.33281368017196655
1763694533694118700,6.81011865234375,0.27458786964416504,-0.505436897277832,-0.2932049632072449
1763694533704116700,6.82011669921875,0.3100576400756836,-0.6504697799682617,-0.3909905254840851
1763694533714121700,6.830121826171875,0.2229682207107544,-0.5247964859008789,-0.5062847137451172
1763694533724141600,6.8401416015625,0.18498992919921875,-0.1988363265991211,-0.657089114189148
1763694533734147800,6.85014794921875,0.1667114496231079,0.06521224975585938,-0.7899056673049927
1763694533744151000,6.860151123046875,0.21540021896362305,0.11294364929199219,-0.7068982124328613
1763694533754157000,6.870156982421875,0.3675267696380615,0.0043926239013671875,-0.4978235960006714
1763694533764161800,6.880161865234375,0.5737265944480896,-0.2437572479248047,-0.2564297318458557
1763694533774167800,6.890167724609375,0.6250180602073669,-0.3465871810913086,-0.2055661678314209
1763694533784169200,6.900169189453125,0.4396498203277588,-0.17940902709960938,-0.33192482590675354
1763694533794174500,6.910174560546875,0.34678006172180176,0.03674125671386719,-0.4376004934310913
1763694533804141300,6.920141357421875,0.37330853939056396,0.07033729553222656,-0.4233648180961609
1763694533814142700,6.930142822265625,0.45141172409057617,-0.02852916717529297,-0.35754111409187317
1763694533824196400,6.9401962890625,0.5331199169158936,-0.12583637237548828,-0.25559157133102417
1763694533834203100,6.950203125,0.6034932732582092,-0.08027267456054688,-0.24113565683364868
1763694533844184000,6.96018408203125,0.5737770795822144,0.0680074691772461,-0.2800968885421753
1763694533854188300,6.970188232421875,0.5597037076950073,0.1570272445678711,-0.3198196291923523
1763694533864196000,6.980196044921875,0.6127597689628601,0.07010364532470703,-0.345437228679657
1763694533874200800,6.990200927734375,0.6503031849861145,-0.2225637435913086,-0.3337506055831909
1763694533884199400,7.000199462890625,0.6529830098152161,-0.42083072662353516,-0.3708190321922302
1763694533894203400,7.010203369140625,0.6127183437347412,-0.36628055572509766,-0.5262223482131958
1763694533904253000,7.0202529296875,0.6101553440093994,-0.14308738708496094,-0.6322680115699768
1763694533914261500,7.030261474609375,0.6345119476318359,0.024805068969726562,-0.7032214403152466
1763694533924229000,7.04022900390625,0.6235811710357666,0.05368518829345703,-0.772304356098175
1763694533934233600,7.050233642578125,0.5543626546859741,-0.049492835998535156,-0.7465453743934631
1763694533944246000,7.06024609375,0.5138591527938843,-0.16507244110107422,-0.7600428462028503
1763694533954251300,7.070251220703125,0.4842383861541748,-0.12353229522705078,-0.8303011655807495
1763694533964262700,7.0802626953125,0.4801753759384155,0.006482124328613281,-0.8573223352432251
1763694533974268400,7.090268310546875,0.49197959899902344,0.14811038970947266,-0.8938515186309814
1763694533984269000,7.10026904296875,0.5049846172332764,0.17409801483154297,-0.8545850515365601
1763694533994274300,7.1102744140625,0.49025988578796387,0.048743247985839844,-0.7980373501777649
1763694534004292000,7.1202919921875,0.43334317207336426,-0.16409683227539062,-0.8187004923820496
1763694534014298600,7.130298583984375,0.34384143352508545,-0.3263397216796875,-0.8683138489723206
1763694534024284200,7.1402841796875,0.2741053104400635,-0.3304901123046875,-0.9693772196769714
1763694534034288600,7.15028857421875,0.18665695190429688,-0.08974456787109375,-1.1156229972839355
1763694534044315100,7.160315185546875,0.11931455135345459,0.12356853485107422,-1.234336495399475
1763694534054321700,7.17032177734375,0.19435536861419678,-0.02899646759033203,-1.1501243114471436
1763694534064337400,7.18033740234375,0.3664515018463135,-0.4424915313720703,-0.9527537226676941
1763694534074345000,7.190344970703125,0.47721850872039795,-0.8629617691040039,-0.9053860306739807
1763694534084370200,7.2003701171875,0.5505876541137695,-0.9088010787963867,-1.0387709140777588
1763694534094379500,7.210379638671875,0.5630378723144531,-0.6189899444580078,-1.306226372718811
1763694534104343300,7.22034326171875,0.5287216901779175,-0.21075916290283203,-1.4975950717926025
1763694534114348000,7.23034814453125,0.4443013668060303,0.07368946075439453,-1.552776575088501
1763694534124398300,7.2403984375,0.3448002338409424,0.14209270477294922,-1.4545114040374756
1763694534134407700,7.25040771484375,0.2733265161514282,-0.0819864273071289,-1.3077762126922607
1763694534144435200,7.260435302734375,0.3185100555419922,-0.4805154800415039,-1.0839674472808838
1763694534154446300,7.2704462890625,0.37854838371276855,-0.7773666381835938,-0.8835749626159668
1763694534164436700,7.280436767578125,0.4340404272079468,-0.8800888061523438,-0.7068595886230469
1763694534174445800,7.29044580078125,0.4331759214401245,-0.9143772125244141,-0.5913563370704651
1763694534184450600,7.300450439453125,0.4477534294128418,-0.8861370086669922,-0.4698934555053711
1763694534194459100,7.310459228515625,0.4641464948654175,-0.8954439163208008,-0.28131482005119324
1763694534204377600,7.320377685546875,0.5389381647109985,-0.8806219100952148,-0.051739513874053955
1763694534214377000,7.330376953125,0.6652180552482605,-0.8797569274902344,0.18764513731002808
1763694534224448500,7.340448486328125,0.8268417119979858,-0.8643722534179688,0.41610288619995117
1763694534234455300,7.350455322265625,0.9618852734565735,-0.8302106857299805,0.6458328366279602
1763694534244464000,7.360464111328125,1.1167927980422974,-0.7964744567871094,0.8142530918121338
1763694534254471200,7.37047119140625,1.3089615106582642,-0.736027717590332,0.9063250422477722
1763694534264435000,7.38043505859375,1.4729264974594116,-0.7279958724975586,0.8926888704299927
1763694534274437600,7.390437744140625,1.539590835571289,-0.7528667449951172,0.7046573758125305
1763694534284444200,7.400444091796875,1.4856021404266357,-0.7103557586669922,0.5264907479286194
1763694534294447000,7.410447021484375,1.3500876426696777,-0.5769796371459961,0.3211526870727539
1763694534304471000,7.420470947265625,1.2155848741531372,-0.3007469177246094,0.15135949850082397
1763694534314476000,7.43047607421875,1.197352409362793,-0.09237861633300781,0.06600534915924072
1763694534324461800,7.4404619140625,1.2505642175674438,-0.03299522399902344,-0.029627203941345215
1763694534334465000,7.450465087890625,1.1623791456222534,-0.0412445068359375,-0.10176634788513184
1763694534344472600,7.46047265625,0.9812207221984863,-0.17470932006835938,-0.17367273569107056
1763694534354476300,7.470476318359375,0.874238133430481,-0.3476133346557617,-0.1784089207649231
1763694534364486700,7.480486572265625,0.9599230885505676,-0.5508403778076172,-0.20149552822113037
1763694534374491000,7.490490966796875,0.851355791091919,-0.6798858642578125,-0.05150341987609863
1763694534384497700,7.50049755859375,0.3322787582874298,-0.7213306427001953,0.1739567518234253
1763694534394502100,7.510502197265625,-0.14740929007530212,-0.6088829040527344,0.48303133249282837
1763694534404507600,7.520507568359375,-0.5166879892349243,-0.443206787109375,0.8081852197647095
1763694534414512000,7.53051220703125,-0.609390139579773,-0.3482809066772461,1.1203677654266357
1763694534424512800,7.5405126953125,-0.6059344410896301,-0.20891952514648438,1.4910387992858887
1763694534434517000,7.55051708984375,-0.41208142042160034,-0.025238990783691406,1.794179916381836
1763694534444545000,7.560544921875,-0.12437117099761963,0.14949798583984375,1.896829605102539
1763694534454551800,7.5705517578125,0.013271570205688477,0.22445201873779297,1.656548023223877
1763694534464547300,7.58054736328125,-0.3261716365814209,-0.0951528549194336,1.1387945413589478
1763694534474552800,7.590552734375,-0.9662423133850098,-0.39542579650878906,0.5314518809318542
1763694534484551400,7.600551513671875,-1.4894663095474243,-0.6693687438964844,-0.024137258529663086
1763694534494556200,7.61055615234375,-1.6292484998703003,-0.8539924621582031,-0.4192960262298584
1763694534504551400,7.620551513671875,-1.3534512519836426,-1.0455827713012695,-0.49026867747306824
1763694534514555400,7.630555419921875,-1.3321797847747803,-1.092386245727539,-0.2640499472618103
1763694534524588300,7.64058837890625,-1.5228376388549805,-1.0618419647216797,0.11218634247779846
1763694534534595000,7.650594970703125,-1.5328857898712158,-1.0398988723754883,0.5972837209701538
1763694534544594000,7.660593994140625,-1.582953929901123,-0.8736448287963867,0.9310321807861328
1763694534554600000,7.670599853515625,-1.610691785812378,-0.5535717010498047,1.1341310739517212
1763694534564610600,7.680610595703125,-1.5357121229171753,-0.1755838394165039,1.2381011247634888
1763694534574617000,7.6906171875,-1.4019602537155151,0.2600994110107422,1.1784725189208984
1763694534584615000,7.700614990234375,-1.147780179977417,0.7055368423461914,1.105226755142212
1763694534594620400,7.710620361328125,-0.9655842781066895,0.9884014129638672,1.0474672317504883
1763694534604642300,7.720642333984375,-0.8267085552215576,1.214076042175293,1.08164644241333
1763694534614649600,7.730649658203125,-0.8163473606109619,1.2730541229248047,1.2194361686706543
1763694534624655600,7.740655517578125,-0.8528430461883545,1.3234586715698242,1.358538269996643
1763694534634662700,7.75066259765625,-0.8174452781677246,1.3078289031982422,1.5538549423217773
1763694534644659000,7.760658935546875,-0.8697075843811035,1.2067413330078125,1.7750389575958252
1763694534654665000,7.7706650390625,-0.9297657012939453,1.062943458557129,2.0170249938964844
1763694534664669400,7.78066943359375,-0.9790694713592529,0.8908824920654297,2.205561637878418
1763694534674675200,7.79067529296875,-1.1133017539978027,0.7719926834106445,2.2485170364379883
1763694534684675300,7.80067529296875,-1.2499303817749023,0.7257661819458008,2.1800427436828613
1763694534694680600,7.8106806640625,-1.3210299015045166,0.7191371917724609,1.9854036569595337
1763694534704707000,7.82070703125,-1.306946039199829,0.7762632369995117,1.7461897134780884
1763694534714714400,7.83071435546875,-1.1835877895355225,0.9307346343994141,1.5286641120910645
1763694534724695800,7.84069580078125,-0.927262544631958,1.1299552917480469,1.3558577299118042
1763694534734700500,7.850700439453125,-0.6726057529449463,1.3306293487548828,1.2283718585968018
1763694534744747000,7.8607470703125,-0.4962172508239746,1.484814167022705,1.1574395895004272
1763694534754756000,7.870756103515625,-0.3257119655609131,1.5306029319763184,1.0634223222732544
1763694534764731400,7.8807314453125,-0.18442726135253906,1.487433910369873,0.9813597202301025
1763694534774737000,7.89073681640625,-0.028664112091064453,1.403515338897705,0.8681884407997131
1763694534784742400,7.900742431640625,0.1026303768157959,1.3025493621826172,0.6953285932540894
1763694534794748000,7.910747802734375,0.20839619636535645,1.1792736053466797,0.46402639150619507
1763694534804759000,7.920759033203125,0.2113645076751709,1.0380477905273438,0.23314893245697021
1763694534814765000,7.93076513671875,0.1927180290222168,0.9693870544433594,0.014118850231170654
1763694534824760000,7.940760009765625,0.14370226860046387,0.9542455673217773,-0.14061784744262695
1763694534834765000,7.95076513671875,0.07963371276855469,0.9928131103515625,-0.23653733730316162
1763694534844776700,7.960776611328125,0.07752466201782227,1.023055076599121,-0.2840161919593811
1763694534854782200,7.9707822265625,0.06143450736999512,1.0739507675170898,-0.32790428400039673
1763694534864794600,7.980794677734375,0.14647436141967773,1.1551074981689453,-0.34005147218704224
1763694534874801200,7.99080126953125,0.29833292961120605,1.1993513107299805,-0.29265129566192627
1763694534884799500,8.000799560546875,0.501075029373169,1.2539939880371094,-0.3148571848869324
1763694534894804700,8.0108046875,0.8242785930633545,1.3469352722167969,-0.3435889482498169
1763694534904827400,8.020827392578125,1.1886613368988037,1.400735855102539,-0.35348403453826904
1763694534914834700,8.030834716796875,1.56844162940979,1.3767204284667969,-0.4441722631454468
1763694534924837600,8.040837646484375,1.810560941696167,1.208146095275879,-0.5285112261772156
1763694534934844400,8.050844482421875,2.0633881092071533,0.9479341506958008,-0.6109858751296997
1763694534944833000,8.0608330078125,2.344113826751709,0.5195960998535156,-0.6316194534301758
1763694534954837800,8.070837646484375,2.6156835556030273,-0.03415966033935547,-0.6263576149940491
1763694534964853000,8.08085302734375,2.7982165813446045,-0.7089757919311523,-0.582363486289978
1763694534974858800,8.090858642578125,2.8892905712127686,-1.4335689544677734,-0.4516336917877197
1763694534984858000,8.100858154296875,2.860964298248291,-2.1217050552368164,-0.24843162298202515
1763694534994863000,8.110863037109375,2.668034315109253,-2.5579586029052734,-0.1449001431465149
1763694535004891100,8.12089111328125,2.3724355697631836,-2.5269479751586914,-0.10255801677703857
1763694535014898400,8.1308984375,2.1408884525299072,-2.0239925384521484,-0.06899261474609375
1763694535024902400,8.14090234375,1.9706478118896484,-1.0830755233764648,-0.07873362302780151
1763694535034909400,8.150909423828125,1.524991512298584,0.08517074584960938,-0.08801311254501343
1763694535044899800,8.16089990234375,0.8154559135437012,1.1617507934570312,0.005539357662200928
1763694535054905000,8.170905029296875,0.24542665481567383,2.0340676307678223,0.27874770760536194
1763694535064906000,8.180906005859375,-0.2389686107635498,2.4218697547912598,0.7082829475402832
1763694535074910700,8.19091064453125,-0.8645104169845581,2.1311402320861816,1.2954161167144775
1763694535084928300,8.20092822265625,-1.157211422920227,1.259115219116211,1.8958954811096191
1763694535094934500,8.2109345703125,-0.9858039617538452,0.3462209701538086,2.402601480484009
1763694535104948500,8.220948486328124,-0.6746724843978882,-0.48464012145996094,2.750465154647827
1763694535114955500,8.23095556640625,-0.42905306816101074,-1.2544078826904297,2.9386141300201416
1763694535124955400,8.240955322265625,-0.2450399398803711,-2.031881332397461,2.8700644969940186
1763694535134961700,8.250961669921875,-0.26211094856262207,-3.1910600662231445,2.661086082458496
1763694535144964000,8.260964111328125,-0.39942920207977295,-4.736876487731934,2.372896671295166
1763694535154969900,8.270969970703124,-0.18365883827209473,-6.358583450317383,2.013979911804199
1763694535164972800,8.280972900390625,0.49739694595336914,-7.330888748168945,1.4810445308685303
1763694535174978300,8.290978271484375,1.0993258953094482,-6.891440391540527,0.8770927786827087
1763694535184997000,8.3009970703125,1.3340548276901245,-4.350255966186523,0.20772507786750793
1763694535195004000,8.31100390625,0.8747605085372925,-1.316056251525879,0.11581552773714066
1763694535204999200,8.320999267578125,-0.23403525352478027,1.3280839920043945,0.5105553269386292
1763694535215004700,8.331004638671875,-1.5640023946762085,3.5517396926879883,1.1478837728500366
1763694535225012000,8.341011962890626,-2.325993537902832,5.137130260467529,1.6450833082199097
1763694535235017700,8.351017822265625,-2.899266242980957,5.813381671905518,2.279447317123413
1763694535245020000,8.36102001953125,-3.4293718338012695,5.706424236297607,2.6178300380706787
1763694535255025400,8.371025390625,-3.5980494022369385,5.156698703765869,2.7101023197174072
1763694535265035300,8.38103515625,-3.150873899459839,4.250493049621582,2.511507272720337
1763694535275041300,8.391041259765625,-2.2482104301452637,2.9828104972839355,2.149365186691284
1763694535285056800,8.401056884765625,-1.330837368965149,1.4254989624023438,1.6489958763122559
1763694535295063800,8.411063720703124,-0.7020218372344971,-0.2824087142944336,0.9676392674446106
1763694535305059800,8.421059814453125,-0.25628596544265747,-1.8825559616088867,0.021190611645579338
1763694535315065600,8.431065673828124,-0.0032500624656677246,-2.9977798461914062,-1.0556714534759521
1763694535325085000,8.4410849609375,0.03710132837295532,-3.481081008911133,-2.1650261878967285
1763694535335092000,8.451092041015626,-0.10549277067184448,-3.1330509185791016,-3.1474812030792236
1763694535345070000,8.461070068359374,-0.2576589584350586,-2.0891904830932617,-3.5752460956573486
1763694535355074000,8.471073974609375,-0.49985212087631226,-0.7810144424438477,-3.1195759773254395
1763694535365105200,8.481105224609376,-0.8058106899261475,0.4183330535888672,-2.09077787399292
1763694535375112000,8.49111181640625,-1.0253186225891113,1.2846956253051758,-0.915534496307373
1763694535385114400,8.5011142578125,-1.101121187210083,1.780684471130371,0.1633893996477127
1763694535395120600,8.51112060546875,-1.082995057106018,1.8403100967407227,0.9433744549751282
1763694535405105400,8.52110546875,-1.1981350183486938,1.5410585403442383,1.4046905040740967
1763694535415109600,8.531109619140626,-1.3306140899658203,0.8982505798339844,1.5443612337112427
1763694535425142300,8.541142333984375,-1.3096811771392822,0.25675010681152344,1.4369451999664307
1763694535435149300,8.5511494140625,-1.3863178491592407,-0.24967002868652344,1.0960180759429932
1763694535445145300,8.561145263671875,-1.2661564350128174,-0.6930007934570312,0.7790245413780212
1763694535455151400,8.5711513671875,-0.931655764579773,-0.848994255065918,0.5625594854354858
1763694535465159700,8.58115966796875,-0.4034650921821594,-0.8664560317993164,0.43669062852859497
1763694535475166000,8.591166015625,-0.0030108392238616943,-0.7742595672607422,0.43955281376838684
1763694535485155000,8.601155029296875,0.03408631682395935,-0.5581989288330078,0.48915895819664
1763694535495159600,8.61115966796875,-0.12291547656059265,-0.2185068130493164,0.5703266263008118
1763694535505138400,8.621138427734374,-0.44245103001594543,0.15853118896484375,0.6807481050491333
1763694535515140400,8.631140380859375,-0.7151747345924377,0.5488681793212891,0.7794274091720581
1763694535525186000,8.64118603515625,-0.8471137285232544,0.8138523101806641,0.8454814553260803
1763694535535192300,8.6511923828125,-0.7894643545150757,0.9250755310058594,0.8394790887832642
1763694535545185800,8.661185791015624,-0.6254466772079468,1.1074552536010742,0.6943769454956055
1763694535555190800,8.671190673828125,-0.4668174386024475,1.2940025329589844,0.4489220082759857
1763694535565172700,8.6811728515625,-0.2715685963630676,1.4465465545654297,0.06607876718044281
1763694535575175400,8.691175537109375,-0.09725630283355713,1.3836917877197266,-0.29861295223236084
1763694535585211000,8.7012109375,0.014302670955657959,0.991297721862793,-0.5520368218421936
1763694535595217000,8.711216796875,0.026328623294830322,0.3943033218383789,-0.6989853382110596
1763694535605205500,8.72120556640625,-0.0926465392112732,-0.17286014556884766,-0.8453366160392761
1763694535615210000,8.7312099609375,-0.273404598236084,-0.3951997756958008,-0.9959312677383423
1763694535625214700,8.741214599609375,-0.30570119619369507,-0.3213920593261719,-1.1018874645233154
1763694535635219200,8.75121923828125,-0.14883333444595337,-0.1956787109375,-1.0332794189453125
1763694535645255400,8.76125537109375,0.07591050863265991,-0.0849761962890625,-0.7328749299049377
1763694535655263000,8.771262939453125,0.3294179439544678,-0.10861873626708984,-0.2839643359184265
1763694535665256000,8.781255859375,0.5825808644294739,-0.10386943817138672,0.11438419669866562
1763694535675262000,8.791261962890625,0.8912543058395386,0.03917884826660156,0.3450603187084198
1763694535685261300,8.80126123046875,1.024664282798767,0.2916755676269531,0.3603614568710327
1763694535695266800,8.811266845703125,0.9733575582504272,0.4336996078491211,0.21891000866889954
1763694535705291500,8.82129150390625,0.8005872368812561,0.4320354461669922,0.13637958467006683
1763694535715299000,8.831299072265624,0.6322519779205322,0.31553173065185547,0.012046903371810913
1763694535725278700,8.84127880859375,0.5027351975440979,0.19896888732910156,-0.11590852588415146
1763694535735283500,8.851283447265626,0.5325631499290466,0.12515640258789062,-0.33276090025901794
1763694535745315800,8.86131591796875,0.6537424325942993,0.15138912200927734,-0.508026123046875
1763694535755323400,8.871323486328125,0.8121637105941772,0.22031307220458984,-0.6496011018753052
1763694535765309400,8.881309326171875,0.8485347032546997,0.250885009765625,-0.8044846057891846
1763694535775314700,8.891314697265624,0.7633694410324097,0.3339366912841797,-0.9971200823783875
1763694535785320200,8.9013203125,0.5957674384117126,0.4310579299926758,-1.2657703161239624
1763694535795325700,8.91132568359375,0.4290536642074585,0.49420928955078125,-1.4755140542984009
1763694535805336000,8.921336181640624,0.3887444734573364,0.48989105224609375,-1.567873239517212
1763694535815342000,8.931342041015625,0.4887923002243042,0.3753213882446289,-1.513784408569336
1763694535825359000,8.941359130859375,0.7420886158943176,0.22257709503173828,-1.3236768245697021
1763694535835366100,8.9513662109375,1.0986300706863403,0.07026958465576172,-1.1368906497955322
1763694535845341400,8.961341552734375,1.4646559953689575,0.03829002380371094,-0.9779939651489258
1763694535855345400,8.971345458984375,1.732535481452942,-0.03563117980957031,-0.9391675591468811
1763694535865372000,8.981371826171875,1.7903978824615479,-0.04590129852294922,-1.0785771608352661
1763694535875378200,8.991378173828124,1.5906983613967896,-0.14057636260986328,-1.3469277620315552
1763694535885374000,9.0013740234375,1.4086556434631348,-0.3340625762939453,-1.6848783493041992
1763694535895379200,9.011379150390624,1.3943150043487549,-0.6264629364013672,-2.034966468811035
1763694535905415400,9.02141552734375,1.4994832277297974,-0.8981637954711914,-2.3216588497161865
1763694535915423700,9.031423828125,1.6515849828720093,-1.1013984680175781,-2.4504618644714355
1763694535925406500,9.041406494140626,1.8748981952667236,-1.2651643753051758,-2.4083073139190674
1763694535935412200,9.051412109375,1.968956470489502,-1.2272186279296875,-2.3909993171691895
1763694535945408800,9.06140869140625,2.0293021202087402,-1.1742725372314453,-2.4311866760253906
1763694535955413500,9.07141357421875,2.1071205139160156,-1.440359115600586,-2.5840327739715576
1763694535965434600,9.0814345703125,2.378690719604492,-2.14388370513916,-2.7750020027160645
1763694535975441200,9.091441162109374,2.689678192138672,-3.0065603256225586,-2.9888134002685547
1763694535985443300,9.101443359375,2.711684226989746,-3.478525161743164,-3.334172487258911
1763694535995449300,9.111449462890626,2.5610971450805664,-3.350370407104492,-3.702730894088745
1763694536005426400,9.121426513671874,2.503726005554199,-2.9099254608154297,-3.727353572845459
1763694536015429600,9.1314296875,2.565864086151123,-2.5733470916748047,-3.3846068382263184
1763694536025459500,9.14145947265625,2.465074300765991,-2.4264678955078125,-2.761842727661133
1763694536035465500,9.151465576171875,2.2360079288482666,-2.498027801513672,-2.1760058403015137
1763694536045462300,9.161462158203125,1.9664214849472046,-2.640814781188965,-1.7177112102508545
1763694536055467300,9.17146728515625,1.6266913414001465,-2.622891426086426,-1.041522741317749
1763694536065464300,9.18146435546875,1.3045248985290527,-2.2699317932128906,-0.11953356862068176
1763694536075468500,9.191468505859374,1.3674588203430176,-1.741872787475586,1.221754789352417
1763694536085507800,9.2015078125,1.490437626838684,-1.284738540649414,3.0034663677215576
1763694536095515400,9.211515380859375,0.9269183278083801,-1.0153846740722656,4.81992769241333
1763694536105515000,9.221514892578124,-0.44683101773262024,-0.8291168212890625,6.000607967376709
1763694536115521800,9.231521728515625,-1.9941449165344238,-0.8393630981445312,6.511103630065918
1763694536125530000,9.241530029296875,-3.666675329208374,-0.8948755264282227,6.214241027832031
1763694536135537000,9.251536865234375,-4.5434160232543945,-0.8967313766479492,4.846076011657715
1763694536145514800,9.2615146484375,-4.326000213623047,-1.05780029296875,2.9538726806640625
1763694536155518700,9.271518798828126,-3.542903184890747,-1.3291759490966797,1.0096354484558105
1763694536165532700,9.28153271484375,-2.8301467895507812,-1.8095149993896484,-0.6069393754005432
1763694536175538000,9.291537841796876,-2.1153578758239746,-2.311962127685547,-1.385399341583252
1763694536185537500,9.30153759765625,-1.656651496887207,-2.588566780090332,-2.0742685794830322
1763694536195542000,9.3115419921875,-1.0612345933914185,-2.765986442565918,-2.547187566757202
1763694536205612500,9.321612548828124,-0.7220172882080078,-2.8556385040283203,-2.3640294075012207
1763694536215623700,9.331623779296875,-1.0290765762329102,-2.5360193252563477,-1.8256455659866333
1763694536225557800,9.341557861328125,-1.8266648054122925,-1.7628793716430664,-1.5689114332199097
1763694536235561000,9.35156103515625,-2.115257978439331,-1.0288581848144531,-1.0712859630584717
1763694536245612000,9.361612060546875,-2.3630826473236084,-0.25357723236083984,-0.49354657530784607
1763694536255620000,9.3716201171875,-2.733076572418213,0.6441411972045898,0.035883694887161255
1763694536265606100,9.381606201171875,-2.825911521911621,1.4455161094665527,0.7476979494094849
1763694536275612000,9.39161181640625,-2.916266679763794,2.1189980506896973,1.6874918937683105
1763694536285612800,9.40161279296875,-2.919316291809082,2.72426700592041,2.542973756790161
1763694536295618000,9.4116181640625,-2.8250181674957275,3.147686004638672,3.099182605743408
1763694536305657900,9.421657958984374,-2.7223246097564697,3.3507862091064453,3.384272813796997
1763694536315666700,9.431666748046876,-2.9242770671844482,3.2713727951049805,3.424511194229126
1763694536325653800,9.44165380859375,-3.116162061691284,3.062774658203125,3.2427196502685547
1763694536335660300,9.451660400390624,-3.280276298522949,2.7584381103515625,2.895015239715576
1763694536345655800,9.46165576171875,-3.493971347808838,2.4874048233032227,2.4856605529785156
1763694536355661300,9.471661376953126,-3.704594135284424,2.3116965293884277,2.216723680496216
1763694536365661000,9.481660888671875,-3.8779497146606445,2.2504544258117676,1.9943829774856567
1763694536375665700,9.491665771484374,-3.940422534942627,2.299281597137451,1.8995161056518555
1763694536385663200,9.501663330078125,-3.7133731842041016,2.516005516052246,1.886977195739746
1763694536395667200,9.511667236328124,-3.2300186157226562,2.795363426208496,1.9483811855316162
1763694536405686500,9.5216865234375,-2.610281229019165,3.0224437713623047,2.074143171310425
1763694536415692000,9.531692138671875,-1.8789153099060059,3.1205596923828125,2.12919020652771
1763694536425691400,9.54169140625,-1.0659387111663818,3.017764091491699,2.016301155090332
1763694536435696400,9.5516962890625,-0.18843698501586914,2.6321029663085938,1.7388391494750977
1763694536445695200,9.5616953125,0.6060609817504883,2.05324125289917,1.1804633140563965
1763694536455699500,9.571699462890624,1.2272038459777832,1.3848519325256348,0.44548964500427246
1763694536465700600,9.58170068359375,1.7524282932281494,0.7353639602661133,-0.3894079327583313
1763694536475704600,9.59170458984375,2.0703256130218506,0.1757678985595703,-1.2950239181518555
1763694536485729000,9.60172900390625,2.268416166305542,-0.2509326934814453,-2.137542963027954
1763694536495735300,9.6117353515625,2.7216949462890625,-0.6066112518310547,-2.662524700164795
1763694536505767200,9.62176708984375,3.6353578567504883,-0.9391775131225586,-2.7618906497955322
1763694536515776000,9.63177587890625,4.247688293457031,-1.1488065719604492,-2.454099416732788
1763694536525754400,9.64175439453125,4.5147223472595215,-1.2266244888305664,-1.7670998573303223
1763694536535760100,9.651760009765624,4.563431739807129,-1.2259531021118164,-1.0343338251113892
1763694536545776600,9.661776611328126,4.203807830810547,-1.171804428100586,-0.5535987615585327
1763694536555783400,9.671783447265625,3.4486374855041504,-1.246586799621582,-0.3615787625312805
1763694536565784800,9.681784912109375,2.5615158081054688,-1.5409936904907227,-0.3041301965713501
1763694536575791000,9.691791015625,1.7594850063323975,-2.015972137451172,-0.041158199310302734
1763694536585816600,9.701816650390626,1.4963083267211914,-2.3797788619995117,0.4430198073387146
1763694536595825000,9.711824951171875,1.7688696384429932,-2.3992557525634766,0.9027954339981079
1763694536605804000,9.721803955078125,2.192159414291382,-1.908625602722168,1.2302663326263428
1763694536615809300,9.731809326171875,2.667119264602661,-0.9420051574707031,1.4356462955474854
1763694536625804500,9.741804443359374,2.6170871257781982,0.2819395065307617,1.6295063495635986
1763694536635808500,9.75180859375,2.007429599761963,1.585416316986084,1.8960905075073242
1763694536645829000,9.7618291015625,1.5392792224884033,2.8250131607055664,2.246391534805298
1763694536655835000,9.7718349609375,1.1947197914123535,3.7315244674682617,2.576838254928589
1763694536665836500,9.78183642578125,0.5319831371307373,3.872314453125,2.8968310356140137
1763694536675841800,9.791841796875,-0.40302324295043945,2.5334200859069824,3.3938047885894775
1763694536685840400,9.80184033203125,0.21881866455078125,0.3607959747314453,3.625840902328491
1763694536695845000,9.81184521484375,1.7990200519561768,-1.6903820037841797,3.056434154510498
1763694536705854200,9.821854248046876,2.015105962753296,-3.4015893936157227,2.016643524169922
1763694536715859200,9.831859130859375,1.4993016719818115,-4.994148254394531,1.1163280010223389
1763694536725871900,9.841871826171875,1.375596523284912,-6.776741981506348,0.6829660534858704
1763694536735877600,9.851877685546874,1.3522694110870361,-8.114751815795898,0.44669264554977417
1763694536745887000,9.861886962890624,-0.2418832778930664,-8.017041206359863,0.14778591692447662
1763694536755893200,9.871893310546875,-2.3413262367248535,-6.0963850021362305,0.6668986678123474
1763694536765900000,9.881900146484375,-3.223820924758911,-2.8816137313842773,1.7674788236618042
1763694536775906300,9.89190625,-3.4428021907806396,0.6765985488891602,2.6111178398132324
1763694536785905200,9.9019052734375,-3.7987163066864014,3.8570756912231445,3.138504981994629
1763694536795910700,9.91191064453125,-3.780578851699829,6.239713668823242,3.504725694656372
1763694536805915600,9.92191552734375,-3.318340301513672,7.278072357177734,3.6381354331970215
1763694536815921200,9.931921142578124,-3.291764259338379,7.048575401306152,3.1779913902282715
1763694536825944800,9.94194482421875,-3.8194727897644043,5.902637004852295,2.174123525619507
1763694536835952000,9.9519521484375,-4.422540187835693,3.9868526458740234,1.1229159832000732
1763694536845950000,9.961949951171874,-4.623424530029297,1.910600185394287,0.4083132743835449
1763694536855956200,9.971956298828125,-4.474456787109375,0.003643035888671875,-0.300664484500885
1763694536865954300,9.981954345703125,-3.843245029449463,-1.7936744689941406,-1.086288571357727
1763694536875959800,9.991959716796876,-2.780052661895752,-3.355443000793457,-1.927432656288147
1763694536886001200,10.002001220703125,-1.7282752990722656,-4.307254791259766,-2.7145493030548096
1763694536896010200,10.01201025390625,-1.1221253871917725,-4.178744316101074,-3.234243869781494
1763694536905980000,10.02197998046875,-1.1502630710601807,-3.0096750259399414,-3.520519495010376
1763694536915985000,10.03198486328125,-1.344097375869751,-1.3253717422485352,-3.6304004192352295
1763694536925998600,10.04199853515625,-1.1194324493408203,0.1389942169189453,-2.9941842555999756
1763694536936004400,10.05200439453125,-0.6248290538787842,1.1355466842651367,-1.5748704671859741
1763694536946011100,10.06201123046875,-0.3220769762992859,1.631575584411621,0.11679717898368835
1763694536956017200,10.07201708984375,-0.10354757308959961,1.7809572219848633,1.8530504703521729
1763694536965981700,10.081981689453125,0.12548446655273438,1.5275087356567383,3.2935709953308105
1763694536975983400,10.0919833984375,0.48203063011169434,0.977574348449707,4.205069065093994
1763694536986043000,10.10204296875,0.4802796244621277,0.4282112121582031,4.180866241455078
1763694536996050700,10.11205078125,0.04407477378845215,0.0657358169555664,3.2254817485809326
1763694537006031000,10.122031005859375,-0.5057334899902344,-0.07184886932373047,1.70005464553833
1763694537016035800,10.132035888671876,-1.2377028465270996,-0.1089620590209961,0.005012184381484985
1763694537026061300,10.142061279296875,-1.7753195762634277,-0.1605243682861328,-1.4315173625946045
1763694537036068400,10.152068359375,-2.0230016708374023,-0.12636566162109375,-2.590735673904419
1763694537046073000,10.162072998046876,-1.8792608976364136,0.050563812255859375,-3.294245958328247
1763694537056080000,10.172079833984375,-1.2790098190307617,0.2837066650390625,-3.3750221729278564
1763694537066084900,10.1820849609375,-0.40829789638519287,0.4198293685913086,-2.765425205230713
1763694537076091600,10.192091552734375,0.2316584438085556,0.5689172744750977,-1.9153001308441162
1763694537086078700,10.20207861328125,0.6630294919013977,0.7262134552001953,-0.9590415954589844
1763694537096083500,10.21208349609375,0.8762750625610352,0.8201828002929688,-0.19854138791561127
1763694537106071000,10.222071044921876,0.833697497844696,0.9370222091674805,0.1786353439092636
1763694537116073700,10.23207373046875,0.7633843421936035,1.0001859664916992,0.3173576593399048
1763694537126110000,10.24210986328125,0.6819632053375244,0.9905223846435547,0.2107374668121338
1763694537136116000,10.252115966796875,0.6368533372879028,0.8889656066894531,-0.04876880347728729
1763694537146149600,10.262149658203125,0.7906753420829773,0.824554443359375,-0.34069105982780457
1763694537156158500,10.272158447265625,0.929958164691925,0.7112674713134766,-0.6868201494216919
1763694537166138000,10.28213818359375,0.9523285627365112,0.6162347793579102,-0.9709523916244507
1763694537176144000,10.292143798828125,0.9666867256164551,0.47269630432128906,-1.0637881755828857
1763694537186149000,10.302149169921876,0.9347582459449768,0.3954963684082031,-0.9851383566856384
1763694537196155100,10.312155029296875,0.9339051246643066,0.3271026611328125,-0.8183293342590332
1763694537206174700,10.3221748046875,1.0496407747268677,0.3582649230957031,-0.6415975093841553
1763694537216182000,10.33218212890625,1.1566556692123413,0.4697246551513672,-0.5507025122642517
1763694537226174700,10.3421748046875,1.2404571771621704,0.46552371978759766,-0.587641716003418
1763694537236180500,10.352180419921876,1.4118049144744873,0.4223976135253906,-0.7738484740257263
1763694537246168800,10.3621689453125,1.6272659301757812,0.21650314331054688,-0.9770629405975342
1763694537256172800,10.3721728515625,1.897130012512207,-0.051423072814941406,-1.301669955253601
1763694537266208300,10.382208251953125,2.0727601051330566,-0.20433521270751953,-1.7617595195770264
1763694537276215600,10.392215576171875,2.1518237590789795,-0.22769641876220703,-2.4003679752349854
1763694537286191400,10.40219140625,2.1985385417938232,-0.24524307250976562,-3.1101629734039307
1763694537296195300,10.4121953125,2.1144723892211914,-0.3140840530395508,-3.7723262310028076
1763694537306207000,10.42220703125,1.9616843461990356,-0.35317134857177734,-4.321260929107666
1763694537316211700,10.432211669921875,2.188640594482422,-0.4148235321044922,-4.503580093383789
1763694537326238000,10.442238037109375,2.625670909881592,-0.5505561828613281,-4.146968364715576
1763694537336245000,10.452244873046874,2.922384738922119,-0.9314336776733398,-3.488194227218628
1763694537346258700,10.4622587890625,2.840285539627075,-1.447378158569336,-2.820190906524658
1763694537356266500,10.4722666015625,2.71484112739563,-2.032407760620117,-2.4472954273223877
1763694537366262500,10.482262451171875,2.6740496158599854,-2.4767913818359375,-2.4389002323150635
1763694537376269000,10.49226904296875,2.8285140991210938,-3.0242881774902344,-2.7846877574920654
1763694537386273300,10.502273193359375,3.6911239624023438,-3.859999656677246,-3.27286434173584
1763694537396279600,10.512279541015625,4.6171746253967285,-4.728302001953125,-3.8646240234375
1763694537406273300,10.522273193359375,4.509526252746582,-5.203076362609863,-4.379877090454102
1763694537416278300,10.5322783203125,4.209681987762451,-4.941201210021973,-4.559012413024902
1763694537426299000,10.542298828125,3.575111150741577,-4.054522514343262,-4.357748985290527
1763694537436305400,10.552305419921876,2.862844228744507,-3.104355812072754,-3.7492854595184326
1763694537446301400,10.562301513671875,2.382858991622925,-2.6569032669067383,-2.7927405834198
1763694537456307000,10.572306884765625,2.1487085819244385,-2.3887014389038086,-1.973954439163208
1763694537466304000,10.582303955078125,2.0142414569854736,-2.334623336791992,-1.1783628463745117
1763694537476308700,10.592308837890625,1.5821282863616943,-2.4198293685913086,0.17428213357925415
1763694537486345500,10.602345458984376,0.9993732571601868,-2.771116256713867,2.6151368618011475
1763694537496353500,10.612353515625,0.12581008672714233,-3.0174922943115234,5.410905838012695
1763694537506338600,10.622338623046875,-1.1745755672454834,-3.1405954360961914,7.789922714233398
1763694537516344000,10.632343994140625,-2.1851601600646973,-3.336109161376953,8.96153450012207
1763694537526359600,10.642359619140626,-3.304691791534424,-3.664191246032715,9.074557304382324
1763694537536366000,10.652365966796875,-4.380101680755615,-3.74362850189209,7.895605087280273
1763694537546373400,10.662373291015625,-3.9909260272979736,-3.443427085876465,5.856592178344727
1763694537556380000,10.6723798828125,-2.7000980377197266,-2.8017921447753906,3.482295036315918
1763694537566380800,10.682380859375,-1.9901275634765625,-2.320601463317871,1.1523120403289795
1763694537576386800,10.69238671875,-1.5176055431365967,-1.9378232955932617,-0.24060553312301636
1763694537586373400,10.702373291015626,-1.3244843482971191,-1.7335453033447266,-1.6145741939544678
1763694537596377600,10.712377685546874,-1.2271968126296997,-1.5082340240478516,-3.13496470451355
1763694537606390800,10.722390869140625,-1.4394952058792114,-1.1911230087280273,-4.097423553466797
1763694537616395800,10.732395751953124,-1.858544111251831,-0.7531976699829102,-4.0248613357543945
1763694537626392000,10.74239208984375,-2.268209457397461,-0.3552713394165039,-3.1217544078826904
1763694537636396000,10.75239599609375,-2.2761290073394775,-0.13994407653808594,-1.7347629070281982
1763694537646419000,10.7624189453125,-2.755188465118408,0.1602630615234375,-0.5191004872322083
1763694537656425000,10.772425048828126,-3.582942008972168,0.8853816986083984,0.44696396589279175
1763694537666441700,10.782441650390625,-3.9090499877929688,1.749866008758545,1.4391461610794067
1763694537676448800,10.79244873046875,-3.8274683952331543,2.674083709716797,2.3534703254699707
1763694537686452200,10.8024521484375,-3.6256966590881348,3.553621292114258,2.9910061359405518
1763694537696459000,10.812458984375,-3.7005152702331543,4.179037094116211,3.3139147758483887
1763694537706462200,10.822462158203125,-3.96364164352417,4.576049327850342,3.1630799770355225
1763694537716468500,10.832468505859374,-4.112192630767822,4.765335559844971,2.740064859390259
1763694537726471700,10.8424716796875,-4.083858489990234,4.790890216827393,2.454010248184204
1763694537736477700,10.852477783203126,-3.9947385787963867,4.7006096839904785,2.108361005783081
1763694537746475000,10.86247509765625,-3.999448299407959,4.661300182342529,1.8211898803710938
1763694537756480000,10.87247998046875,-4.127731800079346,4.600555896759033,1.672637939453125
1763694537766470100,10.88247021484375,-4.341116428375244,4.561379909515381,1.7125043869018555
1763694537776473600,10.8924736328125,-4.442822456359863,4.625199794769287,1.9420567750930786
1763694537786508000,10.902508056640626,-4.223101615905762,4.762848377227783,2.1624724864959717
1763694537796514800,10.912514892578125,-3.602111339569092,4.959130764007568,2.2261321544647217
1763694537806526500,10.9225263671875,-2.6316308975219727,5.003922939300537,2.1161086559295654
1763694537816533800,10.93253369140625,-1.5774338245391846,4.8502068519592285,1.7579314708709717
1763694537826504000,10.94250390625,-0.3213684558868408,4.458916187286377,1.2592709064483643
1763694537836507400,10.95250732421875,1.235975742340088,3.7417821884155273,0.5357169508934021
1763694537846534000,10.962533935546874,3.217756986618042,2.6285362243652344,-0.31109362840652466
1763694537856539600,10.97253955078125,6.034534454345703,1.0676240921020508,-1.0548875331878662
1763694537866538800,10.982538818359375,9.120077133178711,-0.9060630798339844,-1.6254745721817017
1763694537876543700,10.992543701171876,10.668551445007324,-3.2315139770507812,-1.9419231414794922
1763694537886573600,11.002573486328124,10.2008638381958,-5.461345672607422,-2.097181558609009
1763694537896581000,11.0125810546875,8.805534362792969,-7.105240821838379,-2.6117935180664062
1763694537906577400,11.022577392578125,7.142823219299316,-7.915019989013672,-3.1937646865844727
1763694537916583700,11.032583740234376,5.377886772155762,-7.583317756652832,-3.2801120281219482
1763694537926574800,11.042574951171876,3.822925329208374,-6.37693977355957,-1.9402730464935303
1763694537936579600,11.05257958984375,2.739114284515381,-4.780810356140137,0.1023271381855011
1763694537946575600,11.06257568359375,2.367208242416382,-2.4896068572998047,1.2644273042678833
1763694537956579600,11.07257958984375,2.762244701385498,0.2918987274169922,1.6492787599563599
1763694537966586600,11.082586669921875,3.4914638996124268,2.9891700744628906,2.0814568996429443
1763694537976590800,11.0925908203125,3.2148313522338867,4.709489345550537,2.765522003173828
1763694537986631000,11.102630859375,1.6693029403686523,4.901297092437744,3.67789888381958
1763694537996639000,11.112638916015625,0.30836987495422363,3.161257743835449,4.780360221862793
1763694538006612000,11.122612060546874,-0.3456151485443115,0.7548360824584961,5.463993072509766
1763694538016616200,11.1326162109375,-1.7256377935409546,-1.7442893981933594,5.650519847869873
1763694538026652400,11.14265234375,-2.450302839279175,-4.673088073730469,5.871427059173584
1763694538036660000,11.152659912109375,0.18630504608154297,-7.728843688964844,5.4097981452941895
1763694538046648600,11.162648681640626,0.914466142654419,-9.216510772705078,3.3244006633758545
1763694538056654000,11.172654052734375,-2.1845245361328125,-7.097407341003418,1.8325791358947754
1763694538066671900,11.182671875,-3.9708950519561768,-2.7660675048828125,1.0650203227996826
1763694538076678700,11.1926787109375,-5.401547431945801,0.7913885116577148,0.4758364260196686
1763694538086678300,11.20267822265625,-7.190420150756836,3.001408576965332,0.24060159921646118
1763694538096684300,11.212684326171875,-8.271082878112793,4.2946014404296875,-0.1823975145816803
1763694538106701000,11.222701171875,-8.445745468139648,5.011781215667725,-1.0956065654754639
1763694538116708000,11.2327080078125,-7.2534871101379395,4.837564945220947,-1.8242568969726562
1763694538126713300,11.24271337890625,-5.2960052490234375,3.5106887817382812,-2.290830373764038
1763694538136720400,11.252720458984374,-3.503655433654785,1.3219785690307617,-2.807469367980957
1763694538146710300,11.262710205078125,-2.465520143508911,-1.207280158996582,-2.9761481285095215
1763694538156715500,11.272715576171874,-2.1630356311798096,-3.100564956665039,-2.78173828125
1763694538166707000,11.28270703125,-2.3392393589019775,-4.085053443908691,-2.61503529548645
1763694538176711000,11.2927109375,-2.45417857170105,-4.342464447021484,-2.4283478260040283
1763694538186748700,11.302748779296875,-2.2314045429229736,-3.830986976623535,-2.2161178588867188
1763694538196756000,11.312755859375,-1.5927469730377197,-2.572538375854492,-1.262455701828003
1763694538206740200,11.322740234375,-0.6663275957107544,-1.0139951705932617,0.00845162570476532
1763694538216745200,11.3327451171875,-0.17184805870056152,0.6053142547607422,1.1697096824645996
1763694538226749400,11.34274951171875,0.3322550058364868,2.0178723335266113,2.1505415439605713
1763694538236754400,11.35275439453125,0.4763669967651367,2.9132275581359863,2.801921844482422
1763694538246756600,11.362756591796876,0.16482359170913696,3.320916175842285,3.1834816932678223
1763694538256761300,11.37276123046875,-0.525219738483429,3.357171058654785,3.2262537479400635
1763694538266795800,11.382795654296874,-1.1406943798065186,2.9234795570373535,3.0132367610931396
1763694538276803600,11.392803466796876,-1.5414988994598389,2.2318673133850098,2.446427583694458
1763694538286790100,11.4027900390625,-1.6636748313903809,1.3882808685302734,1.5211113691329956
1763694538296795400,11.41279541015625,-1.2888925075531006,0.5456790924072266,0.3395221531391144
1763694538306802700,11.422802734375,-0.43027347326278687,-0.009760856628417969,-0.7470350861549377
1763694538316808200,11.43280810546875,0.46012628078460693,-0.23611831665039062,-1.6284308433532715
1763694538326806300,11.44280615234375,1.1354833841323853,-0.24921703338623047,-2.151639699935913
1763694538336811300,11.452811279296874,1.5944180488586426,-0.17858505249023438,-2.1529150009155273
1763694538346819300,11.4628193359375,1.5592857599258423,-0.05753517150878906,-1.9177569150924683
1763694538356824300,11.47282421875,1.0972551107406616,0.18579483032226562,-1.6120390892028809
1763694538366826000,11.482825927734375,0.666824996471405,0.5081596374511719,-1.1014673709869385
1763694538376830700,11.492830810546875,0.4536799490451813,0.9091329574584961,-0.5919729471206665
1763694538386837800,11.502837646484375,0.5592020750045776,1.1494159698486328,-0.1876462996006012
1763694538396842800,11.5128427734375,0.8421574234962463,1.2532215118408203,0.03250803053379059
1763694538406873600,11.52287353515625,1.194967269897461,1.2543020248413086,-0.047321051359176636
1763694538416881400,11.53288134765625,1.5722970962524414,1.1912117004394531,-0.4015446901321411
1763694538426869200,11.542869140625,1.8508985042572021,1.10284423828125,-0.9633574485778809
1763694538436875000,11.552875,1.9814281463623047,0.8991031646728516,-1.4447075128555298
1763694538446877700,11.562877685546875,2.1072990894317627,0.49021148681640625,-1.7906420230865479
1763694538456883200,11.57288330078125,2.325730800628662,-0.1704845428466797,-1.8600661754608154
1763694538466892000,11.58289208984375,2.7515869140625,-1.0672693252563477,-1.4620035886764526
1763694538476897500,11.5928974609375,2.9574241638183594,-1.7021894454956055,-0.7818980813026428
1763694538486920700,11.602920654296875,2.9619884490966797,-1.6549768447875977,-0.32947999238967896
1763694538496928000,11.612927978515625,2.977449655532837,-1.0220117568969727,-0.6289275288581848
1763694538506907400,11.622907470703124,2.650956869125366,-0.20056915283203125,-1.9496816396713257
1763694538516911900,11.632911865234375,2.2861876487731934,0.4688377380371094,-3.8009486198425293
1763694538526931500,11.642931396484375,1.9510996341705322,0.7645854949951172,-5.551496982574463
1763694538536937500,11.6529375,1.8940411806106567,0.5288887023925781,-6.73087215423584
1763694538546941700,11.662941650390625,1.9695849418640137,-0.22640037536621094,-7.34460973739624
1763694538556947500,11.672947509765624,2.1675474643707275,-1.3168973922729492,-7.236729145050049
1763694538566956000,11.6829560546875,2.390291929244995,-2.5072498321533203,-6.4800944328308105
1763694538576962300,11.69296240234375,2.604153633117676,-3.6063709259033203,-5.651678562164307
1763694538586965500,11.702965576171875,3.0629870891571045,-4.723913192749023,-4.768187046051025
1763694538596971300,11.71297119140625,3.9243531227111816,-6.016945838928223,-3.658468723297119
1763694538606987000,11.722987060546876,5.4076738357543945,-6.98277473449707,-2.4389748573303223
1763694538616993800,11.732993896484375,5.529560089111328,-6.7702789306640625,-1.7895228862762451
1763694538626993000,11.742992919921875,4.349145889282227,-5.320296287536621,-1.7816762924194336
1763694538636999000,11.7529990234375,3.774871587753296,-4.138745307922363,-1.7217741012573242
1763694538647016700,11.7630166015625,3.6141419410705566,-3.328274726867676,-1.9253820180892944
1763694538657024000,11.77302392578125,3.2943263053894043,-2.641160011291504,-2.291708469390869
1763694538667029500,11.783029541015624,2.9053609371185303,-2.4897098541259766,-1.9543434381484985
1763694538677036500,11.79303662109375,2.164801597595215,-2.9434356689453125,-0.09219321608543396
1763694538687040000,11.8030400390625,0.7161971926689148,-3.5463266372680664,2.835811138153076
1763694538697046500,11.813046630859375,-1.5650041103363037,-3.8364810943603516,5.748278617858887
1763694538707023000,11.823023193359376,-3.396258592605591,-4.00015926361084,7.7270827293396
1763694538717026800,11.83302685546875,-4.303035736083984,-4.58004093170166,8.679624557495117
1763694538727055600,11.8430556640625,-5.411618709564209,-5.351581573486328,8.909589767456055
1763694538737061600,11.8530615234375,-4.977948188781738,-5.373642921447754,8.154375076293945
1763694538747049500,11.863049560546875,-2.6659345626831055,-4.360177993774414,5.59411096572876
1763694538757054000,11.873053955078126,-0.5001949071884155,-3.314272880554199,2.655285358428955
1763694538767057000,11.883056884765624,-0.09338665008544922,-2.6733131408691406,0.6163003444671631
1763694538777061000,11.89306103515625,-0.9911359548568726,-2.068272590637207,-0.32169926166534424
1763694538787089200,11.903089111328125,-2.175128936767578,-1.2515640258789062,-2.1324851512908936
1763694538797095700,11.913095703125,-2.8337812423706055,-0.5177650451660156,-3.8004837036132812
1763694538807106300,11.923106201171874,-2.9883880615234375,0.15612030029296875,-4.362470626831055
1763694538817113000,11.933113037109376,-2.944260597229004,0.7934532165527344,-4.090112686157227
1763694538827090000,11.94308984375,-2.973961591720581,1.065211296081543,-3.280780553817749
1763694538837093600,11.95309375,-3.2485475540161133,1.3169465065002441,-2.1922929286956787
1763694538847106000,11.96310595703125,-3.783372402191162,1.8513760566711426,-1.0346602201461792
1763694538857110500,11.973110595703124,-4.157021999359131,2.66103458404541,0.06627899408340454
1763694538867145700,11.983145751953124,-4.09166955947876,3.54110050201416,1.2839769124984741
1763694538877153500,11.993153564453126,-3.937727928161621,4.291351795196533,2.404306411743164
1763694538887145500,12.0031455078125,-4.048254013061523,4.817656993865967,3.0758378505706787
1763694538897151700,12.01315185546875,-4.1017842292785645,5.164628505706787,3.3791162967681885
1763694538907141000,12.02314111328125,-4.121640205383301,5.2810540199279785,3.333686590194702
1763694538917145600,12.0331455078125,-4.069175720214844,5.244415760040283,3.0959746837615967
1763694538927181300,12.043181396484375,-4.001764297485352,5.112533092498779,2.7261807918548584
1763694538937188900,12.05318896484375,-3.9773736000061035,5.066867351531982,2.2866384983062744
1763694538947181000,12.06318115234375,-4.17363166809082,5.025502681732178,1.8566234111785889
1763694538957187000,12.07318701171875,-4.394040107727051,5.102928638458252,1.5354218482971191
1763694538967200500,12.083200439453124,-4.460476875305176,5.246632099151611,1.4075877666473389
1763694538977207300,12.093207275390625,-4.323236465454102,5.270705699920654,1.5151616334915161
1763694538987212500,12.103212646484375,-3.7699460983276367,5.257052898406982,1.6997452974319458
1763694538997219300,12.11321923828125,-2.7581119537353516,5.032925128936768,1.9037600755691528
1763694539007211500,12.12321142578125,-1.4965887069702148,4.601480007171631,1.8719793558120728
1763694539017216800,12.133216796875,-0.23940253257751465,4.007785797119141,1.556309700012207
1763694539027210800,12.143210693359375,1.044071912765503,3.090740203857422,1.1110841035842896
1763694539037214700,12.153214599609376,2.984257459640503,1.83290433883667,0.7913912534713745
1763694539047249700,12.163249755859376,6.875978469848633,0.057984352111816406,0.5531553030014038
1763694539057257000,12.173257080078125,10.788833618164062,-2.2390546798706055,0.12712106108665466
1763694539067239200,12.1832392578125,12.646652221679688,-4.978005409240723,-0.3868368864059448
1763694539077243600,12.19324365234375,12.038280487060547,-7.790826797485352,-0.8361310958862305
1763694539087262200,12.20326220703125,10.138531684875488,-9.927733421325684,-1.8192710876464844
1763694539097268500,12.2132685546875,7.76776123046875,-10.38606071472168,-3.1078009605407715
1763694539107259600,12.223259765625,5.173192977905273,-9.042524337768555,-3.3263418674468994
1763694539117264100,12.23326416015625,2.4521992206573486,-6.928694725036621,-1.7614474296569824
1763694539127275300,12.243275146484375,1.11173677444458,-4.493547439575195,0.1515420377254486
1763694539137280300,12.2532802734375,1.3686175346374512,-1.4531450271606445,1.0565532445907593
1763694539147291000,12.263290771484375,2.4031779766082764,1.7884316444396973,1.1880552768707275
1763694539157296600,12.273296630859376,2.945302724838257,4.547333240509033,1.1566778421401978
1763694539167294200,12.283294189453125,2.579378604888916,6.142295837402344,1.6689472198486328
1763694539177299200,12.29329931640625,0.9110500812530518,6.150727272033691,2.6123828887939453
1763694539187310300,12.303310302734374,-1.1412956714630127,4.372669219970703,3.5107505321502686
1763694539197315800,12.31331591796875,-3.4268810749053955,1.9408831596374512,4.268375396728516
1763694539207316000,12.32331591796875,-4.7725372314453125,-0.6411314010620117,5.337322235107422
1763694539217321000,12.333321044921876,-2.8156685829162598,-4.409554481506348,7.218441009521484
1763694539227349000,12.343348876953126,1.5184757709503174,-8.808366775512695,8.217556953430176
1763694539237356300,12.353356201171875,2.1704704761505127,-11.276803970336914,5.749479293823242
1763694539247345700,12.363345703125,-2.0178751945495605,-9.379563331604004,2.394526958465576
1763694539257351000,12.373350830078126,-4.2859883308410645,-5.011824607849121,0.6556206345558167
1763694539267353000,12.38335302734375,-5.7450056076049805,-0.5846757888793945,-0.4758744239807129
1763694539277358000,12.393358154296875,-7.188652038574219,2.5780692100524902,-0.9230949878692627
1763694539287363600,12.403363525390626,-7.687432289123535,4.457345962524414,-1.0851801633834839
1763694539297368600,12.41336865234375,-7.244153022766113,5.391374111175537,-1.0502631664276123
1763694539307353600,12.423353515625,-5.728280067443848,5.377554416656494,-0.9135300517082214
1763694539317356500,12.4333564453125,-4.071637153625488,4.204712867736816,-1.1086552143096924
1763694539327377000,12.443376953125,-3.1659741401672363,2.218991756439209,-1.5624487400054932
1763694539337381600,12.453381591796875,-3.0957155227661133,0.2639589309692383,-2.1488735675811768
1763694539347388400,12.463388427734374,-2.8841042518615723,-1.516282081604004,-2.414656639099121
1763694539357393400,12.473393310546875,-2.400364398956299,-2.869598388671875,-2.2740111351013184
1763694539367434800,12.483434814453124,-2.037686347961426,-3.7588939666748047,-1.9774750471115112
1763694539377443300,12.493443359375,-1.4707443714141846,-4.123197555541992,-1.343936800956726
1763694539387412700,12.503412841796875,-0.7633988261222839,-3.199878692626953,-0.29939496517181396
1763694539397417200,12.513417236328126,0.0345996618270874,-1.3690414428710938,0.5975157022476196
1763694539407425300,12.52342529296875,0.8437680006027222,0.5696525573730469,1.3712891340255737
1763694539417430300,12.53343017578125,1.157637357711792,1.9373040199279785,2.135054349899292
1763694539427436300,12.543436279296875,1.0908821821212769,2.5295777320861816,2.83310604095459
1763694539437441300,12.553441162109374,0.5300797820091248,2.6597065925598145,3.36443829536438
1763694539447447600,12.563447509765625,-0.24823808670043945,2.645324230194092,3.2356953620910645
1763694539457452800,12.573452880859374,-1.0760326385498047,2.42057466506958,2.5726137161254883
1763694539467488500,12.583488525390624,-1.4349560737609863,1.8953394889831543,1.5913465023040771
1763694539477496800,12.593496826171876,-1.2099422216415405,1.1942520141601562,0.2460915893316269
1763694539487505400,12.60350537109375,-0.5926418304443359,0.4699440002441406,-1.3679444789886475
1763694539497513700,12.613513671875,0.10726412385702133,-0.08222007751464844,-2.8868823051452637
1763694539507490000,12.623489990234376,0.49182477593421936,-0.36247825622558594,-3.992025375366211
1763694539517495000,12.6334951171875,0.6441046595573425,-0.36663341522216797,-4.67905330657959
1763694539527497000,12.6434970703125,0.9304813146591187,-0.33881664276123047,-4.5984673500061035
1763694539537501700,12.653501708984376,1.147777795791626,-0.1786022186279297,-3.8941590785980225
1763694539547535400,12.663535400390625,1.2230677604675293,0.1186370849609375,-2.941148519515991
1763694539557543000,12.67354296875,1.251234769821167,0.45241832733154297,-1.9564299583435059
1763694539567546600,12.683546630859375,1.1474864482879639,0.7892580032348633,-1.1450320482254028
1763694539577554000,12.693553955078125,1.0521042346954346,1.033564567565918,-0.5990059971809387
1763694539587548200,12.703548095703125,1.0086411237716675,1.1807336807250977,-0.17968721687793732
1763694539597554200,12.71355419921875,1.0418418645858765,1.1878843307495117,0.10790868103504181
1763694539607568400,12.723568359375,1.2037981748580933,1.0982742309570312,0.2006145864725113
1763694539617575200,12.7335751953125,1.4347784519195557,1.0460128784179688,0.04153972864151001
1763694539627586000,12.7435859375,1.6185845136642456,1.0168046951293945,-0.20552706718444824
1763694539637593000,12.753593017578124,1.6782525777816772,1.029794692993164,-0.5678097605705261
1763694539647599000,12.76359912109375,1.5290571451187134,0.9510993957519531,-0.9471045136451721
1763694539657606100,12.773606201171875,1.2923399209976196,0.6805715560913086,-1.3120648860931396
1763694539667588900,12.7835888671875,1.060865044593811,0.16606712341308594,-1.597550630569458
1763694539677593600,12.793593505859375,1.0854432582855225,-0.4678211212158203,-1.7057278156280518
