time,seconds_elapsed,z,y,x
1763694527090218000,0.206218017578125,-0.18175537884235382,-0.054859500378370285,-0.15712186694145203
1763694527110269200,0.226269287109375,-0.10825430601835251,0.0005326165119186044,-0.14646953344345093
1763694527120214000,0.236214111328125,-0.05073172226548195,0.046337638050317764,-0.11344731599092484
1763694527130400000,0.24639990234375,-0.013448567129671574,0.08042509108781815,-0.06551183015108109
1763694527140255000,0.2562548828125,-0.007057168986648321,0.12516488134860992,0.0026630824431777
1763694527150249500,0.26624951171875,-0.012383334338665009,0.16670896112918854,0.07616416364908218
1763694527160264700,0.2762646484375,-0.010252867825329304,0.29453691840171814,0.15286093950271606
1763694527170207000,0.28620703125,0.05472634732723236,0.47229769825935364,0.23275341093540192
1763694527180268300,0.296268310546875,0.1474016159772873,0.5266245603561401,0.2966673970222473
1763694527190261000,0.306260986328125,0.22942456603050232,0.5553858876228333,0.3274259865283966
1763694527200285400,0.316285400390625,0.28162097930908203,0.6288869380950928,0.3189041316509247
1763694527210291500,0.32629150390625,0.30811864137649536,0.6469959020614624,0.26044946908950806
1763694527220289300,0.336289306640625,0.1889457106590271,0.7833457589149475,0.18694838881492615
1763694527230292000,0.3462919921875,0.07709623873233795,1.0143681764602661,0.09427312016487122
1763694527240315400,0.3563154296875,0.21770699322223663,0.8195636868476868,-0.01438064593821764
1763694527250326500,0.366326416015625,0.36244553327560425,0.5138418078422546,-0.07829462736845016
1763694527260347600,0.37634765625,0.3890763521194458,0.8451292514801025,-0.16670896112918854
1763694527270363100,0.386363037109375,0.3901416063308716,1.1347395181655884,-0.07722939550876617
1763694527280344300,0.39634423828125,0.4316856861114502,1.0441946983337402,0.11877348273992538
1763694527290345200,0.40634521484375,0.5573831796646118,0.8919994831085205,0.20505735278129578
1763694527300358700,0.416358642578125,0.6617760062217712,0.7588453888893127,0.1581871062517166
1763694527310365000,0.426364990234375,0.6468627452850342,0.7034532427787781,0.06657706201076508
1763694527320383700,0.4363837890625,0.531817615032196,0.7844109535217285,-0.052729032933712006
1763694527330395400,0.4463955078125,0.3975982367992401,0.8238245844841003,-0.19440503418445587
1763694527340391200,0.45639111328125,0.2635120153427124,0.6778876781463623,-0.2870802879333496
1763694527350396200,0.466396240234375,0.09733566641807556,0.4158403277397156,-0.3359478712081909
1763694527360389400,0.476389404296875,-0.10186290740966797,0.16457849740982056,-0.4030575454235077
1763694527370389500,0.486389404296875,-0.2808220684528351,-0.033554840832948685,-0.48295003175735474
1763694527380391200,0.49639111328125,-0.4053211510181427,-0.17842653393745422,-0.5500596761703491
1763694527390392000,0.50639208984375,-0.44260433316230774,-0.24873191118240356,-0.6171693801879883
1763694527400405500,0.516405517578125,-0.40958210825920105,-0.24127528071403503,-0.6757571697235107
1763694527410411500,0.52641162109375,-0.3637770712375641,-0.1720351278781891,-0.6991923451423645
1763694527420419300,0.53641943359375,-0.329689621925354,-0.08681648969650269,-0.6906704902648926
1763694527430426000,0.546426025390625,-0.29786577820777893,-0.06657706201076508,-0.6629744172096252
1763694527440461800,0.5564619140625,-0.2925396263599396,-0.1390129029750824,-0.641669750213623
1763694527450481000,0.56648095703125,-0.33501577377319336,-0.245536208152771,-0.6086475253105164
1763694527460475100,0.57647509765625,-0.38934266567230225,-0.31144750118255615,-0.5223636627197266
1763694527470483700,0.586483642578125,-0.3914731442928314,-0.350861132144928,-0.37749195098876953
1763694527480454700,0.59645458984375,-0.33395054936408997,-0.38601380586624146,-0.2135792225599289
1763694527490459400,0.60645947265625,-0.24034319818019867,-0.4009270668029785,-0.0644465982913971
1763694527500484400,0.616484375,-0.1508636325597763,-0.38388335704803467,0.043141938745975494
1763694527510491100,0.6264912109375,-0.08588441461324692,-0.34340450167655945,0.1059906855225563
1763694527520476700,0.6364765625,-0.05925358831882477,-0.32103461027145386,0.13581721484661102
1763694527530481400,0.6464814453125,-0.07097115367650986,-0.3380783200263977,0.13688243925571442
1763694527540518700,0.6565185546875,-0.10825430601835251,-0.3370130956172943,0.1177082508802414
1763694527550526500,0.6665263671875,-0.15618979930877686,-0.2956021726131439,0.12516488134860992
1763694527560528400,0.6765283203125,-0.19027724862098694,-0.2348838746547699,0.2029268890619278
1763694527570535700,0.68653564453125,-0.17749445140361786,-0.13581721484661102,0.3391435742378235
1763694527580543000,0.69654296875,-0.10186290740966797,0.045272402465343475,0.48295003175735474
1763694527590550300,0.70655029296875,0.01744319126009941,0.477623850107193,0.5766905546188354
1763694527600546800,0.716546875,0.18148908019065857,0.8706948161125183,0.6171693801879883
1763694527610553000,0.726552978515625,0.23901166021823883,0.6256912350654602,0.6789528727531433
1763694527620547000,0.736547119140625,0.1687062829732895,0.6928009390830994,0.6555177569389343
1763694527630552000,0.746552001953125,0.14953207969665527,1.0527164936065674,0.5543206334114075
1763694527640567300,0.7565673828125,0.2102503627538681,1.1368699073791504,0.49147188663482666
1763694527650573300,0.7665732421875,0.2422073632478714,1.0463250875473022,0.48081955313682556
1763694527660587000,0.7765869140625,0.24433782696723938,1.108108639717102,0.4765586256980896
1763694527670593800,0.78659375,0.28055575489997864,1.2348713874816895,0.4573844373226166
1763694527680588300,0.79658837890625,0.3379451632499695,1.2646979093551636,0.40518802404403687
1763694527690593800,0.80659375,0.3560541272163391,1.276415467262268,0.2849498391151428
1763694527700598300,0.816598388671875,0.3347494900226593,1.3786778450012207,0.1486000120639801
1763694527710603800,0.826603759765625,0.28907760977745056,1.6618967056274414,0.025032976642251015
1763694527720617200,0.8366171875,0.30705341696739197,1.8515081405639648,-0.021837277337908745
1763694527730623500,0.84662353515625,0.4199681282043457,1.8930522203445435,-0.0026630824431777
1763694527740619300,0.856619384765625,0.5073172450065613,1.6001131534576416,-0.021837277337908745
1763694527750624500,0.86662451171875,0.4284899830818176,0.7684324979782104,-0.17842653393745422
1763694527760644000,0.87664404296875,0.262446790933609,0.2679060995578766,-0.4754934012889862
1763694527770650600,0.886650634765625,0.05898727849125862,0.023967742919921875,-0.7300840616226196
1763694527780656600,0.89665673828125,-0.12529803812503815,-0.15605664253234863,-0.902651846408844
1763694527790663200,0.9066630859375,-0.22116900980472565,-0.29453691840171814,-0.9919982552528381
1763694527800653600,0.916653564453125,-0.183885857462883,-0.23594911396503448,-0.9611064791679382
1763694527810658300,0.926658203125,-0.04327509179711342,0.044207170605659485,-0.8089113235473633
1763694527820687400,0.936687255859375,0.10159660130739212,0.42755791544914246,-0.566038191318512
1763694527830694700,0.946694580078125,0.16444534063339233,0.8014547228813171,-0.2956021726131439
1763694527840696800,0.95669677734375,0.1356840580701828,1.0729559659957886,-0.07190322875976562
1763694527850703600,0.96670361328125,0.01744319126009941,1.2572412490844727,0.09107742458581924
1763694527860694800,0.97669482421875,-0.16577689349651337,1.316894292831421,0.1912093311548233
1763694527870700000,0.986699951171875,-0.3021267056465149,1.223153829574585,0.22103585302829742
1763694527880712700,0.996712646484375,-0.4287562966346741,0.9760197401046753,0.24234052002429962
1763694527890718700,1.00671875,-0.567236602306366,0.6991923451423645,0.2966673970222473
1763694527900726500,1.0167265625,-0.5352795720100403,0.46910199522972107,0.3189041316509247
1763694527910732800,1.02673291015625,-0.3722989559173584,0.3806876540184021,0.2849498391151428
1763694527920723500,1.036723388671875,-0.2477998286485672,0.435014545917511,0.24021004140377045
1763694527930728000,1.04672802734375,-0.22862564027309418,0.603321373462677,0.2668408751487732
1763694527940744000,1.056743896484375,-0.35845091938972473,0.8429988026618958,0.36683961749076843
1763694527950749700,1.066749755859375,-0.5139749050140381,0.9515193700790405,0.48188477754592896
1763694527960768000,1.07676806640625,-0.49693119525909424,0.7545844316482544,0.542603075504303
1763694527970775000,1.086775146484375,-0.3520595133304596,0.3604482114315033,0.4893414080142975
1763694527980758800,1.0967587890625,-0.20092958211898804,0.07935985922813416,0.306254506111145
1763694527990763300,1.10676318359375,-0.11145000159740448,0.01118494663387537,0.0964035913348198
1763694528000779800,1.11677978515625,-0.02836182899773121,0.029293907806277275,-0.018641578033566475
1763694528010785500,1.12678564453125,0.03022598661482334,0.059120431542396545,-0.033554840832948685
1763694528020795000,1.136794921875,0.006790860556066036,0.07935985922813416,0.01438064593821764
1763694528030801000,1.14680078125,0.02489982172846794,0.11983871459960938,0.062316130846738815
1763694528040796700,1.156796630859375,0.07283531129360199,0.20399212837219238,0.09001219272613525
1763694528050801700,1.1668017578125,0.08987903594970703,0.2870802879333496,0.12409964948892593
1763694528060809200,1.176809326171875,0.06644391268491745,0.346600204706192,0.16777420043945312
1763694528070814700,1.186814697265625,0.03661738336086273,0.38601380586624146,0.20718781650066376
1763694528080831700,1.196831787109375,0.03342168778181076,0.4105141758918762,0.222101092338562
1763694528090838000,1.206838134765625,0.04940018057823181,0.4137098789215088,0.20931829512119293
1763694528100850700,1.2168505859375,0.1772281378507614,0.39347043633461,0.21570968627929688
1763694528110857700,1.226857666015625,0.29014283418655396,0.4531235098838806,0.2561885416507721
1763694528120867300,1.236867431640625,0.3155752718448639,0.6320826411247253,0.3189041316509247
1763694528130875000,1.246875,0.28801238536834717,0.915301501750946,0.389209508895874
1763694528140860200,1.256860107421875,0.22516362369060516,1.1432613134384155,0.4254274368286133
1763694528150865200,1.266865234375,0.11650986224412918,1.1208914518356323,0.36257869005203247
1763694528160864000,1.276864013671875,-0.0454055592417717,0.7897371053695679,0.15499140322208405
1763694528170868500,1.286868408203125,-0.20199480652809143,0.3572525382041931,-0.18375270068645477
1763694528180886300,1.29688623046875,-0.28614822030067444,0.015445878729224205,-0.5734948515892029
1763694528190892000,1.30689208984375,-0.31264588236808777,-0.3199693560600281,-0.8685643672943115
1763694528200895700,1.316895751953125,-0.31584158539772034,-0.6789528727531433,-0.9728240370750427
1763694528210901200,1.3269013671875,-0.31690680980682373,-0.8909342885017395,-0.924888551235199
1763694528220929000,1.336928955078125,-0.33608102798461914,-0.8973256945610046,-0.7939980626106262
1763694528230936800,1.346936767578125,-0.3722989559173584,-0.916366696357727,-0.6608439087867737
1763694528240898800,1.35689892578125,-0.42236489057540894,-1.0303466320037842,-0.5862776041030884
1763694528250902000,1.366902099609375,-0.4447347819805145,-1.1805444955825806,-0.5702991485595703
1763694528260940000,1.37693994140625,-0.44047385454177856,-1.2178276777267456,-0.5330159664154053
1763694528270946800,1.38694677734375,-0.4244953691959381,-1.1379351615905762,-0.4041227698326111
1763694528280945700,1.396945556640625,-0.3936035931110382,-0.9451280236244202,-0.19653549790382385
1763694528290951400,1.406951416015625,-0.3328853249549866,-0.627821683883667,0.023967742919921875
1763694528300949500,1.416949462890625,-0.23288656771183014,-0.2870802879333496,0.19333979487419128
1763694528310954500,1.42695458984375,-0.09227581322193146,0.00585878174751997,0.2870802879333496
1763694528320988000,1.43698779296875,0.08029194176197052,0.23701435327529907,0.3295564651489258
1763694528330995700,1.44699560546875,0.2507292330265045,0.28175413608551025,0.35618728399276733
1763694528340975000,1.45697509765625,0.3752283453941345,0.0740336924791336,0.38601380586624146
1763694528350980000,1.46697998046875,0.4604469835758209,-0.34553495049476624,0.4659062922000885
1763694528360994800,1.476994873046875,0.5499265193939209,-0.8888037800788879,0.7023880481719971
1763694528371000800,1.487000732421875,0.48814302682876587,-0.9515193700790405,0.8461945056915283
1763694528381017600,1.497017578125,0.2198374718427658,-0.4115794003009796,0.6469959020614624
1763694528391024600,1.507024658203125,-0.09334104508161545,0.25192761421203613,0.1922745555639267
1763694528401009200,1.517009033203125,-0.23075610399246216,0.2636451721191406,-0.1603175699710846
1763694528411014000,1.527013916015625,-0.183885857462883,-0.17416560649871826,-0.38601380586624146
1763694528421050400,1.53705029296875,-0.08694964647293091,-0.42755791544914246,-0.5979951620101929
1763694528431058400,1.547058349609375,-0.000665770610794425,-0.38494858145713806,-0.7780195474624634
1763694528441047800,1.5570478515625,0.08348763734102249,-0.25831902027130127,-0.8408682942390442
1763694528451054000,1.56705419921875,0.15272778272628784,-0.23807957768440247,-0.7471278309822083
1763694528461030700,1.57703076171875,0.19427187740802765,-0.30412402749061584,-0.5170374512672424
1763694528471033600,1.58703369140625,0.2848166823387146,-0.06764229387044907,-0.1688394397497177
1763694528481067500,1.597067626953125,0.18681524693965912,0.22849248349666595,0.16670896112918854
1763694528491073800,1.60707373046875,0.05472634732723236,0.6587134599685669,0.4637758135795593
1763694528501066800,1.617066650390625,-0.03368799388408661,1.0868040323257446,0.6171693801879883
1763694528511071700,1.62707177734375,-0.08588441461324692,1.125152349472046,0.48188477754592896
1763694528521065000,1.63706494140625,-0.1199718713760376,0.9259538054466248,0.13581721484661102
1763694528531068700,1.647068603515625,-0.13808083534240723,0.6544525623321533,-0.2785584330558777
1763694528541110000,1.657110107421875,-0.13381989300251007,0.32103461027145386,-0.6565830111503601
1763694528551117600,1.66711767578125,-0.1742987483739853,-0.2742975056171417,-1.0346075296401978
1763694528561090000,1.677090087890625,-0.1934729516506195,-0.924888551235199,-1.3041114807128906
1763694528571093800,1.68709375,-0.19240771234035492,-1.3350032567977905,-1.368025541305542
1763694528581134300,1.69713427734375,-0.16790735721588135,-1.5001144409179688,-1.316894292831421
1763694528591142000,1.707141845703125,-0.11358047276735306,-1.4585703611373901,-1.1986534595489502
1763694528601117400,1.717117431640625,-0.07097115367650986,-1.3275465965270996,-1.0282161235809326
1763694528611122000,1.727121826171875,-0.01770949922502041,-1.2955896854400635,-0.7886719107627869
1763694528621156400,1.73715625,0.08668334037065506,-1.3477860689163208,-0.5287550687789917
1763694528631164000,1.747163818359375,0.1878804713487625,-1.3477860689163208,-0.31144750118255615
1763694528641137400,1.757137451171875,0.2315550297498703,-0.9898678064346313,-0.0857512578368187
1763694528651141600,1.7671416015625,0.2528596818447113,-0.38388335704803467,0.18588316440582275
1763694528661147600,1.777147705078125,0.2304897904396057,0.14433906972408295,0.454188734292984
1763694528671151900,1.78715185546875,0.1569887101650238,0.4201012849807739,0.5905385613441467
1763694528681185800,1.797185791015625,0.07922670245170593,0.5287550687789917,0.5287550687789917
1763694528691193000,1.807193115234375,0.05579157918691635,0.5244941115379333,0.35618728399276733
1763694528701171000,1.8171708984375,0.07603100687265396,0.39773139357566833,0.2146444469690323
1763694528711175200,1.827175048828125,0.10159660130739212,0.10386022180318832,0.11451254785060883
1763694528721201000,1.837200927734375,0.11757509410381317,-0.37749195098876953,-0.025032976642251015
1763694528731207200,1.847207275390625,0.16124965250492096,-0.8515206575393677,-0.30199354887008667
1763694528741215700,1.8572158203125,0.23368549346923828,-0.9632369875907898,-0.6171693801879883
1763694528751222500,1.867222412109375,0.2752295732498169,-1.4223524332046509,-0.8163679838180542
1763694528761233700,1.877233642578125,0.2645772397518158,-1.6182221174240112,-0.8877385854721069
1763694528771240700,1.88724072265625,0.20279373228549957,-1.1645660400390625,-0.8110417723655701
1763694528781251800,1.897251953125,0.10479229688644409,-0.4446016252040863,-0.5692338943481445
1763694528791259400,1.90725927734375,0.02170412242412567,0.06551183015108109,-0.18268746137619019
1763694528801247700,1.917247802734375,0.04194355010986328,0.6161041259765625,0.19653549790382385
1763694528811253200,1.927253173828125,0.11011846363544464,0.8834776282310486,0.4659062922000885
1763694528821245200,1.9372451171875,0.16124965250492096,0.7311493158340454,0.5628424882888794
1763694528831249400,1.94724951171875,0.17616291344165802,0.36577439308166504,0.45844966173171997
1763694528841266400,1.957266357421875,0.13781452178955078,-0.0644465982913971,0.25192761421203613
1763694528851271700,1.967271728515625,0.05685681104660034,-0.7098446488380432,0.0633813664317131
1763694528861287200,1.977287109375,0.005725627299398184,-1.1890664100646973,-0.09853405505418777
1763694528871293700,1.987293701171875,-0.014513799920678139,-1.213566780090332,-0.17842653393745422
1763694528881289200,1.997289306640625,-0.05818835273385048,-1.1464570760726929,-0.09320788830518723
1763694528891294500,2.00729443359375,-0.14766792953014374,-1.0729559659957886,0.08255556225776672
1763694528901303800,2.0173037109375,-0.24993029236793518,-1.0143681764602661,0.25086238980293274
1763694528911309600,2.0273095703125,-0.3744294047355652,-0.9355409145355225,0.37749195098876953
1763694528921327900,2.037327880859375,-0.418103963136673,0.0047935484908521175,0.4158403277397156
1763694528931335000,2.0473349609375,-0.11145000159740448,-0.052729032933712006,-0.9909330010414124
1763694528941320400,2.057320556640625,-0.04327509179711342,-0.20612259209156036,-0.25938424468040466
1763694528951325400,2.067325439453125,-0.13595037162303925,-1.2881330251693726,0.06977276504039764
1763694528961348900,2.077348876953125,-0.04966649040579796,-0.9355409145355225,-0.1709699034690857
1763694528971355600,2.087355712890625,-0.08908011019229889,-1.7077016830444336,-0.2881455421447754
1763694528981366800,2.09736669921875,-0.16684211790561676,-2.459623098373413,-0.5681686401367188
1763694528991374000,2.1073740234375,-0.05499265342950821,-1.928204894065857,-0.49253711104393005
1763694529001352200,2.117352294921875,0.08987903594970703,-1.9079655408859253,-0.389209508895874
1763694529011356400,2.1273564453125,0.24966399371623993,-1.6437877416610718,-0.3039908707141876
1763694529021388800,2.137388916015625,0.10692276805639267,-2.018749713897705,-0.26044946908950806
1763694529031396000,2.14739599609375,-0.14447222650051117,-3.1359128952026367,-0.33381739258766174
1763694529041391600,2.1573916015625,-0.21903854608535767,-3.527785539627075,-0.5585815906524658
1763694529051397600,2.167397705078125,-0.20945143699645996,-3.3711962699890137,-0.7322145700454712
1763694529061404700,2.17740478515625,-0.15938548743724823,-2.9697365760803223,-0.7801500558853149
1763694529071410700,2.18741064453125,0.02063889056444168,0.4158403277397156,-0.7865414619445801
1763694529081424100,2.197424072265625,0.19320663809776306,1.3595036268234253,-0.5617772936820984
1763694529091431000,2.207430908203125,0.2113156020641327,0.9451280236244202,-0.29347169399261475
1763694529101420800,2.2174208984375,0.1452711522579193,0.6959966421127319,0.018641578033566475
1763694529111426000,2.227426025390625,0.18575000762939453,0.7162360548973083,0.11344731599092484
1763694529121450000,2.237449951171875,0.15379302203655243,0.7332797646522522,0.0964035913348198
1763694529131456800,2.247456787109375,0.04833494871854782,0.725823163986206,0.11025162041187286
1763694529141445000,2.257445068359375,-0.02090519852936268,0.6331478953361511,0.18801362812519073
1763694529151450000,2.2674501953125,-0.0038614696823060513,0.6203650832176208,0.2561885416507721
1763694529161461000,2.2774609375,0.07603100687265396,0.7513887286186218,0.27323228120803833
1763694529171466800,2.287466796875,0.19320663809776306,0.9504541754722595,0.24660144746303558
1763694529181461200,2.297461181640625,0.30705341696739197,1.286002516746521,0.2125139832496643
1763694529191465700,2.3074658203125,0.39440253376960754,1.7375282049179077,0.17736129462718964
1763694529211481600,2.327481689453125,0.5446003675460815,2.674800157546997,0.15179570019245148
1763694529221487600,2.337487548828125,0.6053186655044556,2.9771931171417236,0.2018616646528244
1763694529231492900,2.347492919921875,0.6798849701881409,3.012345790863037,0.2849498391151428
1763694529241509600,2.357509521484375,0.7395380139350891,2.835517168045044,0.36364391446113586
1763694529251516000,2.367515869140625,0.8077129125595093,2.4990367889404297,0.47123244404792786
1763694529261522000,2.37752197265625,0.863105058670044,2.2614896297454834,0.5553858876228333
1763694529271528200,2.387528076171875,0.8119738698005676,2.1965105533599854,0.5916038155555725
1763694529281533400,2.397533447265625,0.6426018476486206,2.1570968627929688,0.5543206334114075
1763694529291539700,2.407539794921875,0.38375020027160645,2.112490177154541,0.43927547335624695
1763694529301533000,2.417532958984375,0.03129122033715248,2.089055061340332,0.29453691840171814
1763694529311538000,2.427537841796875,-0.3509942889213562,2.141118288040161,0.15179570019245148
1763694529321559600,2.4375595703125,-0.6481943130493164,2.2561635971069336,0.022902509197592735
1763694529331566300,2.44756640625,-0.8473928570747375,2.37546968460083,-0.08681648969650269
1763694529341570300,2.4575703125,-0.9889357089996338,2.4819929599761963,-0.1486000120639801
1763694529351576800,2.467576904296875,-1.0517845153808594,2.422339916229248,-0.16244803369045258
1763694529361565700,2.477565673828125,-0.9665657877922058,2.1432487964630127,-0.14646953344345093
1763694529371570200,2.487570068359375,-0.7611089944839478,1.7226150035858154,-0.08362079411745071
1763694529381601300,2.497601318359375,-0.4458000063896179,1.6746795177459717,-0.020772043615579605
1763694529391608600,2.507608642578125,-0.08055824786424637,1.8994436264038086,0.021837277337908745
1763694529401592000,2.517592041015625,0.20279373228549957,1.9527052640914917,0.07935985922813416
1763694529411596800,2.5275966796875,0.35072797536849976,1.6778751611709595,0.11451254785060883
1763694529421606400,2.5376064453125,0.3805544972419739,1.2891982793807983,0.058055199682712555
1763694529431611600,2.547611572265625,0.43488138914108276,0.939801812171936,-0.08255556225776672
1763694529441619700,2.55761962890625,0.4870778024196625,0.6778876781463623,-0.11877348273992538
1763694529451625200,2.567625244140625,0.5115781426429749,0.6075822710990906,-0.01438064593821764
1763694529461636400,2.57763623046875,0.4860125780105591,0.6661701202392578,0.1486000120639801
1763694529471642600,2.587642578125,0.4114462435245514,0.8664339184761047,0.28388461470603943
1763694529481643300,2.597643310546875,0.2869471311569214,1.2540456056594849,0.38388335704803467
1763694529491648800,2.607648681640625,0.09094426780939102,1.750311017036438,0.44779732823371887
1763694529501654500,2.617654541015625,-0.12636326253414154,2.2668159008026123,0.47336292266845703
1763694529511660300,2.627660400390625,-0.33395054936408997,2.577863931655884,0.5223636627197266
1763694529521663200,2.637663330078125,-0.5704323053359985,2.497971534729004,0.688539981842041
1763694529531668500,2.64766845703125,-0.5725627541542053,2.474536418914795,0.4669715166091919
1763694529541685800,2.657685791015625,-0.7643046975135803,1.8610951900482178,0.45844966173171997
1763694529551692300,2.6676923828125,-0.866567075252533,1.3392642736434937,0.37642672657966614
1763694529561702400,2.677702392578125,-0.8900021910667419,0.8888037800788879,0.25831902027130127
1763694529571709400,2.68770947265625,-0.8644366264343262,0.6203650832176208,0.13581721484661102
1763694529581710300,2.69771044921875,-0.8005226254463196,0.5276898145675659,0.08042509108781815
1763694529591716600,2.707716552734375,-0.758978545665741,0.43821024894714355,0.1603175699710846
1763694529601727700,2.717727783203125,-0.7184996604919434,0.8408682942390442,0.35512205958366394
1763694529611734500,2.727734619140625,-0.5917369723320007,1.0282161235809326,0.5862776041030884
1763694529621733000,2.737733154296875,-0.42343011498451233,1.047390341758728,0.8046503663063049
1763694529631739000,2.74773876953125,-0.3083849549293518,1.2178276777267456,0.9664326906204224
1763694529641744400,2.757744384765625,-0.3286243975162506,1.3669602870941162,1.0047810077667236
1763694529651750400,2.76775048828125,-0.4255605936050415,1.4607007503509521,0.9334104657173157
1763694529661756000,2.777755859375,-0.5374100804328918,1.6576356887817383,0.7886719107627869
1763694529671761700,2.78776171875,-0.6865426898002625,1.895182728767395,0.6182346343994141
1763694529681780500,2.797780517578125,-0.8623061180114746,2.1911842823028564,0.4435364007949829
1763694529691787500,2.80778759765625,-0.9985228180885315,2.544841766357422,0.28175413608551025
1763694529701788000,2.817787841796875,-1.1178288459777832,2.914344310760498,0.16564373672008514
1763694529711794400,2.82779443359375,-1.233939290046692,3.1646740436553955,0.0857512578368187
1763694529721787000,2.837786865234375,-1.3266146183013916,3.2850453853607178,-0.00905448105186224
1763694529731792000,2.8477919921875,-1.347919225692749,3.467067241668701,-0.17842653393745422
1763694529741799000,2.857798828125,-1.3191579580307007,3.462806224822998,-0.4105141758918762
1763694529751804000,2.867803955078125,-1.3117012977600098,3.2072834968566895,-0.6587134599685669
1763694529761826800,2.877826904296875,-1.285070538520813,2.9090182781219482,-0.8770862221717834
1763694529771833600,2.88783349609375,-1.210504174232483,2.553363561630249,-1.0633689165115356
1763694529781827600,2.89782763671875,-1.1082417964935303,2.2284674644470215,-1.1848053932189941
1763694529791833300,2.907833251953125,-0.972957193851471,1.934596300125122,-1.223153829574585
1763694529801820000,2.91781982421875,-0.8399362564086914,1.626744031906128,-1.1805444955825806
1763694529811823600,2.92782373046875,-0.7781527042388916,1.2796111106872559,-1.0857387781143188
1763694529821852400,2.937852294921875,-0.7941312193870544,0.939801812171936,-1.0164985656738281
1763694529831858400,2.9478583984375,-0.8995893001556396,0.5820167064666748,-1.0207595825195312
1763694529841843500,2.957843505859375,-1.0741543769836426,0.19866596162319183,-1.1262176036834717
1763694529851847700,2.96784765625,-1.2520482540130615,-0.1390129029750824,-1.3083724975585938
1763694529861875200,2.977875244140625,-1.4139636754989624,-0.4435364007949829,-1.5139623880386353
1763694529871881700,2.9878818359375,-1.5533760786056519,-0.7226274609565735,-1.7077016830444336
1763694529881880800,2.997880859375,-1.6492470502853394,-0.9696283340454102,-1.841921091079712
1763694529891886600,3.007886474609375,-1.6865302324295044,-1.145391821861267,-1.881334662437439
1763694529901879300,3.01787939453125,-1.6854649782180786,-1.2029143571853638,-1.82700777053833
1763694529911883800,3.0278837890625,-1.6790735721588135,-1.1400656700134277,-1.713027834892273
1763694529921908200,3.037908203125,-1.7025086879730225,-1.0164985656738281,-1.589460849761963
1763694529931914500,3.04791455078125,-1.753639817237854,-0.833411693572998,-1.4798749685287476
1763694529941929500,3.057929443359375,-1.8292714357376099,-0.5841471552848816,-1.375482201576233
1763694529951936800,3.067936767578125,-1.976273536682129,-0.40731847286224365,-1.2668284177780151
1763694529961912800,3.077912841796875,-2.1625561714172363,-0.29240646958351135,-1.1635007858276367
1763694529971916800,3.087916748046875,-2.3031668663024902,-0.17842653393745422,-1.0750864744186401
1763694529981947400,3.097947509765625,-2.3489720821380615,-0.052729032933712006,-1.0111724138259888
1763694529991954200,3.1079541015625,-2.28505802154541,0.039946239441633224,-0.9493889212608337
1763694530001953500,3.11795361328125,-2.125406265258789,0.1581871062517166,-0.8674991726875305
1763694530011959600,3.12795947265625,-1.9230118989944458,0.350861132144928,-0.7694976925849915
1763694530021966800,3.137966796875,-1.774944543838501,0.5149070024490356,-0.6746919751167297
1763694530031972900,3.147972900390625,-1.7355308532714844,0.5947995185852051,-0.6139736771583557
1763694530041977600,3.1579775390625,-1.7941187620162964,0.5916038155555725,-0.6107779741287231
1763694530051983600,3.167983642578125,-1.8622936010360718,0.5457987785339355,-0.6917356848716736
1763694530061995300,3.177995361328125,-1.8569674491882324,0.5181027054786682,-0.8621729612350464
1763694530072001800,3.188001708984375,-1.751509428024292,0.4893414080142975,-1.0804126262664795
1763694530082001000,3.1980009765625,-1.5437889099121094,0.4254274368286133,-1.2891982793807983
1763694530092006700,3.208006591796875,-1.2701572179794312,0.3817528784275055,-1.4276785850524902
1763694530102019000,3.21801904296875,-0.9793485999107361,0.3412740230560303,-1.4745488166809082
1763694530112025300,3.228025390625,-0.7216953635215759,0.28388461470603943,-1.4575051069259644
1763694530122033000,3.238032958984375,-0.5139749050140381,0.2231663167476654,-1.4330047369003296
1763694530132039400,3.248039306640625,-0.35418999195098877,0.23168818652629852,-1.4393961429595947
1763694530142036200,3.2580361328125,-0.24140843749046326,0.2977326214313507,-1.4969186782836914
1763694530152041700,3.268041748046875,-0.1732335239648819,0.36257869005203247,-1.5851999521255493
1763694530162054000,3.278053955078125,-0.11145000159740448,0.38814428448677063,-1.6725490093231201
1763694530172060000,3.288059814453125,-0.03794892504811287,0.40625324845314026,-1.7162235975265503
1763694530182061000,3.29806103515625,0.03022598661482334,0.3689700961112976,-1.6949188709259033
1763694530192066600,3.308066650390625,0.08881380409002304,0.2902759909629822,-1.621417760848999
1763694530202068200,3.318068115234375,0.13887976109981537,0.20505735278129578,-1.5223511457443237
1763694530212073500,3.328073486328125,0.19746756553649902,0.16564373672008514,-1.430874228477478
1763694530222087400,3.33808740234375,0.2422073632478714,0.27110180258750916,-1.375482201576233
1763694530232093400,3.348093505859375,0.23794642090797424,0.43927547335624695,-1.3381990194320679
1763694530242101000,3.35810107421875,0.20598943531513214,0.6171693801879883,-1.3009158372879028
1763694530252107300,3.368107177734375,0.1772281378507614,0.8110417723655701,-1.276415467262268
1763694530262103800,3.378103759765625,0.1687062829732895,0.9632369875907898,-1.2785459756851196
1763694530272109000,3.388109130859375,0.19427187740802765,0.9760197401046753,-1.316894292831421
1763694530282118400,3.398118408203125,0.285881906747818,0.8557815551757812,-1.391460657119751
1763694530292124200,3.408124267578125,0.4551208019256592,0.6587134599685669,-1.4905272722244263
1763694530302129200,3.418129150390625,0.6852111220359802,0.4446016252040863,-1.6097002029418945
1763694530312134700,3.428134765625,0.9311468005180359,0.25938424468040466,-1.7460501194000244
1763694530322138600,3.438138671875,1.1708242893218994,0.11877348273992538,-1.895182728767395
1763694530332144000,3.44814404296875,1.335935354232788,0.017576344311237335,-2.089055061340332
1763694530342155500,3.458155517578125,1.3167611360549927,0.10172975063323975,-2.305164337158203
1763694530352161500,3.46816162109375,1.1665632724761963,0.24127528071403503,-2.4574925899505615
1763694530362141000,3.478140869140625,1.1090407371520996,0.19653549790382385,-2.6119513511657715
1763694530372144000,3.48814404296875,1.2411296367645264,0.039946239441633224,-2.8088862895965576
1763694530382171100,3.498171142578125,1.2571080923080444,-0.051663801074028015,-2.9175400733947754
1763694530392177000,3.508177001953125,1.1495195627212524,-0.16670896112918854,-2.7897121906280518
1763694530402191600,3.518191650390625,1.0099740028381348,-0.30518925189971924,-2.361621618270874
1763694530412198400,3.528198486328125,0.9854736924171448,-0.015445878729224205,-2.184792995452881
1763694530422202600,3.53820263671875,1.014235019683838,-0.020772043615579605,-2.0155539512634277
1763694530432209200,3.548209228515625,1.0717575550079346,0.059120431542396545,-2.0773375034332275
1763694530442217500,3.558217529296875,1.074953317642212,0.0964035913348198,-2.278533458709717
1763694530452224000,3.56822412109375,1.0078436136245728,0.036750540137290955,-2.376534938812256
1763694530462220800,3.578220703125,0.9716256856918335,0.026098208501935005,-2.365882635116577
1763694530472226600,3.5882265625,1.1601718664169312,0.17949175834655762,-2.366947889328003
1763694530482237000,3.59823681640625,1.4168931245803833,0.2572537660598755,-2.3818609714508057
1763694530492243000,3.608242919921875,1.513829231262207,0.1177082508802414,-2.3871872425079346
1763694530502250000,3.61825,1.4999812841415405,-0.11557777971029282,-2.2977075576782227
1763694530512256000,3.628256103515625,1.4051755666732788,-0.18375270068645477,-2.128335475921631
1763694530522258700,3.6382587890625,1.3987841606140137,0.0047935484908521175,-2.028336763381958
1763694530532264400,3.648264404296875,1.327413558959961,0.16351327300071716,-1.9132916927337646
1763694530542270700,3.658270751953125,1.2230206727981567,0.2987978756427765,-1.7151583433151245
1763694530552276500,3.6682763671875,1.135671615600586,0.5319507122039795,-1.5788085460662842
1763694530562283500,3.678283447265625,0.9386034607887268,0.6342130899429321,-1.4404613971710205
1763694530572289300,3.688289306640625,0.6362104415893555,0.6171693801879883,-1.2561759948730469
1763694530582269400,3.69826953125,0.26883819699287415,0.5585815906524658,-0.9717588424682617
1763694530592272600,3.708272705078125,-0.06138405203819275,0.5021241903305054,-0.7098446488380432
1763694530602321700,3.71832177734375,-0.3211677670478821,0.3359478712081909,-0.5404726266860962
1763694530612329500,3.72832958984375,-0.559779942035675,0.07616416364908218,-0.5181027054786682
1763694530622327300,3.738327392578125,-0.629020094871521,-0.29134124517440796,-0.6342130899429321
1763694530632334000,3.748333984375,-0.3211677670478821,-0.6203650832176208,-0.7513887286186218
1763694530642338300,3.75833837890625,0.01744319126009941,-0.7833457589149475,-0.7790848016738892
1763694530652344800,3.7683447265625,0.1687062829732895,-0.8355421423912048,-0.6810833811759949
1763694530662344700,3.7783447265625,0.2507292330265045,-0.8067808747291565,-0.5298202633857727
1763694530672350700,3.788350830078125,0.27096864581108093,-0.7524539828300476,-0.39453569054603577
1763694530682353400,3.798353515625,0.21664176881313324,-0.7407364249229431,-0.3242303133010864
1763694530692359000,3.80835888671875,0.07603100687265396,-0.6597787141799927,-0.3359478712081909
1763694530702372400,3.818372314453125,-0.11251524090766907,-0.5170374512672424,-0.2956021726131439
1763694530712378600,3.828378662109375,-0.31371113657951355,-0.29240646958351135,-0.18907886743545532
1763694530722389000,3.838388916015625,-0.5182358622550964,-0.15499140322208405,-0.0953383520245552
1763694530732395500,3.8483955078125,-0.5949326157569885,-0.20718781650066376,0.17629607021808624
1763694530742397200,3.858397216796875,-0.5938674211502075,-0.31144750118255615,0.35512205958366394
1763694530752403500,3.868403564453125,-0.5374100804328918,-0.389209508895874,0.3412740230560303
1763694530762396700,3.878396728515625,-0.4170387387275696,-0.3295564651489258,0.2252967804670334
1763694530772401700,3.888401611328125,-0.21158191561698914,-0.23275341093540192,0.15499140322208405
1763694530782411300,3.898411376953125,0.06537867337465286,-0.23701435327529907,0.20079642534255981
1763694530792416800,3.908416748046875,0.31024911999702454,-0.29453691840171814,0.29240646958351135
1763694530802440400,3.9184404296875,0.32196667790412903,-0.38388335704803467,0.31144750118255615
1763694530812447700,3.92844775390625,0.1037270650267601,-0.5127765536308289,0.26897132396698
1763694530822446800,3.93844677734375,-0.24140843749046326,-0.6949313879013062,0.22636201977729797
1763694530832453000,3.948453125,-0.6236939430236816,-0.7801500558853149,0.2029268890619278
1763694530842425600,3.958425537109375,-1.0304797887802124,-0.9536498785018921,0.29453691840171814
1763694530852428500,3.968428466796875,-1.4437901973724365,-0.9206276535987854,0.4137098789215088
1763694530862441000,3.97844091796875,-1.782401204109192,-0.5628424882888794,0.5181027054786682
1763694530872445000,3.98844482421875,-1.7834663391113281,-0.3167736828327179,0.5947995185852051
1763694530882450700,3.99845068359375,-1.4075722694396973,-0.3583177626132965,0.49253711104393005
1763694530892455000,4.008454833984375,-1.011305570602417,-0.3828181326389313,0.30199354887008667
1763694530902450200,4.0184501953125,-0.8569799661636353,-0.28175413608551025,0.13581721484661102
1763694530912453000,4.028453125,-0.9963923692703247,-0.16670896112918854,0.027163442224264145
1763694530922487800,4.03848779296875,-1.453377366065979,0.08894696086645126,0.00905448105186224
1763694530932494000,4.048494140625,-2.421407699584961,0.4094489514827728,0.054859500378370285
1763694530942494700,4.05849462890625,-3.601419687271118,0.8398030996322632,0.13475197553634644
1763694530952500500,4.06850048828125,-4.326710224151611,1.0037158727645874,-0.18375270068645477
1763694530962518000,4.07851806640625,-4.094489574432373,1.0026506185531616,-0.47975432872772217
1763694530972525000,4.088525146484375,-3.8815760612487793,1.5990478992462158,0.053794268518686295
1763694530982525400,4.098525390625,-3.573723554611206,2.037923812866211,0.9685631394386292
1763694530992531700,4.10853173828125,-3.0050222873687744,1.9164873361587524,1.6416572332382202
1763694531002504700,4.118504638671875,-2.2733404636383057,1.3829387426376343,1.6373963356018066
1763694531012507400,4.12850732421875,-1.4736167192459106,0.38494858145713806,1.0878691673278809
1763694531022560800,4.138560791015625,-1.1604381799697876,-0.6949313879013062,0.46910199522972107
1763694531032568600,4.148568603515625,-1.2595049142837524,-1.5033100843429565,0.22955772280693054
1763694531042562800,4.158562744140625,-1.392659068107605,-1.8823999166488647,0.370035320520401
1763694531052569300,4.1685693359375,-1.4437901973724365,-1.911161184310913,0.5979951620101929
1763694531062575400,4.178575439453125,-1.606637716293335,-1.6927884817123413,0.7215622067451477
1763694531072582000,4.188581787109375,-1.9922521114349365,-1.1933273077011108,0.7162360548973083
1763694531082593800,4.19859375,-2.36495041847229,-0.6054518222808838,0.5308855175971985
1763694531092600800,4.208600830078125,-2.565214157104492,-0.16670896112918854,0.22423155605793
1763694531102565000,4.218565185546875,-2.5396487712860107,-0.2998631000518799,-0.07722939550876617
1763694531112567800,4.22856787109375,-2.416081666946411,-0.6299521923065186,-0.370035320520401
1763694531122605300,4.238605224609375,-2.3393847942352295,-0.7567148804664612,-0.7268883585929871
1763694531132611600,4.248611572265625,-2.350037097930908,-0.8280855417251587,-1.0346075296401978
1763694531142627300,4.25862744140625,-2.134860038757324,-0.7524539828300476,-1.1901315450668335
1763694531152634400,4.26863427734375,-1.7781401872634888,-0.8046503663063049,-1.3797430992126465
1763694531162635000,4.278635009765625,-1.2744181156158447,-0.7013227939605713,-1.6597661972045898
1763694531172641500,4.2886416015625,-0.736608624458313,-0.7247579097747803,-1.5340687036514282
1763694531182648600,4.298648681640625,-0.3701684772968292,-0.6469959020614624,-1.1198261976242065
1763694531192655000,4.308655029296875,0.17083674669265747,-0.4872109591960907,-0.5979951620101929
1763694531202686000,4.31868603515625,0.4540555775165558,-0.39453569054603577,-0.08681648969650269
1763694531212695000,4.328695068359375,0.6937330365180969,-0.2774932086467743,0.24234052002429962
1763694531222669300,4.33866943359375,0.6521888971328735,0.3135779798030853,0.42968836426734924
1763694531232674800,4.3486748046875,0.24966399371623993,0.7971937656402588,0.4648410677909851
1763694531242677500,4.358677490234375,0.2219679355621338,0.8728253245353699,0.3391435742378235
1763694531252682800,4.368682861328125,0.38375020027160645,0.6107779741287231,0.06551183015108109
1763694531262695000,4.37869482421875,0.39653298258781433,0.3009283244609833,-0.21890538930892944
1763694531272700700,4.38870068359375,0.29972994327545166,0.23914481699466705,-0.37536147236824036
1763694531282706200,4.3987060546875,0.005725627299398184,0.07616416364908218,-0.2444709837436676
1763694531292712000,4.4087119140625,-0.3967992961406708,-0.09427312016487122,0.037815771996974945
1763694531302712800,4.418712890625,-0.8356752991676331,-0.3263607621192932,0.27003657817840576
1763694531312718300,4.42871826171875,-1.3031795024871826,-0.7801500558853149,0.4137098789215088
1763694531322733300,4.4387333984375,-1.469355821609497,-1.0196943283081055,0.4424711763858795
1763694531332739600,4.448739501953125,-1.4310073852539062,-0.749258279800415,0.2753627300262451
1763694531342742800,4.45874267578125,-1.1966561079025269,-0.14220860600471497,0.062316130846738815
1763694531352748800,4.468748779296875,-0.8878717422485352,0.2125139832496643,-0.09214265644550323
1763694531362757400,4.47875732421875,-0.5959978699684143,0.24873191118240356,-0.2125139832496643
1763694531372763600,4.488763671875,-0.4127778112888336,0.17523083090782166,-0.2796236574649811
1763694531382761200,4.49876123046875,-0.26271310448646545,0.137947678565979,-0.25192761421203613
1763694531392766500,4.508766357421875,-0.10718907415866852,0.1699046641588211,-0.1294258087873459
1763694531402748000,4.518747802734375,0.06750914454460144,0.1581871062517166,0.044207170605659485
1763694531412750800,4.528750732421875,0.20705467462539673,0.1059906855225563,0.16138280928134918
1763694531422793500,4.53879345703125,0.22729410231113434,0.13688243925571442,0.17523083090782166
1763694531432800500,4.548800537109375,0.13248835504055023,0.22636201977729797,0.1390129029750824
1763694531442796000,4.558796142578125,0.0003994623839389533,0.33381739258766174,0.1390129029750824
1763694531452801800,4.5688017578125,-0.06884068250656128,0.38707906007766724,0.20612259209156036
1763694531462801200,4.57880126953125,-0.3936035931110382,0.2572537660598755,0.3806876540184021
1763694531472806100,4.58880615234375,-0.9612396359443665,0.3071865737438202,0.6459306478500366
1763694531482814200,4.598814208984375,-1.2019822597503662,0.5830819010734558,0.5969299674034119
1763694531492819500,4.6088193359375,-1.4065070152282715,0.5457987785339355,0.5010589957237244
1763694531502809300,4.618809326171875,-1.7035739421844482,0.07829462736845016,0.5692338943481445
1763694531512813300,4.628813232421875,-1.8761416673660278,-0.21890538930892944,0.5362116694450378
1763694531522844000,4.638843994140625,-1.9624255895614624,-0.28388461470603943,0.39773139357566833
1763694531532850400,4.648850341796875,-2.1222105026245117,-0.542603075504303,0.2540580630302429
1763694531552873000,4.668873046875,-2.1476428508758545,-0.5170374512672424,0.0964035913348198
1763694531562869200,4.678869140625,-1.8292714357376099,-0.25938424468040466,0.3082517981529236
1763694531572875300,4.688875244140625,-1.5077041387557983,-0.18375270068645477,0.6075822710990906
1763694531582869500,4.698869384765625,-1.1987866163253784,0.2679060995578766,0.7641715407371521
1763694531592874500,4.70887451171875,-0.9282174110412598,0.5298202633857727,0.5937342643737793
1763694531602857700,4.718857666015625,-0.8559147119522095,0.34553495049476624,0.2146444469690323
1763694531612860700,4.728860595703125,-0.7184996604919434,0.19866596162319183,-0.16351327300071716
1763694531622901800,4.73890185546875,-0.5651060938835144,0.26151469349861145,-0.27003657817840576
1763694531632908300,4.748908203125,-0.39892977476119995,0.346600204706192,-0.27003657817840576
1763694531642909000,4.758908935546875,-0.46177852153778076,0.44779732823371887,-0.35405683517456055
1763694531652915000,4.7689150390625,-0.7195649147033691,0.5276898145675659,-0.3615134656429291
1763694531662920200,4.778920166015625,-0.6013240218162537,0.4648410677909851,0.07616416364908218
1763694531672926200,4.78892626953125,-0.7003906965255737,0.435014545917511,0.5830819010734558
1763694531682933500,4.79893359375,-1.0613715648651123,0.8291507363319397,0.7332797646522522
1763694531692939500,4.808939453125,-1.4917256832122803,1.040998935699463,0.7023880481719971
1763694531702910700,4.81891064453125,-1.8409889936447144,0.5820167064666748,0.7641715407371521
1763694531712913400,4.828913330078125,-2.3106236457824707,0.11877348273992538,0.5394073724746704
1763694531722956800,4.838956787109375,-2.6387152671813965,-0.2860150635242462,-0.046337638050317764
1763694531732963300,4.84896337890625,-2.5556271076202393,-0.534081220626831,-0.6587134599685669
1763694531742968300,4.85896826171875,-2.201969861984253,-0.31038227677345276,-0.8067808747291565
1763694531752974800,4.868974853515625,-1.9539036750793457,-0.031424373388290405,-0.5330159664154053
1763694531762980000,4.87897998046875,-1.959229826927185,-0.035685304552316666,-0.21997061371803284
1763694531772986600,4.888986572265625,-2.078536033630371,-0.14007814228534698,-0.13262151181697845
1763694531782996500,4.89899658203125,-2.2456443309783936,-0.13475197553634644,-0.24340574443340302
1763694531793003000,4.9090029296875,-2.257361888885498,-0.0857512578368187,-0.430753618478775
1763694531802971600,4.9189716796875,-2.0870578289031982,-0.11025162041187286,-0.4360797703266144
1763694531823015000,4.939014892578125,-1.8995767831802368,-0.30518925189971924,0.0644465982913971
1763694531833021400,4.949021484375,-1.7451180219650269,-0.6288869380950928,0.2252967804670334
1763694531843021800,4.959021728515625,-1.6748126745224,-0.8611077666282654,0.222101092338562
1763694531853027800,4.96902783203125,-1.492790937423706,-0.7801500558853149,0.0037283156998455524
1763694531863040500,4.97904052734375,-1.0379364490509033,-0.589473307132721,-0.10172975063323975
1763694531873047300,4.98904736328125,-0.5320838689804077,-0.2018616646528244,-0.09107742458581924
1763694531883050800,4.99905078125,-0.01877473294734955,0.3146432042121887,-0.062316130846738815
1763694531893057000,5.00905712890625,0.5978620052337646,0.7567148804664612,-0.18588316440582275
1763694531903061200,5.019061279296875,1.1569762229919434,1.040998935699463,-0.3391435742378235
1763694531913067500,5.029067626953125,1.4701547622680664,1.1464570760726929,-0.7908023595809937
1763694531923068700,5.039068603515625,1.5021116733551025,1.232740879058838,-0.6981270909309387
1763694531933074200,5.04907421875,1.4083712100982666,1.3083724975585938,-0.5053198933601379
1763694531943083300,5.059083251953125,1.0451267957687378,1.1911967992782593,-0.13688243925571442
1763694531953089000,5.069089111328125,0.5989272594451904,1.037803292274475,0.14220860600471497
1763694531963092200,5.07909228515625,0.10053136944770813,0.8973256945610046,0.2529928386211395
1763694531973098000,5.089097900390625,-0.3861469626426697,0.8536511063575745,0.2636451721191406
1763694531983091500,5.099091552734375,-0.24353890120983124,0.6608439087867737,0.4105141758918762
1763694531993096000,5.109095947265625,0.03768261894583702,0.5106461048126221,0.47016721963882446
1763694532003079400,5.119079345703125,0.1569887101650238,0.46271058917045593,0.4467321038246155
1763694532013081900,5.129081787109375,0.19746756553649902,0.38814428448677063,0.42968836426734924
1763694532023127000,5.139126953125,0.21238084137439728,0.3370130956172943,0.45099303126335144
1763694532033133600,5.149133544921875,0.1687062829732895,0.4158403277397156,0.477623850107193
1763694532043125200,5.159125244140625,0.09200949966907501,0.5596467852592468,0.48401525616645813
1763694532053130200,5.169130126953125,0.008921326138079166,0.6406044960021973,0.4989285171031952
1763694532063171600,5.179171630859375,-0.06351451575756073,0.6565830111503601,0.5276898145675659
1763694532073180400,5.189180419921875,-0.11251524090766907,0.5777557492256165,0.5830819010734558
1763694532083186000,5.19918603515625,-0.13275466859340668,0.44886255264282227,0.665104866027832
1763694532093194500,5.209194580078125,-0.13595037162303925,0.33168694376945496,0.7609758377075195
1763694532103168800,5.219168701171875,-0.12636326253414154,0.22423155605793,0.8621729612350464
1763694532113173800,5.229173828125,-0.10612384229898453,0.1166430190205574,0.962171733379364
1763694532123192600,5.239192626953125,-0.08908011019229889,0.018641578033566475,1.0537817478179932
1763694532133199000,5.24919921875,-0.07203638553619385,-0.053794268518686295,1.125152349472046
1763694532143199500,5.259199462890625,-0.05392742156982422,-0.11238208413124084,1.176283597946167
1763694532153205200,5.269205322265625,-0.02516612969338894,-0.1688394397497177,1.2125015258789062
1763694532163215400,5.27921533203125,0.013182258233428001,-0.2135792225599289,1.239132285118103
1763694532173221400,5.289221435546875,0.07070484012365341,-0.21997061371803284,1.2551108598709106
1763694532183227600,5.2992275390625,0.14314068853855133,-0.15073047578334808,1.270024061203003
1763694532193233700,5.309233642578125,0.1995980441570282,-0.023967742919921875,1.3030463457107544
1763694532203191600,5.319191650390625,0.23901166021823883,0.1059906855225563,1.3573732376098633
1763694532213193000,5.32919287109375,0.26031631231307983,0.1699046641588211,1.4340699911117554
1763694532223254300,5.339254150390625,0.27736005187034607,0.17416560649871826,1.5011796951293945
1763694532233261600,5.349261474609375,0.285881906747818,0.13475197553634644,1.5436557531356812
1763694532243260000,5.359260009765625,0.28055575489997864,0.08362079411745071,1.5372644662857056
1763694532253266400,5.369266357421875,0.27842527627944946,0.06870753318071365,1.4958534240722656
1763694532263255300,5.37925537109375,0.28162097930908203,0.08042509108781815,1.4393961429595947
1763694532273260000,5.389260009765625,0.29227331280708313,0.10918638855218887,1.3595036268234253
1763694532283289900,5.399289794921875,0.3049229383468628,0.1390129029750824,1.2796111106872559
1763694532293297000,5.409296875,0.31983622908592224,0.16457849740982056,1.2103710174560547
1763694532303281200,5.41928125,0.3347494900226593,0.15073047578334808,1.131543755531311
1763694532313286000,5.429285888671875,0.35179319977760315,0.12196917831897736,1.0335423946380615
1763694532323314700,5.439314697265625,0.3592498302459717,0.11983871459960938,0.9323452115058899
1763694532333322000,5.449322021484375,0.35285845398902893,0.12516488134860992,0.8472597002983093
1763694532343321300,5.4593212890625,0.3485974967479706,0.036750540137290955,0.7609758377075195
1763694532353327900,5.469327880859375,0.3485974967479706,-0.0857512578368187,0.6981270909309387
1763694532363339500,5.479339599609375,0.36244553327560425,-0.16351327300071716,0.6523220539093018
1763694532373346600,5.4893466796875,0.3784240186214447,-0.18801362812519073,0.6107779741287231
1763694532383347700,5.49934765625,0.3880111277103424,-0.23275341093540192,0.5788210034370422
1763694532393354000,5.50935400390625,0.4007939398288727,-0.3146432042121887,0.5457987785339355
1763694532403326200,5.519326171875,0.4199681282043457,-0.39453569054603577,0.49360236525535583
1763694532413329200,5.5293291015625,0.4444684684276581,-0.4456668794155121,0.4232969582080841
1763694532423370000,5.539369873046875,0.471099317073822,-0.4659062922000885,0.34233927726745605
1763694532433376800,5.549376708984375,0.48814302682876587,-0.44886255264282227,0.26151469349861145
1763694532443380500,5.55938037109375,0.4966649115085602,-0.4147751033306122,0.19547025859355927
1763694532453387000,5.569386962890625,0.49986058473587036,-0.3796224296092987,0.13581721484661102
1763694532463399000,5.57939892578125,0.49879536032676697,-0.3306216895580292,0.07190322875976562
1763694532473406000,5.589406005859375,0.49986058473587036,-0.264710396528244,0.0037283156998455524
1763694532483409400,5.599409423828125,0.49879536032676697,-0.1922745555639267,-0.060185667127370834
1763694532493416200,5.609416259765625,0.48920828104019165,-0.13475197553634644,-0.1070559173822403
1763694532503398700,5.619398681640625,0.4742949903011322,-0.1059906855225563,-0.13049104809761047
1763694532513403000,5.62940283203125,0.4519250988960266,-0.09107742458581924,-0.14220860600471497
1763694532523436000,5.63943603515625,0.42529428005218506,-0.10066451877355576,-0.14753477275371552
1763694532533443300,5.649443359375,0.39227205514907837,-0.13155627250671387,-0.15179570019245148
1763694532543438000,5.65943798828125,0.3581846058368683,-0.1805569976568222,-0.15605664253234863
1763694532553443800,5.66944384765625,0.3230319023132324,-0.245536208152771,-0.1581871062517166
1763694532563453200,5.679453125,0.28907760977745056,-0.3146432042121887,-0.15179570019245148
1763694532573459500,5.68945947265625,0.24646829068660736,-0.36257869005203247,-0.13688243925571442
1763694532583460400,5.69946044921875,0.19533710181713104,-0.39347043633461,-0.11344731599092484
1763694532593465900,5.7094658203125,0.14101022481918335,-0.4094489514827728,-0.07935985922813416
1763694532603456500,5.71945654296875,0.08455286920070648,-0.4222317337989807,-0.039946239441633224
1763694532613460700,5.729460693359375,0.03022598661482334,-0.4371449947357178,-0.010119713842868805
1763694532623501800,5.739501708984375,-0.01877473294734955,-0.44034069776535034,0.00585878174751997
1763694532633510000,5.749510009765625,-0.06244928762316704,-0.40731847286224365,0.0047935484908521175
1763694532643497000,5.7594970703125,-0.09760197252035141,-0.3593829870223999,-0.006924014538526535
1763694532653502700,5.769502685546875,-0.1199718713760376,-0.3274259865283966,-0.020772043615579605
1763694532663511300,5.77951123046875,-0.13275466859340668,-0.33488261699676514,-0.044207170605659485
1763694532673517300,5.789517333984375,-0.13488513231277466,-0.3572525382041931,-0.09107742458581924
1763694532683526100,5.799526123046875,-0.11890663951635361,-0.3785571753978729,-0.15286093950271606
1763694532693532400,5.809532470703125,-0.09440627694129944,-0.4115794003009796,-0.2125139832496643
1763694532703496700,5.81949658203125,-0.06884068250656128,-0.4446016252040863,-0.2572537660598755
1763694532713498600,5.82949853515625,-0.04220985993742943,-0.4659062922000885,-0.29347169399261475
1763694532723547100,5.839547119140625,-0.013448567129671574,-0.49147188663482666,-0.32103461027145386
1763694532733554000,5.849553955078125,0.0185084231197834,-0.5415378212928772,-0.33275216817855835
1763694532743569700,5.859569580078125,0.05472634732723236,-0.5756253004074097,-0.32103461027145386
1763694532753577200,5.8695771484375,0.10053136944770813,-0.5266245603561401,-0.29240646958351135
1763694532763567400,5.8795673828125,0.15059731900691986,-0.4211665093898773,-0.25938424468040466
1763694532773573400,5.889573486328125,0.19107617437839508,-0.3167736828327179,-0.2338186502456665
1763694532783582200,5.899582275390625,0.2006632685661316,-0.2529928386211395,-0.22423155605793
1763694532793588200,5.909588134765625,0.17509767413139343,-0.23807957768440247,-0.23168818652629852
1763694532803573800,5.91957373046875,0.12183602899312973,-0.25192761421203613,-0.27323228120803833
1763694532813577700,5.92957763671875,0.05472634732723236,-0.2881455421447754,-0.350861132144928
1763694532823613400,5.939613525390625,-0.01770949922502041,-0.31251272559165955,-0.44886255264282227
1763694532833620700,5.949620849609375,-0.10079767554998398,-0.27323228120803833,-0.5457987785339355
1763694532843613700,5.95961376953125,-0.1849510818719864,-0.20718781650066376,-0.6129084229469299
1763694532853619500,5.969619384765625,-0.2563216984272003,-0.2114487588405609,-0.6107779741287231
1763694532863629800,5.9796298828125,-0.3021267056465149,-0.2977326214313507,-0.5404726266860962
1763694532873636000,5.989635986328125,-0.31371113657951355,-0.3679048418998718,-0.430753618478775
1763694532883644700,5.999644775390625,-0.27443066239356995,-0.3572525382041931,-0.31038227677345276
1763694532893651200,6.009651123046875,-0.16471165418624878,-0.1709699034690857,-0.2252967804670334
1763694532903704800,6.019704833984375,0.012117025442421436,0.18801362812519073,-0.21038351953029633
1763694532913716000,6.029716064453125,0.2102503627538681,0.5330159664154053,-0.27003657817840576
1763694532923664600,6.03966455078125,0.36031508445739746,0.6661701202392578,-0.3604482114315033
1763694532933669400,6.04966943359375,0.40718531608581543,0.5021241903305054,-0.4264926612377167
1763694532943678500,6.059678466796875,0.3464670479297638,0.17310036718845367,-0.44140592217445374
1763694532953684000,6.06968408203125,0.2102503627538681,-0.15712186694145203,-0.4211665093898773
1763694532963685600,6.079685546875,0.04087831825017929,-0.39453569054603577,-0.39773139357566833
1763694532973690600,6.089690673828125,-0.11358047276735306,-0.5362116694450378,-0.39453569054603577
1763694532983674600,6.099674560546875,-0.21051667630672455,-0.5926690101623535,-0.41690558195114136
1763694532993677600,6.109677490234375,-0.24034319818019867,-0.5553858876228333,-0.4659062922000885
1763694533003704000,6.1197041015625,-0.20838621258735657,-0.4232969582080841,-0.5394073724746704
1763694533013709300,6.129709228515625,-0.1423417627811432,-0.2338186502456665,-0.627821683883667
1763694533023714600,6.139714599609375,-0.06351451575756073,-0.053794268518686295,-0.6959966421127319
1763694533033719800,6.1497197265625,0.01957365684211254,0.047402869910001755,-0.7215622067451477
1763694533043730700,6.159730712890625,0.09413997083902359,0.028228675946593285,-0.7077142000198364
1763694533053736400,6.169736328125,0.13994498550891876,-0.06977276504039764,-0.6661701202392578
1763694533063748600,6.17974853515625,0.14101022481918335,-0.1688394397497177,-0.6235607862472534
1763694533073755100,6.189755126953125,0.10053136944770813,-0.23701435327529907,-0.5820167064666748
1763694533083754800,6.199754638671875,0.04087831825017929,-0.28175413608551025,-0.5500596761703491
1763694533093760500,6.209760498046875,-0.009187635034322739,-0.30305880308151245,-0.5276898145675659
1763694533103764200,6.21976416015625,-0.03901416063308716,-0.2881455421447754,-0.5266245603561401
1763694533113769700,6.229769775390625,-0.04753602296113968,-0.25192761421203613,-0.5500596761703491
1763694533123774200,6.239774169921875,-0.04753602296113968,-0.2135792225599289,-0.5777557492256165
1763694533133779700,6.24977978515625,-0.04327509179711342,-0.16457849740982056,-0.5926690101623535
1763694533143777800,6.25977783203125,-0.03901416063308716,-0.11131685227155685,-0.5862776041030884
1763694533153782500,6.269782470703125,-0.03368799388408661,-0.055924732238054276,-0.55751633644104
1763694533163785700,6.27978564453125,-0.02516612969338894,-0.0079892473295331,-0.5223636627197266
1763694533173790200,6.289790283203125,-0.012383334338665009,0.019706811755895615,-0.4861457347869873
1763694533183792000,6.299792236328125,0.0014646954368799925,0.030359141528606415,-0.4552539587020874
1763694533193796400,6.30979638671875,0.015312724746763706,0.028228675946593285,-0.4158403277397156
1763694533203816000,6.31981591796875,0.02276935614645481,0.020772043615579605,-0.36683961749076843
1763694533213821700,6.32982177734375,0.02063889056444168,0.025032976642251015,-0.33168694376945496
1763694533223849000,6.339848876953125,0.01744319126009941,0.030359141528606415,-0.3071865737438202
1763694533233857000,6.34985693359375,0.02276935614645481,0.025032976642251015,-0.2977326214313507
1763694533243826400,6.359826416015625,0.03129122033715248,0.01438064593821764,-0.30931705236434937
1763694533253830700,6.36983056640625,0.04620448127388954,-0.0015978495357558131,-0.3167736828327179
1763694533263859000,6.37985888671875,0.07283531129360199,-0.026098208501935005,-0.305056095123291
1763694533273865500,6.389865478515625,0.10266183316707611,-0.048468101769685745,-0.28175413608551025
1763694533283874800,6.399874755859375,0.11970555782318115,-0.047402869910001755,-0.27003657817840576
1763694533293881600,6.409881591796875,0.13035789132118225,-0.033554840832948685,-0.26151469349861145
1763694533303891000,6.419890869140625,0.13781452178955078,-0.019706811755895615,-0.245536208152771
1763694533313898000,6.42989794921875,0.14420592784881592,-0.01438064593821764,-0.222101092338562
1763694533323898000,6.439898193359375,0.14207544922828674,0.0037283156998455524,-0.19440503418445587
1763694533333904400,6.449904296875,0.11970555782318115,0.041011471301317215,-0.17310036718845367
1763694533343910100,6.45991015625,0.07496577501296997,0.06870753318071365,-0.16670896112918854
1763694533353916400,6.46991650390625,0.03022598661482334,0.06657706201076508,-0.1709699034690857
1763694533363925000,6.479925048828125,0.0014646954368799925,0.045272402465343475,-0.17416560649871826
1763694533373931300,6.48993115234375,-0.009187635034322739,0.062316130846738815,-0.17949175834655762
1763694533383929000,6.49992919921875,-0.010252867825329304,0.10492545366287231,-0.19333979487419128
1763694533393934800,6.509934814453125,-0.007057168986648321,0.1603175699710846,-0.21784014999866486
1763694533403970000,6.519969970703125,-0.0017310036346316338,0.18694838881492615,-0.24766667187213898
1763694533413978400,6.529978271484375,0.011051792651414871,0.19547025859355927,-0.2561885416507721
1763694533423954700,6.53995458984375,0.01637795753777027,0.23701435327529907,-0.27323228120803833
1763694533433960000,6.5499599609375,0.01744319126009941,0.2444709837436676,-0.30931705236434937
1763694533443960000,6.5599599609375,0.007856093347072601,0.2679060995578766,-0.3306216895580292
1763694533453964800,6.56996484375,-0.005991935729980469,0.3359478712081909,-0.33168694376945496
1763694533463981000,6.57998095703125,-0.010252867825329304,0.3913399875164032,-0.32209983468055725
1763694533473986800,6.58998681640625,-0.0017310036346316338,0.4115794003009796,-0.2998631000518799
1763694533483991000,6.599990966796875,0.004660394508391619,0.4435364007949829,-0.28068891167640686
1763694533493996800,6.609996826171875,0.009986559860408306,0.4893414080142975,-0.28281936049461365
1763694533503997700,6.619997802734375,0.011051792651414871,0.5255593657493591,-0.2977326214313507
1763694533514003000,6.6300029296875,0.005725627299398184,0.5394073724746704,-0.3157084286212921
1763694533524024600,6.640024658203125,-0.000665770610794425,0.5234288573265076,-0.3242303133010864
1763694533534031400,6.65003125,-0.0027962366584688425,0.4531235098838806,-0.32103461027145386
1763694533544031000,6.660031005859375,-0.0027962366584688425,0.35405683517456055,-0.31144750118255615
1763694533554037000,6.670037109375,-0.000665770610794425,0.27110180258750916,-0.29453691840171814
1763694533564059400,6.680059326171875,-0.0017310036346316338,0.21784014999866486,-0.28068891167640686
1763694533574067200,6.690067138671875,-0.007057168986648321,0.17842653393745422,-0.2636451721191406
1763694533584060200,6.70006005859375,-0.013448567129671574,0.13581721484661102,-0.24979715049266815
1763694533594066400,6.71006640625,-0.02410089783370495,0.10386022180318832,-0.23594911396503448
1763694533604048600,6.720048583984375,-0.03049229457974434,0.08681648969650269,-0.22423155605793
1763694533614052600,6.730052490234375,-0.03901416063308716,0.07829462736845016,-0.20718781650066376
1763694533624083000,6.7400830078125,-0.04753602296113968,0.06870753318071365,-0.18907886743545532
1763694533634089500,6.75008935546875,-0.05286218971014023,0.0740336924791336,-0.1688394397497177
1763694533644093200,6.76009326171875,-0.05392742156982422,0.09427312016487122,-0.1496652364730835
1763694533654099500,6.770099365234375,-0.06138405203819275,0.10172975063323975,-0.13262151181697845
1763694533664110800,6.78011083984375,-0.06990591436624527,0.08362079411745071,-0.1262301206588745
1763694533674117600,6.79011767578125,-0.07523208111524582,0.052729032933712006,-0.1294258087873459
1763694533684113000,6.80011279296875,-0.07416684925556183,0.031424373388290405,-0.137947678565979
1763694533694118700,6.81011865234375,-0.0773625448346138,0.028228675946593285,-0.14646953344345093
1763694533704116700,6.82011669921875,-0.0773625448346138,0.042076703161001205,-0.15286093950271606
1763694533714121700,6.830121826171875,-0.07842778414487839,0.055924732238054276,-0.1581871062517166
1763694533724141600,6.8401416015625,-0.07629731297492981,0.051663801074028015,-0.16351327300071716
1763694533734147800,6.85014794921875,-0.06351451575756073,0.043141938745975494,-0.16564373672008514
1763694533744151000,6.860151123046875,-0.04647079110145569,0.036750540137290955,-0.17310036718845367
1763694533754157000,6.870156982421875,-0.04434032365679741,0.028228675946593285,-0.17949175834655762
1763694533764161800,6.880161865234375,-0.0667102187871933,0.0079892473295331,-0.17949175834655762
1763694533774167800,6.890167724609375,-0.09973244369029999,-0.013315413147211075,-0.1699046641588211
1763694533784169200,6.900169189453125,-0.12316756695508957,-0.019706811755895615,-0.16564373672008514
1763694533794174500,6.910174560546875,-0.12423279881477356,-0.00905448105186224,-0.16564373672008514
1763694533804141300,6.920141357421875,-0.11784140020608902,0.006924014538526535,-0.1688394397497177
1763694533814142700,6.930142822265625,-0.11358047276735306,0.030359141528606415,-0.1720351278781891
1763694533824196400,6.9401962890625,-0.11251524090766907,0.0633813664317131,-0.17523083090782166
1763694533834203100,6.950203125,-0.1199718713760376,0.08894696086645126,-0.1720351278781891
1763694533844184000,6.96018408203125,-0.13275466859340668,0.10172975063323975,-0.17310036718845367
1763694533854188300,6.970188232421875,-0.14660269021987915,0.10492545366287231,-0.18375270068645477
1763694533864196000,6.980196044921875,-0.1529940962791443,0.10918638855218887,-0.19440503418445587
1763694533874200800,6.990200927734375,-0.15725502371788025,0.13475197553634644,-0.1912093311548233
1763694533884199400,7.000199462890625,-0.16471165418624878,0.18481792509555817,-0.1816222369670868
1763694533894203400,7.010203369140625,-0.17003782093524933,0.23062294721603394,-0.17949175834655762
1763694533904253000,7.0202529296875,-0.16790735721588135,0.2572537660598755,-0.17416560649871826
1763694533914261500,7.030261474609375,-0.16364642977714539,0.264710396528244,-0.16138280928134918
1763694533924229000,7.04022900390625,-0.15725502371788025,0.264710396528244,-0.14220860600471497
1763694533934233600,7.050233642578125,-0.1625811904668808,0.25831902027130127,-0.12090394645929337
1763694533944246000,7.06024609375,-0.17536398768424988,0.2529928386211395,-0.11344731599092484
1763694533954251300,7.070251220703125,-0.18069015443325043,0.25192761421203613,-0.12196917831897736
1763694533964262700,7.0802626953125,-0.183885857462883,0.25086238980293274,-0.137947678565979
1763694533974268400,7.090268310546875,-0.19134248793125153,0.24021004140377045,-0.15499140322208405
1763694533984269000,7.10026904296875,-0.19773387908935547,0.2114487588405609,-0.16777420043945312
1763694533994274300,7.1102744140625,-0.2147776037454605,0.16457849740982056,-0.1720351278781891
1763694534004292000,7.1202919921875,-0.23182134330272675,0.11877348273992538,-0.16777420043945312
1763694534014298600,7.130298583984375,-0.2467346042394638,0.0964035913348198,-0.1603175699710846
1763694534024284200,7.1402841796875,-0.25206077098846436,0.09746882319450378,-0.15499140322208405
1763694534034288600,7.15028857421875,-0.24566936492919922,0.1177082508802414,-0.15605664253234863
1763694534044315100,7.160315185546875,-0.22436471283435822,0.14327384531497955,-0.15605664253234863
1763694534054321700,7.17032177734375,-0.19027724862098694,0.1496652364730835,-0.15712186694145203
1763694534064337400,7.18033740234375,-0.17642922699451447,0.13368675112724304,-0.1496652364730835
1763694534074345000,7.190344970703125,-0.183885857462883,0.13581721484661102,-0.1294258087873459
1763694534084370200,7.2003701171875,-0.19240771234035492,0.14540430903434753,-0.10279498994350433
1763694534094379500,7.210379638671875,-0.19134248793125153,0.13688243925571442,-0.06870753318071365
1763694534104343300,7.22034326171875,-0.18601632118225098,0.11238208413124084,-0.022902509197592735
1763694534114348000,7.23034814453125,-0.18069015443325043,0.06870753318071365,0.018641578033566475
1763694534124398300,7.2403984375,-0.17110306024551392,0.0079892473295331,0.048468101769685745
1763694534134407700,7.25040771484375,-0.14979839324951172,-0.047402869910001755,0.07296846061944962
1763694534144435200,7.260435302734375,-0.11251524090766907,-0.08681648969650269,0.09959928691387177
1763694534154446300,7.2704462890625,-0.0773625448346138,-0.1177082508802414,0.13581721484661102
1763694534164436700,7.280436767578125,-0.04860125854611397,-0.14753477275371552,0.17523083090782166
1763694534174445800,7.29044580078125,-0.02197043038904667,-0.17523083090782166,0.2146444469690323
1763694534184450600,7.300450439453125,0.006790860556066036,-0.20505735278129578,0.25192761421203613
1763694534194459100,7.310459228515625,0.03661738336086273,-0.23168818652629852,0.28068891167640686
1763694534204377600,7.320377685546875,0.05685681104660034,-0.22849248349666595,0.3082517981529236
1763694534214377000,7.330376953125,0.05792204663157463,-0.18801362812519073,0.3412740230560303
1763694534224448500,7.340448486328125,0.04513924941420555,-0.11983871459960938,0.38388335704803467
1763694534234455300,7.350455322265625,0.012117025442421436,-0.043141938745975494,0.4318188428878784
1763694534244464000,7.360464111328125,-0.03581846132874489,0.033554840832948685,0.4882761836051941
1763694534254471200,7.37047119140625,-0.09334104508161545,0.0964035913348198,0.5543206334114075
1763694534264435000,7.38043505859375,-0.1423417627811432,0.13368675112724304,0.6406044960021973
1763694534274437600,7.390437744140625,-0.16684211790561676,0.14007814228534698,0.7471278309822083
1763694534284444200,7.400444091796875,-0.17003782093524933,0.13368675112724304,0.8536511063575745
1763694534294447000,7.410447021484375,-0.15938548743724823,0.14753477275371552,0.9525846242904663
1763694534304471000,7.420470947265625,-0.1412765234708786,0.18375270068645477,1.0356727838516235
1763694534314476000,7.43047607421875,-0.11358047276735306,0.20505735278129578,1.1176958084106445
1763694534324461800,7.4404619140625,-0.07842778414487839,0.19014409184455872,1.2188929319381714
1763694534334465000,7.450465087890625,-0.04114462435245514,0.14540430903434753,1.3435251712799072
1763694534344472600,7.46047265625,0.00359516148455441,0.0953383520245552,1.4670921564102173
1763694534354476300,7.470476318359375,0.0504654161632061,0.052729032933712006,1.5937217473983765
1763694534364486700,7.480486572265625,0.10479229688644409,0.0026630824431777,1.726875901222229
1763694534374491000,7.490490966796875,0.16444534063339233,-0.060185667127370834,1.8589648008346558
1763694534384497700,7.50049755859375,0.20811989903450012,-0.0750989317893982,1.955901026725769
1763694534394502100,7.510502197265625,0.23581595718860626,-0.006924014538526535,2.000640869140625
1763694534404507600,7.520507568359375,0.2549901604652405,0.08042509108781815,2.001706123352051
1763694534414512000,7.53051220703125,0.27096864581108093,0.13049104809761047,1.9665533304214478
1763694534424512800,7.5405126953125,0.2869471311569214,0.14646953344345093,1.9175525903701782
1763694534434517000,7.55051708984375,0.2869471311569214,0.1496652364730835,1.8792041540145874
1763694534444545000,7.560544921875,0.2869471311569214,0.18907886743545532,1.8887913227081299
1763694534454551800,7.5705517578125,0.2933385372161865,0.2125139832496643,1.9100959300994873
1763694534464547300,7.58054736328125,0.30186042189598083,0.09853405505418777,1.8685518503189087
1763694534474552800,7.590552734375,0.3230319023132324,-0.015445878729224205,1.7396587133407593
1763694534484551400,7.600551513671875,0.36031508445739746,-0.062316130846738815,1.5468515157699585
1763694534494556200,7.61055615234375,0.41464194655418396,-0.016511112451553345,1.3509818315505981
1763694534504551400,7.620551513671875,0.4849473237991333,0.036750540137290955,1.2082405090332031
1763694534514555400,7.630555419921875,0.5446003675460815,0.033554840832948685,1.1187609434127808
1763694534524588300,7.64058837890625,0.5872097015380859,-0.029293907806277275,1.039933681488037
1763694534534595000,7.650594970703125,0.6170362234115601,-0.12516488134860992,0.9632369875907898
1763694534544594000,7.660593994140625,0.6340799331665039,-0.24660144746303558,0.8888037800788879
1763694534554600000,7.670599853515625,0.6553846001625061,-0.3370130956172943,0.8089113235473633
1763694534564610600,7.680610595703125,0.6809502243995667,-0.35192635655403137,0.734345018863678
1763694534574617000,7.6906171875,0.708646297454834,-0.3009283244609833,0.6661701202392578
1763694534584615000,7.700614990234375,0.7448641657829285,-0.22849248349666595,0.6011908650398254
1763694534594620400,7.710620361328125,0.7832126021385193,-0.15499140322208405,0.5468640327453613
1763694534604642300,7.720642333984375,0.8258218765258789,-0.0964035913348198,0.49466758966445923
1763694534614649600,7.730649658203125,0.8535179495811462,-0.0633813664317131,0.4371449947357178
1763694534624655600,7.740655517578125,0.8663007616996765,-0.044207170605659485,0.37749195098876953
1763694534634662700,7.75066259765625,0.8620398044586182,-0.050598569214344025,0.3252955377101898
1763694534644659000,7.760658935546875,0.8471265435218811,-0.07083799690008163,0.29134124517440796
1763694534654665000,7.7706650390625,0.8247566819190979,-0.08149032294750214,0.27323228120803833
1763694534664669400,7.78066943359375,0.7821473479270935,-0.10918638855218887,0.26044946908950806
1763694534674675200,7.79067529296875,0.7288857102394104,-0.15286093950271606,0.24766667187213898
1763694534684675300,7.80067529296875,0.6766892671585083,-0.18801362812519073,0.2231663167476654
1763694534694680600,7.8106806640625,0.6159709692001343,-0.222101092338562,0.18694838881492615
1763694534704707000,7.82070703125,0.5520570278167725,-0.24766667187213898,0.14327384531497955
1763694534714714400,7.83071435546875,0.4828168749809265,-0.2753627300262451,0.0953383520245552
1763694534724695800,7.84069580078125,0.4093157947063446,-0.3157084286212921,0.045272402465343475
1763694534734700500,7.850700439453125,0.33901041746139526,-0.3487306535243988,0.0015978495357558131
1763694534744747000,7.8607470703125,0.26990342140197754,-0.33275216817855835,-0.035685304552316666
1763694534754756000,7.870756103515625,0.20385897159576416,-0.27323228120803833,-0.0750989317893982
1763694534764731400,7.8807314453125,0.1474016159772873,-0.19547025859355927,-0.11877348273992538
1763694534774737000,7.89073681640625,0.09200949966907501,-0.12303441762924194,-0.1688394397497177
1763694534784742400,7.900742431640625,0.04513924941420555,-0.07296846061944962,-0.2135792225599289
1763694534794748000,7.910747802734375,0.01637795753777027,-0.039946239441633224,-0.24766667187213898
1763694534804759000,7.920759033203125,0.008921326138079166,-0.023967742919921875,-0.27323228120803833
1763694534814765000,7.93076513671875,0.0238345880061388,-0.01438064593821764,-0.2966673970222473
1763694534824760000,7.940760009765625,0.04407401755452156,-0.021837277337908745,-0.3295564651489258
1763694534834765000,7.95076513671875,0.06537867337465286,-0.049533337354660034,-0.37323102355003357
1763694534844776700,7.960776611328125,0.08135717362165451,-0.08362079411745071,-0.4232969582080841
1763694534854782200,7.9707822265625,0.08774857223033905,-0.14540430903434753,-0.48295003175735474
1763694534864794600,7.980794677734375,0.08561810106039047,-0.19973118603229523,-0.5457987785339355
1763694534874801200,7.99080126953125,0.07390054315328598,-0.25192761421203613,-0.6022561192512512
1763694534884799500,8.000799560546875,0.05898727849125862,-0.2977326214313507,-0.6427350044250488
1763694534894804700,8.0108046875,0.04620448127388954,-0.3242303133010864,-0.6597787141799927
1763694534904827400,8.020827392578125,0.04513924941420555,-0.3391435742378235,-0.6480611562728882
1763694534914834700,8.030834716796875,0.0504654161632061,-0.350861132144928,-0.6192998290061951
1763694534924837600,8.040837646484375,0.06324820965528488,-0.35299158096313477,-0.5873428583145142
1763694534934844400,8.050844482421875,0.07816147059202194,-0.350861132144928,-0.5543206334114075
1763694534944833000,8.0608330078125,0.07603100687265396,-0.36683961749076843,-0.5042546987533569
1763694534954837800,8.070837646484375,0.05472634732723236,-0.4019923210144043,-0.41690558195114136
1763694534964853000,8.08085302734375,0.02489982172846794,-0.45951488614082336,-0.2956021726131439
1763694534974858800,8.090858642578125,0.007856093347072601,-0.5500596761703491,-0.1496652364730835
1763694534984858000,8.100858154296875,0.007856093347072601,-0.6896052360534668,-0.012250179424881935
1763694534994863000,8.110863037109375,0.02170412242412567,-0.8749557733535767,0.09853405505418777
1763694535004891100,8.12089111328125,0.03874785080552101,-1.0633689165115356,0.16564373672008514
1763694535014898400,8.1308984375,0.04620448127388954,-1.2263494729995728,0.19440503418445587
1763694535024902400,8.14090234375,0.03342168778181076,-1.3531122207641602,0.20399212837219238
1763694535034909400,8.150909423828125,0.011051792651414871,-1.4180914163589478,0.1922745555639267
1763694535044899800,8.16089990234375,-0.012383334338665009,-1.4085043668746948,0.12303441762924194
1763694535054905000,8.170905029296875,-0.04114462435245514,-1.3584383726119995,-0.010119713842868805
1763694535064906000,8.180906005859375,-0.06457975506782532,-1.3019810914993286,-0.18268746137619019
1763694535074910700,8.19091064453125,-0.08375394344329834,-1.207175374031067,-0.3817528784275055
1763694535084928300,8.20092822265625,-0.11890663951635361,-1.0825430154800415,-0.5873428583145142
1763694535094934500,8.2109345703125,-0.17003782093524933,-0.9824111461639404,-0.7780195474624634
1763694535104948500,8.220948486328124,-0.20306004583835602,-0.8856080770492554,-0.9334104657173157
1763694535114955500,8.23095556640625,-0.21264714002609253,-0.7364754676818848,-1.0441946983337402
1763694535124955400,8.240955322265625,-0.1934729516506195,-0.5702991485595703,-1.0953258275985718
1763694535134961700,8.250961669921875,-0.15725502371788025,-0.41690558195114136,-1.0857387781143188
1763694535144964000,8.260964111328125,-0.12742850184440613,-0.2785584330558777,-1.0207595825195312
1763694535154969900,8.270969970703124,-0.1093195378780365,-0.13155627250671387,-0.9090432524681091
1763694535164972800,8.280972900390625,-0.07310161739587784,0.020772043615579605,-0.734345018863678
1763694535174978300,8.290978271484375,-0.0038614696823060513,0.13155627250671387,-0.5255593657493591
1763694535184997000,8.3009970703125,0.08029194176197052,0.19973118603229523,-0.3497959077358246
1763694535195004000,8.31100390625,0.14953207969665527,0.2338186502456665,-0.24340574443340302
1763694535204999200,8.320999267578125,0.18361954391002655,0.27323228120803833,-0.23168818652629852
1763694535215004700,8.331004638671875,0.17083674669265747,0.346600204706192,-0.33168694376945496
1763694535225012000,8.341011962890626,0.10905323177576065,0.4318188428878784,-0.4850804805755615
1763694535235017700,8.351017822265625,0.0025299284607172012,0.4999937415122986,-0.6342130899429321
1763694535245020000,8.36102001953125,-0.1306242048740387,0.5596467852592468,-0.7663019895553589
1763694535255025400,8.371025390625,-0.25206077098846436,0.6459306478500366,-0.8813471794128418
1763694535265035300,8.38103515625,-0.34566810727119446,0.725823163986206,-0.9706935882568359
1763694535275041300,8.391041259765625,-0.40851685404777527,0.7705629467964172,-1.0015853643417358
1763694535285056800,8.401056884765625,-0.4553871154785156,0.7801500558853149,-0.9813459515571594
1763694535295063800,8.411063720703124,-0.5022573471069336,0.771628201007843,-0.939801812171936
1763694535305059800,8.421059814453125,-0.5352795720100403,0.7620410919189453,-0.8951951861381531
1763694535315065600,8.431065673828124,-0.5161054134368896,0.7449973225593567,-0.8429988026618958
1763694535325085000,8.4410849609375,-0.4255605936050415,0.6896052360534668,-0.7758890986442566
1763694535335092000,8.451092041015626,-0.265908807516098,0.5415378212928772,-0.7141056060791016
1763694535345070000,8.461070068359374,-0.07310161739587784,0.31038227677345276,-0.6608439087867737
1763694535355074000,8.471073974609375,0.07496577501296997,0.062316130846738815,-0.6107779741287231
1763694535365105200,8.481105224609376,0.14314068853855133,-0.11238208413124084,-0.5841471552848816
1763694535375112000,8.49111181640625,0.1569887101650238,-0.2146444469690323,-0.5820167064666748
1763694535385114400,8.5011142578125,0.13142313063144684,-0.2679060995578766,-0.580951452255249
1763694535395120600,8.51112060546875,0.0824224054813385,-0.3189041316509247,-0.5628424882888794
1763694535405105400,8.52110546875,0.0185084231197834,-0.346600204706192,-0.5212984085083008
1763694535415109600,8.531109619140626,-0.03688369318842888,-0.3135779798030853,-0.4872109591960907
1763694535425142300,8.541142333984375,-0.07097115367650986,-0.24979715049266815,-0.4882761836051941
1763694535435149300,8.5511494140625,-0.07097115367650986,-0.1496652364730835,-0.5181027054786682
1763694535445145300,8.561145263671875,-0.03262276202440262,-0.0037283156998455524,-0.5756253004074097
1763694535455151400,8.5711513671875,0.009986559860408306,0.16351327300071716,-0.6214303374290466
1763694535465159700,8.58115966796875,0.05366111174225807,0.35512205958366394,-0.6097127795219421
1763694535475166000,8.591166015625,0.10053136944770813,0.5106461048126221,-0.5404726266860962
1763694535485155000,8.601155029296875,0.14314068853855133,0.6129084229469299,-0.45205825567245483
1763694535495159600,8.61115966796875,0.1772281378507614,0.6661701202392578,-0.37323102355003357
1763694535505138400,8.621138427734374,0.1889457106590271,0.6970618367195129,-0.3199693560600281
1763694535515140400,8.631140380859375,0.17296721041202545,0.7375407218933105,-0.3009283244609833
1763694535525186000,8.64118603515625,0.13887976109981537,0.772693395614624,-0.3146432042121887
1763694535535192300,8.6511923828125,0.09200949966907501,0.7801500558853149,-0.34553495049476624
1763694535545185800,8.661185791015624,0.039813082665205,0.7503235340118408,-0.3604482114315033
1763694535555190800,8.671190673828125,-0.012383334338665009,0.6853442788124084,-0.3583177626132965
1763694535565172700,8.6811728515625,-0.05712312087416649,0.6001256704330444,-0.3476654291152954
1763694535575175400,8.691175537109375,-0.07949301600456238,0.4978632926940918,-0.33381739258766174
1763694535585211000,8.7012109375,-0.07842778414487839,0.3924052119255066,-0.3306216895580292
1763694535595217000,8.711216796875,-0.07416684925556183,0.3189041316509247,-0.34233927726745605
1763694535605205500,8.72120556640625,-0.07310161739587784,0.28388461470603943,-0.3711005449295044
1763694535615210000,8.7312099609375,-0.07097115367650986,0.27110180258750916,-0.41903603076934814
1763694535625214700,8.741214599609375,-0.0560578890144825,0.28175413608551025,-0.4669715166091919
1763694535635219200,8.75121923828125,-0.02942706272006035,0.3009283244609833,-0.4957328140735626
1763694535645255400,8.76125537109375,0.0003994623839389533,0.31144750118255615,-0.5085155963897705
1763694535655263000,8.771262939453125,0.014247491955757141,0.3146432042121887,-0.5170374512672424
1763694535665256000,8.781255859375,0.0014646954368799925,0.3412740230560303,-0.5212984085083008
1763694535675262000,8.791261962890625,-0.03581846132874489,0.3828181326389313,-0.5095808506011963
1763694535685261300,8.80126123046875,-0.07949301600456238,0.39666613936424255,-0.4850804805755615
1763694535695266800,8.811266845703125,-0.11890663951635361,0.37749195098876953,-0.4563191831111908
1763694535705291500,8.82129150390625,-0.15618979930877686,0.346600204706192,-0.4339492917060852
1763694535715299000,8.831299072265624,-0.19666863977909088,0.32103461027145386,-0.42755791544914246
1763694535725278700,8.84127880859375,-0.2360822707414627,0.32103461027145386,-0.4318188428878784
1763694535735283500,8.851283447265626,-0.26377832889556885,0.346600204706192,-0.4467321038246155
1763694535745315800,8.86131591796875,-0.2786915898323059,0.36577439308166504,-0.454188734292984
1763694535755323400,8.871323486328125,-0.2808220684528351,0.3593829870223999,-0.44992780685424805
1763694535765309400,8.881309326171875,-0.2776263654232025,0.3295564651489258,-0.42862313985824585
1763694535775314700,8.891314697265624,-0.2797568142414093,0.2977326214313507,-0.40731847286224365
1763694535785320200,8.9013203125,-0.2808220684528351,0.2892107665538788,-0.39347043633461
1763694535795325700,8.91132568359375,-0.2691044807434082,0.2987978756427765,-0.3998618423938751
1763694535805336000,8.921336181640624,-0.2382127344608307,0.34340450167655945,-0.4211665093898773
1763694535815342000,8.931342041015625,-0.19240771234035492,0.435014545917511,-0.4446016252040863
1763694535825359000,8.941359130859375,-0.14766792953014374,0.5436683297157288,-0.4573844373226166
1763694535835366100,8.9513662109375,-0.11251524090766907,0.6224955320358276,-0.45099303126335144
1763694535845341400,8.961341552734375,-0.09334104508161545,0.650191605091095,-0.4147751033306122
1763694535855345400,8.971345458984375,-0.09334104508161545,0.650191605091095,-0.3487306535243988
1763694535865372000,8.981371826171875,-0.10825430601835251,0.6363435983657837,-0.25938424468040466
1763694535875378200,8.991378173828124,-0.11677616834640503,0.6054518222808838,-0.16670896112918854
1763694535885374000,9.0013740234375,-0.11358047276735306,0.5447335243225098,-0.0953383520245552
1763694535895379200,9.011379150390624,-0.11038476973772049,0.4850804805755615,-0.044207170605659485
1763694535905415400,9.02141552734375,-0.11251524090766907,0.4467321038246155,0.00585878174751997
1763694535915423700,9.031423828125,-0.12423279881477356,0.4126446545124054,0.062316130846738815
1763694535925406500,9.041406494140626,-0.14979839324951172,0.35192635655403137,0.11557777971029282
1763694535935412200,9.051412109375,-0.17110306024551392,0.28281936049461365,0.16564373672008514
1763694535945408800,9.06140869140625,-0.17855969071388245,0.2529928386211395,0.21677492558956146
1763694535955413500,9.07141357421875,-0.15832026302814484,0.26151469349861145,0.2796236574649811
1763694535965434600,9.0814345703125,-0.11784140020608902,0.23275341093540192,0.3487306535243988
1763694535975441200,9.091441162109374,-0.0773625448346138,0.15392617881298065,0.4328840672969818
1763694535985443300,9.101443359375,-0.06884068250656128,0.1059906855225563,0.5500596761703491
1763694535995449300,9.111449462890626,-0.07416684925556183,0.08681648969650269,0.7023880481719971
1763694536005426400,9.121426513671874,-0.05073172226548195,-0.020772043615579605,0.8845428824424744
1763694536015429600,9.1314296875,0.007856093347072601,-0.2774932086467743,1.0931954383850098
1763694536025459500,9.14145947265625,0.0611177459359169,-0.5862776041030884,1.354177474975586
1763694536035465500,9.151465576171875,0.07709623873233795,-0.7929328083992004,1.7002450227737427
1763694536045462300,9.161462158203125,0.11224892735481262,-0.8919994831085205,2.0688157081604004
1763694536055467300,9.17146728515625,0.21344606578350067,-1.0037158727645874,2.346708297729492
1763694536065464300,9.18146435546875,0.3688369393348694,-1.0868040323257446,2.5128846168518066
1763694536075468500,9.191468505859374,0.5051867365837097,-0.9973244071006775,2.6673433780670166
1763694536085507800,9.2015078125,0.5701659917831421,-0.7418016195297241,2.896235466003418
1763694536095515400,9.211515380859375,0.5456656217575073,-0.49147188663482666,3.1146082878112793
1763694536105515000,9.221514892578124,0.49027350544929504,-0.2679060995578766,3.2030224800109863
1763694536115521800,9.231521728515625,0.43594661355018616,0.016511112451553345,3.1518914699554443
1763694536125530000,9.241530029296875,0.3464670479297638,0.40731847286224365,2.956953763961792
1763694536135537000,9.251536865234375,0.24753352999687195,0.8195636868476868,2.679060935974121
1763694536145514800,9.2615146484375,0.20385897159576416,1.1038477420806885,2.418078899383545
1763694536155518700,9.271518798828126,0.23475073277950287,1.101717233657837,2.2039670944213867
1763694536165532700,9.28153271484375,0.31131434440612793,0.8046503663063049,1.9931840896606445
1763694536175538000,9.291537841796876,0.38268497586250305,0.39773139357566833,1.82700777053833
1763694536185537500,9.30153759765625,0.4316856861114502,-0.10279498994350433,1.7066364288330078
1763694536195542000,9.3115419921875,0.5062519907951355,-0.37749195098876953,1.6714837551116943
1763694536205612500,9.321612548828124,0.5850792527198792,-0.43821024894714355,1.682136058807373
1763694536215623700,9.331623779296875,0.639406144618988,-0.4957328140735626,1.6533747911453247
1763694536225557800,9.341557861328125,0.708646297454834,-0.6097127795219421,1.5617647171020508
1763694536235561000,9.35156103515625,0.7991910576820374,-0.7588453888893127,1.444722294807434
1763694536245612000,9.361612060546875,0.8663007616996765,-0.903717041015625,1.368025541305542
1763694536255620000,9.3716201171875,0.9194292426109314,-0.9696283340454102,1.3083724975585938
1763694536265606100,9.381606201171875,0.9577776193618774,-0.962171733379364,1.2188929319381714
1763694536275612000,9.39161181640625,0.9545819163322449,-0.9069127440452576,1.092130184173584
1763694536285612800,9.40161279296875,0.9151683449745178,-0.8014547228813171,0.9302147626876831
1763694536295618000,9.4116181640625,0.8716269135475159,-0.7023880481719971,0.7588453888893127
1763694536305657900,9.421657958984374,0.8258218765258789,-0.6406044960021973,0.6129084229469299
1763694536315666700,9.431666748046876,0.7619079351425171,-0.6107779741287231,0.496798038482666
1763694536325653800,9.44165380859375,0.6852111220359802,-0.5990604162216187,0.3924052119255066
1763694536335660300,9.451660400390624,0.6127753257751465,-0.6459306478500366,0.2977326214313507
1763694536345655800,9.46165576171875,0.5477960705757141,-0.7386059761047363,0.21038351953029633
1763694536355661300,9.471661376953126,0.4934692084789276,-0.8259550333023071,0.12303441762924194
1763694536365661000,9.481660888671875,0.4497946500778198,-0.8888037800788879,0.029293907806277275
1763694536375665700,9.491665771484374,0.41464194655418396,-0.8632382154464722,-0.08149032294750214
1763694536385663200,9.501663330078125,0.37309786677360535,-0.7556496858596802,-0.2114487588405609
1763694536395667200,9.511667236328124,0.326227605342865,-0.604386568069458,-0.3487306535243988
1763694536405686500,9.5216865234375,0.26990342140197754,-0.42755791544914246,-0.4850804805755615
1763694536415692000,9.531692138671875,0.2006632685661316,-0.24766667187213898,-0.6161041259765625
1763694536425691400,9.54169140625,0.12183602899312973,-0.08788172155618668,-0.7354102730751038
1763694536435696400,9.5516962890625,0.04087831825017929,0.035685304552316666,-0.8270202875137329
1763694536445695200,9.5616953125,-0.03368799388408661,0.09427312016487122,-0.8781514763832092
1763694536455699500,9.571699462890624,-0.10505861043930054,0.10918638855218887,-0.880281925201416
1763694536465700600,9.58170068359375,-0.16897258162498474,0.10172975063323975,-0.8387378454208374
1763694536475704600,9.59170458984375,-0.21903854608535767,0.06764229387044907,-0.7790848016738892
1763694536485729000,9.60172900390625,-0.22223423421382904,0.044207170605659485,-0.7290188670158386
1763694536495735300,9.6117353515625,-0.15725502371788025,0.015445878729224205,-0.7055837512016296
1763694536505767200,9.62176708984375,-0.02836182899773121,-0.07722939550876617,-0.68747478723526
1763694536515776000,9.63177587890625,0.12822742760181427,-0.2018616646528244,-0.6629744172096252
1763694536525754400,9.64175439453125,0.2539249360561371,-0.3359478712081909,-0.6214303374290466
1763694536535760100,9.651760009765624,0.3145100474357605,-0.5276898145675659,-0.5500596761703491
1763694536545776600,9.661776611328126,0.31877097487449646,-0.7545844316482544,-0.4371449947357178
1763694536555783400,9.671783447265625,0.3123795986175537,-0.9216928482055664,-0.29453691840171814
1763694536565784800,9.681784912109375,0.32942330837249756,-0.9866721034049988,-0.14433906972408295
1763694536575791000,9.691791015625,0.3752283453941345,-0.962171733379364,-0.0079892473295331
1763694536585816600,9.701816650390626,0.429555207490921,-0.9015865921974182,0.1272953450679779
1763694536595825000,9.711824951171875,0.475360244512558,-0.856846809387207,0.28068891167640686
1763694536605804000,9.721803955078125,0.4966649115085602,-0.8248898386955261,0.45099303126335144
1763694536615809300,9.731809326171875,0.48814302682876587,-0.84193354845047,0.5990604162216187
1763694536625804500,9.741804443359374,0.44553372263908386,-0.8877385854721069,0.6821485757827759
1763694536635808500,9.75180859375,0.37203264236450195,-0.8994561433792114,0.6406044960021973
1763694536645829000,9.7618291015625,0.26883819699287415,-0.924888551235199,0.47016721963882446
1763694536655835000,9.7718349609375,0.1474016159772873,-0.9962592124938965,0.23062294721603394
1763694536665836500,9.78183642578125,0.0238345880061388,-1.0750864744186401,-0.038881003856658936
1763694536675841800,9.791841796875,-0.11677616834640503,-1.0857387781143188,-0.3252955377101898
1763694536685840400,9.80184033203125,-0.31477636098861694,-1.0122376680374146,-0.5436683297157288
1763694536695845000,9.81184521484375,-0.49586597084999084,-0.9069127440452576,-0.5788210034370422
1763694536705854200,9.821854248046876,-0.5288882255554199,-0.6533873081207275,-0.47016721963882446
1763694536715859200,9.831859130859375,-0.41171255707740784,-0.1816222369670868,-0.34446972608566284
1763694536725871900,9.841871826171875,-0.19134248793125153,0.10066451877355576,-0.2764279842376709
1763694536735877600,9.851877685546874,0.03874785080552101,0.17629607021808624,-0.1699046641588211
1763694536745887000,9.861886962890624,0.21664176881313324,0.2135792225599289,-0.021837277337908745
1763694536755893200,9.871893310546875,0.29972994327545166,0.2796236574649811,0.012250179424881935
1763694536765900000,9.881900146484375,0.26883819699287415,0.22423155605793,-0.12409964948892593
1763694536775906300,9.89190625,0.1878804713487625,0.13581721484661102,-0.350861132144928
1763694536785905200,9.9019052734375,0.06963960826396942,0.2231663167476654,-0.6107779741287231
1763694536795910700,9.91191064453125,-0.08694964647293091,0.4786891043186188,-0.8589772582054138
1763694536805915600,9.92191552734375,-0.2552564740180969,0.7780195474624634,-0.9983896613121033
1763694536815921200,9.931921142578124,-0.3818860352039337,1.0250204801559448,-1.0420641899108887
1763694536825944800,9.94194482421875,-0.43301722407341003,1.22954523563385,-1.0825430154800415
1763694536835952000,9.9519521484375,-0.437278151512146,1.4031782150268555,-1.176283597946167
1763694536845950000,9.961949951171874,-0.4362129271030426,1.4628312587738037,-1.3179595470428467
1763694536855956200,9.971956298828125,-0.4468652606010437,1.3648297786712646,-1.4724183082580566
1763694536865954300,9.981954345703125,-0.4479304850101471,1.1730878353118896,-1.5756127834320068
1763694536875959800,9.991959716796876,-0.437278151512146,0.9888025522232056,-1.5628299713134766
1763694536886001200,10.002001220703125,-0.4053211510181427,0.8898690342903137,-1.4159610271453857
1763694536896010200,10.01201025390625,-0.3499290347099304,0.8131722807884216,-1.18587064743042
1763694536905980000,10.02197998046875,-0.2808220684528351,0.6342130899429321,-0.9717588424682617
1763694536915985000,10.03198486328125,-0.13595037162303925,0.3178389072418213,-0.8888037800788879
1763694536925998600,10.04199853515625,0.06324820965528488,0.032489608973264694,-0.916366696357727
1763694536936004400,10.05200439453125,0.23581595718860626,-0.058055199682712555,-0.9483237266540527
1763694536946011100,10.06201123046875,0.3549889028072357,0.049533337354660034,-0.9493889212608337
1763694536956017200,10.07201708984375,0.38375020027160645,0.3039908707141876,-0.9184971451759338
1763694536965981700,10.081981689453125,0.30918389558792114,0.5734948515892029,-0.879216730594635
1763694536975983400,10.0919833984375,0.15272778272628784,0.7162360548973083,-0.8121070265769958
1763694536986043000,10.10204296875,-0.05392742156982422,0.6959966421127319,-0.7194317579269409
1763694536996050700,10.11205078125,-0.24566936492919922,0.7535192370414734,-0.627821683883667
1763694537006031000,10.122031005859375,-0.38721221685409546,0.856846809387207,-0.5798861980438232
1763694537016035800,10.132035888671876,-0.4489957094192505,0.924888551235199,-0.6075822710990906
1763694537026061300,10.142061279296875,-0.43301722407341003,0.9696283340454102,-0.6714962720870972
1763694537036068400,10.152068359375,-0.3627118468284607,0.9685631394386292,-0.7439321279525757
1763694537046073000,10.162072998046876,-0.26377832889556885,0.8962604403495789,-0.8344769477844238
1763694537056080000,10.172079833984375,-0.15512455999851227,0.8195636868476868,-0.915301501750946
1763694537066084900,10.1820849609375,-0.07097115367650986,0.6938661336898804,-0.962171733379364
1763694537076091600,10.192091552734375,-0.02836182899773121,0.5479292273521423,-0.9706935882568359
1763694537086078700,10.20207861328125,-0.03794892504811287,0.43927547335624695,-0.9579107761383057
1763694537096083500,10.21208349609375,-0.10505861043930054,0.34233927726745605,-0.9366061091423035
1763694537106071000,10.222071044921876,-0.19240771234035492,0.24979715049266815,-0.9184971451759338
1763694537116073700,10.23207373046875,-0.27443066239356995,0.1720351278781891,-0.9270190596580505
1763694537126110000,10.24210986328125,-0.33501577377319336,0.13368675112724304,-0.9557803273200989
1763694537136116000,10.252115966796875,-0.3850817382335663,0.16457849740982056,-0.9866721034049988
1763694537146149600,10.262149658203125,-0.4244953691959381,0.21784014999866486,-1.015433430671692
1763694537156158500,10.272158447265625,-0.4447347819805145,0.27323228120803833,-1.021824836730957
1763694537166138000,10.28213818359375,-0.45006096363067627,0.3242303133010864,-1.007976770401001
1763694537176144000,10.292143798828125,-0.4479304850101471,0.3615134656429291,-0.9760197401046753
1763694537186149000,10.302149169921876,-0.45432189106941223,0.3359478712081909,-0.9451280236244202
1763694537196155100,10.312155029296875,-0.4809527099132538,0.2849498391151428,-0.9216928482055664
1763694537206174700,10.3221748046875,-0.5235620141029358,0.23914481699466705,-0.8930647373199463
1763694537216182000,10.33218212890625,-0.567236602306366,0.22423155605793,-0.8589772582054138
1763694537226174700,10.3421748046875,-0.5981283187866211,0.2551233172416687,-0.8248898386955261
1763694537236180500,10.352180419921876,-0.6002588272094727,0.3242303133010864,-0.7993242144584656
1763694537246168800,10.3621689453125,-0.5704323053359985,0.4158403277397156,-0.7758890986442566
1763694537256172800,10.3721728515625,-0.5320838689804077,0.496798038482666,-0.7588453888893127
1763694537266208300,10.382208251953125,-0.49373549222946167,0.5692338943481445,-0.7364754676818848
1763694537276215600,10.392215576171875,-0.46390897035598755,0.6299521923065186,-0.6917356848716736
1763694537286191400,10.40219140625,-0.4244953691959381,0.6342130899429321,-0.6129084229469299
1763694537296195300,10.4121953125,-0.353124737739563,0.5671034455299377,-0.542603075504303
1763694537306207000,10.42220703125,-0.24566936492919922,0.5042546987533569,-0.5181027054786682
1763694537316211700,10.432211669921875,-0.1199718713760376,0.5170374512672424,-0.49253711104393005
1763694537326238000,10.442238037109375,-0.02516612969338894,0.5553858876228333,-0.4019923210144043
1763694537336245000,10.452244873046874,-0.009187635034322739,0.5170374512672424,-0.2444709837436676
1763694537346258700,10.4622587890625,-0.06990591436624527,0.3806876540184021,-0.07722939550876617
1763694537356266500,10.4722666015625,-0.16897258162498474,0.23062294721603394,0.039946239441633224
1763694537366262500,10.482262451171875,-0.2382127344608307,0.15712186694145203,0.11238208413124084
1763694537376269000,10.49226904296875,-0.24034319818019867,0.18481792509555817,0.16564373672008514
1763694537386273300,10.502273193359375,-0.18814678490161896,0.20079642534255981,0.245536208152771
1763694537396279600,10.512279541015625,-0.11464570462703705,0.045272402465343475,0.4201012849807739
1763694537406273300,10.522273193359375,-0.05925358831882477,-0.12303441762924194,0.6778876781463623
1763694537416278300,10.5322783203125,-0.02623136341571808,-0.26257994771003723,0.9962592124938965
1763694537426299000,10.542298828125,0.02063889056444168,-0.48081955313682556,1.3637645244598389
1763694537436305400,10.552305419921876,0.11224892735481262,-0.7173013091087341,1.750311017036438
1763694537446301400,10.562301513671875,0.20598943531513214,-0.9547150731086731,2.0911855697631836
1763694537456307000,10.572306884765625,0.2837514579296112,-1.209305763244629,2.3786654472351074
1763694537466304000,10.582303955078125,0.3773587942123413,-1.3871997594833374,2.683321952819824
1763694537476308700,10.592308837890625,0.5126433968544006,-1.38400399684906,3.022998094558716
1763694537486345500,10.602345458984376,0.6745588183403015,-1.2487194538116455,3.2680017948150635
1763694537496353500,10.612353515625,0.7853430509567261,-0.9941287040710449,3.3573482036590576
1763694537506338600,10.622338623046875,0.8023867607116699,-0.5457987785339355,3.3287200927734375
1763694537516344000,10.632343994140625,0.7363423109054565,0.0644465982913971,3.2488274574279785
1763694537526359600,10.642359619140626,0.6532541513442993,0.7162360548973083,3.0996949672698975
1763694537536366000,10.652365966796875,0.51796954870224,1.3413946628570557,2.820603847503662
1763694537546373400,10.662373291015625,0.367771714925766,1.8088988065719604,2.5288631916046143
1763694537556380000,10.6723798828125,0.2752295732498169,1.766289472579956,2.306229591369629
1763694537566380800,10.682380859375,0.2517944574356079,1.2881330251693726,2.1357922554016113
1763694537576386800,10.69238671875,0.2411421239376068,0.8270202875137329,2.0262062549591064
1763694537586373400,10.702373291015626,0.20705467462539673,0.2114487588405609,1.9132916927337646
1763694537596377600,10.712377685546874,0.23581595718860626,-0.3082517981529236,1.8728128671646118
1763694537606390800,10.722390869140625,0.3592498302459717,-0.5255593657493591,1.8696171045303345
1763694537616395800,10.732395751953124,0.5446003675460815,-0.5692338943481445,1.8493776321411133
1763694537626392000,10.74239208984375,0.7267552018165588,-0.6310173869132996,1.7705504894256592
1763694537636396000,10.75239599609375,0.8599093556404114,-0.8472597002983093,1.6778751611709595
1763694537646419000,10.7624189453125,0.9119726419448853,-1.0889344215393066,1.6075698137283325
1763694537656425000,10.772425048828126,0.9236901998519897,-1.1411309242248535,1.5244816541671753
1763694537666441700,10.782441650390625,0.9099752902984619,-1.061238408088684,1.3957215547561646
1763694537676448800,10.79244873046875,0.8567136526107788,-0.9877372980117798,1.2380670309066772
1763694537686452200,10.8024521484375,0.7800168991088867,-0.9525846242904663,1.0761516094207764
1763694537696459000,10.812458984375,0.7043853402137756,-0.9355409145355225,0.9122389554977417
1763694537706462200,10.822462158203125,0.6319494843482971,-0.8728253245353699,0.7311493158340454
1763694537716468500,10.832468505859374,0.5818835496902466,-0.7588453888893127,0.5330159664154053
1763694537726471700,10.8424716796875,0.5595136284828186,-0.6523220539093018,0.3274259865283966
1763694537736477700,10.852477783203126,0.5456656217575073,-0.5777557492256165,0.13049104809761047
1763694537746475000,10.86247509765625,0.5296871066093445,-0.5362116694450378,-0.050598569214344025
1763694537756480000,10.87247998046875,0.5211652517318726,-0.5351464152336121,-0.21890538930892944
1763694537766470100,10.88247021484375,0.5073172450065613,-0.580951452255249,-0.389209508895874
1763694537776473600,10.8924736328125,0.4764254689216614,-0.6683005690574646,-0.5681686401367188
1763694537786508000,10.902508056640626,0.41783764958381653,-0.7620410919189453,-0.7428668737411499
1763694537796514800,10.912514892578125,0.33901041746139526,-0.8057156205177307,-0.9110405445098877
1763694537806526500,10.9225263671875,0.24966399371623993,-0.7844109535217285,-1.0910649299621582
1763694537816533800,10.93253369140625,0.15166255831718445,-0.7045184969902039,-1.2955896854400635
1763694537826504000,10.94250390625,0.05153064802289009,-0.5639077425003052,-1.4883968830108643
1763694537836507400,10.95250732421875,-0.04220985993742943,-0.3913399875164032,-1.6107654571533203
1763694537846534000,10.962533935546874,-0.11677616834640503,-0.23168818652629852,-1.626744031906128
1763694537856539600,10.97253955078125,-0.17110306024551392,-0.06977276504039764,-1.5043753385543823
1763694537866538800,10.982538818359375,-0.19666863977909088,0.13688243925571442,-1.2199580669403076
1763694537876543700,10.992543701171876,-0.183885857462883,0.3998618423938751,-0.8366073966026306
1763694537886573600,11.002573486328124,-0.13488513231277466,0.5042546987533569,-0.5063851475715637
1763694537896581000,11.0125810546875,-0.04434032365679741,0.3359478712081909,-0.28388461470603943
1763694537906577400,11.022577392578125,0.10798799991607666,-0.035685304552316666,-0.1070559173822403
1763694537916583700,11.032583740234376,0.33901041746139526,-0.520233154296875,0.09214265644550323
1763694537926574800,11.042574951171876,0.5957315564155579,-1.0591078996658325,0.32103461027145386
1763694537936579600,11.05257958984375,0.733146607875824,-1.4798749685287476,0.5617772936820984
1763694537946575600,11.06257568359375,0.7800168991088867,-1.6203526258468628,0.7833457589149475
1763694537956579600,11.07257958984375,0.8098434209823608,-1.527677297592163,0.9195623993873596
1763694537966586600,11.082586669921875,0.7906692028045654,-1.407439112663269,0.916366696357727
1763694537976590800,11.0925908203125,0.6820154190063477,-1.213566780090332,0.7844109535217285
1763694537986631000,11.102630859375,0.49027350544929504,-0.7982590198516846,0.5383421182632446
1763694537996639000,11.112638916015625,0.2209026962518692,-0.19014409184455872,0.22103585302829742
1763694538006612000,11.122612060546874,-0.11038476973772049,0.3785571753978729,-0.0740336924791336
1763694538016616200,11.1326162109375,-0.39040789008140564,0.7407364249229431,-0.3476654291152954
1763694538026652400,11.14265234375,-0.5022573471069336,0.818498432636261,-0.5745600461959839
1763694538036660000,11.152659912109375,-0.4159734845161438,0.6352783441543579,-0.44886255264282227
1763694538046648600,11.162648681640626,-0.19027724862098694,0.4211665093898773,0.11451254785060883
1763694538056654000,11.172654052734375,-0.08908011019229889,0.4467321038246155,0.4669715166091919
1763694538066671900,11.182671875,-0.19879911839962006,0.4424711763858795,0.30305880308151245
1763694538076678700,11.1926787109375,-0.26377832889556885,0.47229769825935364,-0.13262151181697845
1763694538086678300,11.20267822265625,-0.3424724042415619,0.6661701202392578,-0.6491263508796692
1763694538096684300,11.212684326171875,-0.4873441159725189,0.8919994831085205,-1.1145000457763672
1763694538106701000,11.222701171875,-0.6194329857826233,1.0516513586044312,-1.4660269021987915
1763694538116708000,11.2327080078125,-0.6939992904663086,1.0623036623001099,-1.6704185009002686
1763694538126713300,11.24271337890625,-0.7376738786697388,0.8632382154464722,-1.7151583433151245
1763694538136720400,11.252720458984374,-0.7174344658851624,0.5489944815635681,-1.6416572332382202
1763694538146710300,11.262710205078125,-0.6300853490829468,0.3689700961112976,-1.4958534240722656
1763694538156715500,11.272715576171874,-0.5097140073776245,0.3061213493347168,-1.3669602870941162
1763694538166707000,11.28270703125,-0.36910325288772583,0.21570968627929688,-1.3126333951950073
1763694538176711000,11.2927109375,-0.1742987483739853,0.08149032294750214,-1.3435251712799072
1763694538186748700,11.302748779296875,0.1143793985247612,-0.017576344311237335,-1.41489577293396
1763694538196756000,11.312755859375,0.41570720076560974,0.028228675946593285,-1.4713531732559204
1763694538206740200,11.322740234375,0.5776225924491882,0.20718781650066376,-1.4947882890701294
1763694538216745200,11.3327451171875,0.6223623752593994,0.4659062922000885,-1.5308730602264404
1763694538226749400,11.34274951171875,0.5872097015380859,0.7141056060791016,-1.5788085460662842
1763694538236754400,11.35275439453125,0.4636426866054535,0.8398030996322632,-1.5628299713134766
1763694538246756600,11.362756591796876,0.26883819699287415,0.9047822952270508,-1.4436570405960083
1763694538256761300,11.37276123046875,0.0504654161632061,0.9270190596580505,-1.2753502130508423
1763694538266795800,11.382795654296874,-0.1529940962791443,0.8770862221717834,-1.1411309242248535
1763694538276803600,11.392803466796876,-0.33395054936408997,0.7013227939605713,-1.0868040323257446
1763694538286790100,11.4027900390625,-0.4788222312927246,0.5063851475715637,-1.1049129962921143
1763694538296795400,11.41279541015625,-0.5704323053359985,0.3902747631072998,-1.1560441255569458
1763694538306802700,11.422802734375,-0.5991935729980469,0.3593829870223999,-1.2306104898452759
1763694538316808200,11.43280810546875,-0.5757584571838379,0.36470916867256165,-1.3339380025863647
1763694538326806300,11.44280615234375,-0.49693119525909424,0.4446016252040863,-1.405308723449707
1763694538336811300,11.452811279296874,-0.3925383687019348,0.5266245603561401,-1.407439112663269
1763694538346819300,11.4628193359375,-0.31264588236808777,0.5362116694450378,-1.3509818315505981
1763694538356824300,11.47282421875,-0.26377832889556885,0.5106461048126221,-1.286002516746521
1763694538366826000,11.482825927734375,-0.2563216984272003,0.49040666222572327,-1.2583065032958984
1763694538376830700,11.492830810546875,-0.2989310026168823,0.4563191831111908,-1.2732198238372803
1763694538386837800,11.502837646484375,-0.3818860352039337,0.40838369727134705,-1.3051767349243164
1763694538396842800,11.5128427734375,-0.4926702678203583,0.3913399875164032,-1.3190248012542725
1763694538406873600,11.52287353515625,-0.6162372827529907,0.4030575454235077,-1.3094377517700195
1763694538416881400,11.53288134765625,-0.7344781756401062,0.40838369727134705,-1.2849373817443848
1763694538426869200,11.542869140625,-0.8111749291419983,0.4232969582080841,-1.2220885753631592
1763694538436875000,11.552875,-0.8239577412605286,0.4552539587020874,-1.1368699073791504
1763694538446877700,11.562877685546875,-0.758978545665741,0.5095808506011963,-1.0527164936065674
1763694538456883200,11.57288330078125,-0.6119763851165771,0.5724295973777771,-0.985606849193573
1763694538466892000,11.58289208984375,-0.4074516296386719,0.6384740471839905,-0.9227581024169922
1763694538476897500,11.5928974609375,-0.2275604009628296,0.7215622067451477,-0.84193354845047
1763694538486920700,11.602920654296875,-0.16684211790561676,0.8366073966026306,-0.7023880481719971
1763694538496928000,11.612927978515625,-0.25312599539756775,0.9291495084762573,-0.48081955313682556
1763694538506907400,11.622907470703124,-0.3967992961406708,0.9461932182312012,-0.2114487588405609
1763694538516911900,11.632911865234375,-0.5011921525001526,0.8525858521461487,-0.0015978495357558131
1763694538526931500,11.642931396484375,-0.5310186743736267,0.6714962720870972,0.058055199682712555
1763694538536937500,11.6529375,-0.48308318853378296,0.5031894445419312,0.019706811755895615
1763694538546941700,11.662941650390625,-0.36910325288772583,0.37642672657966614,-0.00585878174751997
1763694538556947500,11.672947509765624,-0.19986434280872345,0.2892107665538788,0.018641578033566475
1763694538566956000,11.6829560546875,-0.01983996480703354,0.2252967804670334,0.060185667127370834
1763694538576962300,11.69296240234375,0.1452711522579193,0.2029268890619278,0.09959928691387177
1763694538586965500,11.702965576171875,0.29120808839797974,0.2018616646528244,0.17949175834655762
1763694538596971300,11.71297119140625,0.41570720076560974,0.1272953450679779,0.30931705236434937
1763694538606987000,11.722987060546876,0.44553372263908386,-0.1262301206588745,0.5436683297157288
1763694538616993800,11.732993896484375,0.3485974967479706,-0.4957328140735626,0.9760197401046753
1763694538626993000,11.742992919921875,0.23368549346923828,-0.6448654532432556,1.5001144409179688
1763694538636999000,11.7529990234375,0.17190198600292206,-0.7801500558853149,1.9250092506408691
1763694538647016700,11.7630166015625,0.14953207969665527,-1.0527164936065674,2.2572288513183594
1763694538657024000,11.77302392578125,0.19533710181713104,-1.2668284177780151,2.619407892227173
1763694538667029500,11.783029541015624,0.32942330837249756,-1.323285698890686,3.0751945972442627
1763694538677036500,11.79303662109375,0.5350132584571838,-1.3392642736434937,3.4851760864257812
1763694538687040000,11.8030400390625,0.732081413269043,-1.321155309677124,3.6939618587493896
1763694538697046500,11.813046630859375,0.831148087978363,-1.094260573387146,3.724853515625
1763694538707023000,11.823023193359376,0.8354089856147766,-0.589473307132721,3.618330240249634
1763694538717026800,11.83302685546875,0.7906692028045654,0.052729032933712006,3.421262264251709
1763694538727055600,11.8430556640625,0.6884068250656128,0.8195636868476868,3.102890729904175
1763694538737061600,11.8530615234375,0.4870778024196625,1.5553733110427856,2.7088875770568848
1763694538747049500,11.863049560546875,0.31877097487449646,1.9132916927337646,2.4106223583221436
1763694538757054000,11.873053955078126,0.2954690158367157,1.6970493793487549,2.3009033203125
1763694538767057000,11.883056884765624,0.30918389558792114,1.2615022659301758,2.3275341987609863
1763694538777061000,11.89306103515625,0.2656424939632416,0.8525858521461487,2.3403170108795166
1763694538787089200,11.903089111328125,0.2315550297498703,0.19653549790382385,2.2178151607513428
1763694538797095700,11.913095703125,0.28801238536834717,-0.31251272559165955,2.0634894371032715
1763694538807106300,11.923106201171874,0.40718531608581543,-0.542603075504303,1.9622924327850342
1763694538817113000,11.933113037109376,0.5275566577911377,-0.6480611562728882,1.895182728767395
1763694538827090000,11.94308984375,0.6521888971328735,-0.8579120635986328,1.82700777053833
1763694538837093600,11.95309375,0.7587122321128845,-1.0953258275985718,1.7375282049179077
1763694538847106000,11.96310595703125,0.8386046886444092,-1.2263494729995728,1.6182221174240112
1763694538857110500,11.973110595703124,0.8971925377845764,-1.2178276777267456,1.4468528032302856
1763694538867145700,11.983145751953124,0.9290163516998291,-1.125152349472046,1.2572412490844727
1763694538877153500,11.993153564453126,0.922624945640564,-1.040998935699463,1.0793473720550537
1763694538887145500,12.0031455078125,0.8876054286956787,-0.9760197401046753,0.8898690342903137
1763694538897151700,12.01315185546875,0.8418003916740417,-0.9408670663833618,0.6853442788124084
1763694538907141000,12.02314111328125,0.7959953546524048,-0.9216928482055664,0.47229769825935364
1763694538917145600,12.0331455078125,0.7597774267196655,-0.8696296215057373,0.25192761421203613
1763694538927181300,12.043181396484375,0.7278204560279846,-0.7790848016738892,0.031424373388290405
1763694538937188900,12.05318896484375,0.6969286799430847,-0.6938661336898804,-0.18268746137619019
1763694538947181000,12.06318115234375,0.6585803031921387,-0.6459306478500366,-0.38814428448677063
1763694538957187000,12.07318701171875,0.6106448173522949,-0.6065170764923096,-0.5937342643737793
1763694538967200500,12.083200439453124,0.5584484338760376,-0.5873428583145142,-0.8142374753952026
1763694538977207300,12.093207275390625,0.5030562877655029,-0.5745600461959839,-1.0601731538772583
1763694538987212500,12.103212646484375,0.43488138914108276,-0.5415378212928772,-1.3318076133728027
1763694538997219300,12.11321923828125,0.3432713449001312,-0.4573844373226166,-1.6011784076690674
1763694539007211500,12.12321142578125,0.2198374718427658,-0.34446972608566284,-1.8408558368682861
1763694539017216800,12.133216796875,0.08455286920070648,-0.21570968627929688,-2.014488697052002
1763694539027210800,12.143210693359375,-0.04966649040579796,-0.048468101769685745,-2.103968381881714
1763694539037214700,12.153214599609376,-0.18175537884235382,0.18907886743545532,-2.079468011856079
1763694539047249700,12.163249755859376,-0.3073197305202484,0.4158403277397156,-1.8696171045303345
1763694539057257000,12.173257080078125,-0.36910325288772583,0.5671034455299377,-1.4180914163589478
1763694539067239200,12.1832392578125,-0.3318201005458832,0.6981270909309387,-0.8355421423912048
1763694539077243600,12.19324365234375,-0.2595174014568329,0.6832138299942017,-0.35618728399276733
1763694539087262200,12.20326220703125,-0.18069015443325043,0.4147751033306122,-0.032489608973264694
1763694539097268500,12.2132685546875,-0.015579032711684704,-0.052729032933712006,0.2231663167476654
1763694539107259600,12.223259765625,0.2730991244316101,-0.6171693801879883,0.496798038482666
1763694539117264100,12.23326416015625,0.5541874766349792,-1.1411309242248535,0.7556496858596802
1763694539127275300,12.243275146484375,0.6884068250656128,-1.41489577293396,0.9568455815315247
1763694539137280300,12.2532802734375,0.7161028981208801,-1.4500484466552734,1.0697603225708008
1763694539147291000,12.263290771484375,0.6745588183403015,-1.3413946628570557,1.0804126262664795
1763694539157296600,12.273296630859376,0.5659050345420837,-1.1326090097427368,0.9738892912864685
1763694539167294200,12.283294189453125,0.4082505702972412,-0.8344769477844238,0.734345018863678
1763694539177299200,12.29329931640625,0.17616291344165802,-0.3998618423938751,0.4009270668029785
1763694539187310300,12.303310302734374,-0.10612384229898453,0.21784014999866486,0.048468101769685745
1763694539197315800,12.31331591796875,-0.3605813682079315,0.6192998290061951,-0.3412740230560303
1763694539207316000,12.32331591796875,-0.4894745647907257,0.6427350044250488,-0.7844109535217285
1763694539217321000,12.333321044921876,-0.49586597084999084,0.3402087986469269,-0.9941287040710449
1763694539227349000,12.343348876953126,-0.4905398190021515,-0.049533337354660034,-0.7428668737411499
1763694539237356300,12.353356201171875,-0.42129966616630554,-0.15605664253234863,-0.15392617881298065
1763694539247345700,12.363345703125,-0.3605813682079315,0.27003657817840576,0.17310036718845367
1763694539257351000,12.373350830078126,-0.44047385454177856,0.7449973225593567,-0.0026630824431777
1763694539267353000,12.38335302734375,-0.49480074644088745,0.9568455815315247,-0.4105141758918762
1763694539277358000,12.393358154296875,-0.4766917824745178,1.1880011558532715,-0.8280855417251587
1763694539287363600,12.403363525390626,-0.46177852153778076,1.2668284177780151,-1.178413987159729
1763694539297368600,12.41336865234375,-0.47562655806541443,1.2433933019638062,-1.4255480766296387
1763694539307353600,12.423353515625,-0.5320838689804077,1.047390341758728,-1.5223511457443237
1763694539317356500,12.4333564453125,-0.6098458766937256,0.7694976925849915,-1.4905272722244263
1763694539327377000,12.443376953125,-0.6950645446777344,0.5159722566604614,-1.4266133308410645
1763694539337381600,12.453381591796875,-0.713173508644104,0.41690558195114136,-1.4085043668746948
1763694539347388400,12.463388427734374,-0.6109111309051514,0.4009270668029785,-1.4372656345367432
1763694539357393400,12.473393310546875,-0.4063864052295685,0.3913399875164032,-1.438330888748169
1763694539367434800,12.483434814453124,-0.11145000159740448,0.3497959077358246,-1.424482822418213
1763694539377443300,12.493443359375,0.23368549346923828,0.2774932086467743,-1.4223524332046509
1763694539387412700,12.503412841796875,0.4860125780105591,0.3806876540184021,-1.405308723449707
1763694539397417200,12.513417236328126,0.5776225924491882,0.6757571697235107,-1.4042434692382812
1763694539407425300,12.52342529296875,0.5850792527198792,0.9674978852272034,-1.424482822418213
1763694539417430300,12.53343017578125,0.5360785126686096,1.2487194538116455,-1.393591046333313
1763694539427436300,12.543436279296875,0.41357672214508057,1.5298078060150146,-1.2519150972366333
1763694539437441300,12.553441162109374,0.20172850787639618,1.6714837551116943,-1.0718907117843628
1763694539447447600,12.563447509765625,-0.06138405203819275,1.5926564931869507,-0.9366061091423035
1763694539457452800,12.573452880859374,-0.3201025128364563,1.3669602870941162,-0.864303469657898
1763694539467488500,12.583488525390624,-0.5363448262214661,1.1698921918869019,-0.8621729612350464
1763694539477496800,12.593496826171876,-0.6982602477073669,0.9632369875907898,-0.9302147626876831
1763694539487505400,12.60350537109375,-0.7802832126617432,0.84193354845047,-1.00052011013031
1763694539497513700,12.613513671875,-0.7675004005432129,0.8238245844841003,-1.0367380380630493
1763694539507490000,12.623489990234376,-0.6716294288635254,0.8003894686698914,-1.0623036623001099
