time,seconds_elapsed,z,y,x
1763691410365888800,0.049888671875,-0.1192435696721077,-0.15108858048915863,0.17727917432785034
1763691410375910000,0.059909912109375,-0.10753258317708969,-0.16727314889431,0.1824132204055786
1763691410385930800,0.0699306640625,-0.07258924841880798,-0.155019149184227,0.15332937240600586
1763691410395950800,0.079950927734375,-0.032041557133197784,-0.11898177862167358,0.10772140324115753
1763691410405971700,0.0899716796875,0.00019707392493728548,-0.053711697459220886,0.06750793755054474
1763691410415992800,0.099992919921875,0.020507140085101128,0.019658124074339867,0.03669995814561844
1763691410426014000,0.110013916015625,0.03675748035311699,0.07055406272411346,0.0013379721203818917
1763691410436034800,0.120034912109375,0.057018011808395386,0.09708553552627563,-0.031078290194272995
1763691410446056000,0.130055908203125,0.07514827698469162,0.0993225947022438,-0.057072605937719345
1763691410456076000,0.140075927734375,0.09039008617401123,0.08183068037033081,-0.06034136936068535
1763691410466097000,0.150096923828125,0.09172512590885162,0.056710951030254364,-0.04171149432659149
1763691410476117800,0.16011767578125,0.07828628271818161,0.04826473444700241,-0.006044310517609119
1763691410486139000,0.170138916015625,0.04766073077917099,0.06255046278238297,0.03647225722670555
1763691410496159700,0.18015966796875,0.013796505518257618,0.0848190188407898,0.07372402399778366
1763691410506180900,0.190180908203125,-0.009779393672943115,0.1114351823925972,0.09044121950864792
1763691410516200700,0.20020068359375,-0.013948572799563408,0.13979890942573547,0.08404936641454697
1763691410526221800,0.210221923828125,0.004505802411586046,0.15832918882369995,0.05432901903986931
1763691410536242700,0.22024267578125,0.032651953399181366,0.16913603246212006,0.02714480273425579
1763691410546263800,0.230263916015625,0.06202581897377968,0.16812749207019806,0.007546865846961737
1763691410556285000,0.240284912109375,0.07866152375936508,0.15205664932727814,0.0007640608819201589
1763691410566305800,0.250305908203125,0.08439051359891891,0.12119113653898239,0.0008594020619057119
1763691410576327000,0.260326904296875,0.06746052950620651,0.06843551993370056,0.005576659459620714
1763691410586346800,0.2703466796875,0.03771249204874039,0.024221450090408325,0.031382422894239426
1763691410596368000,0.280367919921875,0.0046450854279100895,0.012851350009441376,0.06525064259767532
1763691410606388700,0.290388671875,-0.017350494861602783,0.03410923480987549,0.10591711103916168
1763691410616409900,0.300409912109375,-0.018814966082572937,0.08004370331764221,0.1650448739528656
1763691410626430700,0.3104306640625,-0.007471232209354639,0.16049566864967346,0.24729473888874054
1763691410636451800,0.320451904296875,0.02381851337850094,0.2888834774494171,0.3593749403953552
1763691410646471700,0.3304716796875,0.13164670765399933,0.4733441174030304,0.5133964419364929
1763691410656493000,0.3404931640625,0.2225174903869629,0.7235326766967773,0.654233992099762
1763691410666514000,0.350513916015625,0.28392893075942993,0.8653401136398315,0.7752469778060913
1763691410676534800,0.36053466796875,0.34118154644966125,0.9611880779266357,0.8648437261581421
1763691410686556000,0.370555908203125,0.38946732878685,1.069218397140503,0.9129108190536499
1763691410696576800,0.38057666015625,0.4219922423362732,1.1215415000915527,0.9380369782447815
1763691410706596900,0.390596923828125,0.4075174331665039,1.19047212600708,0.9821186661720276
1763691410716617700,0.40061767578125,0.3036957085132599,1.3328908681869507,1.073822021484375
1763691410726638800,0.410638916015625,0.07241001725196838,1.5535571575164795,1.2280168533325195
1763691410736659700,0.42065966796875,-0.2132723331451416,1.7787425518035889,1.3774313926696777
1763691410746680800,0.430680908203125,-0.4393520653247833,1.9083913564682007,1.4398473501205444
1763691410756702000,0.440701904296875,-0.6550305485725403,1.9174761772155762,1.4929808378219604
1763691410766722800,0.450722900390625,-0.8141552209854126,1.915295124053955,1.5190974473953247
1763691410776743000,0.460742919921875,-0.9446560144424438,1.9288495779037476,1.529670238494873
1763691410786764000,0.470763916015625,-1.0736371278762817,1.9028240442276,1.525795817375183
1763691410796785000,0.480784912109375,-1.1754564046859741,1.8329054117202759,1.4332659244537354
1763691410806805800,0.4908056640625,-1.2266075611114502,1.7111941576004028,1.2114921808242798
1763691410816827000,0.500826904296875,-1.2328007221221924,1.4931049346923828,0.8724172115325928
1763691410826847700,0.51084765625,-1.2370164394378662,1.1525367498397827,0.46863484382629395
1763691410836867800,0.520867919921875,-1.2635232210159302,0.7331115007400513,0.045401569455862045
1763691410846888700,0.530888671875,-1.3613536357879639,0.23477070033550262,-0.37477412819862366
1763691410856909800,0.540909912109375,-1.3972092866897583,-0.5445985794067383,-0.7100943326950073
1763691410866930700,0.5509306640625,-1.3369121551513672,-1.3883953094482422,-0.9851786494255066
1763691410876951800,0.560951904296875,-1.2023463249206543,-2.0543289184570312,-1.132499098777771
1763691410886973000,0.570972900390625,-0.9910027384757996,-2.429149866104126,-1.0633810758590698
1763691410896993000,0.580992919921875,-0.7554221749305725,-2.4689674377441406,-0.8223287463188171
1763691410907014000,0.591013916015625,-0.5267727375030518,-2.3056445121765137,-0.47902119159698486
1763691410917034800,0.60103466796875,-0.32566386461257935,-2.0206353664398193,-0.1913049817085266
1763691410927056000,0.611055908203125,-0.12523221969604492,-1.6581671237945557,0.0006687197601422668
1763691410937076700,0.62107666015625,0.09527032822370529,-1.3397433757781982,0.1357698142528534
1763691410947097900,0.631097900390625,0.2829028069972992,-0.33496519923210144,0.13681164383888245
1763691410957117700,0.64111767578125,0.5039816498756409,-0.17878226935863495,0.18288592994213104
1763691410967138800,0.651138916015625,0.6820246577262878,-0.15266729891300201,0.1787324696779251
1763691410977159700,0.66115966796875,0.8118851780891418,-0.31761205196380615,0.16869474947452545
1763691410987181000,0.67118115234375,0.8663582801818848,-0.5129530429840088,0.16279903054237366
1763691410997202000,0.681201904296875,0.8655737042427063,-0.7514503002166748,0.14326635003089905
1763691411007222800,0.691222900390625,0.8657752871513367,-1.074359655380249,0.10933181643486023
1763691411017244000,0.701243896484375,0.8576947450637817,-1.3303285837173462,0.056292299181222916
1763691411027264000,0.711263916015625,0.773025631904602,-1.508548617362976,-0.020740699023008347
1763691411037284900,0.721284912109375,0.6166565418243408,-1.5604866743087769,-0.11211668699979782
1763691411047305700,0.7313056640625,0.48218849301338196,-1.648117184638977,-0.1661844402551651
1763691411057326800,0.741326904296875,0.4234396815299988,-1.627045750617981,-0.13629339635372162
1763691411067347700,0.75134765625,0.45219409465789795,-1.412477731704712,-0.06747224926948547
1763691411077368800,0.761368896484375,0.5483208894729614,-1.0212352275848389,-0.016996294260025024
1763691411087388700,0.771388671875,0.6976597905158997,-0.5624918341636658,-0.02617621049284935
1763691411097409800,0.781409912109375,0.8751764893531799,-0.3048778772354126,-0.04609851911664009
1763691411107431000,0.791430908203125,0.9932576417922974,-0.31686344742774963,-0.06567701697349548
1763691411117452000,0.8014521484375,0.9710878729820251,-0.48029178380966187,-0.0174437053501606
1763691411127473000,0.811472900390625,0.9021426439285278,-0.5790934562683105,0.12041935324668884
1763691411137494300,0.821494384765625,0.8219947814941406,-0.5515619516372681,0.2295234650373459
1763691411147514400,0.831514404296875,0.7382146716117859,-0.34676462411880493,0.23984189331531525
1763691411157535200,0.84153515625,0.733721911907196,-0.0436292365193367,0.10369417071342468
1763691411167556400,0.851556396484375,0.7811000943183899,0.41475245356559753,-0.19765475392341614
1763691411177577200,0.8615771484375,0.8898923397064209,0.7150169610977173,-0.445352703332901
1763691411187598300,0.871598388671875,0.9570330381393433,0.857298731803894,-0.6859549283981323
1763691411197619200,0.881619140625,0.9337884187698364,0.8642218708992004,-0.8858690857887268
1763691411207640300,0.891640380859375,0.805233359336853,0.7860977649688721,-1.01429283618927
1763691411217660200,0.90166015625,0.5684162974357605,0.8356575965881348,-1.1009247303009033
1763691411227681300,0.911681396484375,0.26539304852485657,1.0330060720443726,-1.172701358795166
1763691411237702400,0.921702392578125,-0.03988190367817879,1.073098063468933,-1.2460267543792725
1763691411247723300,0.93172314453125,-0.3563202917575836,0.764731764793396,-1.2517153024673462
1763691411257744400,0.941744384765625,-0.6057863235473633,0.26061108708381653,-1.1358784437179565
1763691411267765200,0.95176513671875,-0.7161580920219421,-0.17792445421218872,-0.9492616653442383
1763691411277785300,0.961785400390625,-0.7043629884719849,-0.43686148524284363,-0.7552573084831238
1763691411287806200,0.97180615234375,-0.6422772407531738,-0.4942254424095154,-0.5812106728553772
1763691411297827300,0.981827392578125,-0.6086156368255615,-0.4690884053707123,-0.4431478679180145
1763691411307848200,0.99184814453125,-0.6268471479415894,-0.37181535363197327,-0.3468652665615082
1763691411317869300,1.001869384765625,-0.7095580101013184,-0.2094067484140396,-0.26554378867149353
1763691411327890400,1.011890380859375,-0.8188128471374512,-0.042341332882642746,-0.19054225087165833
1763691411337910300,1.02191015625,-0.9281020164489746,0.11873277276754379,-0.244439035654068
1763691411347931400,1.031931396484375,-0.9907451868057251,-0.08324722200632095,-0.24042299389839172
1763691411357952300,1.0419521484375,-0.9645969271659851,-0.5783815979957581,-0.19845423102378845
1763691411367973400,1.051973388671875,-0.879947304725647,-1.075618028640747,-0.1654645949602127
1763691411377994200,1.061994140625,-0.717357873916626,-1.4470911026000977,-0.11192519962787628
1763691411388015400,1.072015380859375,-0.4812459945678711,-1.550969123840332,-0.09675983339548111
1763691411398035200,1.08203515625,-0.1713448464870453,-1.4276498556137085,-0.17119652032852173
1763691411408056300,1.092056396484375,0.21150292456150055,-1.2335362434387207,-0.2919461131095886
1763691411418077200,1.1020771484375,0.6484789252281189,-1.0647342205047607,-0.4442884922027588
1763691411428098300,1.112098388671875,1.062011957168579,-0.9933643937110901,-0.615744948387146
1763691411438119400,1.122119384765625,1.2760272026062012,-0.9413248896598816,-0.7372780442237854
1763691411448140300,1.132140380859375,1.2199599742889404,-0.8355470895767212,-0.7818210124969482
1763691411458161400,1.142161376953125,1.0308729410171509,-0.7922616600990295,-0.7697281241416931
1763691411468181200,1.15218115234375,0.871584415435791,-0.7992814779281616,-0.7125253081321716
1763691411478202400,1.162202392578125,0.7778100371360779,-0.7450800538063049,-0.6611254811286926
1763691411488223200,1.17222314453125,0.787300169467926,-0.4430261552333832,-0.6803617477416992
1763691411498244400,1.182244384765625,0.8245927095413208,-0.07960374653339386,-0.7943687438964844
1763691411508265200,1.19226513671875,0.7950377464294434,0.21818533539772034,-0.9798685908317566
1763691411518286300,1.202286376953125,0.795741856098175,0.3002708852291107,-1.0520061254501343
1763691411528306200,1.21230615234375,0.778933048248291,-0.023361515253782272,-0.9623319506645203
1763691411538327300,1.222327392578125,0.7099316120147705,-0.6744098663330078,-0.7444888353347778
1763691411548348200,1.23234814453125,0.6766991019248962,-1.1790956258773804,-0.5207867622375488
1763691411558369300,1.242369384765625,0.6550372242927551,-1.213186264038086,-0.34110966324806213
1763691411568390400,1.252390380859375,0.5884470343589783,-0.864920973777771,-0.311682790517807
1763691411578411300,1.262411376953125,0.41092735528945923,-0.5312843918800354,-0.34756913781166077
1763691411588431400,1.272431396484375,0.1681288182735443,-0.48762771487236023,-0.3261256515979767
1763691411598452200,1.2824521484375,-0.085645392537117,-0.6326195597648621,-0.24978293478488922
1763691411608473300,1.292473388671875,-0.3281794786453247,-0.9332278370857239,-0.15927568078041077
1763691411618494200,1.302494140625,-0.42162713408470154,-1.0196352005004883,-0.07731395959854126
1763691411628515300,1.312515380859375,-0.3236832618713379,-0.9481194019317627,-0.0028298748657107353
1763691411638536200,1.3225361328125,-0.12693265080451965,-0.9349253177642822,0.03153768554329872
1763691411648557300,1.332557373046875,0.10004989802837372,-0.9830204248428345,0.050705522298812866
1763691411658577200,1.3425771484375,0.33204957842826843,-1.0100778341293335,0.07040625810623169
1763691411668598300,1.352598388671875,0.5509465336799622,-0.989704966545105,0.07574322819709778
1763691411678619400,1.362619384765625,0.7142587304115295,-0.8877437114715576,0.053586263209581375
1763691411688640300,1.37264013671875,0.7502252459526062,-0.6697160601615906,-0.019329490140080452
1763691411698661400,1.382661376953125,0.6651769280433655,-0.48170006275177,-0.11585602909326553
1763691411708682200,1.39268212890625,0.49654343724250793,-0.3740667998790741,-0.19431887567043304
1763691411718702300,1.402702392578125,0.30670908093452454,-0.3503146171569824,-0.22183838486671448
1763691411728723200,1.41272314453125,0.14577318727970123,-0.4272701144218445,-0.1918778270483017
1763691411738744300,1.422744384765625,0.05179262533783913,-0.5401146411895752,-0.11945182830095291
1763691411748765200,1.43276513671875,0.017957428470253944,-0.6128910779953003,-0.049038115888834
1763691411758786300,1.442786376953125,0.0767030343413353,-0.6453193426132202,0.05390983819961548
1763691411768807400,1.452807373046875,0.15101268887519836,-0.6094819903373718,0.15102893114089966
1763691411778827300,1.4628271484375,0.26481860876083374,-0.6413972973823547,0.2334180772304535
1763691411788848400,1.472848388671875,0.39570152759552,-0.6528947353363037,0.2752339541912079
1763691411798869200,1.482869140625,0.48528042435646057,-0.5704349875450134,0.2558320462703705
1763691411808890400,1.492890380859375,0.5133671760559082,-0.4087611436843872,0.17345327138900757
1763691411818911200,1.5029111328125,0.48754996061325073,-0.10156497359275818,0.06450149416923523
1763691411828932400,1.512932373046875,0.4177554249763489,0.2616731524467468,-0.05090365931391716
1763691411838953200,1.522953125,0.36128896474838257,0.6503540277481079,-0.15701279044151306
1763691411848973300,1.532973388671875,0.33622995018959045,0.9130083322525024,-0.23437495529651642
1763691411858994200,1.542994140625,0.2613050937652588,0.8400587439537048,-0.2692407965660095
1763691411869015300,1.553015380859375,0.10571125149726868,0.5490468740463257,-0.29194584488868713
1763691411879036200,1.5630361328125,-0.038539670407772064,0.23302872478961945,-0.2867116630077362
1763691411889057300,1.573057373046875,-0.09579896181821823,-0.07382415980100632,-0.24907240271568298
1763691411899078400,1.583078369140625,-0.08234786987304688,-0.36072462797164917,-0.19586430490016937
1763691411909098500,1.593098388671875,-0.045760296285152435,-0.5410467386245728,-0.1403435319662094
1763691411919119400,1.603119384765625,0.0007741809240542352,-0.6512925624847412,-0.07217992097139359
1763691411929140200,1.61314013671875,0.079666867852211,-0.6897289156913757,0.004805141594260931
1763691411939161300,1.623161376953125,0.15640345215797424,-0.5913522243499756,0.07402948290109634
1763691411949182200,1.63318212890625,0.18653099238872528,-0.38360998034477234,0.11314360052347183
1763691411959203300,1.643203369140625,0.20057889819145203,-0.1848050057888031,0.12691347301006317
1763691411969223200,1.65322314453125,0.2225012481212616,-0.11043330281972885,0.12862294912338257
1763691411979244300,1.663244384765625,0.25962039828300476,-0.14166578650474548,0.12100924551486969
1763691411989265200,1.67326513671875,0.2967784106731415,-0.2365584820508957,0.09385272860527039
1763691411999286300,1.683286376953125,0.319191038608551,-0.3636471927165985,0.060291837900877
1763691412009307400,1.693307373046875,0.31007611751556396,-0.5264986753463745,0.03259815648198128
1763691412019328300,1.703328369140625,0.2772558331489563,-0.6633515954017639,0.008294148370623589
1763691412029349400,1.713349365234375,0.23702852427959442,-0.7138339877128601,0.01249022502452135
1763691412039369500,1.723369384765625,0.1971578150987625,-0.7115154266357422,0.05431836470961571
1763691412049390300,1.733390380859375,0.15665645897388458,-0.6938477158546448,0.1009356677532196
1763691412059411200,1.7434111328125,0.11674632132053375,-0.6612626314163208,0.13173726201057434
1763691412069432300,1.753432373046875,0.06951409578323364,-0.6210624575614929,0.1395283341407776
1763691412079453200,1.763453125,0.018188856542110443,-0.5753927230834961,0.11737243086099625
1763691412089474300,1.773474365234375,-0.004597148858010769,-0.47515666484832764,0.0677952915430069
1763691412099494100,1.783494140625,0.01823519729077816,-0.31623733043670654,-0.014701714739203453
1763691412109515300,1.793515380859375,0.038836345076560974,-0.1591600924730301,-0.11047723889350891
1763691412119536400,1.803536376953125,-0.03563176468014717,-0.10063180327415466,-0.22418808937072754
1763691412129557200,1.81355712890625,-0.15732917189598083,-0.07669877260923386,-0.33086633682250977
1763691412139578000,1.823578125,-0.25926512479782104,-0.019640546292066574,-0.41305574774742126
1763691412149599000,1.833598876953125,-0.3175169825553894,0.20566821098327637,-0.4874439537525177
1763691412159619000,1.843619140625,-0.3360278010368347,0.7414735555648804,-0.5636090636253357
1763691412169640200,1.85364013671875,-0.36061492562294006,1.2445433139801025,-0.6419458985328674
1763691412179661000,1.8636611328125,-0.3947467803955078,1.6873130798339844,-0.704521656036377
1763691412189682000,1.873681884765625,-0.42312222719192505,2.006314516067505,-0.750010073184967
1763691412199703000,1.883703125,-0.4305551052093506,2.207350492477417,-0.7812151312828064
1763691412209724200,1.89372412109375,-0.4072505831718445,2.3121469020843506,-0.7899428606033325
1763691412219744000,1.903743896484375,-0.3516131639480591,2.302014112472534,-0.7578352689743042
1763691412229765000,1.91376513671875,-0.271152138710022,2.2223403453826904,-0.6863919496536255
1763691412239786200,1.9237861328125,-0.19136862456798553,2.0715672969818115,-0.5696629285812378
1763691412249807000,1.93380712890625,-0.11757297068834305,1.7999688386917114,-0.4029892683029175
1763691412259828000,1.943827880859375,-0.04230005294084549,1.3728132247924805,-0.20304739475250244
1763691412269849000,1.95384912109375,0.038891471922397614,0.8899442553520203,0.021165207028388977
1763691412279870000,1.963869873046875,0.12848126888275146,0.4470840096473694,0.28736600279808044
1763691412289890000,1.97389013671875,0.21495278179645538,0.04489210620522499,0.5247524380683899
1763691412299911000,1.983910888671875,0.28373584151268005,-0.2540037930011749,0.7387587428092957
1763691412309932000,1.99393212890625,0.34489187598228455,-0.4741217792034149,0.9053277373313904
1763691412319953200,2.003953125,0.3805694580078125,-0.6299225687980652,0.9741904735565186
1763691412329974300,2.013974365234375,0.3956330716609955,-0.6954402923583984,0.9675229787826538
1763691412339995100,2.0239951171875,0.41942310333251953,-0.6656728386878967,0.8730878233909607
1763691412350015200,2.03401513671875,0.4435329735279083,-0.6016488075256348,0.678139328956604
1763691412360036000,2.0440361328125,0.4781079888343811,-0.5032831430435181,0.4515988826751709
1763691412370057200,2.05405712890625,0.5127338767051697,-0.42519763112068176,0.24221742153167725
1763691412380078000,2.064078125,0.5365635752677917,-0.3975825309753418,0.07224196940660477
1763691412390099000,2.074098876953125,0.5474236607551575,-0.44975730776786804,-0.06760567426681519
1763691412400120000,2.0841201171875,0.5404477715492249,-0.5748587846755981,-0.18630649149417877
1763691412410140200,2.09414013671875,0.5098499655723572,-0.7441415190696716,-0.28043726086616516
1763691412420161000,2.1041611328125,0.4598938226699829,-0.8780418038368225,-0.3357319235801697
1763691412430182000,2.114181884765625,0.4076652526855469,-0.9322994351387024,-0.34006115794181824
1763691412440203300,2.124203369140625,0.3825172781944275,-0.9265843033790588,-0.3131360709667206
1763691412450224000,2.13422412109375,0.39001861214637756,-0.8637563586235046,-0.2729108929634094
1763691412460245200,2.144245361328125,0.43088507652282715,-0.7539923191070557,-0.24522200226783752
1763691412470265000,2.15426513671875,0.47756069898605347,-0.6392225623130798,-0.26413631439208984
1763691412480286200,2.1642861328125,0.4949050843715668,-0.5282512903213501,-0.3190304636955261
1763691412490307000,2.17430712890625,0.483573853969574,-0.3783041536808014,-0.3719533085823059
1763691412500328000,2.184327880859375,0.43394026160240173,-0.22569730877876282,-0.4018387794494629
1763691412510349000,2.19434912109375,0.36510100960731506,-0.09038902074098587,-0.41058939695358276
1763691412520370000,2.204369873046875,0.08120989799499512,0.6978051662445068,0.04958459734916687
1763691412530391000,2.21439111328125,0.15579386055469513,0.2041611224412918,-0.17931249737739563
1763691412540411000,2.224410888671875,0.1733454167842865,0.1075698658823967,-0.29485028982162476
1763691412550432000,2.234431884765625,0.09671536087989807,0.2605926990509033,-0.2530362606048584
1763691412560453000,2.244453125,0.06883446127176285,0.20496299862861633,-0.2723899781703949
1763691412570474200,2.25447412109375,0.07809213548898697,0.1804206371307373,-0.2957080900669098
1763691412580495000,2.2644951171875,0.09474781155586243,0.13970570266246796,-0.34313100576400757
1763691412590516000,2.274515869140625,0.1056385412812233,0.10116975754499435,-0.35637515783309937
1763691412600536000,2.2845361328125,0.10862314701080322,0.0022117553744465113,-0.35222914814949036
1763691412610557200,2.29455712890625,0.11368715018033981,-0.08253801614046097,-0.3331039249897003
1763691412620578000,2.304578125,0.13265205919742584,-0.10634774714708328,-0.3118114173412323
1763691412630599000,2.314598876953125,0.13968652486801147,0.007514907978475094,-0.26716431975364685
1763691412640620000,2.3246201171875,0.09748687595129013,0.08809150755405426,-0.2473440170288086
1763691412650641200,2.33464111328125,0.08281179517507553,0.1365376114845276,-0.24224485456943512
1763691412660661000,2.344660888671875,0.14280109107494354,0.17907388508319855,-0.24203979969024658
1763691412670682000,2.35468212890625,0.22272709012031555,0.21661034226417542,-0.25084739923477173
1763691412680703200,2.364703125,0.2658149003982544,0.2519398331642151,-0.27532026171684265
1763691412690724000,2.37472412109375,0.2603415846824646,0.2710789144039154,-0.3478245437145233
1763691412700745200,2.3847451171875,0.21833206713199615,0.3862667381763458,-0.4683208763599396
1763691412710766000,2.39476611328125,0.22435294091701508,0.47358566522598267,-0.5768182873725891
1763691412720786200,2.4047861328125,0.24306830763816833,0.3615046739578247,-0.6250923871994019
1763691412730807000,2.41480712890625,0.2301277369260788,0.21320068836212158,-0.6272132992744446
1763691412740828200,2.424828125,0.17100609838962555,0.1519450545310974,-0.5897748470306396
1763691412750849000,2.43484912109375,0.1076769307255745,0.1120154857635498,-0.5370562672615051
1763691412760870000,2.444869873046875,0.06378430873155594,0.029584789648652077,-0.47159630060195923
1763691412770891300,2.454891357421875,0.023794811218976974,-0.061288923025131226,-0.40094077587127686
1763691412780912000,2.464912109375,0.010958375409245491,-0.01810603402554989,-0.36781877279281616
1763691412790932200,2.47493212890625,0.035529233515262604,0.1346195936203003,-0.375602126121521
1763691412800953000,2.484953125,0.029754167422652245,0.43580660223960876,-0.42952340841293335
1763691412810974200,2.49497412109375,0.003967044875025749,0.6539088487625122,-0.4471804201602936
1763691412820995000,2.5049951171875,0.008447546511888504,0.60169517993927,-0.3915453851222992
1763691412831016000,2.515015869140625,0.04674486815929413,0.3449060022830963,-0.302866131067276
1763691412841037000,2.525037109375,0.0789768397808075,0.14418727159500122,-0.2587255537509918
1763691412851057200,2.53505712890625,0.10384224355220795,0.267299085855484,-0.3395852744579315
1763691412861078000,2.545078125,0.06758250296115875,0.6280452609062195,-0.5127304196357727
1763691412871099000,2.555098876953125,0.00509942090138793,1.06881844997406,-0.6635316610336304
1763691412881120000,2.5651201171875,-0.033478330820798874,1.4033234119415283,-0.7632265686988831
1763691412891141000,2.57514111328125,-0.07899308204650879,1.6065495014190674,-0.8063313961029053
1763691412901162200,2.585162353515625,-0.1042502373456955,1.6229926347732544,-0.772286057472229
1763691412911182000,2.59518212890625,-0.057367950677871704,1.3970847129821777,-0.6693906188011169
1763691412921203200,2.605203125,0.01709616184234619,1.074668049812317,-0.5318583250045776
1763691412931224000,2.61522412109375,0.10421615093946457,0.6626184582710266,-0.33557772636413574
1763691412941245200,2.6252451171875,0.17938973009586334,0.2838628888130188,-0.09055546671152115
1763691412951266000,2.63526611328125,0.2553657293319702,-0.11369407176971436,0.21073859930038452
1763691412961287000,2.645286865234375,0.3290521800518036,-0.5175448656082153,0.5481440424919128
1763691412971307000,2.65530712890625,0.4075731039047241,-0.5847313404083252,0.7972188591957092
1763691412981328100,2.665328125,0.38731950521469116,0.017621072009205818,0.7711364030838013
1763691412991349000,2.675348876953125,0.38034388422966003,0.710641086101532,0.4887523651123047
1763691413001370000,2.6853701171875,0.34544074535369873,1.6304415464401245,0.23226092755794525
1763691413011391200,2.69539111328125,0.26781201362609863,1.9010767936706543,-0.0026200178544968367
1763691413021412000,2.705412109375,0.17824296653270721,1.3418084383010864,-0.11090867221355438
1763691413031432200,2.71543212890625,0.0463443286716938,0.45697101950645447,-0.10983967781066895
1763691413041453000,2.725453125,-0.09094908088445663,-0.024105070158839226,-0.09150248765945435
1763691413051474200,2.73547412109375,-0.1484544575214386,-0.11690105497837067,-0.1046220138669014
1763691413061495000,2.7454951171875,-0.11414894461631775,-0.16835466027259827,-0.07828761637210846
1763691413071516200,2.75551611328125,-0.041126132011413574,-0.07642339915037155,-0.018556905910372734
1763691413081537000,2.765537109375,0.033427465707063675,0.029340311884880066,0.09162818640470505
1763691413091558000,2.775557861328125,0.08013691008090973,0.10096736252307892,0.2161078006029129
1763691413101578000,2.785577880859375,0.09147185832262039,0.1730375587940216,0.3051580488681793
1763691413111598800,2.795598876953125,0.07279564440250397,0.4321727156639099,0.3375500738620758
1763691413121620200,2.8056201171875,0.0556025430560112,0.8056195378303528,0.3341446816921234
1763691413131641000,2.81564111328125,0.033067405223846436,1.0731772184371948,0.38993337750434875
1763691413141662200,2.825662109375,-0.006396380253136158,1.058449387550354,0.349788099527359
1763691413151683000,2.83568310546875,-0.04640824347734451,0.8027731776237488,0.1918724924325943
1763691413161703200,2.845703125,-0.07959575951099396,0.22552339732646942,-0.05552344769239426
1763691413171724000,2.85572412109375,-0.16856370866298676,-0.051667988300323486,-0.27348053455352783
1763691413181745200,2.8657451171875,-0.23222684860229492,0.029378129169344902,-0.34760138392448425
1763691413191766000,2.87576611328125,-0.20744213461875916,0.24393810331821442,-0.24229440093040466
1763691413201787000,2.885786865234375,-0.06787119060754776,0.18282628059387207,0.03364264965057373
1763691413211808000,2.89580810546875,0.13362756371498108,0.07566200196743011,0.28223034739494324
1763691413221828000,2.905828125,0.2768177390098572,0.0016351809026673436,0.4581265449523926
1763691413231849200,2.91584912109375,0.34769484400749207,0.005861617624759674,0.5092536807060242
1763691413241870000,2.9258701171875,0.3146258592605591,-0.06209080293774605,0.517040491104126
1763691413251891200,2.93589111328125,0.21459458768367767,0.030958447605371475,0.39239761233329773
1763691413261912000,2.945912109375,0.1613401621580124,0.092472143471241,0.29972147941589355
1763691413271933200,2.95593310546875,0.12250993400812149,-0.06072220206260681,0.16343393921852112
1763691413281953000,2.965953125,0.08800948411226273,-0.16979515552520752,-0.09647567570209503
1763691413291974100,2.97597412109375,-0.00032197617110796273,-0.16223125159740448,-0.33239391446113586
1763691413301995000,2.9859951171875,-0.017236243933439255,-0.17669141292572021,-0.4783830940723419
1763691413312016100,2.99601611328125,0.05639563128352165,-0.2236594557762146,-0.4319269061088562
1763691413322037000,3.006037109375,0.1880607157945633,-0.49743667244911194,-0.4108557105064392
1763691413332058000,3.01605810546875,0.27945801615715027,-0.7434560060501099,-0.41993603110313416
1763691413342078000,3.026077880859375,0.24092340469360352,-0.7499280571937561,-0.45016157627105713
1763691413352099000,3.03609912109375,0.22176088392734528,-0.7425308227539062,-0.3765198290348053
1763691413362120200,3.0461201171875,0.2906898856163025,-0.7180787920951843,-0.3012365400791168
1763691413372141000,3.05614111328125,0.3790290653705597,-0.5948380827903748,-0.26673048734664917
1763691413382162200,3.066162109375,0.33284321427345276,-0.2915511429309845,-0.1754613071680069
1763691413392183000,3.07618310546875,0.29794594645500183,-0.1249680370092392,-0.07862503826618195
1763691413402203100,3.086203125,0.29566147923469543,-0.04002171754837036,-0.037283722311258316
1763691413412224000,3.09622412109375,0.3108105957508087,0.0728776678442955,-0.05286987125873566
1763691413422245000,3.1062451171875,0.34046968817710876,0.2202538102865219,-0.0895162969827652
1763691413432266000,3.116265869140625,0.3496219217777252,0.23789139091968536,-0.07674723863601685
1763691413442286800,3.126286865234375,0.3982000946998596,0.17262209951877594,0.023431023582816124
1763691413452308200,3.13630810546875,0.4831725060939789,0.2686026990413666,0.1617572009563446
1763691413462329000,3.1463291015625,0.6207191944122314,0.30810484290122986,0.28387540578842163
1763691413472349200,3.15634912109375,0.715787410736084,0.22347436845302582,0.3776412904262543
1763691413482370000,3.1663701171875,0.78237384557724,0.013540842570364475,0.3806333541870117
1763691413492391200,3.17639111328125,0.630759060382843,-0.07721462845802307,0.34603169560432434
1763691413502412000,3.186412109375,0.4571579694747925,0.09133044630289078,0.23412089049816132
1763691413512433200,3.19643310546875,0.2026471197605133,0.214329332113266,0.1462767869234085
1763691413522454000,3.2064541015625,-0.06262529641389847,0.2982245087623596,0.025057150050997734
1763691413532474000,3.21647412109375,-0.227176696062088,0.37202948331832886,-0.04072852060198784
1763691413542495000,3.226494873046875,-0.28303757309913635,0.5242392420768738,0.03536225110292435
1763691413552516000,3.23651611328125,-0.31157785654067993,0.29166778922080994,0.05067116767168045
1763691413562537200,3.246537109375,-0.26611530780792236,0.307424932718277,0.10463187098503113
1763691413572558000,3.25655810546875,-0.1574506163597107,0.5070749521255493,0.13643933832645416
1763691413582579200,3.2665791015625,-0.07252506911754608,0.9035141468048096,0.1604440063238144
1763691413592599000,3.27659912109375,-0.07770677655935287,0.8580180406570435,0.21745961904525757
1763691413602620200,3.2866201171875,-0.17612868547439575,0.7806068658828735,0.3090273439884186
1763691413612641000,3.29664111328125,-0.3598974645137787,0.8460063934326172,0.3907477855682373
1763691413622662100,3.306662109375,-0.589367687702179,0.6030811071395874,0.5360226631164551
1763691413632683000,3.31668310546875,-0.7594081163406372,0.5851721167564392,0.553945779800415
1763691413642704100,3.3267041015625,-0.8757533431053162,0.45385485887527466,0.5440124273300171
1763691413652724000,3.336723876953125,-0.9207746386528015,0.3301198482513428,0.5639144778251648
1763691413662745000,3.3467451171875,-0.8660256266593933,0.26366493105888367,0.6269789338111877
1763691413672766000,3.356765869140625,-0.6970546841621399,0.29913264513015747,0.7034420371055603
1763691413682787000,3.366787109375,-0.41587790846824646,0.42405247688293457,0.7952808737754822
1763691413692808200,3.37680810546875,-0.10604174435138702,0.46690860390663147,0.8494508862495422
1763691413702829000,3.3868291015625,0.06342078745365143,0.21053379774093628,0.8108683824539185
1763691413712849200,3.39684912109375,0.0073468624614179134,0.7255289554595947,0.6101006269454956
1763691413722870000,3.4068701171875,0.01170272845774889,1.363442063331604,0.675449013710022
1763691413732891100,3.41689111328125,-0.18049921095371246,1.1010805368423462,0.6793199181556702
1763691413742912000,3.426912109375,-0.3101581335067749,0.49846625328063965,0.7008542418479919
1763691413752933000,3.43693310546875,-0.40156447887420654,0.07497863471508026,0.6847674250602722
1763691413762954000,3.4469541015625,-0.4105544984340668,0.0006993460701778531,0.5864648222923279
1763691413772974000,3.45697412109375,-0.35550937056541443,0.05095266178250313,0.5128358602523804
1763691413782995000,3.466994873046875,-0.24352318048477173,0.013400760479271412,0.5095567107200623
1763691413793016300,3.477016357421875,-0.059126969426870346,-0.004340153653174639,0.5431101322174072
1763691413803037200,3.487037109375,0.14661367237567902,0.0011142665753141046,0.6132975220680237
1763691413813058000,3.49705810546875,0.3085743486881256,-0.017304422333836555,0.7474015355110168
1763691413823079200,3.5070791015625,0.4439758360385895,-0.2565380334854126,0.9583582282066345
1763691413833099000,3.51709912109375,0.5735612511634827,-0.1719193011522293,1.0766319036483765
1763691413843120000,3.5271201171875,0.6194943785667419,-0.057561829686164856,1.1561332941055298
1763691413853141000,3.53714111328125,0.5778636336326599,0.09423169493675232,1.2491599321365356
1763691413863162000,3.547162109375,0.4744943380355835,0.33494842052459717,1.3537979125976562
1763691413873183000,3.557182861328125,0.19140352308750153,0.6362494230270386,0.48008057475090027
1763691413883204000,3.5672041015625,0.006059756502509117,0.6357561945915222,0.3843900263309479
1763691413893224000,3.577223876953125,-0.19945931434631348,0.580398678779602,0.23293684422969818
1763691413903245000,3.5872451171875,-0.34347641468048096,0.526385486125946,0.09146786481142044
1763691413913266200,3.59726611328125,-0.3272700011730194,0.4668484032154083,0.003751595038920641
1763691413923287000,3.607287109375,-0.12673982977867126,0.34500905871391296,0.019364111125469208
1763691413933308200,3.61730810546875,0.23224495351314545,0.18676535785198212,0.08107993751764297
1763691413943329000,3.6273291015625,0.40315118432044983,0.07503776252269745,0.11982280761003494
1763691413953349000,3.63734912109375,0.45398640632629395,0.1033351793885231,0.1290767639875412
1763691413963370000,3.647369873046875,0.43245527148246765,0.20657767355442047,0.09478483349084854
1763691413973391000,3.65739111328125,0.33857297897338867,0.335589200258255,0.050752658396959305
1763691413983412000,3.667411865234375,0.10076043009757996,0.23139886558055878,-0.055628109723329544
1763691413993433000,3.67743310546875,-0.038058437407016754,0.22841240465641022,-0.10835177451372147
1763691414003454000,3.687453857421875,-0.13334554433822632,0.24287176132202148,-0.16301022469997406
1763691414013474000,3.69747412109375,-0.1704803854227066,0.29010212421417236,-0.24017424881458282
1763691414023495200,3.7074951171875,-0.1864047646522522,0.32488754391670227,-0.3250523805618286
1763691414033516300,3.717516357421875,-0.21432214975357056,0.364880234003067,-0.3905901312828064
1763691414043537200,3.727537109375,-0.26426440477371216,0.4347544014453888,-0.39608076214790344
1763691414053558000,3.73755810546875,-0.2849619686603546,0.5414475202560425,-0.33656230568885803
1763691414063579100,3.7475791015625,-0.2638060748577118,0.6083794236183167,-0.2537632882595062
1763691414073599000,3.757598876953125,-0.2558240592479706,0.5896859169006348,-0.18157725036144257
1763691414083620000,3.7676201171875,-0.20711617171764374,0.720568835735321,-0.13151195645332336
1763691414093641000,3.777640869140625,-0.17365993559360504,0.7313937544822693,-0.07373334467411041
1763691414103662000,3.787662109375,-0.1630411148071289,0.7218183875083923,-0.005053614266216755
1763691414113683000,3.797682861328125,-0.14439526200294495,0.7154004573822021,0.04692196846008301
1763691414123704300,3.807704345703125,-0.1005825325846672,0.6829042434692383,0.08195745199918747
1763691414133724000,3.817723876953125,-0.0820743665099144,0.7966811656951904,0.09731057286262512
1763691414143744800,3.827744873046875,-0.12909354269504547,1.0579513311386108,0.07122597843408585
1763691414153765600,3.837765625,-0.23503515124320984,1.3322665691375732,0.0549391470849514
1763691414163786800,3.847786865234375,-0.3138793706893921,1.4057985544204712,0.08596790581941605
1763691414173807600,3.8578076171875,-0.36911386251449585,1.2655080556869507,0.11671729385852814
1763691414183828500,3.867828369140625,-0.4368683993816376,0.9794281125068665,0.09603039175271988
1763691414193848600,3.8778486328125,-0.522266149520874,0.6889901161193848,0.02545422688126564
1763691414203869700,3.88786962890625,-0.5588723421096802,0.5039329528808594,-0.09379173815250397
1763691414213890600,3.897890625,-0.5507499575614929,0.5228248834609985,-0.23442581295967102
1763691414223911700,3.90791162109375,-0.5114885568618774,0.6346419453620911,-0.3703029453754425
1763691414233932800,3.917932861328125,-0.45912763476371765,0.7932347655296326,-0.5016676187515259
1763691414243953700,3.92795361328125,-0.4141146242618561,0.937180757522583,-0.5611559748649597
1763691414253973800,3.937973876953125,-0.39038559794425964,1.0507349967956543,-0.565983772277832
1763691414263994600,3.94799462890625,-0.3014352023601532,0.9192156195640564,-0.5289109945297241
1763691414274015700,3.958015625,-0.15834249556064606,0.62172532081604,-0.44569918513298035
1763691414284036600,3.96803662109375,-0.032411471009254456,0.27243658900260925,-0.3050270080566406
1763691414294057700,3.9780576171875,0.01053173653781414,-0.007101851515471935,-0.16124029457569122
1763691414304078600,3.98807861328125,-0.035780102014541626,-0.1788424551486969,-0.08164479583501816
1763691414314098700,3.9980986328125,-0.14948536455631256,-0.25544267892837524,-0.055211856961250305
1763691414324119600,4.00811962890625,-0.2979065179824829,-0.21447181701660156,-0.054365504533052444
1763691414334140700,4.018140625,-0.4291455149650574,-0.07393228262662888,-0.0398922897875309
1763691414344161800,4.028161865234375,-0.5138910412788391,0.12090405076742172,0.016558203846216202
1763691414354182700,4.0381826171875,-0.5360913872718811,0.3028043508529663,0.10912995040416718
1763691414364203800,4.048203857421875,-0.4789833724498749,0.5221862196922302,0.21421349048614502
1763691414374223600,4.0582236328125,-0.36968883872032166,0.7248908877372742,0.3421962261199951
1763691414384244700,4.06824462890625,-0.2254943698644638,0.8079782724380493,0.453722208738327
1763691414394265600,4.078265625,-0.05060698464512825,0.7285740375518799,0.5178000330924988
1763691414404286700,4.08828662109375,0.09464022517204285,0.5144502520561218,0.48069870471954346
1763691414414307600,4.0983076171875,0.12516909837722778,0.33915916085243225,0.3394715487957001
1763691414424328400,4.108328369140625,0.06311292201280594,0.269987553358078,0.1623058170080185
1763691414434348500,4.1183486328125,0.05421103909611702,0.22762809693813324,0.027694478631019592
1763691414444369700,4.12836962890625,0.03970959410071373,0.12030670046806335,0.005868275184184313
1763691414454390800,4.138390869140625,-0.05528855696320534,0.015516907908022404,0.05890965461730957
1763691414464411600,4.14841162109375,-0.14940840005874634,0.024590298533439636,0.13478897511959076
1763691414474432800,4.158432861328125,-0.21043846011161804,0.12479013204574585,0.18134689331054688
1763691414484453600,4.16845361328125,-0.2577207684516907,0.26810815930366516,0.1651117205619812
1763691414494473700,4.1784736328125,-0.3248087167739868,0.38028234243392944,0.12410756945610046
1763691414504494600,4.18849462890625,-0.4218266010284424,0.49579375982284546,0.08865769952535629
1763691414514515700,4.198515625,-0.5415868163108826,0.6141015291213989,0.07109707593917847
1763691414524536600,4.20853662109375,-0.6381397247314453,0.7074988484382629,0.07036683708429337
1763691414534557700,4.2185576171875,-0.705027163028717,0.7701656818389893,0.053519684821367264
1763691414544577500,4.22857763671875,-0.6403397917747498,0.9065219163894653,-0.03441496565937996
1763691414554598700,4.2385986328125,-0.4711483418941498,1.0596544742584229,-0.14654363691806793
1763691414564619800,4.248619873046875,-0.3105512261390686,1.0148561000823975,-0.25685015320777893
1763691414574640600,4.258640625,-0.1455249786376953,0.8381242156028748,-0.3452697694301605
1763691414584661800,4.268661865234375,0.012630840763449669,0.5816317200660706,-0.40181535482406616
1763691414594682600,4.2786826171875,0.16455592215061188,0.2563460171222687,-0.43831369280815125
1763691414604702700,4.28870263671875,0.28904271125793457,-0.055518653243780136,-0.4509213864803314
1763691414614723600,4.2987236328125,0.37431633472442627,-0.199886754155159,-0.4575340151786804
1763691414624744700,4.30874462890625,0.3984491229057312,-0.2789413630962372,-0.5232093930244446
1763691414634765600,4.318765625,0.3362344801425934,-0.41986626386642456,-0.6398156881332397
1763691414644786700,4.32878662109375,0.2523861825466156,-0.6436570286750793,-0.792308509349823
1763691414654807600,4.3388076171875,0.24241556227207184,-0.7559260129928589,-0.9380484223365784
1763691414664827600,4.34882763671875,0.29335466027259827,-0.8424713015556335,-0.9963295459747314
1763691414674848500,4.3588486328125,0.33100268244743347,-0.8866850733757019,-0.9203583598136902
1763691414684870000,4.368869873046875,0.38599857687950134,-0.9334725737571716,-0.7689518332481384
1763691414694890800,4.378890869140625,0.40547052025794983,-1.0167826414108276,-0.569875180721283
1763691414704911600,4.38891162109375,0.35122594237327576,-1.1151469945907593,-0.34723466634750366
1763691414714932700,4.3989326171875,0.23699922859668732,-1.2091091871261597,-0.12227237969636917
1763691414724952600,4.40895263671875,0.10985033214092255,-1.1837623119354248,0.08922281861305237
1763691414734973700,4.4189736328125,-0.00805979035794735,-1.112324595451355,0.28625252842903137
1763691414744994600,4.42899462890625,-0.08496095985174179,-1.1163697242736816,0.4462760090827942
1763691414755015700,4.439015625,-0.08359795808792114,-1.2032134532928467,0.5524104237556458
1763691414765036500,4.44903662109375,0.018136659637093544,-1.265622854232788,0.610449492931366
1763691414775056600,4.459056640625,0.20675450563430786,-1.3838434219360352,0.6327012777328491
1763691414785077500,4.469077392578125,0.42928823828697205,-1.4799928665161133,0.5863133072853088
1763691414795099000,4.479098876953125,0.6450575590133667,-1.4906444549560547,0.45394831895828247
1763691414805119700,4.48911962890625,0.8236011862754822,-1.3205126523971558,0.2476540058851242
1763691414815140600,4.499140625,0.9226678609848022,-1.237998604774475,0.02991422265768051
1763691414825161700,4.50916162109375,0.9514923095703125,-1.124189853668213,-0.17797532677650452
1763691414835181800,4.519181884765625,0.8738023042678833,-0.9916852712631226,-0.3363761603832245
1763691414845202700,4.52920263671875,0.7041693329811096,-1.0759152173995972,-0.4352385401725769
1763691414855223600,4.5392236328125,0.5375718474388123,-1.215822458267212,-0.47931012511253357
1763691414865244700,4.54924462890625,0.40498077869415283,-1.3401072025299072,-0.4728040397167206
1763691414875265500,4.559265625,0.35682550072669983,-1.4725192785263062,-0.43571391701698303
1763691414885286700,4.56928662109375,0.39634227752685547,-1.4995431900024414,-0.37071070075035095
1763691414895306500,4.579306396484375,0.5047388076782227,-1.3607711791992188,-0.303650438785553
1763691414905327600,4.58932763671875,0.6121768355369568,-1.0815397500991821,-0.2527667284011841
1763691414915348700,4.5993486328125,0.6496869325637817,-0.6979207992553711,-0.23017701506614685
1763691414925369900,4.609369873046875,0.5999694466590881,-0.37603381276130676,-0.2238176465034485
1763691414935390700,4.619390625,0.5040069818496704,-0.07003927230834961,-0.22372816503047943
1763691414945411600,4.62941162109375,0.39810529351234436,-0.05151379108428955,-0.2139250636100769
1763691414955431700,4.639431640625,0.3213122487068176,-0.20780299603939056,-0.1786632239818573
1763691414965452500,4.64945263671875,0.29562845826148987,-0.3875437378883362,-0.12366920709609985
1763691414975473700,4.6594736328125,0.30276361107826233,-0.5138036608695984,-0.06421547383069992
1763691414985494500,4.66949462890625,0.3405943214893341,-0.5897719264030457,0.004769987892359495
1763691414995515600,4.679515625,0.3816991448402405,-0.5977286696434021,0.07328646630048752
1763691415005536500,4.68953662109375,0.42025747895240784,-0.4876439571380615,0.12927277386188507
1763691415015556600,4.699556640625,0.47214916348457336,-0.3745453655719757,0.1613135188817978
1763691415025577700,4.70957763671875,0.511667013168335,-0.3860856592655182,0.16885507106781006
1763691415035598800,4.719598876953125,0.5312420725822449,-0.4809114933013916,0.157335564494133
1763691415045619700,4.72961962890625,0.5043081641197205,-0.5909717082977295,0.1441156268119812
1763691415055640600,4.739640625,0.41451728343963623,-0.6737802624702454,0.1463974267244339
1763691415065660700,4.74966064453125,0.32725268602371216,-0.5415247678756714,0.17381919920444489
1763691415075681800,4.759681884765625,0.25427088141441345,-0.386851042509079,0.22896580398082733
1763691415085702700,4.76970263671875,0.18885833024978638,-0.19480304419994354,0.30065011978149414
1763691415095723500,4.7797236328125,0.14377553761005402,-0.05543236434459686,0.3523343503475189
1763691415105744600,4.78974462890625,0.10209813714027405,0.09469801187515259,0.37008750438690186
1763691415115765500,4.799765625,0.11872585117816925,0.31626397371292114,0.33751145005226135
1763691415125785600,4.80978564453125,0.16161499917507172,0.5103351473808289,0.2698032557964325
1763691415135807200,4.81980712890625,0.16293779015541077,0.6336957216262817,0.18054048717021942
1763691415145828400,4.829828369140625,0.06530976295471191,0.5876501798629761,0.10422014445066452
1763691415155849200,4.83984912109375,-0.07073009759187698,0.42808982729911804,0.06439097225666046
1763691415165870000,4.8498701171875,-0.16125600039958954,0.258488267660141,0.06795694679021835
1763691415175891200,4.85989111328125,-0.1682625114917755,0.06046494096517563,0.09993032366037369
1763691415185911300,4.869911376953125,-0.10311679542064667,-0.019718578085303307,0.14405997097492218
1763691415195932200,4.87993212890625,-0.0011552792275324464,-0.026492327451705933,0.1961255669593811
1763691415205953000,4.889953125,0.12477468699216843,0.041546378284692764,0.2621719539165497
1763691415215974100,4.89997412109375,0.2519470155239105,0.215990349650383,0.3545839190483093
1763691415225995000,4.9099951171875,0.34479573369026184,0.4269595742225647,0.4744408130645752
1763691415236015000,4.92001513671875,0.34355977177619934,0.700175404548645,0.5807254314422607
1763691415246036000,4.930035888671875,0.1910005807876587,1.1041662693023682,0.6275070309638977
1763691415256057300,4.940057373046875,-0.09900887310504913,1.4979050159454346,0.6050262451171875
1763691415266078200,4.950078125,-0.4514753222465515,1.770295262336731,0.5367372035980225
1763691415276099300,4.960099365234375,-0.7422595024108887,1.7317484617233276,0.4606459140777588
1763691415286120200,4.9701201171875,-0.8201923370361328,1.518200159072876,0.383747398853302
1763691415296140300,4.980140380859375,-0.6796988844871521,1.2456536293029785,0.3065793812274933
1763691415306161200,4.9901611328125,-0.4067765474319458,0.9964893460273743,0.24041713774204254
1763691415316182000,5.00018212890625,-0.07613790780305862,0.8092566132545471,0.18608199059963226
1763691415326203100,5.010203125,0.2421492487192154,0.7168710231781006,0.13699300587177277
1763691415336224000,5.02022412109375,0.49992674589157104,0.7383323907852173,0.09094402194023132
1763691415346244000,5.030244140625,0.6374561190605164,0.8433621525764465,0.0407831147313118
1763691415356265000,5.040264892578125,0.6382888555526733,0.9545746445655823,-0.0021550299134105444
1763691415366286300,5.050286376953125,0.5423865914344788,1.033504605293274,-0.02677755244076252
1763691415376307200,5.06030712890625,0.39786428213119507,1.0558322668075562,-0.04115036502480507
1763691415386328300,5.070328369140625,0.22911041975021362,1.053905725479126,-0.06986616551876068
1763691415396349200,5.08034912109375,0.05150100588798523,1.0254863500595093,-0.11776258796453476
1763691415406369300,5.090369384765625,-0.09325724095106125,0.9739574193954468,-0.17176243662834167
1763691415416390100,5.10039013671875,-0.17634546756744385,0.9498267769813538,-0.20944403111934662
1763691415426411300,5.110411376953125,-0.2071784883737564,0.9212505221366882,-0.22052118182182312
1763691415436432100,5.12043212890625,-0.20458988845348358,0.8983697295188904,-0.19974108040332794
1763691415446453000,5.130452880859375,-0.16014279425144196,0.7765897512435913,-0.13705265522003174
1763691415456474000,5.14047412109375,-0.05694957077503204,0.5505816340446472,-0.03382907062768936
1763691415466494200,5.150494140625,0.09931114315986633,0.31737983226776123,0.10042274743318558
1763691415476515000,5.16051513671875,0.26790255308151245,0.0673004761338234,0.23294776678085327
1763691415486536200,5.1705361328125,0.40285423398017883,-0.09806504845619202,0.3177449405193329
1763691415496557300,5.180557373046875,0.4871062636375427,-0.1956014633178711,0.33729228377342224
1763691415506578200,5.190578125,0.5268382430076599,-0.2270698994398117,0.2775229513645172
1763691415516598300,5.200598388671875,0.5421239733695984,-0.18026991188526154,0.15806233882904053
1763691415526619100,5.210619140625,0.5421359539031982,-0.12995320558547974,0.006700247060507536
1763691415536640300,5.22064013671875,0.5215723514556885,-0.09047850221395493,-0.13597407937049866
1763691415546661000,5.2306611328125,0.49251115322113037,-0.06362131983041763,-0.2432512640953064
1763691415556682000,5.240681884765625,0.4761718809604645,-0.1105952188372612,-0.2856557071208954
1763691415566703000,5.250703125,0.4855451285839081,-0.17106948792934418,-0.26644712686538696
1763691415576723200,5.26072314453125,0.5220645070075989,-0.23269210755825043,-0.20019274950027466
1763691415586744000,5.270744140625,0.5677563548088074,-0.2602909803390503,-0.11897991597652435
1763691415596765200,5.28076513671875,0.6143372058868408,-0.22532899677753448,-0.04880881682038307
1763691415606786300,5.290786376953125,0.6658546924591064,-0.16364751756191254,0.002587793627753854
1763691415616807200,5.30080712890625,0.7454438209533691,-0.06325060874223709,0.021625665947794914
1763691415626827300,5.3108271484375,0.8414211869239807,0.05176838859915733,0.005530852824449539
1763691415636848000,5.32084814453125,0.9242516756057739,0.18330350518226624,-0.06095469743013382
1763691415646869200,5.330869140625,0.9688411951065063,0.28201544284820557,-0.17458058893680573
1763691415656890000,5.34089013671875,0.9751542210578918,0.3000980317592621,-0.3164197504520416
1763691415666911200,5.3509111328125,0.9729984402656555,0.24923326075077057,-0.4521421790122986
1763691415676932000,5.36093212890625,0.9747105836868286,0.1707341969013214,-0.5392544269561768
1763691415686952200,5.3709521484375,0.9970113635063171,0.14615215361118317,-0.577869713306427
1763691415696973000,5.38097314453125,1.0485574007034302,0.2272171676158905,-0.5695739984512329
1763691415706994200,5.390994140625,1.1030226945877075,0.3514970541000366,-0.5271503925323486
1763691415717015300,5.401015380859375,1.145499348640442,0.5533412098884583,-0.4736682176589966
1763691415727036200,5.4110361328125,1.176419973373413,0.8323078751564026,-0.4436597228050232
1763691415737056300,5.42105615234375,1.189812183380127,1.1533790826797485,-0.4531581699848175
1763691415747077000,5.4310771484375,1.1832016706466675,1.531252384185791,-0.5168564319610596
1763691415757098200,5.44109814453125,1.1813803911209106,2.029346227645874,-0.6750854849815369
1763691415767119000,5.451119140625,1.1473259925842285,2.129352331161499,-0.8236901760101318
1763691415777140200,5.46114013671875,1.0621123313903809,2.245861291885376,-1.0176122188568115
1763691415787161000,5.4711611328125,0.9173444509506226,2.2387170791625977,-1.2101510763168335
1763691415797181200,5.48118115234375,0.6816847920417786,2.2583377361297607,-1.4015274047851562
1763691415807202000,5.4912021484375,0.3042786717414856,2.2910988330841064,-1.576224684715271
1763691415817223200,5.50122314453125,-0.13572107255458832,2.4037349224090576,-1.7458008527755737
1763691415827244300,5.511244384765625,-0.5723916292190552,2.6304502487182617,-1.8978937864303589
1763691415837265200,5.52126513671875,-0.9317452311515808,2.7677001953125,-2.0201759338378906
1763691415847285200,5.53128515625,-1.1205204725265503,2.860825300216675,-2.1034650802612305
1763691415857306400,5.541306396484375,-1.1511484384536743,3.0097525119781494,-2.1640889644622803
1763691415867327200,5.5513271484375,-1.1104223728179932,3.1382527351379395,-2.18969464302063
1763691415877348000,5.56134814453125,-1.0505917072296143,3.1482181549072266,-2.178584337234497
1763691415887369200,5.571369140625,-0.868740975856781,2.9991116523742676,-2.1698930263519287
1763691415897390000,5.58139013671875,-0.527050256729126,2.7568178176879883,-2.2204864025115967
1763691415907410200,5.59141015625,-0.13729234039783478,2.6849119663238525,-2.3403728008270264
1763691415917431000,5.60143115234375,0.15195544064044952,2.700716495513916,-2.4974584579467773
1763691415927452200,5.6114521484375,0.25410977005958557,2.8035390377044678,-2.6781232357025146
1763691415937473000,5.62147314453125,0.10194473713636398,2.939788341522217,-2.9001760482788086
1763691415947494100,5.631494140625,-0.2450888454914093,2.9738757610321045,-3.083467721939087
1763691415957514200,5.64151416015625,-0.49528777599334717,3.30287766456604,-2.979358196258545
1763691415967535400,5.651535400390625,-0.22083091735839844,3.7532906532287598,-0.2699739634990692
1763691415977556200,5.66155615234375,-0.4389627277851105,3.6208980083465576,0.677765965461731
1763691415987577000,5.6715771484375,-0.5711622834205627,3.159965753555298,0.32745882868766785
1763691415997598200,5.68159814453125,-0.5124712586402893,2.8756158351898193,-0.7765210270881653
1763691416007618300,5.691618408203125,-0.37000414729118347,2.6478888988494873,-1.5078413486480713
1763691416017639200,5.70163916015625,-0.25894901156425476,2.179194927215576,-1.3259003162384033
1763691416027660000,5.711659912109375,-0.3179667890071869,2.051940679550171,-0.665057897567749
1763691416037681200,5.72168115234375,-0.3930293023586273,2.739588499069214,-1.3999327421188354
1763691416047702000,5.731701904296875,-0.4981032609939575,2.6930301189422607,-3.140894651412964
1763691416057723400,5.741723388671875,-0.5349757671356201,2.346076011657715,-4.5888872146606445
1763691416067743000,5.751742919921875,-0.37316372990608215,1.8289567232131958,-5.2418975830078125
1763691416077764400,5.761764404296875,-0.06824669986963272,1.4324530363082886,-5.291167259216309
1763691416087785200,5.77178515625,0.2734682857990265,1.0779982805252075,-4.751209259033203
1763691416097806300,5.781806396484375,0.5479089021682739,1.0338414907455444,-3.665426015853882
1763691416107827200,5.7918271484375,0.39951810240745544,0.8730340003967285,-1.482691764831543
1763691416117847300,5.801847412109375,-0.03698944300413132,1.1807383298873901,0.7529938817024231
1763691416127868200,5.8118681640625,-0.5409194231033325,1.5758882761001587,2.019249677658081
1763691416137889300,5.82188916015625,-0.8494144082069397,1.7315492630004883,1.9939465522766113
1763691416147910400,5.831910400390625,-1.184182047843933,1.4650440216064453,1.2785409688949585
1763691416157931300,5.84193115234375,-1.630039095878601,1.101117491722107,0.39114806056022644
1763691416167952400,5.851952392578125,-1.952895164489746,0.9901416897773743,-0.2202620655298233
1763691416177972200,5.86197216796875,-2.2313921451568604,0.881151020526886,-0.41731706261634827
1763691416187993300,5.871993408203125,-2.4805963039398193,0.7319263815879822,-0.2789669334888458
1763691416198014200,5.88201416015625,-2.660529613494873,0.5657384991645813,0.010989267379045486
1763691416208035300,5.892035400390625,-2.7470386028289795,0.3496282994747162,0.32247045636177063
1763691416218056200,5.90205615234375,-2.6690447330474854,0.08014942705631256,0.5755115151405334
1763691416228076300,5.912076171875,-2.2275230884552,-0.11216568946838379,0.5911767482757568
1763691416238097200,5.92209716796875,-1.5582419633865356,-0.2749553918838501,0.35679540038108826
1763691416248118500,5.932118408203125,-1.16618013381958,-0.3243011236190796,-0.04433364048600197
1763691416258139400,5.942139404296875,-0.9984965920448303,-0.25397953391075134,-0.33959218859672546
1763691416268160300,5.95216015625,-0.957946240901947,0.008417187258601189,-0.33913812041282654
1763691416278180400,5.962180419921875,-1.1139552593231201,0.39352065324783325,-0.11593884974718094
1763691416288201200,5.972201171875,-1.3375481367111206,0.6440562009811401,0.2522732615470886
1763691416298222300,5.982222412109375,-1.4288458824157715,0.6125068068504333,0.6104244589805603
1763691416308243200,5.9922431640625,-1.6426143646240234,0.7425497770309448,0.7520543336868286
1763691416318264300,6.002264404296875,-1.8075848817825317,0.6740623116493225,0.7943344116210938
1763691416328284200,6.0122841796875,-1.9351457357406616,0.6729509830474854,0.7757418155670166
1763691416338305300,6.02230517578125,-2.065687656402588,0.6194999814033508,0.7497203350067139
1763691416348326100,6.032326171875,-2.051044225692749,0.3488815426826477,0.7833570837974548
1763691416358347300,6.04234716796875,-1.889897108078003,0.11680731177330017,0.8081210255622864
1763691416368368400,6.052368408203125,-1.8296478986740112,-0.10862820595502853,0.8210882544517517
1763691416378389200,6.06238916015625,-1.847684383392334,-0.15809616446495056,0.8300780057907104
1763691416388409300,6.072409423828125,-1.9404675960540771,0.20421704649925232,0.7856077551841736
1763691416398430500,6.082430419921875,-2.011594772338867,0.3647260367870331,0.6299052238464355
1763691416408451300,6.092451416015625,-2.0112006664276123,0.44236037135124207,0.45579230785369873
1763691416418472200,6.10247216796875,-2.031360626220703,0.49821192026138306,0.30318358540534973
1763691416428493300,6.112493408203125,-2.1821846961975098,0.5346122980117798,0.13669367134571075
1763691416438513200,6.12251318359375,-2.281623601913452,0.5433274507522583,-0.03543415665626526
1763691416448534300,6.1325341796875,-2.2285425662994385,0.4704013168811798,-0.15548387169837952
1763691416458555100,6.14255517578125,-2.0759291648864746,0.28011634945869446,-0.1445835530757904
1763691416468576300,6.152576171875,-1.8562527894973755,-0.016170181334018707,-0.05103655159473419
1763691416478597400,6.162597412109375,-1.6104302406311035,-0.2704448103904724,0.0777488574385643
1763691416488617200,6.1726171875,-1.5545446872711182,-0.3209306299686432,0.23399358987808228
1763691416498638300,6.182638427734375,-1.7011936902999878,-0.24016226828098297,0.3420849144458771
1763691416508659500,6.192659423828125,-1.908956527709961,-0.06465675681829453,0.3789348006248474
1763691416518680300,6.202680419921875,-2.0393941402435303,0.15577974915504456,0.42685890197753906
1763691416528701200,6.212701171875,-2.1510612964630127,0.42598405480384827,0.5186463594436646
1763691416538721300,6.22272119140625,-2.2771494388580322,0.7295924425125122,0.6290966868400574
1763691416548742400,6.232742431640625,-2.4057581424713135,0.9441510438919067,0.6852582693099976
1763691416558763300,6.24276318359375,-2.517106294631958,1.0469259023666382,0.7160568833351135
1763691416568784100,6.2527841796875,-2.467942237854004,1.073171854019165,0.7619133591651917
1763691416578805200,6.26280517578125,-2.2804694175720215,1.1073647737503052,0.8130489587783813
1763691416588825300,6.272825439453125,-2.085272789001465,1.250234603881836,0.7636023163795471
1763691416598846200,6.28284619140625,-1.953481674194336,1.1725139617919922,0.7433955669403076
1763691416608867300,6.292867431640625,-1.6927133798599243,1.0238921642303467,0.744711697101593
1763691416618888400,6.302888427734375,-1.3991470336914062,0.876587986946106,0.5484932065010071
1763691416628909300,6.312909423828125,-1.0965718030929565,0.6997383832931519,0.32095351815223694
1763691416638930400,6.322930419921875,-0.7805466651916504,0.5854282975196838,0.13632428646087646
1763691416648950300,6.3329501953125,-0.40884077548980713,0.5931123495101929,0.012544553726911545
1763691416658971400,6.342971435546875,-0.17643707990646362,0.6604863405227661,-0.09504102915525436
1763691416668992300,6.3529921875,-0.011700864881277084,0.844462513923645,-0.13767796754837036
1763691416679013400,6.363013427734375,0.13167227804660797,1.109085202217102,-0.11245863139629364
1763691416689034200,6.3730341796875,0.1171862781047821,1.1346951723098755,-0.24852938950061798
1763691416699054300,6.383054443359375,0.15359275043010712,1.123445987701416,-0.4035203158855438
1763691416709075200,6.3930751953125,0.298272967338562,1.1695647239685059,-0.51203852891922
1763691416719096000,6.403095947265625,0.5528128743171692,1.2081717252731323,-0.6161055564880371
1763691416729117400,6.413117431640625,0.6065828800201416,1.1074084043502808,-0.7336968779563904
1763691416739138300,6.42313818359375,0.28073498606681824,0.6383543610572815,-0.9061309695243835
1763691416749158400,6.433158447265625,-0.5059167146682739,0.03620434179902077,-0.767638087272644
1763691416759179300,6.44317919921875,-0.7620177268981934,0.009953830391168594,-0.3180980682373047
1763691416769200400,6.453200439453125,-0.9479702711105347,-0.1449902057647705,0.02617328055202961
1763691416779221200,6.46322119140625,-1.1206868886947632,-0.4335370659828186,0.22356145083904266
1763691416789242400,6.473242431640625,-1.2180973291397095,-0.6634235382080078,0.22447970509529114
1763691416799262200,6.48326220703125,-1.2480981349945068,-0.5243449807167053,0.23319010436534882
1763691416809283300,6.493283447265625,-1.1473020315170288,-0.9534358978271484,0.2021067589521408
1763691416819304200,6.50330419921875,-1.0558842420578003,-1.0028468370437622,0.13801006972789764
1763691416829325300,6.5133251953125,-0.890632152557373,-0.4283825159072876,0.05503928288817406
1763691416839346400,6.523346435546875,-0.6238744854927063,0.6616807579994202,0.12700562179088593
1763691416849366300,6.5333662109375,-0.4193724989891052,0.7813493609428406,0.22157126665115356
1763691416859387400,6.543387451171875,-0.34502023458480835,0.4103260040283203,0.32773658633232117
1763691416869408300,6.553408203125,-0.3482634425163269,-0.01774304360151291,0.23415496945381165
1763691416879429400,6.563429443359375,-0.29395198822021484,-0.32791608572006226,0.1187458261847496
1763691416889450200,6.5734501953125,-0.22383922338485718,-0.29838189482688904,0.01570439524948597
1763691416899470300,6.58347021484375,-0.12261832505464554,-0.2968495190143585,-0.09431744366884232
1763691416909491200,6.5934912109375,-0.02154843509197235,-0.25769758224487305,-0.19956611096858978
1763691416919512300,6.60351220703125,0.02377110905945301,-0.1447710394859314,-0.25666189193725586
1763691416929533200,6.613533203125,0.05983084440231323,-0.08369090408086777,-0.27750617265701294
1763691416939554300,6.62355419921875,0.06222688779234886,0.05001522973179817,-0.2674844264984131
1763691416949575200,6.6335751953125,0.05631760135293007,0.06451480835676193,-0.21433253586292267
1763691416959595300,6.64359521484375,0.026923758909106255,0.0466412715613842,-0.15411792695522308
1763691416969616100,6.6536162109375,-0.023201726377010345,0.11704885959625244,-0.05074254050850868
1763691416979637500,6.663637451171875,-0.04788070544600487,0.09804507344961166,0.07741089910268784
1763691416989658400,6.673658447265625,0.010045443661510944,0.09990555793046951,0.22692076861858368
1763691416999679200,6.68367919921875,0.03736415132880211,0.1489069163799286,0.45812150835990906
1763691417009699300,6.69369921875,0.11687947809696198,0.024704813957214355,0.6447768807411194
1763691417019720200,6.70372021484375,0.20346391201019287,0.023807594552636147,0.533633828163147
1763691417029741300,6.7137412109375,0.22069242596626282,0.0915946289896965,0.24706704914569855
1763691417039762200,6.72376220703125,0.22027191519737244,0.03711088374257088,0.017074856907129288
1763691417049783300,6.733783203125,0.07281401753425598,-0.14791728556156158,-0.22262029349803925
1763691417059803100,6.74380322265625,0.00953677948564291,-0.3213109076023102,-0.3816906213760376
1763691417069824300,6.75382421875,-0.08300354331731796,-0.3905022442340851,-0.46301186084747314
1763691417079845000,6.76384521484375,-0.23731374740600586,-0.31834468245506287,-0.5251982808113098
1763691417089866500,6.773866455078125,-0.37109124660491943,-0.10095910727977753,-0.4637916386127472
1763691417099887400,6.783887451171875,-0.45133176445961,0.14975221455097198,-0.29238420724868774
1763691417109907500,6.793907470703125,-0.44986650347709656,0.2907162606716156,-0.11299499124288559
1763691417119928300,6.80392822265625,-0.3374598026275635,0.28239840269088745,-0.016715597361326218
1763691417129949400,6.813949462890625,-0.2843438386917114,0.12557736039161682,-0.07408567517995834
1763691417139970000,6.823969970703125,-0.33101946115493774,-0.11369647085666656,-0.252096951007843
1763691417149991000,6.833990966796875,-0.4827845096588135,-0.22859908640384674,-0.4292033016681671
1763691417160011000,6.844010986328125,-0.6788506507873535,-0.24291864037513733,-0.5561857223510742
1763691417170032000,6.8540322265625,-0.9108626246452332,-0.2459554374217987,-0.638383686542511
1763691417180053000,6.864052978515625,-1.1669034957885742,-0.23275548219680786,-0.6272250413894653
1763691417190073900,6.874073974609375,-1.2250999212265015,-0.2966175675392151,-0.5832482576370239
1763691417200095000,6.884094970703125,-0.9000541567802429,-0.25339630246162415,-0.45321062207221985
1763691417210115000,6.894114990234375,-0.678657591342926,0.02925162762403488,-0.15000760555267334
1763691417220136000,6.904135986328125,-0.558356761932373,0.010409497655928135,0.13382437825202942
1763691417230157000,6.914156982421875,-0.38340064883232117,0.08739349246025085,0.2479506880044937
1763691417240178200,6.92417822265625,-0.24223287403583527,0.17417553067207336,0.18254850804805756
1763691417250199000,6.934198974609375,-0.17162342369556427,0.23687219619750977,0.061943527311086655
1763691417260219100,6.94421923828125,-0.05913549289107323,0.12348917871713638,-0.08287730813026428
1763691417270240000,6.954239990234375,0.03316807374358177,0.013712882995605469,-0.22861267626285553
1763691417280261000,6.96426123046875,0.11050653457641602,-0.12159594148397446,-0.27600255608558655
1763691417290282000,6.974281982421875,0.1557171642780304,-0.19058752059936523,-0.3231295943260193
1763691417300303000,6.98430322265625,0.14077070355415344,-0.16881431639194489,-0.3580761253833771
1763691417310323000,6.994322998046875,0.05572770908474922,-0.24838344752788544,-0.3619723320007324
1763691417320344000,7.004343994140625,-0.02154816873371601,-0.3283962607383728,-0.3396467864513397
1763691417330365000,7.014364990234375,-0.17243728041648865,-0.3252537250518799,-0.3049423396587372
1763691417340386000,7.024385986328125,-0.3295701742172241,-0.3994408845901489,-0.3099732995033264
1763691417350407200,7.0344072265625,-0.4911518692970276,-0.39399150013923645,-0.3679487109184265
1763691417360427300,7.04442724609375,-0.623735249042511,-0.31520748138427734,-0.30456894636154175
1763691417370448100,7.0544482421875,-0.706448495388031,-0.24928012490272522,-0.24544145166873932
1763691417380469000,7.064468994140625,-0.8683710694313049,-0.2657017111778259,-0.2650316655635834
1763691417390490000,7.074489990234375,-1.2065485715866089,-0.5443916916847229,-0.39085376262664795
1763691417400511000,7.084510986328125,-1.7395973205566406,-0.8083103895187378,-0.670295000076294
1763691417410531000,7.094531005859375,-1.8745287656784058,-0.8870137333869934,-0.9022622108459473
1763691417420552000,7.104552001953125,-1.6287312507629395,-0.6759030818939209,-0.9164725542068481
1763691417430573000,7.114572998046875,-1.3203593492507935,-0.5084459185600281,-0.7591913342475891
1763691417440594000,7.124593994140625,-1.2445329427719116,-0.457828551530838,-0.6163838505744934
1763691417450615000,7.134614990234375,-1.2905471324920654,-0.5083934664726257,-0.47050943970680237
1763691417460635000,7.144634765625,-1.2406266927719116,-0.5645488500595093,-0.28282931447029114
1763691417470656300,7.15465625,-1.1405855417251587,-0.5819348096847534,-0.11944357305765152
1763691417480677000,7.164677001953125,-1.0111082792282104,-0.5275988578796387,-0.06691671907901764
1763691417490698000,7.174697998046875,-0.8304985165596008,-0.4404604732990265,-0.14099600911140442
1763691417500719000,7.184718994140625,-0.4230245053768158,-0.2409934401512146,-0.1637204885482788
1763691417510739200,7.1947392578125,-0.18112345039844513,-0.10426195710897446,0.00746031291782856
1763691417520760000,7.204760009765625,-0.35555464029312134,-0.0483211949467659,0.3743664026260376
1763691417530781000,7.214781005859375,-0.32049280405044556,0.05817222595214844,0.42207667231559753
1763691417540802000,7.224802001953125,-0.05938290059566498,0.14402347803115845,0.15200045704841614
1763691417550823000,7.234822998046875,0.05414845794439316,0.1595129668712616,0.02142646163702011
1763691417560843000,7.244843017578125,0.027905667200684547,0.016696687787771225,-0.03245514631271362
1763691417570863900,7.25486376953125,-0.02556608058512211,-0.11567067354917526,-0.0818282887339592
1763691417580885000,7.264885009765625,-0.07744525372982025,-0.24015960097312927,-0.1288978010416031
1763691417590906000,7.274906005859375,-0.06714734435081482,-0.40460872650146484,-0.15018470585346222
1763691417600927200,7.28492724609375,-0.053711432963609695,-0.5077212452888489,-0.12438080459833145
1763691417610948000,7.294947998046875,-0.04525616019964218,-0.4862159788608551,-0.07236820459365845
1763691417620968200,7.30496826171875,-0.010451309382915497,-0.4887840747833252,-0.04541834816336632
1763691417630989000,7.314989013671875,-0.015305719338357449,-0.4988345801830292,-0.00666402792558074
1763691417641010000,7.325010009765625,0.030361101031303406,-0.6853967308998108,-0.07800239324569702
1763691417651031000,7.335031005859375,0.06759395450353622,-0.6886764168739319,-0.14618544280529022
1763691417661051100,7.345051025390625,0.09684079140424728,-0.7011802196502686,-0.12873134016990662
1763691417671072000,7.355072021484375,-0.02352210320532322,-0.5352844595909119,-0.01678883284330368
1763691417681092900,7.3650927734375,-0.10867295414209366,-0.3952288031578064,0.03989015892148018
1763691417691114000,7.375114013671875,-0.11583659052848816,-0.37155330181121826,0.046244192868471146
1763691417701135000,7.385135009765625,-0.36548158526420593,-0.5484998822212219,-0.03537397086620331
1763691417711156200,7.39515625,-0.43660473823547363,-0.7588938474655151,-0.03928002715110779
1763691417721176000,7.405176025390625,-0.16623398661613464,-0.75090092420578,0.08002213388681412
1763691417731197200,7.415197265625,-0.14494387805461884,-0.5208269357681274,0.17736172676086426
1763691417741218000,7.425218017578125,-0.27774426341056824,-0.32909640669822693,0.15472672879695892
1763691417751239200,7.4352392578125,-0.33606430888175964,-0.1664329171180725,0.14552710950374603
1763691417761260000,7.445260009765625,-0.1482270210981369,-0.33076781034469604,0.28191956877708435
1763691417771280100,7.455280029296875,-0.07664843648672104,-0.18049973249435425,0.08901029825210571
1763691417781301000,7.465301025390625,-0.01805862970650196,-0.011328554712235928,0.012566125951707363
1763691417791322000,7.475322021484375,0.04284227266907692,0.09362529218196869,0.006412093061953783
1763691417801343000,7.485343017578125,0.07361989468336105,0.16448907554149628,0.006509298458695412
1763691417811363000,7.495363037109375,0.0573439821600914,0.20275923609733582,-0.013709686696529388
1763691417821384000,7.505384033203125,0.002007757080718875,0.22876766324043274,0.0003920173039659858
1763691417831405000,7.515405029296875,-0.05880552530288696,0.17654787003993988,-0.03136777505278587
1763691417841426200,7.52542626953125,-0.0895242914557457,0.09411557763814926,-0.07606307417154312
1763691417851447000,7.535447021484375,-0.09989170730113983,0.0483667328953743,-0.09856545180082321
1763691417861467100,7.545467041015625,-0.11966967582702637,0.03786935284733772,-0.11351404339075089
1763691417871488000,7.555488037109375,-0.13935096561908722,0.03538675233721733,-0.1272524893283844
1763691417881509000,7.565509033203125,-0.15076766908168793,0.031147532165050507,-0.11795619875192642
1763691417891530000,7.575530029296875,-0.16773547232151031,0.049793388694524765,-0.09626741707324982
1763691417901551000,7.585551025390625,-0.17697611451148987,0.10753311961889267,-0.09808928519487381
1763691417911571000,7.595571044921875,-0.17317017912864685,0.1324954628944397,-0.09313766658306122
1763691417921592000,7.605592041015625,-0.16701668500900269,0.1350925713777542,-0.07913370430469513
1763691417931613000,7.615613037109375,-0.15553127229213715,0.19424989819526672,-0.09438136219978333
1763691417941634000,7.625634033203125,-0.15835689008235931,0.2299346625804901,-0.10479938238859177
1763691417951655200,7.6356552734375,-0.1515708863735199,0.254416823387146,-0.10668542981147766
1763691417961675000,7.645675048828125,-0.15439915657043457,0.3313601016998291,-0.13879276812076569
1763691417971696000,7.655696044921875,-0.17491962015628815,0.3560619652271271,-0.12478214502334595
1763691417981717000,7.665717041015625,-0.18666335940361023,0.4312928020954132,-0.14163994789123535
1763691417991738000,7.675738037109375,-0.18759280443191528,0.4645746052265167,-0.131446972489357
1763691418001759000,7.685759033203125,-0.17531909048557281,0.49490267038345337,-0.12418825924396515
1763691418011779000,7.695779052734375,-0.1629798710346222,0.5149387121200562,-0.13258467614650726
1763691418021800000,7.705800048828125,-0.17310573160648346,0.524215579032898,-0.1409565806388855
1763691418031821000,7.715821044921875,-0.19225811958312988,0.5058621168136597,-0.15109044313430786
1763691418041842000,7.725842041015625,-0.20738327503204346,0.47542378306388855,-0.1654944270849228
1763691418051863000,7.735863037109375,-0.20702402293682098,0.4663922190666199,-0.1790807992219925
1763691418061883000,7.7458828125,-0.2066330760717392,0.4725459814071655,-0.18814539909362793
1763691418071904000,7.755904052734375,-0.2034255564212799,0.48065876960754395,-0.19047513604164124
1763691418081925000,7.765925048828125,-0.2020292580127716,0.49408987164497375,-0.20654039084911346
1763691418091946200,7.7759462890625,-0.20057091116905212,0.444266676902771,-0.19109751284122467
1763691418101967000,7.785967041015625,-0.1998731642961502,0.4152477979660034,-0.20003855228424072
1763691418111987200,7.7959873046875,-0.1963346302509308,0.3887919485569,-0.2273990660905838
1763691418122008000,7.806008056640625,-0.18964636325836182,0.3632863163948059,-0.2592020034790039
1763691418132029200,7.816029296875,-0.18564710021018982,0.3542962968349457,-0.2874530851840973
1763691418142050800,7.82605078125,-0.18758881092071533,0.3570537269115448,-0.3073594272136688
1763691418152071700,7.83607177734375,-0.18589796125888824,0.3619968295097351,-0.32038867473602295
1763691418162091800,7.846091796875,-0.1857786476612091,0.3630290627479553,-0.3221362233161926
1763691418172112600,7.856112548828125,-0.19122003018856049,0.3503897190093994,-0.3213447332382202
1763691418182133800,7.8661337890625,-0.19243602454662323,0.33946356177330017,-0.31293049454689026
1763691418192154600,7.876154541015625,-0.1979367882013321,0.32377567887306213,-0.2978042662143707
1763691418202175700,7.88617578125,-0.20249797403812408,0.3074563443660736,-0.2828114628791809
1763691418212195600,7.896195556640625,-0.20850607752799988,0.28503626585006714,-0.2685867249965668
1763691418222216700,7.906216796875,-0.2147493213415146,0.26278793811798096,-0.2629871666431427
1763691418232237600,7.916237548828125,-0.21985086798667908,0.24197961390018463,-0.26840296387672424
1763691418242258700,7.9262587890625,-0.22726990282535553,0.23524421453475952,-0.27514687180519104
1763691418252279800,7.93627978515625,-0.23007315397262573,0.24689899384975433,-0.2885891795158386
1763691418262300000,7.9462998046875,-0.2320960909128189,0.26773902773857117,-0.31128570437431335
1763691418272320800,7.95632080078125,-0.23513874411582947,0.28042128682136536,-0.33825528621673584
1763691418282341600,7.966341552734375,-0.23288437724113464,0.30248716473579407,-0.36914023756980896
1763691418292362800,7.97636279296875,-0.23355869948863983,0.33673515915870667,-0.3948919177055359
1763691418302382600,7.986382568359375,-0.23734304308891296,0.37426307797431946,-0.4195789098739624
1763691418312403700,7.99640380859375,-0.2515219748020172,0.4272141754627228,-0.43211811780929565
1763691418322424600,8.006424560546876,-0.27403393387794495,0.47087350487709045,-0.43506383895874023
1763691418332445700,8.01644580078125,-0.302307665348053,0.49345526099205017,-0.43079879879951477
1763691418342466600,8.026466552734375,-0.3339417576789856,0.4987717270851135,-0.414866179227829
1763691418352486700,8.036486572265625,-0.37307024002075195,0.48015809059143066,-0.3903065025806427
1763691418362507500,8.046507568359376,-0.4076937437057495,0.44847312569618225,-0.35828331112861633
1763691418372528600,8.056528564453124,-0.4248623549938202,0.4230460524559021,-0.3216765820980072
1763691418382549800,8.0665498046875,-0.41363924741744995,0.38779860734939575,-0.29374879598617554
1763691418392570600,8.076570556640625,-0.3699578046798706,0.3596377968788147,-0.2762497067451477
1763691418402590700,8.0865908203125,-0.2907993495464325,0.3567458689212799,-0.2554810345172882
1763691418412611800,8.09661181640625,-0.21431602537631989,0.36416250467300415,-0.24397778511047363
1763691418422632700,8.1066328125,-0.1521860659122467,0.38580814003944397,-0.2363068163394928
1763691418432653600,8.116653564453125,-0.10709928721189499,0.4222218096256256,-0.2274310290813446
1763691418442674700,8.1266748046875,-0.08715780824422836,0.4222721457481384,-0.2283703237771988
1763691418452694500,8.136694580078125,-0.09815266728401184,0.38428881764411926,-0.24254633486270905
1763691418462715600,8.146715576171875,-0.13819195330142975,0.3296716511249542,-0.27225175499916077
1763691418472736500,8.156736572265626,-0.19930511713027954,0.24247601628303528,-0.3093160390853882
1763691418482757600,8.166757568359374,-0.2551017999649048,0.13427364826202393,-0.3358227610588074
1763691418492778800,8.17677880859375,-0.3165547847747803,0.09495926648378372,-0.3550979197025299
1763691418502798600,8.186798583984375,-0.3525085151195526,0.09149396419525146,-0.3621464967727661
1763691418512819700,8.19681982421875,-0.34550121426582336,0.09370172768831253,-0.35779649019241333
1763691418522840800,8.2068408203125,-0.29229310154914856,0.163613960146904,-0.3976893126964569
1763691418532861700,8.21686181640625,-0.18832837045192719,0.057198841124773026,-0.3424558937549591
1763691418542882600,8.226882568359375,-0.0410478338599205,-0.11975036561489105,-0.22720305621623993
1763691418552902700,8.236902587890626,0.09969170391559601,-0.2601058781147003,-0.13609579205513
1763691418562923800,8.246923828125,0.205940380692482,-0.28369295597076416,-0.10753844678401947
1763691418572944600,8.256944580078125,0.287698894739151,-0.31255391240119934,-0.044553618878126144
1763691418582965500,8.266965576171875,0.3530808389186859,-0.2641184628009796,0.022952986881136894
1763691418592985600,8.276985595703126,0.4007903039455414,-0.14055924117565155,0.09761843830347061
1763691418603006700,8.2870068359375,0.4060622751712799,0.04386705532670021,0.1774645298719406
1763691418613027600,8.297027587890625,0.41419345140457153,0.08954186737537384,0.3683924078941345
1763691418623048700,8.307048583984376,0.40265610814094543,0.08456654846668243,0.6069719791412354
1763691418633069800,8.31706982421875,0.396261066198349,0.05156518891453743,0.8413301110267639
1763691418643089700,8.327089599609375,0.4108208119869232,-0.0416845977306366,1.075028657913208
1763691418653110800,8.33711083984375,0.4559909701347351,-0.18121746182441711,1.2934107780456543
1763691418663131600,8.347131591796876,0.4841938316822052,-0.3076217472553253,1.4910011291503906
1763691418673152800,8.35715283203125,0.5577349066734314,-0.404147744178772,1.6885943412780762
1763691418683173600,8.367173583984375,0.648324728012085,-0.38697460293769836,1.893255352973938
1763691418693193700,8.37719384765625,0.72393399477005,-0.30105170607566833,2.1036195755004883
1763691418703214600,8.387214599609376,0.7685592770576477,-0.27089807391166687,2.2823679447174072
1763691418713235700,8.397235595703124,0.7877670526504517,-0.29145315289497375,2.3933894634246826
1763691418723256600,8.407256591796875,0.7510998249053955,-0.2380639612674713,2.4369866847991943
1763691418733277400,8.41727734375,0.7316800951957703,-0.19551916420459747,2.4188666343688965
1763691418743297500,8.427297607421876,0.7219163775444031,-0.1806667149066925,2.343146562576294
1763691418753319000,8.43731884765625,0.7297021150588989,-0.3363378047943115,2.2396700382232666
1763691418763339800,8.44733984375,0.7111769318580627,-0.5490087866783142,2.1193885803222656
1763691418773360600,8.457360595703125,0.7023517489433289,-0.7361206412315369,1.9757829904556274
1763691418783381800,8.4673818359375,0.7009064555168152,-0.7920345067977905,1.8393217325210571
1763691418793401600,8.477401611328125,0.7158268094062805,-0.6591387391090393,1.7444804906845093
1763691418803422700,8.487422607421875,0.789989709854126,-0.33541688323020935,1.6999205350875854
1763691418813443600,8.497443603515626,0.9411749839782715,0.13491441309452057,1.6792402267456055
1763691418823464700,8.507464599609374,1.1462898254394531,0.5291642546653748,1.6811797618865967
1763691418833485600,8.517485595703125,1.3336790800094604,0.6300554275512695,1.7022120952606201
1763691418843505700,8.527505615234375,1.460807204246521,0.5093921422958374,1.7061176300048828
1763691418853526500,8.537526611328126,1.5145868062973022,0.32842928171157837,1.6614199876785278
1763691418863547600,8.547547607421874,1.5237693786621094,0.20287029445171356,1.56369149684906
1763691418873568800,8.55756884765625,1.4990134239196777,0.13997095823287964,1.4519397020339966
1763691418883589600,8.567589599609375,1.4477993249893188,0.12712280452251434,1.3597607612609863
1763691418893609700,8.577609619140626,1.3462255001068115,-0.029873210936784744,1.3147594928741455
1763691418903630800,8.587630859375,1.2451175451278687,-0.29428860545158386,1.3123024702072144
1763691418913651700,8.597651611328125,1.1518502235412598,-0.591240644454956,1.2850897312164307
1763691418923672600,8.607672607421875,1.0759668350219727,-0.8328530192375183,1.2278562784194946
1763691418933692700,8.617692626953126,0.9975668787956238,-1.00152587890625,1.123165249824524
1763691418943713800,8.6277138671875,0.9283891320228577,-1.114314317703247,0.9986526370048523
1763691418953734700,8.637734619140625,0.8952988386154175,-1.188668131828308,0.8575860857963562
1763691418963755500,8.647755615234376,0.8804780840873718,-1.2616819143295288,0.72034752368927
1763691418973776600,8.657776611328124,0.8638522028923035,-1.3021742105484009,0.5918388366699219
1763691418983796500,8.66779638671875,0.8211787939071655,-1.3331677913665771,0.4562913775444031
1763691418993817600,8.677817626953125,0.7311983108520508,-1.372332215309143,0.3144378364086151
1763691419003838700,8.687838623046876,0.6181170344352722,-1.3789421319961548,0.14558649063110352
1763691419013859800,8.69785986328125,0.5175195932388306,-1.3081191778182983,-0.05391782522201538
1763691419023880700,8.707880615234375,0.376575231552124,-1.255113959312439,-0.2691372036933899
1763691419033900800,8.71790087890625,0.2076658457517624,-1.1756969690322876,-0.4776137173175812
1763691419043921700,8.727921630859376,0.03346794471144676,-1.0826548337936401,-0.6476743817329407
1763691419053942800,8.73794287109375,-0.14794045686721802,-0.9994239211082458,-0.7598182559013367
1763691419063963600,8.747963623046875,-0.33223119378089905,-0.9044116139411926,-0.8191116452217102
1763691419073984500,8.757984619140625,-0.4721110761165619,-0.8376951813697815,-0.8471360802650452
1763691419084004600,8.768004638671876,-0.5762540102005005,-0.8256837725639343,-0.8467222452163696
1763691419094025700,8.778025634765624,-0.6594482064247131,-0.8405964374542236,-0.8056307435035706
1763691419104046600,8.788046630859375,-0.699350118637085,-0.8572528958320618,-0.7305042743682861
1763691419114067500,8.7980673828125,-0.6923076510429382,-0.8451991677284241,-0.6533998847007751
1763691419124088800,8.8080888671875,-0.6453049778938293,-0.6762125492095947,-0.5904454588890076
1763691419134108700,8.818108642578125,-0.5222682356834412,-0.48549479246139526,-0.5174252986907959
1763691419144129800,8.8281298828125,-0.3232851028442383,-0.33291882276535034,-0.39028093218803406
1763691419154150700,8.838150634765626,-0.10698610544204712,-0.25126364827156067,-0.24315886199474335
1763691419164171800,8.848171875,0.07663272321224213,-0.20258720219135284,-0.08972722291946411
1763691419174191600,8.858191650390625,0.19874824583530426,-0.14381256699562073,0.02485981024801731
1763691419184212700,8.868212646484375,0.23882243037223816,-0.0698603093624115,0.05085226148366928
1763691419194233600,8.878233642578126,0.2277519404888153,0.023251259699463844,0.008674981072545052
1763691419204254700,8.888254638671874,0.16988517343997955,0.126179501414299,-0.08697005361318588
1763691419214275600,8.898275634765625,0.04627535119652748,0.24433331191539764,-0.2534823417663574
1763691419224295700,8.908295654296875,-0.14108042418956757,0.2510146498680115,-0.4702567160129547
1763691419234316500,8.918316650390626,-0.32839706540107727,0.23591771721839905,-0.6831263899803162
1763691419244337700,8.928337646484374,-0.43843966722488403,0.3353492319583893,-0.8293848037719727
1763691419254358800,8.93835888671875,-0.41395777463912964,0.6018221974372864,-0.7778624892234802
1763691419264379600,8.948379638671875,-0.23474246263504028,0.8533609509468079,-0.5143176317214966
1763691419274399700,8.958399658203126,-0.042995136231184006,0.8850525617599487,-0.27811843156814575
1763691419284420600,8.968420654296875,0.011244931258261204,0.9590280055999756,-0.12062814831733704
1763691419294441700,8.978441650390625,-0.030239662155508995,1.2482513189315796,-0.016267653554677963
1763691419304462600,8.988462646484376,-0.08242243528366089,1.455875277519226,-0.07849667221307755
1763691419314483700,8.998483642578124,-0.15356293320655823,1.4055575132369995,-0.29248031973838806
1763691419324503600,9.008503662109375,-0.25543123483657837,1.170146107673645,-0.5252555012702942
1763691419334524700,9.018524658203125,-0.41706886887550354,0.8894385099411011,-0.6723517775535583
1763691419344545500,9.028545654296876,-0.6364651322364807,0.6208904385566711,-0.7644105553627014
1763691419354566700,9.038566650390624,-0.8484786152839661,0.37038978934288025,-0.8568955063819885
1763691419364587800,9.048587890625,-1.0031228065490723,0.15220364928245544,-0.9763465523719788
1763691419374607600,9.058607666015625,-1.0961171388626099,0.004327370319515467,-1.1242704391479492
1763691419384628700,9.068628662109376,-1.1230601072311401,-0.05317773297429085,-1.2770168781280518
1763691419394649900,9.07864990234375,-1.085423469543457,-0.07024193555116653,-1.3773796558380127
1763691419404670700,9.088670654296875,-0.9631516337394714,-0.0343683585524559,-1.3790580034255981
1763691419414690800,9.09869091796875,-0.7480587959289551,0.15346784889698029,-1.2735580205917358
1763691419424711700,9.108711669921876,-0.4908272325992584,0.4570501148700714,-1.0868333578109741
1763691419434732800,9.11873291015625,-0.22134490311145782,0.7465293407440186,-0.9029828310012817
1763691419444753700,9.128753662109375,0.04459409788250923,0.9492800235748291,-0.8475760221481323
1763691419454774500,9.1387744140625,0.23935826122760773,1.0352787971496582,-0.9358664751052856
1763691419464794600,9.148794677734376,0.31014588475227356,0.9308664202690125,-1.0124262571334839
1763691419474815500,9.1588154296875,0.28698650002479553,0.7069467306137085,-1.0240399837493896
1763691419484836600,9.168836669921875,0.21062275767326355,0.4690393805503845,-0.9699528217315674
1763691419494857500,9.178857421875,0.1012355387210846,0.26914945244789124,-0.9118173718452454
1763691419504878800,9.18887890625,-0.03189641237258911,0.17616623640060425,-0.8783382177352905
1763691419514898700,9.198898681640625,-0.16893549263477325,0.18416664004325867,-0.8679103255271912
1763691419524919800,9.208919921875,-0.29158684611320496,0.25875407457351685,-0.8806783556938171
1763691419534940700,9.218940673828126,-0.4014664590358734,0.3493736982345581,-0.9268128275871277
1763691419544961800,9.2289619140625,-0.5032671093940735,0.3924042582511902,-0.9882631301879883
1763691419554982700,9.238982666015625,-0.587268590927124,0.33394548296928406,-1.0187791585922241
1763691419565002800,9.249002685546875,-0.6409376263618469,0.21261852979660034,-1.0218298435211182
1763691419575023600,9.259023681640626,-0.6543634533882141,0.08895623683929443,-1.031172513961792
1763691419585044700,9.269044677734374,-0.6198520660400391,0.026432406157255173,-1.0615849494934082
1763691419595065600,9.279065673828125,-0.544011652469635,0.0457451194524765,-1.0974072217941284
1763691419605086500,9.28908642578125,-0.45109686255455017,0.14353612065315247,-1.0928161144256592
1763691419615106600,9.2991064453125,-0.36972931027412415,0.2858352065086365,-1.0354814529418945
1763691419625127700,9.309127685546875,-0.3161851167678833,0.4234924018383026,-0.9462887644767761
1763691419635148800,9.319148681640625,-0.2978953421115875,0.5454902052879333,-0.8599991798400879
1763691419645169700,9.329169677734376,-0.31245696544647217,0.6458943486213684,-0.7847949266433716
1763691419655189800,9.339189697265626,-0.34596192836761475,0.708174467086792,-0.7268938422203064
1763691419665210600,9.349210693359375,-0.40404069423675537,0.7320728898048401,-0.683750331401825
1763691419675231700,9.359231689453125,-0.4833261966705322,0.7396916747093201,-0.6677066683769226
1763691419685252600,9.369252685546876,-0.5438033938407898,0.7414541244506836,-0.6521229147911072
1763691419695273700,9.379273681640624,-0.5987731218338013,0.7596781253814697,-0.6441329121589661
1763691419705293600,9.38929345703125,-0.6364774107933044,0.7887380123138428,-0.6533173322677612
1763691419715314700,9.399314697265625,-0.6461347937583923,0.7934691309928894,-0.6479042172431946
1763691419725335600,9.40933544921875,-0.6281638145446777,0.7066847085952759,-0.5716107487678528
1763691419735356700,9.419356689453124,-0.6220843195915222,0.5901221632957458,-0.46176230907440186
1763691419745377800,9.429377685546875,-0.6329718828201294,0.422605037689209,-0.3179031312465668
1763691419755397600,9.439397705078125,-0.667447030544281,0.2395380288362503,-0.20835746824741364
1763691419765418800,9.449418701171876,-0.6945646405220032,0.08529385924339294,-0.1567896157503128
1763691419775439600,9.459439697265625,-0.6786626577377319,-0.03284503147006035,-0.15810814499855042
1763691419785460700,9.469460693359375,-0.6159502863883972,-0.15492141246795654,-0.18968231976032257
1763691419795481600,9.479481689453126,-0.5162675976753235,-0.23049765825271606,-0.22840814292430878
1763691419805501700,9.489501708984376,-0.3635561168193817,-0.3007691502571106,-0.2165171205997467
1763691419815522600,9.4995224609375,-0.16199102997779846,-0.23544500768184662,-0.22373881936073303
1763691419825543700,9.509543701171875,0.053467217832803726,-0.05282966047525406,-0.26379144191741943
1763691419835564500,9.519564453125,0.21631446480751038,0.18636853992938995,-0.32610008120536804
1763691419845584600,9.529584716796874,0.30220672488212585,0.40585190057754517,-0.3444788157939911
1763691419855605500,9.53960546875,0.3238840699195862,0.5028226375579834,-0.2998591661453247
1763691419865626600,9.549626708984375,0.2750408947467804,0.5126686096191406,-0.20970529317855835
1763691419875647700,9.559647705078126,0.19018778204917908,0.4748211205005646,-0.08210738748311996
1763691419885668900,9.5696689453125,0.0950642004609108,0.33327624201774597,0.1418498158454895
1763691419895688700,9.579688720703125,-0.009999903850257397,0.14640994369983673,0.435867577791214
1763691419905709800,9.589709716796875,-0.0848080962896347,-0.060441505163908005,0.7334888577461243
1763691419915730700,9.599730712890626,-0.09647700190544128,-0.2650718688964844,0.9208720922470093
1763691419925751800,9.609751708984374,-0.008417985402047634,-0.510766327381134,1.0211750268936157
1763691419935772700,9.619772705078125,0.17736786603927612,-0.6766423583030701,1.0600781440734863
1763691419945792800,9.629792724609375,0.44150710105895996,-0.759499728679657,1.151625394821167
1763691419955813600,9.639813720703126,0.723936915397644,-0.5858919620513916,1.3157275915145874
1763691419965834500,9.64983447265625,0.987849771976471,-0.27333274483680725,1.5979070663452148
1763691419975855600,9.659855712890625,1.1924726963043213,-0.05558896064758301,1.968349575996399
1763691419985876500,9.66987646484375,1.336032748222351,0.0523683987557888,2.3245463371276855
1763691419995896600,9.679896484375,1.4574673175811768,0.08396041393280029,2.5588786602020264
1763691420005917700,9.689917724609375,1.5559965372085571,0.07313812524080276,2.5994956493377686
1763691420015938800,9.699938720703125,1.6148349046707153,0.08978234976530075,2.475438117980957
1763691420025959700,9.709959716796876,1.6244646310806274,0.18408913910388947,2.279423236846924
1763691420035979800,9.719979736328124,1.5867465734481812,0.41249462962150574,2.0705225467681885
1763691420046000600,9.730000732421875,1.4950532913208008,0.6947641372680664,1.8506710529327393
1763691420056021800,9.740021728515625,1.3596454858779907,0.902289628982544,1.6427868604660034
1763691420066042600,9.750042724609376,1.1703157424926758,0.8669388294219971,1.471272349357605
1763691420076063700,9.760063720703124,0.9795945286750793,0.5627509951591492,1.3221948146820068
1763691420086083600,9.77008349609375,0.8347220420837402,0.2538165748119354,1.1976888179779053
1763691420096104700,9.780104736328125,0.7334222793579102,0.01128035131841898,1.1275088787078857
1763691420106125600,9.79012548828125,0.7117167711257935,-0.06791966408491135,1.1476119756698608
1763691420116146700,9.800146728515625,0.7540724873542786,0.10436475276947021,1.1968618631362915
1763691420126167800,9.810167724609375,0.8385729789733887,0.3181156516075134,1.1967438459396362
1763691420136187600,9.820187744140625,0.953995943069458,0.3603568375110626,1.139597773551941
1763691420146208000,9.8302080078125,1.0477629899978638,0.2915908396244049,1.0531518459320068
1763691420156229000,9.84022900390625,1.0857415199279785,0.0423613041639328,0.9987823367118835
1763691420166250000,9.85025,1.10866117477417,-0.3141805827617645,0.9752452969551086
1763691420176270800,9.860270751953125,1.1329319477081299,-0.583916425704956,0.9339407682418823
1763691420186291000,9.870291015625,1.165299892425537,-0.7995608448982239,0.8694720268249512
1763691420196312000,9.88031201171875,1.1882615089416504,-0.9721304774284363,0.7736808061599731
1763691420206333200,9.890333251953125,1.192419409751892,-1.1133930683135986,0.6645689606666565
1763691420216354000,9.90035400390625,1.175010085105896,-1.2151604890823364,0.5709716081619263
1763691420226374100,9.9103740234375,1.1315428018569946,-1.3079500198364258,0.49339213967323303
1763691420236395000,9.92039501953125,1.0407103300094604,-1.3611717224121094,0.4191130995750427
1763691420246416100,9.930416015625,0.9266154766082764,-1.3743584156036377,0.32930999994277954
1763691420256437000,9.94043701171875,0.8147507309913635,-1.3699127435684204,0.246437206864357
1763691420266458000,9.9504580078125,0.683222770690918,-1.3339797258377075,0.1683565229177475
1763691420276478000,9.96047802734375,0.5384759902954102,-1.2838000059127808,0.09081272780895233
1763691420286499000,9.9704990234375,0.40976354479789734,-1.229933261871338,0.00875034835189581
1763691420296520000,9.98052001953125,0.2750275731086731,-1.1938596963882446,-0.09425140172243118
1763691420306541000,9.990541015625,0.13474583625793457,-1.1535844802856445,-0.21422307193279266
1763691420316562000,10.00056201171875,-0.004126301966607571,-1.0799025297164917,-0.314111590385437
1763691420326582000,10.01058203125,-0.14030331373214722,-0.997852623462677,-0.3943808674812317
1763691420336603000,10.020602783203126,-0.2608952522277832,-0.931576669216156,-0.4586711823940277
1763691420346624300,10.030624267578125,-0.372498482465744,-0.8928524255752563,-0.5161160826683044
1763691420356645000,10.04064501953125,-0.47545599937438965,-0.8724028468132019,-0.5607394576072693
1763691420366666000,10.050666015625,-0.5682432055473328,-0.8512850403785706,-0.5829321146011353
1763691420376686000,10.06068603515625,-0.6317694783210754,-0.8458442091941833,-0.5700376629829407
1763691420386707000,10.07070703125,-0.6632122993469238,-0.883004367351532,-0.5376341342926025
1763691420396728000,10.08072802734375,-0.6618298888206482,-0.960864782333374,-0.5113189220428467
1763691420406749000,10.0907490234375,-0.6425619125366211,-1.0140111446380615,-0.47800785303115845
1763691420416770000,10.10077001953125,-0.6210678219795227,-1.015411138534546,-0.44286105036735535
1763691420426790000,10.110789794921875,-0.5840602517127991,-0.9675986170768738,-0.37708762288093567
1763691420436811000,10.12081103515625,-0.5141432285308838,-0.8924271464347839,-0.2676468789577484
1763691420446831900,10.130831787109376,-0.3957127034664154,-0.8321544528007507,-0.12854412198066711
1763691420456853200,10.140853271484374,-0.2251436412334442,-0.7849912047386169,-0.02816639095544815
1763691420466872800,10.150872802734375,-0.02532612904906273,-0.6990624666213989,-0.005931658670306206
1763691420476894200,10.160894287109375,0.1633918583393097,-0.49594318866729736,-0.03289536386728287
1763691420486915000,10.1709150390625,0.29110828042030334,-0.21262198686599731,-0.06099890545010567
1763691420496936200,10.180936279296875,0.35194820165634155,0.004764661658555269,-0.07047390192747116
1763691420506957000,10.19095703125,0.3715975284576416,0.13361425697803497,-0.05482276901602745
1763691420516977200,10.20097705078125,0.3830493688583374,0.17572122812271118,-0.04463884234428406
1763691420526998000,10.210998046875,0.39569035172462463,0.1424168050289154,-0.06561443209648132
1763691420537019100,10.22101904296875,0.3936295807361603,0.029686257243156433,-0.13545235991477966
1763691420547040000,10.2310400390625,0.3697788417339325,-0.1510947048664093,-0.2705417573451996
1763691420557060900,10.241060791015625,0.35513997077941895,-0.3134037256240845,-0.47850826382637024
1763691420567081000,10.2510810546875,0.31514036655426025,-0.417409211397171,-0.6792048811912537
1763691420577101800,10.261101806640625,0.1927177906036377,-0.5368754267692566,-0.7818263173103333
1763691420587123200,10.271123291015625,-0.0020357202738523483,-0.6200411319732666,-0.8008762001991272
1763691420597144000,10.28114404296875,-0.19765235483646393,-0.6543653011322021,-0.765250027179718
1763691420607165200,10.291165283203124,-0.3303523361682892,-0.5772116780281067,-0.7041136622428894
1763691420617185000,10.30118505859375,-0.37895292043685913,-0.3409472107887268,-0.6738628149032593
1763691420627206100,10.3112060546875,-0.3951404094696045,-0.036134302616119385,-0.6684531569480896
1763691420637227000,10.32122705078125,-0.3873370587825775,0.2452545017004013,-0.6190917491912842
1763691420647248100,10.331248046875,-0.31306177377700806,0.5524823665618896,-0.4823717176914215
1763691420657268000,10.34126806640625,-0.1690414845943451,0.9317753314971924,-0.3016698360443115
1763691420667289000,10.3512890625,-0.038845133036375046,1.185157060623169,-0.1951545774936676
1763691420677310000,10.36131005859375,0.067086361348629,1.257178783416748,-0.15388649702072144
1763691420687331000,10.3713310546875,0.08623155951499939,1.2160978317260742,-0.1455601304769516
1763691420697352000,10.38135205078125,0.00606455048546195,1.1015076637268066,-0.16293299198150635
1763691420707372000,10.3913720703125,-0.1340283751487732,0.9507724642753601,-0.2284475564956665
1763691420717393200,10.40139306640625,-0.3201518952846527,0.762112021446228,-0.31616008281707764
1763691420727414000,10.4114140625,-0.5643755197525024,0.5433785915374756,-0.3834238350391388
1763691420737435100,10.42143505859375,-0.8120324015617371,0.2735100984573364,-0.45408308506011963
1763691420747456000,10.4314560546875,-1.0042849779129028,0.03670581802725792,-0.554559588432312
1763691420757476000,10.44147607421875,-1.1107903718948364,-0.12202470749616623,-0.6886681318283081
1763691420767497000,10.4514970703125,-1.1358767747879028,-0.11322775483131409,-0.8594870567321777
1763691420777518000,10.46151806640625,-1.077109932899475,0.08159179985523224,-1.054996132850647
1763691420787539000,10.4715390625,-0.9129624962806702,0.4251302480697632,-1.2160459756851196
1763691420797560000,10.48156005859375,-0.6362323760986328,0.8784175515174866,-1.2571477890014648
1763691420807580000,10.491579833984375,-0.287663996219635,1.199191927909851,-1.1938461065292358
1763691420817601000,10.50160107421875,0.02917386405169964,1.3096104860305786,-1.1217628717422485
1763691420827622000,10.511621826171876,0.19741906225681305,1.174686312675476,-1.0906782150268555
1763691420837643300,10.521643310546875,0.25218671560287476,0.9355890154838562,-1.0535858869552612
1763691420847662800,10.531662841796875,0.2304486483335495,0.6781659722328186,-0.9840617179870605
1763691420857684200,10.541684326171875,0.15090030431747437,0.4444115459918976,-0.8924471139907837
1763691420867705000,10.551705078125,0.03816096857190132,0.2657909393310547,-0.8001118302345276
1763691420877726000,10.561725830078124,-0.08178887516260147,0.14805631339550018,-0.7415571808815002
1763691420887747000,10.5717470703125,-0.2018050253391266,0.12061962485313416,-0.7177368402481079
1763691420897767200,10.58176708984375,-0.31140395998954773,0.17250093817710876,-0.7367262244224548
1763691420907788000,10.5917880859375,-0.398617684841156,0.22420459985733032,-0.7905601859092712
1763691420917809000,10.601808837890625,-0.4569174647331238,0.261026531457901,-0.8700981140136719
1763691420927830000,10.611830078125,-0.4926736056804657,0.2830849587917328,-0.9191351532936096
1763691420937851000,10.621850830078126,-0.5066757202148438,0.31405165791511536,-0.9580439925193787
1763691420947871000,10.63187109375,-0.4836878478527069,0.37377092242240906,-0.9997256398200989
1763691420957891800,10.641891845703125,-0.45915213227272034,0.4509240388870239,-1.050517201423645
1763691420967913200,10.651913330078125,-0.4468984007835388,0.5431186556816101,-1.0982223749160767
1763691420977934000,10.66193408203125,-0.4502646327018738,0.6564868092536926,-1.0895044803619385
1763691420987955200,10.671955078125,-0.46101608872413635,0.6950197815895081,-1.03633451461792
1763691420997975000,10.68197509765625,-0.4829442799091339,0.6969897150993347,-0.9793420433998108
1763691421007996200,10.69199609375,-0.5117258429527283,0.7370439171791077,-0.9425390362739563
1763691421018017000,10.70201708984375,-0.5532112717628479,0.8120744824409485,-0.9173710942268372
1763691421028038100,10.7120380859375,-0.6120162606239319,0.8909653425216675,-0.9224311113357544
1763691421038058000,10.72205810546875,-0.6816009283065796,0.9698995351791382,-0.9436929821968079
1763691421048079000,10.7320791015625,-0.7582895755767822,1.021845817565918,-0.9677956700325012
1763691421058100000,10.742099853515626,-0.8269477486610413,1.0372143983840942,-0.9829698204994202
1763691421068120800,10.752120849609375,-0.8884134888648987,1.0486116409301758,-0.9893661737442017
1763691421078142000,10.762141845703125,-0.9352952241897583,1.0581660270690918,-0.9936357736587524
1763691421088162000,10.772162109375,-0.9610626697540283,1.0746725797653198,-0.9890871047973633
1763691421098183200,10.78218310546875,-0.9572849869728088,1.1010512113571167,-0.9505687355995178
1763691421108204000,10.7922041015625,-0.9358752965927124,1.1176173686981201,-0.8406233191490173
1763691421118225200,10.80222509765625,-0.93329918384552,1.0404759645462036,-0.637717068195343
1763691421128246000,10.81224609375,-0.9650683403015137,0.8504453301429749,-0.41069191694259644
1763691421138266000,10.82226611328125,-0.9984622001647949,0.595352828502655,-0.24812085926532745
1763691421148287500,10.83228759765625,-0.9830358624458313,0.31746557354927063,-0.18637439608573914
1763691421158308600,10.84230859375,-0.8922896981239319,0.05319371446967125,-0.2133636772632599
1763691421168329500,10.85232958984375,-0.7152968049049377,-0.17740140855312347,-0.25377926230430603
1763691421178350600,10.8623505859375,-0.48687830567359924,-0.3442780077457428,-0.25280189514160156
1763691421188370400,10.872370361328125,-0.25103676319122314,-0.40316611528396606,-0.217688649892807
1763691421198391600,10.8823916015625,-0.023362847045063972,-0.32753393054008484,-0.19406960904598236
1763691421208412700,10.89241259765625,0.20606234669685364,-0.08925717324018478,-0.1947748064994812
1763691421218433500,10.90243359375,0.4444357752799988,0.21242278814315796,-0.2363813817501068
1763691421228453600,10.91245361328125,0.6556974053382874,0.39989760518074036,-0.31750980019569397
1763691421238474500,10.922474609375,0.7824034094810486,0.4372260570526123,-0.38498708605766296
1763691421248495600,10.93249560546875,0.8115085959434509,0.3560555875301361,-0.3948112428188324
1763691421258516500,10.9425166015625,0.7545667290687561,0.20376084744930267,-0.2898741662502289
1763691421268537600,10.95253759765625,0.6116037368774414,0.0295493695884943,-0.09461864829063416
1763691421278557400,10.962557373046875,0.4369294047355652,-0.21681620180606842,0.17362478375434875
1763691421288578600,10.97257861328125,0.3023734390735626,-0.44347891211509705,0.46431148052215576
1763691421298599400,10.982599365234375,0.24032258987426758,-0.5921338796615601,0.7752986550331116
1763691421308620800,10.992620849609375,0.2896464765071869,-0.7031813263893127,1.1194077730178833
1763691421318641700,11.0026416015625,0.42753562331199646,-0.8293360471725464,1.4270771741867065
1763691421328661800,11.012661865234374,0.6378172039985657,-0.8680831789970398,1.6672708988189697
1763691421338682600,11.0226826171875,0.9146608114242554,-0.672748327255249,1.914393663406372
1763691421348703700,11.032703857421875,1.180172085762024,-0.4616115689277649,2.160735845565796
1763691421358724600,11.042724609375,1.3885676860809326,-0.29616615176200867,2.4072916507720947
1763691421368744700,11.05274462890625,1.5429191589355469,-0.04759494960308075,2.6333253383636475
1763691421378765600,11.062765625,1.7290434837341309,0.13829928636550903,2.802558422088623
1763691421388786400,11.072786376953125,1.8992716073989868,0.15861813724040985,2.855111598968506
1763691421398807600,11.0828076171875,1.9897844791412354,0.07944262772798538,2.7691140174865723
1763691421408828400,11.092828369140625,1.9666624069213867,0.11590423434972763,2.5782713890075684
1763691421418848500,11.1028486328125,1.8834269046783447,0.3151289224624634,2.3360047340393066
1763691421428869400,11.112869384765625,1.7377715110778809,0.6294881701469421,2.044799566268921
1763691421438890800,11.122890869140624,1.4985418319702148,0.8423647880554199,1.7519149780273438
1763691421448911600,11.13291162109375,1.1907459497451782,0.6981220841407776,1.51285982131958
1763691421458932700,11.1429326171875,0.8785216808319092,0.3171718418598175,1.377703070640564
1763691421468952600,11.15295263671875,0.6770517230033875,-0.06613986939191818,1.2784483432769775
1763691421478973700,11.1629736328125,0.5711087584495544,-0.2349829524755478,1.255314826965332
1763691421488994600,11.17299462890625,0.5503893494606018,-0.14270122349262238,1.2835416793823242
1763691421499015700,11.183015625,0.643174946308136,0.12745222449302673,1.3049523830413818
1763691421509036500,11.19303662109375,0.8343822360038757,0.39294275641441345,1.2800744771957397
1763691421519056600,11.203056640625,1.0278171300888062,0.4423055052757263,1.2152765989303589
1763691421529077500,11.213077392578125,1.1423370838165283,0.21239374577999115,1.1206424236297607
1763691421539098600,11.2230986328125,1.180692434310913,-0.22590850293636322,1.0391521453857422
1763691421549119500,11.233119384765626,1.177388072013855,-0.6185758709907532,0.9755140542984009
1763691421559139600,11.2431396484375,1.1720675230026245,-0.917822003364563,0.9473332762718201
1763691421569160700,11.25316064453125,1.170234203338623,-1.1543549299240112,0.923585057258606
1763691421579181600,11.263181640625,1.1521308422088623,-1.3827012777328491,0.8834389448165894
1763691421589202700,11.27320263671875,1.1164796352386475,-1.5689460039138794,0.8157216906547546
1763691421599223600,11.2832236328125,1.0692131519317627,-1.7337650060653687,0.7274765372276306
1763691421609243600,11.29324365234375,1.0001802444458008,-1.8375142812728882,0.6172831654548645
1763691421619264500,11.303264404296876,0.8861340880393982,-1.8560941219329834,0.49515673518180847
1763691421629285600,11.31328564453125,0.7427945137023926,-1.790213942527771,0.3808149993419647
1763691421639306500,11.323306396484375,0.6053841710090637,-1.6955989599227905,0.27194735407829285
1763691421649327600,11.33332763671875,0.4822428226470947,-1.5679147243499756,0.13721564412117004
1763691421659347500,11.343347412109376,0.3495793044567108,-1.4354305267333984,-0.04761625453829765
1763691421669368600,11.35336865234375,0.2010881006717682,-1.3097724914550781,-0.26732492446899414
1763691421679389400,11.363389404296875,0.058763712644577026,-1.1879799365997314,-0.4931223690509796
1763691421689410600,11.37341064453125,-0.08217503130435944,-1.0833086967468262,-0.7002789974212646
1763691421699430700,11.3834306640625,-0.2188953310251236,-0.9771220684051514,-0.8926345705986023
1763691421709451800,11.39345166015625,-0.35069409012794495,-0.8418470621109009,-1.0605509281158447
1763691421719472600,11.40347265625,-0.48722371459007263,-0.7226492762565613,-1.1813406944274902
1763691421729493500,11.413493408203125,-0.6073546409606934,-0.6095137000083923,-1.2502264976501465
1763691421739514600,11.4235146484375,-0.6961290240287781,-0.498294472694397,-1.277898907661438
1763691421749534700,11.43353466796875,-0.7638425230979919,-0.40579038858413696,-1.260570764541626
1763691421759555600,11.4435556640625,-0.8104987144470215,-0.39715349674224854,-1.1828440427780151
1763691421769576400,11.453576416015625,-0.8685444593429565,-0.4363291263580322,-1.0554461479187012
1763691421779597600,11.46359765625,-0.9384018182754517,-0.45323166251182556,-0.8878219723701477
1763691421789618400,11.473618408203125,-0.9717448353767395,-0.44103333353996277,-0.6957963705062866
1763691421799638500,11.483638427734375,-0.9286866188049316,-0.43017908930778503,-0.4467431306838989
1763691421809659400,11.493659423828126,-0.7638223171234131,-0.47804805636405945,-0.15536056458950043
1763691421819680800,11.5036806640625,-0.47045913338661194,-0.6147161722183228,0.0664738342165947
1763691421829701600,11.51370166015625,-0.09512890875339508,-0.6824784278869629,0.15300525724887848
1763691421839721700,11.5237216796875,0.24455249309539795,-0.5372690558433533,0.16189728677272797
1763691421849742600,11.53374267578125,0.4814976453781128,-0.3175089955329895,0.16766250133514404
1763691421859763700,11.543763671875,0.5885436534881592,-0.2001914083957672,0.20008541643619537
1763691421869784600,11.55378466796875,0.6083091497421265,-0.15747538208961487,0.22134943306446075
1763691421879805400,11.563805419921875,0.5807105302810669,-0.08885716646909714,0.17498566210269928
1763691421889825500,11.573825439453126,0.5361270904541016,0.01258130557835102,0.019294869154691696
1763691421899846700,11.5838466796875,0.4370335340499878,0.05765850096940994,-0.2628239095211029
1763691421909867500,11.593867431640625,0.26058924198150635,0.0037710361648350954,-0.5906156301498413
1763691421919888400,11.603888427734375,0.04429928585886955,-0.17670100927352905,-0.8545085191726685
1763691421929909500,11.613909423828124,-0.19218222796916962,-0.3530499339103699,-1.0557236671447754
1763691421939929600,11.6239296875,-0.39447885751724243,-0.4639357030391693,-1.1742711067199707
1763691421949950700,11.63395068359375,-0.5108267664909363,-0.4362260401248932,-1.1579389572143555
1763691421959971600,11.6439716796875,-0.5570379495620728,-0.2856338918209076,-0.9997530579566956
1763691421969992700,11.65399267578125,-0.6065072417259216,-0.09179916232824326,-0.7124632596969604
1763691421980013600,11.664013671875,-0.6441590189933777,0.14502136409282684,-0.3367745578289032
1763691421990033700,11.67403369140625,-0.6311507821083069,0.3939438462257385,0.07611846923828125
1763691422000054500,11.684054443359376,-0.5763067007064819,0.7649091482162476,0.4288690686225891
1763691422010075600,11.69407568359375,-0.49872323870658875,1.0149863958358765,0.5347630381584167
1763691422020096500,11.704096435546875,-0.4348643720149994,1.006374478340149,0.4035322964191437
1763691422030116600,11.71411669921875,-0.37221431732177734,0.8697772026062012,0.21439166367053986
1763691422040137500,11.724137451171876,-0.3201114237308502,0.7200881242752075,0.06729781627655029
1763691422050158600,11.73415869140625,-0.3273965120315552,0.6085272431373596,-0.09683945775032043
1763691422060179500,11.744179443359375,-0.420541375875473,0.5131772756576538,-0.3009076416492462
1763691422070200600,11.75420068359375,-0.5616084933280945,0.40208539366722107,-0.5823915004730225
1763691422080220700,11.764220703125,-0.7235811352729797,0.20733854174613953,-0.9048931002616882
1763691422090241800,11.77424169921875,-0.865532398223877,-0.06321784853935242,-1.1773669719696045
1763691422100262700,11.7842626953125,-0.9443478584289551,-0.3343505561351776,-1.347747802734375
1763691422110283500,11.794283447265625,-0.9202547669410706,-0.49801111221313477,-1.4224276542663574
1763691422120304600,11.8043046875,-0.7940917611122131,-0.39399096369743347,-1.390869140625
1763691422130324500,11.814324462890625,-0.5809856057167053,-0.11396225541830063,-1.2445117235183716
1763691422140345600,11.824345703125,-0.3308953642845154,0.2359006702899933,-1.0213009119033813
1763691422150366000,11.834365966796875,-0.05878528580069542,0.6061719655990601,-0.797452449798584
1763691422160387000,11.844386962890624,0.24118465185165405,0.7798635959625244,-0.6534467935562134
1763691422170407200,11.8544072265625,0.5001110434532166,0.7429612278938293,-0.6588282585144043
1763691422180428000,11.864427978515625,0.6429664492607117,0.6168379187583923,-0.7885937094688416
1763691422190449000,11.874448974609376,0.6405059695243835,0.49769046902656555,-0.9536454677581787
1763691422200470000,11.884469970703124,0.5630167722702026,0.4126474857330322,-1.0587955713272095
1763691422210491100,11.8944912109375,0.4314906895160675,0.4200710356235504,-1.0977057218551636
1763691422220511200,11.90451123046875,0.27114254236221313,0.5838519930839539,-1.0905410051345825
1763691422230532000,11.914531982421876,0.10224035382270813,0.8308380842208862,-1.0967621803283691
1763691422240553200,11.92455322265625,-0.07148084044456482,1.0130398273468018,-1.1165801286697388
1763691422250574000,11.934573974609375,-0.24920609593391418,1.1023015975952148,-1.1205439567565918
1763691422260594200,11.94459423828125,-0.4173743426799774,1.1361855268478394,-1.0924241542816162
1763691422270615000,11.954614990234376,-0.5651051998138428,1.105597972869873,-1.0518794059753418
1763691422280636200,11.96463623046875,-0.6822816133499146,1.0282517671585083,-1.0159626007080078
1763691422290657000,11.974656982421875,-0.7630342841148376,0.9623244404792786,-0.974905252456665
1763691422300678000,11.984677978515625,-0.7951067090034485,0.9043455719947815,-0.9405992031097412
1763691422310698000,11.994697998046876,-0.7950963377952576,0.8724651336669922,-0.9218435883522034
1763691422320719000,12.004718994140624,-0.7772643566131592,0.8983502984046936,-0.9076782464981079
1763691422330740000,12.014739990234375,-0.7391664981842041,0.9861863851547241,-0.8888891339302063
1763691422340761000,12.024760986328126,-0.6669721603393555,1.1087546348571777,-0.877634584903717
1763691422350782200,12.0347822265625,-0.5498104095458984,1.216628909111023,-0.8648104071617126
1763691422360802000,12.044802001953125,-0.41120991110801697,1.2633546590805054,-0.8262872695922852
1763691422370823200,12.0548232421875,-0.3063253164291382,1.2589422464370728,-0.7830415368080139
1763691422380844000,12.064843994140626,-0.27131059765815735,1.2185724973678589,-0.7414386868476868
1763691422390865200,12.074865234375,-0.29666867852211,1.1455142498016357,-0.7014662623405457
1763691422400886000,12.084885986328125,-0.3507196605205536,1.034671664237976,-0.6685285568237305
1763691422410906000,12.094906005859375,-0.41902363300323486,0.8679763674736023,-0.6478022336959839
1763691422420927000,12.104927001953126,-0.49845293164253235,0.685759961605072,-0.6370731592178345
1763691422430948000,12.114947998046874,-0.5670852661132812,0.534974217414856,-0.6253038048744202
1763691422440969000,12.124968994140625,-0.624568521976471,0.4338158965110779,-0.6062273383140564
1763691422450989000,12.134989013671875,-0.6695581078529358,0.3954847455024719,-0.5758627653121948
1763691422461010000,12.145010009765626,-0.6996427774429321,0.3957750201225281,-0.5159861445426941
1763691422471031300,12.15503125,-0.6955202221870422,0.4079400897026062,-0.430522620677948
1763691422481052200,12.16505224609375,-0.6508831977844238,0.4367549419403076,-0.3668525815010071
1763691422491073000,12.175072998046875,-0.5743146538734436,0.4509749114513397,-0.3521846830844879
1763691422501093000,12.185093017578126,-0.465751975774765,0.43485957384109497,-0.37094956636428833
1763691422511114200,12.1951142578125,-0.34545406699180603,0.3928713798522949,-0.37837472558021545
1763691422521135000,12.205135009765625,-0.24829183518886566,0.35291942954063416,-0.3717288076877594
1763691422531156000,12.215156005859376,-0.20107771456241608,0.3449459373950958,-0.36773645877838135
1763691422541176000,12.225176025390626,-0.199983149766922,0.3409309685230255,-0.3885858356952667
1763691422551197000,12.235197021484375,-0.22900442779064178,0.3172368109226227,-0.42807596921920776
1763691422561218000,12.245218017578125,-0.2590416967868805,0.2803317904472351,-0.4720980226993561
1763691422571239000,12.255239013671876,-0.2861185669898987,0.27259185910224915,-0.5009632110595703
1763691422581260300,12.26526025390625,-0.3041127622127533,0.29999950528144836,-0.5055997967720032
1763691422591279900,12.27527978515625,-0.30169379711151123,0.33383336663246155,-0.47594231367111206
1763691422601301200,12.28530126953125,-0.2747220993041992,0.34094613790512085,-0.41745901107788086
1763691422611322000,12.295322021484376,-0.2313016653060913,0.3479529023170471,-0.3803638517856598
1763691422621343200,12.30534326171875,-0.17945897579193115,0.31049102544784546,-0.32932597398757935
1763691422631364000,12.315364013671875,-0.12154773622751236,0.22040480375289917,-0.20528924465179443
1763691422641384200,12.32538427734375,-0.06799769401550293,0.06228361278772354,-0.0009720537927933037
1763691422651405000,12.335405029296876,-0.012897688895463943,-0.1580578088760376,0.252846360206604
1763691422661426200,12.34542626953125,0.06561895459890366,-0.3491278886795044,0.5000332593917847
1763691422671447000,12.355447021484375,0.20043136179447174,-0.40049147605895996,0.7115971446037292
1763691422681467100,12.365467041015625,0.37991297245025635,-0.47267860174179077,0.9702231287956238
1763691422691488000,12.375488037109376,0.587047278881073,-0.5329475402832031,1.298595666885376
1763691422701509000,12.385509033203125,0.8011323809623718,-0.4760752022266388,1.643921971321106
1763691422711530000,12.395530029296875,0.999710202217102,-0.3947097659111023,2.001469850540161
1763691422721551000,12.405551025390626,1.206398606300354,-0.3665524423122406,2.3392977714538574
1763691422731571200,12.4155712890625,1.398262619972229,-0.38836798071861267,2.6191391944885254
1763691422741592000,12.425592041015625,1.5497698783874512,-0.4304187595844269,2.7929747104644775
1763691422751613200,12.43561328125,1.7015445232391357,-0.4493381083011627,2.8391361236572266
1763691422761634000,12.445634033203126,1.8191970586776733,-0.5102291703224182,2.759469509124756
1763691422771655200,12.4556552734375,1.8547379970550537,-0.5728997588157654,2.6035549640655518
1763691422781675000,12.465675048828125,1.7997677326202393,-0.4359709322452545,2.424053430557251
1763691422791696100,12.475696044921875,1.665078043937683,-0.012016182765364647,2.2358832359313965
