time,seconds_elapsed,z,y,x
1763697199126088200,0.218088134765625,-0.0847550556063652,-0.02764083817601204,0.28938889503479004
1763697199135675600,0.227675537109375,-0.07986827939748764,-0.004428642801940441,0.28938889503479004
1763697199145262600,0.2372626953125,-0.07009471952915192,0.021226942539215088,0.31382277607917786
1763697199154850300,0.246850341796875,-0.05665608495473862,0.037108972668647766,0.3639122545719147
1763697199164438500,0.2564384765625,-0.04199574887752533,0.04077405482530594,0.41888850927352905
1763697199174026200,0.266026123046875,-0.033443886786699295,0.018783552572131157,0.47264307737350464
1763697199183613200,0.27561328125,-0.031000498682260513,-0.06062658876180649,0.5312843918800354
1763697199193200600,0.28520068359375,-0.02489202655851841,-0.1510319858789444,0.5960342288017273
1763697199202789000,0.2947890625,-0.010231691412627697,-0.2279987335205078,0.6621584296226501
1763697199212376600,0.30437646484375,0.012980503961443901,-0.28664007782936096,0.712247908115387
1763697199221963500,0.313963623046875,0.022754060104489326,-0.3049654960632324,0.6988092660903931
1763697199231549400,0.323549560546875,-0.02244863659143448,-0.30252209305763245,0.5325061082839966
1763697199241138000,0.333137939453125,-0.05665608495473862,-0.25121092796325684,0.2283041626214981
1763697199250725400,0.342725341796875,0.12904147803783417,-0.09361234307289124,-0.0050394898280501366
1763697199260312300,0.352312255859375,0.4808894991874695,0.111632339656353,-0.18707197904586792
1763697199269899800,0.361899658203125,0.7496622800827026,0.5783196687698364,-0.4424061179161072
1763697199279488300,0.37148828125,0.9512419104576111,1.047450304031372,-0.7991409301757812
1763697199289075700,0.38107568359375,1.2224581241607666,1.1610679626464844,-1.1351069211959839
1763697199298662700,0.39066259765625,1.492452621459961,1.0987615585327148,-1.398992896080017
1763697199308250400,0.40025048828125,1.6842585802078247,0.9558232426643372,-1.5553698539733887
1763697199317838800,0.4098388671875,1.7697771787643433,0.793337881565094,-1.5920206308364868
1763697199327426300,0.41942626953125,1.7367914915084839,0.6662816405296326,-1.5297142267227173
1763697199337013000,0.429012939453125,1.5950748920440674,0.5086830258369446,-1.3965495824813843
1763697199346600700,0.4386005859375,1.4386980533599854,0.19348587095737457,-1.210852026939392
1763697199356189200,0.448189208984375,1.3238587379455566,-0.19989976286888123,-0.9982771277427673
1763697199365776600,0.457776611328125,1.223679780960083,-0.5053234100341797,-0.7954758405685425
1763697199375363600,0.467363525390625,1.1002886295318604,-0.6360446810722351,-0.6855233311653137
1763697199384951300,0.476951416015625,0.9243646264076233,-0.3465031087398529,-0.9530744552612305
1763697199394539500,0.48653955078125,0.7276718020439148,-0.04840964451432228,-1.2719366550445557
1763697199404127200,0.496127197265625,0.6372663974761963,0.029778804630041122,-1.4771814346313477
1763697199413714000,0.5057138671875,0.6152759194374084,-0.058183200657367706,-1.6335582733154297
1763697199423301600,0.515301513671875,0.5358657836914062,-0.1363716572523117,-1.6738742589950562
1763697199432890000,0.52489013671875,0.4540122151374817,-0.07040014863014221,-1.5907989740371704
1763697199442477600,0.5344775390625,0.45767730474472046,0.1507265567779541,-1.4612993001937866
1763697199452064500,0.544064453125,0.5053234100341797,0.4634803533554077,-1.3586770296096802
1763697199461652000,0.55365185546875,0.5920637249946594,0.6577298045158386,-1.3281346559524536
1763697199471240400,0.563240478515625,0.5126535892486572,0.9142856597900391,-1.2413944005966187
1763697199480828200,0.572828125,-0.34253260493278503,1.537349820137024,-0.9139801859855652
1763697199490414800,0.582414794921875,0.21089501678943634,1.0364550352096558,-0.964069664478302
1763697199500002600,0.59200244140625,0.3306210935115814,0.9350544214248657,-0.7893673777580261
1763697199509591000,0.601591064453125,0.4527905285358429,0.6907155513763428,-0.6134433746337891
1763697199519178500,0.611178466796875,0.5493044257164001,0.49646610021591187,-0.39109495282173157
1763697199528765400,0.620765380859375,0.677582323551178,0.5563291311264038,-0.22005772590637207
1763697199538353000,0.630352783203125,0.728893518447876,0.603975236415863,-0.22127941250801086
1763697199547941400,0.63994140625,0.677582323551178,0.448820024728775,-0.35444411635398865
1763697199557529000,0.649529052734375,0.6055023670196533,0.31443363428115845,-0.45706647634506226
1763697199567115800,0.65911572265625,0.5981721878051758,0.3242071866989136,-0.4277457892894745
1763697199576703500,0.668703369140625,0.654370129108429,0.402395635843277,-0.33978378772735596
1763697199586292000,0.6782919921875,0.7044596076011658,0.42072105407714844,-0.24449162185192108
1763697199595879400,0.68787939453125,0.705681324005127,0.3315373361110687,-0.15775130689144135
1763697199605466400,0.69746630859375,0.6665870547294617,0.16172181069850922,-0.09177979826927185
1763697199615053800,0.7070537109375,0.6128324866294861,0.03588727489113808,-0.01847812905907631
1763697199624642300,0.716642333984375,0.5700731873512268,-0.008093725889921188,0.06337540596723557
1763697199634229800,0.726229736328125,0.5285356044769287,-0.04107947647571564,0.1378987729549408
1763697199643816700,0.735816650390625,0.45523393154144287,-0.10582929104566574,0.22708246111869812
1763697199653404400,0.745404296875,0.3379512429237366,-0.21211670339107513,0.29794076085090637
1763697199662993000,0.754992919921875,0.18768282234668732,-0.30985227227211,0.32970482110977173
1763697199672580400,0.764580322265625,0.0068720318377017975,-0.39048412442207336,0.3187095522880554
1763697199682167300,0.774167236328125,-0.2020377367734909,-0.4796678125858307,0.266176700592041
1763697199691754800,0.783754638671875,-0.4378247857093811,-0.5224271416664124,0.1635543555021286
1763697199701343200,0.79334326171875,-0.6699467301368713,-0.4772244095802307,0.05604523420333862
1763697199710931000,0.802930908203125,-0.8654178380966187,-0.33917292952537537,-0.049020491540431976
1763697199720517600,0.812517578125,-1.0120211839675903,-0.10705098509788513,-0.21394924819469452
1763697199730105300,0.822105224609375,-1.0938746929168701,0.30221667885780334,-0.43018919229507446
1763697199739693800,0.83169384765625,-1.1305255889892578,0.8861866593360901,-0.6476507782936096
1763697199749281300,0.84128125,-1.1512943506240845,1.543458342552185,-0.7685985565185547
1763697199758868200,0.8508681640625,-1.1806150674819946,2.1188764572143555,-0.7527165412902832
1763697199768455700,0.86045556640625,-1.1745065450668335,2.329007863998413,-0.6329904794692993
1763697199778044200,0.870044189453125,-1.0865445137023926,1.889197826385498,-0.4766135811805725
1763697199787631900,0.8796318359375,-0.969261884689331,1.057223916053772,-0.3581092059612274
1763697199797218600,0.889218505859375,-0.8532009124755859,0.2948864996433258,-0.28602921962738037
1763697199806806300,0.89880615234375,-0.8202151656150818,-0.17913095653057098,-0.2163926362991333
1763697199816394800,0.908394775390625,-0.871526300907135,-0.5383091568946838,-0.12354385852813721
1763697199825982200,0.917982177734375,-0.9362761378288269,-1.121057391166687,-0.014813045971095562
1763697199835569200,0.927569091796875,-0.950936496257782,-1.9249324798583984,0.1366770714521408
1763697199845156600,0.937156494140625,-0.8971819281578064,-2.693531036376953,0.2967190444469452
1763697199854745000,0.9467451171875,-0.8031114339828491,-3.2408502101898193,0.3370349705219269
1763697199864332500,0.95633251953125,-0.6943806409835815,-3.5108447074890137,0.1916533261537552
1763697199873919500,0.96591943359375,-0.5905365943908691,-3.1699917316436768,-0.03436015918850899
1763697199883507200,0.975507080078125,-0.40606072545051575,-1.7917677164077759,-0.1650814712047577
1763697199893095700,0.985095703125,-0.1910424828529358,-0.8046385645866394,-0.2786990702152252
1763697199902683100,0.99468310546875,0.0007635590736754239,-0.1913478970527649,-0.31412819027900696
1763697199912270000,1.00427001953125,0.1656923145055771,0.08231166750192642,-0.27747735381126404
1763697199921857500,1.013857421875,0.28541839122772217,0.2020377367734909,-0.2176143378019333
1763697199931446000,1.023446044921875,0.36360684037208557,0.2276933193206787,-0.1638597846031189
1763697199941033500,1.033033447265625,0.3868190348148346,0.21181128919124603,-0.13576079905033112
1763697199950620400,1.042620361328125,0.3379512429237366,0.10063708573579788,-0.1369825005531311
1763697199960208100,1.0522080078125,0.23166382312774658,-0.10705098509788513,-0.1650814712047577
1763697199969796600,1.061796630859375,0.10216420143842697,-0.3978142738342285,-0.19318044185638428
1763697199979384000,1.071384033203125,-0.018783552572131157,-0.7203416228294373,-0.19684553146362305
1763697199988970800,1.080970703125,-0.10674555599689484,-0.9915578365325928,-0.1760767251253128
1763697199998558500,1.090558349609375,-0.15683503448963165,-1.135717749595642,-0.15775130689144135
1763697200008147000,1.10014697265625,-0.18004722893238068,-1.1271659135818481,-0.15775130689144135
1763697200017734400,1.109734375,-0.19348587095737457,-0.959793746471405,-0.1760767251253128
1763697200027321300,1.1193212890625,-0.19959434866905212,-0.6702521443367004,-0.21150586009025574
1763697200036909000,1.128908935546875,-0.19715094566345215,-0.3721587061882019,-0.24449162185192108
1763697200046497500,1.13849755859375,-0.18493400514125824,-0.14003673195838928,-0.24937839806079865
1763697200056085000,1.1480849609375,-0.21425467729568481,-0.055739812552928925,-0.22250111401081085
1763697200065672000,1.157671875,-0.3315373361110687,-0.18646112084388733,-0.21394924819469452
1763697200075259400,1.16725927734375,-0.41827765107154846,-0.26464956998825073,-0.18340688943862915
1763697200084847900,1.176847900390625,-0.39262208342552185,-0.24510246515274048,-0.07467607408761978
1763697200094435600,1.186435546875,-0.29977330565452576,-0.3232909142971039,0.111021488904953
1763697200104022300,1.196022216796875,-0.1910424828529358,-0.5053234100341797,0.3223746418952942
1763697200113610000,1.20560986328125,-0.10552386194467545,-0.7569924592971802,0.5239542126655579
1763697200123198500,1.215198486328125,-0.05421269312500954,-1.019656777381897,0.6988092660903931
1763697200132786000,1.224785888671875,-0.02244863659143448,-1.2273448705673218,0.8307522535324097
1763697200142372900,1.234372802734375,0.010537114925682545,-1.3360756635665894,0.9101623892784119
1763697200151960300,1.243960205078125,0.0459662564098835,-1.3226370811462402,0.9333745837211609
1763697200161548800,1.253548828125,0.072843536734581,-1.190693974494934,0.9052756428718567
1763697200171136500,1.263136474609375,0.07773031294345856,-1.0086615085601807,0.833195686340332
1763697200180723200,1.27272314453125,0.058183200657367706,-0.8473978638648987,0.7244648337364197
1763697200190311000,1.282310791015625,0.02641914412379265,-0.7337802648544312,0.5911474227905273
1763697200199899100,1.291899169921875,-0.004123218823224306,-0.6274928450584412,0.45798271894454956
1763697200209486800,1.30148681640625,-0.017561858519911766,-0.4918847680091858,0.32726141810417175
1763697200219073800,1.31107373046875,-0.013896775431931019,-0.34283801913261414,0.1635543555021286
1763697200228661200,1.3206611328125,0.0007635590736754239,-0.20600824058055878,-0.013591351918876171
1763697200238249700,1.330249755859375,0.022754060104489326,-0.12904147803783417,-0.17974179983139038
1763697200247837400,1.33983740234375,0.05207473039627075,-0.14370182156562805,-0.3104631304740906
1763697200257424100,1.349424072265625,0.09483403712511063,-0.19989976286888123,-0.39353835582733154
1763697200267011800,1.35901171875,0.14736689627170563,-0.22311195731163025,-0.43018919229507446
1763697200276600300,1.368600341796875,0.20234315097332,-0.1766875684261322,-0.43018919229507446
1763697200286187800,1.378187744140625,0.24998924136161804,-0.0984991192817688,-0.39598172903060913
1763697200295774700,1.387774658203125,0.27808821201324463,-0.037414394319057465,-0.3202366828918457
1763697200305362200,1.397362060546875,0.28786176443099976,-0.016645587980747223,-0.20539739727973938
1763697200314950700,1.40695068359375,0.28541839122772217,-0.038636088371276855,-0.07589777559041977
1763697200324538400,1.416538330078125,0.2817533016204834,-0.054518118500709534,0.041384901851415634
1763697200334125000,1.426125,0.28786176443099976,-0.055739812552928925,0.13545538485050201
1763697200343712800,1.435712646484375,0.31473904848098755,-0.06429167091846466,0.20997874438762665
1763697200353301200,1.44530126953125,0.36360684037208557,-0.07773031294345856,0.26128992438316345
1763697200362888700,1.454888671875,0.4246915578842163,-0.09727742522954941,0.2808370292186737
1763697200372475600,1.4644755859375,0.4784461259841919,-0.1241547018289566,0.26495498418807983
1763697200382063000,1.47406298828125,0.5102101564407349,-0.15469707548618317,0.2160872220993042
1763697200391651600,1.483651611328125,0.5077667832374573,-0.1889045089483261,0.15744587779045105
1763697200401239300,1.4932392578125,0.465007483959198,-0.22433365881443024,0.10124793648719788
1763697200410826000,1.502825927734375,0.3892624080181122,-0.2304421216249466,0.03161134570837021
1763697200420413700,1.51241357421875,0.2964136302471161,-0.15958385169506073,-0.07101099193096161
1763697200430002200,1.522002197265625,0.19989976286888123,-0.001985253533348441,-0.21272756159305573
1763697200439589600,1.531589599609375,0.10827267915010452,0.17393875122070312,-0.3617742955684662
1763697200449176600,1.541176513671875,0.02764083817601204,0.30343836545944214,-0.47050508856773376
1763697200458764000,1.550763916015625,-0.0456608310341835,0.3608580231666565,-0.5083776116371155
1763697200468352500,1.5603525390625,-0.111632339656353,0.3474193811416626,-0.4815003573894501
1763697200477940200,1.569940185546875,-0.1629435122013092,0.3229855000972748,-0.41675055027008057
1763697200487527000,1.57952685546875,-0.19470755755901337,0.32787227630615234,-0.3361186981201172
1763697200497114600,1.589114501953125,-0.2044811248779297,0.3449759781360626,-0.24815669655799866
1763697200506703000,1.598703125,-0.19348587095737457,0.34008920192718506,-0.15652960538864136
1763697200516290600,1.60829052734375,-0.16660858690738678,0.3058817684650421,-0.05390727147459984
1763697200525877500,1.61787744140625,-0.1238492801785469,0.25212720036506653,0.042606595903635025
1763697200535465200,1.62746533203125,-0.07009471952915192,0.19592925906181335,0.12201674282550812
1763697200545053400,1.637053466796875,-0.010231691412627697,0.14217470586299896,0.17210622131824493
1763697200554641200,1.64664111328125,0.0459662564098835,0.0859767496585846,0.18432316184043884
1763697200564227800,1.656227783203125,0.09727742522954941,0.03588727489113808,0.15988926589488983
1763697200573815600,1.665815673828125,0.1363716572523117,0.0029015245381742716,0.10857810080051422
1763697200583404000,1.675404052734375,0.1620272397994995,0.0016798300202935934,0.04504998400807381
1763697200592991500,1.684991455078125,0.18279604613780975,0.04810422286391258,-0.00259610079228878
1763697200602578400,1.694578369140625,0.20356485247612,0.15683503448963165,-0.013591351918876171
1763697200612166100,1.704166259765625,0.22433365881443024,0.27411770820617676,0.024281177669763565
1763697200621754400,1.71375439453125,0.22677704691886902,0.2973299026489258,0.10246963053941727
1763697200631342000,1.723342041015625,0.19623468816280365,0.20570281147956848,0.1782146841287613
1763697200640929000,1.732928955078125,0.14492350816726685,0.06765133142471313,0.24052110314369202
1763697200650516500,1.7425166015625,0.09483403712511063,0.0065666078589856625,0.28816720843315125
1763697200660105000,1.75210498046875,0.05085303261876106,0.029778804630041122,0.31626617908477783
1763697200669692400,1.7616923828125,0.01175880990922451,0.05787777900695801,0.31260108947753906
1763697200679279400,1.771279296875,-0.021226942539215088,0.03833066672086716,0.27839362621307373
1763697200688867000,1.7808671875,-0.03833066672086716,-0.03130592033267021,0.23441264033317566
1763697200698455600,1.79045556640625,-0.017561858519911766,-0.06551336497068405,0.20509196817874908
1763697200708043000,1.80004296875,0.04963133856654167,0.010231691412627697,0.18798823654651642
1763697200717630000,1.8096298828125,0.14248012006282806,0.16538690030574799,0.17332790791988373
1763697200727217400,1.819217529296875,0.2279987335205078,0.32909396290779114,0.14645062386989594
1763697200736806000,1.828805908203125,0.2817533016204834,0.4414898455142975,0.10124793648719788
1763697200746393600,1.8383935546875,0.29030516743659973,0.4634803533554077,0.04993676394224167
1763697200755980300,1.847980224609375,0.2585411071777344,0.39262208342552185,0.0035123717971146107
1763697200765568000,1.857568115234375,0.2011214643716812,0.27656111121177673,-0.0331384651362896
1763697200775156500,1.867156494140625,0.13514995574951172,0.1507265567779541,-0.06245913356542587
1763697200784744000,1.876743896484375,0.07406523078680038,0.04932591691613197,-0.09910997003316879
1763697200794331000,1.886330810546875,0.02886253222823143,0.017561858519911766,-0.15530791878700256
1763697200803918300,1.89591845703125,-0.0016798300202935934,0.10674555599689484,-0.2151709496974945
1763697200813506800,1.9055068359375,-0.02244863659143448,0.28755635023117065,-0.2664821147918701
1763697200823094500,1.915094482421875,-0.031000498682260513,0.4610369801521301,-0.30313295125961304
1763697200832681200,1.92468115234375,-0.02367033064365387,0.5661026835441589,-0.3190149664878845
1763697200842269000,1.93426904296875,-0.0065666078589856625,0.5929799675941467,-0.31657159328460693
1763697200851857400,1.943857421875,0.005650337319821119,0.557550847530365,-0.29946786165237427
1763697200861444900,1.95344482421875,0.008093725889921188,0.48791423439979553,-0.26159533858299255
1763697200871031800,1.96303173828125,-0.0004581354442052543,0.40728241205215454,-0.19806721806526184
1763697200880619500,1.97261962890625,-0.02367033064365387,0.34253260493278503,-0.1113269105553627
1763697200890207700,1.982207763671875,-0.06276455521583557,0.31687700748443604,-0.01969982497394085
1763697200899795500,1.99179541015625,-0.11651911586523056,0.2985515892505646,0.04749337583780289
1763697200909382400,2.00138232421875,-0.18004722893238068,0.293664813041687,0.05604523420333862
1763697200918969900,2.010969970703125,-0.2301367074251175,0.40361732244491577,0.0022906772792339325
1763697200928558300,2.020558349609375,-0.22524993121623993,0.5856497883796692,-0.072232685983181
1763697200938146000,2.03014599609375,-0.16050012409687042,0.7053758502006531,-0.12232216447591782
1763697200947732700,2.039732666015625,-0.0725381150841713,0.7285880446434021,-0.13209572434425354
1763697200957320400,2.049320556640625,0.036192700266838074,0.770125687122345,-0.05635065957903862
1763697200966909000,2.058908935546875,0.0850604772567749,1.2917892932891846,0.4750864505767822
1763697200976496400,2.068496337890625,0.008093725889921188,0.20692451298236847,0.9077190160751343
1763697201005259300,2.09725927734375,0.37826716899871826,0.034665580838918686,0.3199312388896942
1763697201014847000,2.106846923828125,0.3721587061882019,0.0029015245381742716,0.1916533261537552
1763697201024433700,2.11643359375,0.34161633253097534,0.12629267573356628,0.0035123717971146107
1763697201034021400,2.126021484375,0.3196258246898651,0.35108447074890137,-0.06856760382652283
1763697201053197300,2.145197265625,0.35261157155036926,0.5905365943908691,-0.21028417348861694
1763697201062784300,2.1547841796875,0.3232909142971039,0.557550847530365,-0.24815669655799866
1763697201072371700,2.164371826171875,0.28664007782936096,0.5722111463546753,-0.2713688910007477
1763697201081960200,2.173960205078125,0.33917292952537537,0.6345176100730896,-0.3239017724990845
1763697201091548000,2.1835478515625,0.30007871985435486,0.5929799675941467,-0.3898732662200928
1763697201101134600,2.193134521484375,0.14003673195838928,0.47081053256988525,-0.36666107177734375
1763697201110722300,2.202722412109375,-0.017561858519911766,0.38040512800216675,-0.2286095917224884
1763697201120310800,2.212310791015625,-0.11774080991744995,0.21058958768844604,-0.051463883370161057
1763697201129898200,2.221898193359375,-0.14706148207187653,-0.001985253533348441,0.07070557028055191
1763697201139485200,2.231485107421875,-0.14461809396743774,-0.16813570261001587,0.1391204595565796
1763697201149073000,2.241072998046875,-0.13240113854408264,-0.26098448038101196,0.18554484844207764
1763697201158661000,2.2506611328125,-0.09330692142248154,-0.35505497455596924,0.2148655205965042
1763697201168248800,2.260248779296875,-0.031000498682260513,-0.4039227366447449,0.22463907301425934
1763697201177835800,2.269835693359375,0.04107947647571564,-0.36360684037208557,0.20753535628318787
1763697201187423200,2.27942333984375,0.12293300777673721,-0.28786176443099976,0.16111096739768982
1763697201197011700,2.28901171875,0.18523943424224854,-0.15469707548618317,0.11346487700939178
1763697201206599400,2.298599365234375,0.20845162868499756,-0.001985253533348441,0.062153708189725876
1763697201216186000,2.30818603515625,0.19745637476444244,0.10063708573579788,0.01817270554602146
1763697201225773800,2.31777392578125,0.15836215019226074,0.17149536311626434,0.013285927474498749
1763697201235362300,2.3273623046875,0.09727742522954941,0.15561333298683167,0.05360184609889984
1763697201244949800,2.33694970703125,0.014202198944985867,0.08842013776302338,0.11957334727048874
1763697201254536700,2.34653662109375,-0.05665608495473862,0.012675080448389053,0.16844113171100616
1763697201264124200,2.356124267578125,-0.07009471952915192,-0.06429167091846466,0.16844113171100616
1763697201273712600,2.365712646484375,-0.06642963737249374,-0.10460758954286575,0.15622419118881226
1763697201283300400,2.37530029296875,-0.06887302547693253,0.010231691412627697,0.15500248968601227
1763697201292887000,2.384886962890625,-0.06276455521583557,-0.03008422814309597,0.19287502765655518
1763697201302474800,2.394474853515625,-0.14828316867351532,-0.06551336497068405,0.26006820797920227
1763697201312063200,2.404063232421875,-0.24968381226062775,0.24724042415618896,0.32726141810417175
1763697201321650700,2.413650634765625,-0.28999972343444824,1.1757283210754395,0.17088451981544495
1763697201331237600,2.423237548828125,-0.31687700748443604,1.487260341644287,-0.28725093603134155
1763697201340825300,2.432825439453125,-0.31321191787719727,1.4542746543884277,-0.8504521250724792
1763697201350413800,2.442413818359375,-0.2570139765739441,1.3418787717819214,-1.1143381595611572
1763697201360001300,2.452001220703125,-0.2411319613456726,-0.4039227366447449,-0.9359707236289978
1763697201369588200,2.461588134765625,-0.15439164638519287,-1.0440906286239624,-0.7857022881507874
1763697201379175700,2.47117578125,-0.10674555599689484,-0.6042806506156921,-0.3190149664878845
1763697201388764200,2.48076416015625,-0.12262758612632751,-0.6421532034873962,-0.05268557742238045
1763697201398352000,2.490351806640625,-0.2020377367734909,-0.7740961909294128,-0.00992626789957285
1763697201407938600,2.4999384765625,-0.2924431264400482,-0.881605327129364,-0.16630317270755768
1763697201417526300,2.5095263671875,-0.3620797097682953,-0.904817521572113,-0.4155288338661194
1763697201427114800,2.51911474609375,-0.36574479937553406,-0.7887565493583679,-0.6146650314331055
1763697201436702200,2.5287021484375,-0.3461976945400238,-0.6580352187156677,-0.7111788988113403
1763697201446289200,2.5382890625,-0.3327590525150299,-0.47233763337135315,-0.7172874212265015
1763697201455876900,2.547876953125,-0.3071034550666809,-0.27808821201324463,-0.681858241558075
1763697201465465000,2.557465087890625,-0.24601873755455017,-0.2047865390777588,-0.6378772258758545
1763697201475052800,2.567052734375,-0.1360662281513214,-0.21944688260555267,-0.6109999418258667
1763697201484639700,2.5766396484375,-0.005344913341104984,-0.2683146595954895,-0.6048914790153503
1763697201494227200,2.586227294921875,0.10705098509788513,-0.32939937710762024,-0.598783016204834
1763697201503815700,2.595815673828125,0.18157434463500977,-0.3880407214164734,-0.567018985748291
1763697201513403400,2.6054033203125,0.23655059933662415,-0.4796678125858307,-0.5120427012443542
1763697201522990000,2.614989990234375,0.24632415175437927,-0.4674508571624756,-0.41675055027008057
1763697201532577800,2.624577880859375,0.2157817929983139,-0.47355934977531433,-0.30313295125961304
1763697201542166300,2.634166259765625,0.1632489264011383,-0.6323796510696411,-0.23716144263744354
1763697201551753700,2.643753662109375,0.06673506647348404,-0.7924215793609619,-0.2579302489757538
1763697201561340700,2.653340576171875,-0.11285403370857239,-0.8620582222938538,-0.337340384721756
1763697201570928000,2.66292822265625,-0.2838912606239319,-0.8632798790931702,-0.4106420576572418
1763697201580516600,2.6725166015625,-0.2814478874206543,-0.7667660117149353,-0.42041563987731934
1763697201590104300,2.682104248046875,0.10582929104566574,-0.5224271416664124,-0.3348970115184784
1763697201599691000,2.69169091796875,0.5126535892486572,-0.2976353168487549,-0.2945810854434967
1763697201609278700,2.70127880859375,0.5932853817939758,-0.05329642444849014,-0.254265159368515
1763697201618867200,2.7108671875,0.3599417507648468,0.2044811248779297,-0.19928891956806183
1763697201628454700,2.72045458984375,0.31351736187934875,0.23868857324123383,-0.14553436636924744
1763697201638041600,2.73004150390625,0.38071054220199585,0.2802261710166931,-0.08200624585151672
1763697201647629300,2.73962939453125,0.46134239435195923,0.5489989519119263,-0.028251685202121735
1763697201657217800,2.7492177734375,0.5163186192512512,0.9729269742965698,0.0022906772792339325
1763697201666805200,2.75880517578125,0.4906630516052246,1.4200671911239624,0.005955760832875967
1763697201676392200,2.76839208984375,0.4002576768398285,1.8684290647506714,0.021837789565324783
1763697201685979600,2.777979736328125,0.2573194205760956,2.227607250213623,0.0841442123055458
1763697201695568100,2.787568115234375,0.13514995574951172,2.443847179412842,0.17943638563156128
1763697201705155800,2.79715576171875,-0.01511846948415041,2.5794553756713867,0.23563432693481445
1763697201714742500,2.806742431640625,-0.1238492801785469,2.707885980606079,0.24907296895980835
1763697201724330200,2.816330322265625,-0.12262758612632751,2.7213244438171387,0.2527380585670471
1763697201733918700,2.825918701171875,-0.02733541466295719,2.580677032470703,0.23441264033317566
1763697201743506200,2.835506103515625,0.08383878320455551,2.2728099822998047,0.17210622131824493
1763697201753093000,2.845093017578125,0.1632489264011383,2.060235023498535,0.10491301864385605
1763697201762680800,2.854680908203125,0.23899398744106293,2.102994441986084,0.0841442123055458
1763697201772269300,2.864269287109375,0.29030516743659973,2.175074338912964,0.07314895838499069
1763697201781856800,2.873856689453125,0.2670929729938507,2.1237633228302,0.03771981969475746
1763697201791443700,2.883443603515625,0.19501298666000366,1.8855327367782593,-0.05512896552681923
1763697201801031200,2.89303125,0.13514995574951172,1.4237322807312012,-0.19684553146362305
1763697201810619600,2.90261962890625,0.012980503961443901,0.9607100486755371,-0.33978378772735596
1763697201820207400,2.912207275390625,-0.18004722893238068,0.6455128192901611,-0.42041563987731934
1763697201829794000,2.9217939453125,-0.28877803683280945,0.49768781661987305,-0.4289674758911133
1763697201839381800,2.9313818359375,-0.3058817684650421,0.5331169366836548,-0.388651579618454
1763697201848970200,2.94097021484375,-0.270452618598938,0.7811209559440613,-0.31534990668296814
1763697201858557700,2.9505576171875,-0.22280654311180115,1.126860499382019,-0.21883602440357208
1763697201868144600,2.96014453125,-0.14095300436019897,1.4151804447174072,-0.10277505218982697
1763697201887320800,2.97932080078125,-0.05543438717722893,1.7535897493362427,0.08047912269830704
1763697201896908300,2.988908203125,-0.02367033064365387,1.9942635297775269,0.08170082420110703
1763697201906495200,2.9984951171875,0.01175880990922451,2.2398242950439453,0.04504998400807381
1763697201916082700,3.008082763671875,0.0325276181101799,2.4194133281707764,0.01817270554602146
1763697201925671200,3.017671142578125,0.025197450071573257,2.5501346588134766,0.03161134570837021
1763697201935259000,3.0272587890625,-0.14583978056907654,2.7408716678619385,0.08780929446220398
1763697201944845600,3.036845458984375,-0.4146125912666321,2.866706132888794,0.14767232537269592
1763697201954433300,3.046433349609375,-0.6381826996803284,2.9607765674591064,0.21242213249206543
1763697201964021800,3.056021728515625,-0.7713474035263062,3.0646207332611084,0.2539597451686859
1763697201973609200,3.065609130859375,-0.793337881565094,3.10982346534729,0.266176700592041
1763697201983196200,3.075196044921875,-0.7713474035263062,3.0267481803894043,0.22586077451705933
1763697201992783600,3.08478369140625,-0.7994463443756104,2.777522563934326,0.13179029524326324
1763697202002372400,3.094372314453125,-0.8690829277038574,2.4340736865997314,0.01572931744158268
1763697202011959800,3.103959716796875,-0.9203941226005554,1.9722731113433838,-0.08078455179929733
1763697202021546800,3.113546630859375,-0.931389331817627,1.583774209022522,-0.16141638159751892
1763697202031134200,3.12313427734375,-0.9326110482215881,1.362647533416748,-0.21150586009025574
1763697202040722700,3.13272265625,-0.9191724061965942,1.2588034868240356,-0.19928891956806183
1763697202050310400,3.142310302734375,-0.8886300325393677,1.1928319931030273,-0.06001574173569679
1763697202059897000,3.15189697265625,-0.839762270450592,1.065775752067566,0.23929941654205322
1763697202069484800,3.16148486328125,-0.7554653286933899,0.9436063170433044,0.6302416324615479
1763697202079073300,3.1710732421875,-0.6235223412513733,0.7872294187545776,1.0176715850830078
1763697202088660700,3.18066064453125,-0.39384377002716064,0.5624375939369202,1.2473500967025757
1763697202098247700,3.19024755859375,-0.08964183181524277,0.399952232837677,1.2387982606887817
1763697202107835400,3.19983544921875,0.26098448038101196,0.34008920192718506,1.0702043771743774
1763697202117423600,3.209423583984375,0.5688515305519104,0.31199023127555847,0.8405258059501648
1763697202127011300,3.21901123046875,0.6617003083229065,0.27533939480781555,0.5960342288017273
1763697202136598300,3.228598388671875,0.6116108298301697,0.21181128919124603,0.34314343333244324
1763697202146185700,3.238185791015625,0.5248705148696899,0.1238492801785469,0.03894151374697685
1763697202155774200,3.247774169921875,0.44423866271972656,0.05787777900695801,-0.3202366828918457
1763697202165362000,3.25736181640625,0.3758237659931183,0.07864658534526825,-0.7185090780258179
1763697202174948600,3.266948486328125,0.31473904848098755,0.0981936976313591,-1.1070079803466797
1763697202184536300,3.276536376953125,0.24754585325717926,0.05421269312500954,-1.3953278064727783
1763697202194124800,3.286124755859375,0.18401773273944855,-0.019088976085186005,-1.5443745851516724
1763697202203712300,3.295712158203125,0.14003673195838928,-0.1388150453567505,-1.611567735671997
1763697202213299200,3.30529931640625,0.09605573117733002,-0.25121092796325684,-1.6482186317443848
1763697202222887000,3.314886962890625,0.021532366052269936,-0.2964136302471161,-1.690977931022644
1763697202232475400,3.324475341796875,-0.13484452664852142,-0.3086305856704712,-1.7532843351364136
1763697202242062800,3.334062744140625,-0.33886751532554626,-0.2707580327987671,-1.8278076648712158
1763697202251649800,3.34364990234375,-0.5428904891014099,-0.18035265803337097,-1.870566964149475
1763697202261237200,3.3532373046875,-0.695602297782898,-0.056961506605148315,-1.848576545715332
1763697202270825700,3.36282568359375,-0.7713474035263062,0.06765133142471313,-1.7838267087936401
1763697202280413400,3.372413330078125,-0.7945595979690552,0.14828316867351532,-1.7117466926574707
1763697202290000100,3.382000244140625,-0.8360971808433533,0.15927842259407043,-1.6335582733154297
1763697202299587800,3.391587890625,-0.9252808690071106,0.1507265567779541,-1.5602566003799438
1763697202309176300,3.40117626953125,-1.042563557624817,0.164165198802948,-1.496728539466858
1763697202318763800,3.410763671875,-1.168398141860962,0.19348587095737457,-1.423426866531372
1763697202328350700,3.420350830078125,-1.2820156812667847,0.15683503448963165,-1.352568507194519
1763697202337938400,3.4299384765625,-1.3602041006088257,0.10430216789245605,-1.3403515815734863
1763697202347527000,3.43952685546875,-1.3919682502746582,0.06398624926805496,-1.4124315977096558
1763697202357114400,3.4491142578125,-1.3699777126312256,0.04688252881169319,-1.5358227491378784
1763697202366701300,3.458701416015625,-1.293010950088501,0.05421269312500954,-1.6653223037719727
1763697202376289000,3.4682890625,-1.2087140083312988,0.06520794332027435,-1.778939962387085
1763697202385877200,3.477877197265625,-1.1806150674819946,0.04443913698196411,-1.863236904144287
1763697202395465000,3.48746484375,-1.1574028730392456,-0.02886253222823143,-1.918213129043579
1763697202405051600,3.4970517578125,-1.1048699617385864,-0.09361234307289124,-1.9487555027008057
1763697202414639400,3.506639404296875,-1.0608890056610107,-0.15958385169506073,-1.9548639059066772
1763697202424227800,3.516227783203125,-0.9985825419425964,-0.20845162868499756,-1.9316517114639282
1763697202433815600,3.525815673828125,-0.9106205701828003,-0.18646112084388733,-1.8864490985870361
1763697202443402200,3.53540234375,-0.8079982399940491,-0.1388150453567505,-1.8314727544784546
1763697202452990000,3.544989990234375,-0.6931589245796204,-0.0850604772567749,-1.7826050519943237
1763697202462578400,3.554578369140625,-0.5832064151763916,-0.023975754156708717,-1.7300721406936646
1763697202472166000,3.564165771484375,-0.5050179958343506,0.033443886786699295,-1.65310537815094
1763697202481752800,3.5737529296875,-0.48669254779815674,0.188599094748497,-1.5932424068450928
1763697202491340500,3.583340576171875,-0.5318952798843384,0.23380178213119507,-1.5871338844299316
1763697202500929000,3.592928955078125,-0.6198572516441345,0.19592925906181335,-1.6005725860595703
1763697202510516500,3.6025166015625,-0.6626165509223938,0.23868857324123383,-1.621341347694397
1763697202520103400,3.612103515625,-0.6320741772651672,0.3046600818634033,-1.6250064373016357
1763697202529691000,3.62169091796875,-0.5685460567474365,0.34375429153442383,-1.598129153251648
1763697202539279400,3.631279296875,-0.4940227270126343,0.3633013963699341,-1.5236058235168457
1763697202548867000,3.6408671875,-0.402395635843277,0.402395635843277,-1.3916627168655396
1763697202558453800,3.650453857421875,-0.2948864996433258,0.4756973087787628,-1.2316207885742188
1763697202568041500,3.66004150390625,-0.18126893043518066,0.5746545791625977,-1.0728005170822144
1763697202577630000,3.6696298828125,-0.07864658534526825,0.6809419989585876,-0.9261971712112427
1763697202587217700,3.6792177734375,-0.016340164467692375,0.816550076007843,-0.8015843033790588
1763697202596804400,3.688804443359375,-0.007788302376866341,0.9289459586143494,-0.7209524512290955
1763697202606392000,3.69839208984375,-0.02733541466295719,0.9839222431182861,-0.6671979427337646
1763697202615980500,3.70798046875,-0.029778804630041122,1.0144646167755127,-0.6342121958732605
1763697202625568000,3.717568115234375,0.0032069480512291193,1.0230164527893066,-0.6134433746337891
1763697202635155000,3.727155029296875,0.07040014863014221,1.010799527168274,-0.59023118019104
1763697202644742700,3.73674267578125,0.15836215019226074,1.009577751159668,-0.5548020005226135
1763697202654331000,3.746330810546875,0.24021568894386292,1.0364550352096558,-0.5132644176483154
1763697202663918600,3.755918701171875,0.29885703325271606,1.10364830493927,-0.48760882019996643
1763697202673505300,3.76550537109375,0.35138988494873047,1.2160441875457764,-0.5071559548377991
1763697202683093000,3.775093017578125,0.4100312292575836,1.3467655181884766,-0.5853443741798401
1763697202692681500,3.784681396484375,0.46867257356643677,1.4249539375305176,-0.7075138092041016
1763697202702269200,3.794269287109375,0.5212054252624512,1.380972981452942,-0.8516737818717957
1763697202711855900,3.80385595703125,0.5908420085906982,1.2588034868240356,-0.9860602021217346
1763697202721443600,3.813443603515625,0.6653653979301453,1.0926530361175537,-1.0654703378677368
1763697202731032000,3.823031982421875,0.7154548764228821,0.9020686745643616,-1.0642486810684204
1763697202740619500,3.83261962890625,0.728893518447876,0.7224795818328857,-1.000720500946045
1763697202750206500,3.84220654296875,0.7130114436149597,0.5954233407974243,-0.9213103652000427
1763697202759794200,3.851794189453125,0.6873558759689331,0.5147915482521057,-0.8712208867073059
1763697202769382700,3.861382568359375,0.672695517539978,0.45615020394325256,-0.8614473342895508
1763697202778970000,3.87097021484375,0.672695517539978,0.44515493512153625,-0.8761076927185059
1763697202788557000,3.88055712890625,0.6861341595649719,0.4683671295642853,-0.8687775135040283
1763697202798144500,3.89014453125,0.709346354007721,0.47081053256988525,-0.8089144825935364
1763697202807733000,3.89973291015625,0.7362236380577087,0.4891359508037567,-0.7295043468475342
1763697202817320700,3.90932080078125,0.7264500856399536,0.5477772951126099,-0.6794148683547974
1763697202826907600,3.91890771484375,0.6800256967544556,0.6064186096191406,-0.6830799579620361
1763697202836495000,3.9284951171875,0.6189410090446472,0.6540647149085999,-0.7307260632514954
1763697202846083600,3.93808349609375,0.5676298141479492,0.6675033569335938,-0.8076927661895752
1763697202855671300,3.94767138671875,0.5285356044769287,0.6345176100730896,-0.8883246183395386
1763697202865258000,3.957258056640625,0.47355934977531433,0.6088619828224182,-0.932305634021759
1763697202874845700,3.966845703125,0.39048412442207336,0.5746545791625977,-0.9164236187934875
1763697202894021600,3.986021728515625,0.14736689627170563,0.5270084738731384,-0.8125795722007751
1763697202903608600,3.995608642578125,0.038636088371276855,0.5551074743270874,-0.8040276765823364
1763697202913196300,4.0051962890625,-0.02367033064365387,0.5819846987724304,-0.8296833038330078
1763697202922784800,4.01478466796875,-0.03955236077308655,0.5489989519119263,-0.8602256774902344
1763697202932372200,4.024372314453125,0.004428642801940441,0.425607830286026,-0.8638907074928284
1763697202941959200,4.033959228515625,0.10949437320232391,0.23380178213119507,-0.8321266770362854
1763697202951547000,4.043546875,0.2438807636499405,0.04443913698196411,-0.7893673777580261
1763697202961135000,4.053135009765625,0.36482852697372437,-0.1388150453567505,-0.7612683773040771
1763697202970722800,4.062722900390625,0.43446511030197144,-0.27320143580436707,-0.7429429888725281
1763697202980309500,4.0723095703125,0.441795289516449,-0.35627666115760803,-0.6855233311653137
1763697202989897200,4.081897216796875,0.4136963188648224,-0.43568679690361023,-0.4790569543838501
1763697202999485700,4.091485595703125,0.3880407214164734,-0.46867257356643677,-0.1760767251253128
1763697203009073400,4.101073486328125,0.3465031087398529,-0.44546034932136536,0.11590826511383057
1763697203018660000,4.11066015625,0.2560977041721344,-0.3868190348148346,0.3504736125469208
1763697203028247800,4.120247802734375,0.1241547018289566,-0.3061871826648712,0.4543176591396332
1763697203037836300,4.129836181640625,-0.004123218823224306,-0.1388150453567505,0.4115583300590515
1763697203047423700,4.139423828125,-0.11896250396966934,0.06887302547693253,0.30282753705978394
1763697203057010700,4.1490107421875,-0.18371231853961945,0.23868857324123383,0.20875705778598785
1763697203066598400,4.158598388671875,-0.1385096162557602,0.32787227630615234,0.12812520563602448
1763697203076187000,4.168186767578125,0.04474456235766411,0.2912214398384094,0.043828289955854416
1763697203085774300,4.1777744140625,0.31351736187934875,0.08719844371080399,-0.03558185324072838
1763697203095361300,4.187361328125,0.5602996349334717,-0.20356485247612,-0.10033166408538818
1763697203104948700,4.19694873046875,0.7203416228294373,-0.4943281412124634,-0.1382041871547699
1763697203114537200,4.206537109375,0.7850914597511292,-0.760657548904419,-0.1638597846031189
1763697203124125000,4.216125,0.7569924592971802,-0.8938222527503967,-0.24937839806079865
1763697203133712000,4.2257119140625,0.6189410090446472,-0.8999307155609131,-0.34100547432899475
1763697203143299300,4.23529931640625,0.36482852697372437,-0.9561286568641663,-0.38254308700561523
1763697203152887800,4.2448876953125,0.014202198944985867,-1.0917367935180664,-0.40453359484672546
1763697203162475500,4.2544755859375,-0.39140036702156067,-1.1980241537094116,-0.43263256549835205
1763697203172062200,4.264062255859375,-0.7493568658828735,-1.1552648544311523,-0.4668400287628174
1763697203181650000,4.27364990234375,-1.0266815423965454,-0.9805625677108765,-0.5059342384338379
1763697203191238400,4.28323828125,-1.3040062189102173,-0.7276718020439148,-0.5120427012443542
1763697203200825900,4.292825927734375,-1.6106514930725098,-0.4503471553325653,-0.4375193417072296
1763697203210412800,4.302412841796875,-1.9063016176223755,-0.13026317954063416,-0.3092414140701294
1763697203220000500,4.31200048828125,-2.1506404876708984,0.21058958768844604,-0.2176143378019333
1763697203229589000,4.321589111328125,-2.322899341583252,0.48791423439979553,-0.19562382996082306
1763697203239176400,4.331176513671875,-2.377875566482544,0.6528429985046387,-0.27625566720962524
1763697203248763400,4.340763427734375,-2.4340736865997314,0.7322531342506409,-0.41919392347335815
1763697203258351000,4.35035107421875,-2.6808559894561768,0.89107346534729,-0.5731274485588074
1763697203267939600,4.359939697265625,-3.2857472896575928,1.2184876203536987,-0.6708629727363586
1763697203277527300,4.36952734375,-4.072518825531006,1.4445010423660278,-0.7001836895942688
1763697203287113700,4.37911376953125,-4.434140205383301,1.5788874626159668,-0.8040276765823364
1763697203296701400,4.388701416015625,-4.243556022644043,1.5996562242507935,-1.047144889831543
1763697203306290000,4.3982900390625,-4.095730781555176,1.0547804832458496,-1.2255122661590576
1763697203315877600,4.407877685546875,-4.253329277038574,0.3474193811416626,-1.5346009731292725
1763697203325464300,4.41746435546875,-3.94057559967041,-0.22066856920719147,-1.7826050519943237
1763697203335052000,4.427052001953125,-2.904578685760498,-0.890157163143158,-1.141215443611145
1763697203344640500,4.436640625,-2.060235023498535,-1.3653963804244995,-0.1760767251253128
1763697203354228000,4.44622802734375,-1.6925050020217896,-1.4105989933013916,0.2832804024219513
1763697203363815000,4.45581494140625,-1.73159921169281,-1.0392038822174072,0.31382277607917786
1763697203373402600,4.465402587890625,-1.897749662399292,-0.4808894991874695,0.3639122545719147
1763697203382991000,4.4749912109375,-2.120098114013672,-0.13514995574951172,0.38101598620414734
1763697203392578600,4.48457861328125,-2.1628575325012207,0.12751436233520508,0.23929941654205322
1763697203402165500,4.49416552734375,-2.0932209491729736,0.19348587095737457,0.11346487700939178
1763697203411753200,4.503753173828125,-2.126206636428833,0.28999972343444824,-0.01847812905907631
1763697203421341700,4.513341796875,-2.261814594268799,0.34008920192718506,-0.08689302206039429
1763697203430929200,4.52292919921875,-2.3387813568115234,0.19715094566345215,0.010842538438737392
1763697203440516000,4.53251611328125,-2.3094608783721924,0.09452861547470093,0.11835165321826935
1763697203450103800,4.542103759765625,-2.1457536220550537,-0.039857782423496246,0.2673983871936798
1763697203459692000,4.551692138671875,-1.7487030029296875,-0.28908345103263855,0.50196373462677
1763697203469279700,4.56127978515625,-1.409071922302246,-0.6568135023117065,0.8955020904541016
1763697203478866400,4.570866455078125,-1.2710204124450684,-0.8486195802688599,1.4635900259017944
1763697203488454100,4.5804541015625,-1.2771289348602295,-0.6384881138801575,1.9730366468429565
1763697203498042600,4.590042724609375,-1.2893458604812622,-0.41858309507369995,1.8826313018798828
1763697203507630300,4.59963037109375,-1.2038272619247437,-0.5126535892486572,1.5136795043945312
1763697203517217000,4.609217041015625,-1.1476292610168457,-0.7826480269432068,1.1935955286026
1763697203526804700,4.6188046875,-1.1305255889892578,-0.4784461259841919,0.7855495810508728
1763697203536393200,4.628393310546875,-1.1048699617385864,-0.40758782625198364,0.4628695249557495
1763697203545981000,4.63798095703125,-0.9668185114860535,-0.5981721878051758,0.13423368334770203
1763697203555567600,4.647567626953125,-0.7493568658828735,-0.18035265803337097,-0.3727695345878601
1763697203565155300,4.6571552734375,-0.44637662172317505,0.4610369801521301,-0.6476507782936096
1763697203574743800,4.666743896484375,-0.0859767496585846,1.025459885597229,-0.6867450475692749
1763697203584331300,4.676331298828125,0.07773031294345856,1.4310624599456787,-0.6366555690765381
1763697203593918200,4.685918212890625,0.058183200657367706,1.63997220993042,-0.48272204399108887
1763697203603506000,4.695505859375,-0.09452861547470093,1.5068074464797974,-0.3239017724990845
1763697203613094400,4.705094482421875,-0.18004722893238068,1.2087140083312988,-0.32634514570236206
1763697203622681900,4.714681884765625,-0.19592925906181335,0.40483900904655457,-0.40453359484672546
1763697203632268800,4.724268798828125,-0.11651911586523056,-0.543195903301239,-0.39231663942337036
1763697203641856500,4.7338564453125,0.2145601063966751,-0.6226060390472412,-0.4228590130805969
1763697203651444700,4.74344482421875,0.3990359604358673,-0.4002576768398285,-0.6329904794692993
1763697203661032400,4.753032470703125,0.32573428750038147,-1.0098832845687866,-0.9127585291862488
1763697203670619400,4.762619384765625,0.12171131372451782,-1.5547590255737305,-0.9958337545394897
1763697203680206800,4.772206787109375,-0.10308047384023666,-1.3996037244796753,-0.9567395448684692
1763697203689795300,4.78179541015625,-0.25090551376342773,-1.1479346752166748,-0.992168664932251
1763697203699383000,4.791383056640625,-0.3828485310077667,-1.019656777381897,-1.1888614892959595
1763697203708969700,4.8009697265625,-0.43415969610214233,-0.6128324866294861,-1.5162756443023682
1763697203718557400,4.810557373046875,-0.18737739324569702,0.5624375939369202,-1.5871338844299316
1763697203728146000,4.82014599609375,0.11926792562007904,1.181836724281311,-1.2450593709945679
1763697203737733600,4.829733642578125,0.24632415175437927,1.21482253074646,-0.6940752267837524
1763697203747320300,4.8393203125,0.20234315097332,1.1476292610168457,-0.05024218559265137
1763697203756908000,4.848907958984375,0.12293300777673721,1.032789945602417,0.429883748292923
1763697203766496500,4.85849658203125,0.18157434463500977,0.6113054156303406,0.6584933400154114
1763697203776084200,4.868084228515625,0.3452814221382141,-0.04840964451432228,0.8893936276435852
1763697203785671000,4.8776708984375,0.2414373755455017,-0.5175403356552124,1.147171139717102
1763697203795258600,4.887258544921875,-0.037108972668647766,-0.6922426819801331,1.170383334159851
1763697203804847000,4.89684716796875,-0.23258009552955627,-0.6629219651222229,0.994459331035614
1763697203814434600,4.9064345703125,-0.2716743052005768,-0.3367295563220978,0.8026533126831055
1763697203824021500,4.916021484375,-0.1629435122013092,0.03833066672086716,0.5740436911582947
1763697203833609200,4.925609130859375,0.04474456235766411,0.23380178213119507,0.2954973578453064
1763697203843197700,4.93519775390625,0.19745637476444244,0.3083251416683197,0.10491301864385605
1763697203852785200,4.94478515625,0.20722992718219757,0.40972578525543213,0.04871506989002228
1763697203862372000,4.9543720703125,0.13026317954063416,0.3755183517932892,0.0328330397605896
1763697203871959600,4.96395947265625,0.03130592033267021,0.1763821393251419,0.041384901851415634
1763697203881548300,4.97354833984375,-0.050547610968351364,-0.012980503961443901,0.07314895838499069
1763697203891135700,4.9831357421875,-0.1104106456041336,-0.03130592033267021,0.06459710001945496
1763697203900722700,4.99272265625,-0.14706148207187653,0.08108997344970703,-0.09177979826927185
1763697203910310100,5.00231005859375,-0.5147915482521057,0.33886751532554626,-0.149199441075325
1763697203919898600,5.011898681640625,-1.118308663368225,0.7530219554901123,-0.01969982497394085
1763697203929486300,5.021486328125,-1.3321051597595215,0.8788564801216125,0.025502873584628105
1763697203939073000,5.031072998046875,-1.0792144536972046,0.7383615970611572,-0.09300149232149124
1763697203948660700,5.04066064453125,-0.8654178380966187,0.5318952798843384,-0.16630317270755768
1763697203958249200,5.050249267578125,-0.8214368224143982,0.296108216047287,-0.2420482337474823
1763697203967837000,5.0598369140625,-0.8580876588821411,0.09330692142248154,-0.36543938517570496
1763697203977423600,5.069423583984375,-0.922837495803833,0.033443886786699295,-0.45828816294670105
1763697203987011300,5.07901123046875,-0.9851438999176025,0.07620319724082947,-0.5010474920272827
1763697203996599800,5.088599853515625,-0.9863656163215637,0.05543438717722893,-0.48272204399108887
1763697204006187300,5.098187255859375,-0.977813720703125,0.08353336155414581,-0.386208176612854
1763697204015774200,5.107774169921875,-1.009577751159668,0.14217470586299896,-0.3104631304740906
1763697204025362000,5.11736181640625,-1.009577751159668,0.21181128919124603,-0.29946786165237427
1763697204034950400,5.126950439453125,-1.0059127807617188,0.24724042415618896,-0.30068957805633545
1763697204044537900,5.136537841796875,-1.0169079303741455,0.2435753494501114,-0.26037365198135376
1763697204054124800,5.146124755859375,-1.024238109588623,0.2301367074251175,-0.1772984117269516
1763697204063712500,5.15571240234375,-1.1415208578109741,0.2154763638973236,-0.12720894813537598
1763697204073301000,5.165301025390625,-1.2673553228378296,0.20936790108680725,-0.23471805453300476
1763697204082888400,5.174888427734375,-1.1464076042175293,0.2154763638973236,-0.27625566720962524
1763697204092475400,5.184475341796875,-0.9802571535110474,0.376740038394928,-0.14675605297088623
1763697204102063000,5.19406298828125,-0.8324320912361145,0.44759833812713623,0.04871506989002228
1763697204111651300,5.2036513671875,-0.7151494026184082,0.47325390577316284,0.25029465556144714
1763697204121239000,5.213239013671875,-0.5844281315803528,0.5147915482521057,0.35169529914855957
1763697204130826000,5.222825927734375,-0.4512633979320526,0.6271874308586121,0.34314343333244324
1763697204140413400,5.232413330078125,-0.3352024257183075,0.6369609832763672,0.27350685000419617
1763697204150002000,5.242001953125,-0.2557922899723053,0.5844281315803528,0.18798823654651642
1763697204159589600,5.251589599609375,-0.2044811248779297,0.580763041973114,0.0988045409321785
1763697204169176600,5.261176513671875,-0.25212720036506653,0.43049460649490356,-0.045355409383773804
1763697204178764000,5.270763916015625,-0.399952232837677,0.28877803683280945,-0.18218518793582916
1763697204188352500,5.2803525390625,-0.5477772951126099,0.15805672109127045,-0.2945810854434967
1763697204197940200,5.289940185546875,-0.733474850654602,-0.06795676052570343,-0.45706647634506226
1763697204207527000,5.29952685546875,-0.9350544214248657,-0.13392825424671173,-0.6928535103797913
1763697204217114600,5.309114501953125,-1.1317472457885742,-0.08872556686401367,-0.9200887084007263
1763697204226703000,5.318703125,-1.3357702493667603,0.09086353331804276,-1.0312628746032715
1763697204236290800,5.328290771484375,-1.3785295486450195,0.4243861436843872,-0.9225320816040039
1763697204245877500,5.33787744140625,-1.1610679626464844,0.3755183517932892,-0.34222719073295593
1763697204255465200,5.34746533203125,-0.8861866593360901,0.16905197501182556,0.429883748292923
1763697204265053700,5.3570537109375,-0.5770979523658752,0.1250709742307663,0.836860716342926
1763697204274641400,5.366641357421875,-0.4146125912666321,0.34375429153442383,0.767224133014679
1763697204284228000,5.37622802734375,-0.4109475016593933,0.399952232837677,0.5984776020050049
1763697204293815800,5.38581591796875,-0.423164427280426,0.1910424828529358,0.4750864505767822
1763697204303404300,5.395404296875,-0.40483900904655457,-0.1241547018289566,0.32603973150253296
1763697204312991700,5.40499169921875,-0.31443363428115845,-0.25976279377937317,0.0462716780602932
1763697204322578700,5.41457861328125,-0.2814478874206543,-0.23410721123218536,-0.2579302489757538
1763697204332166400,5.42416650390625,-0.2838912606239319,-0.31351736187934875,-0.4265241026878357
1763697204341755000,5.4337548828125,-0.2582356929779053,-0.36971530318260193,-0.41919392347335815
1763697204351342300,5.44334228515625,-0.21791976690292358,-0.3196258246898651,-0.31290650367736816
1763697204360929300,5.45292919921875,-0.164165198802948,-0.24998924136161804,-0.2151709496974945
1763697204370517000,5.46251708984375,-0.09697200357913971,-0.3110739588737488,-0.14797775447368622
1763697204380105500,5.47210546875,-0.031000498682260513,-0.38193225860595703,-0.13331741094589233
1763697204389693000,5.48169287109375,0.019088976085186005,-0.48333290219306946,-0.18096350133419037
1763697204399279900,5.49127978515625,0.07650861889123917,-0.4283566474914551,-0.23227466642856598
1763697204408867300,5.500867431640625,0.1119377613067627,-0.44301697611808777,-0.22494450211524963
1763697204418455800,5.510455810546875,0.10216420143842697,-0.4869979918003082,-0.09177979826927185
1763697204428043500,5.52004345703125,0.08628217875957489,-0.46989426016807556,-0.0038177953101694584
1763697204437630500,5.52963037109375,0.0594048947095871,-0.41736137866973877,-0.006261184345930815
1763697204447218000,5.539218017578125,0.038636088371276855,-0.38193225860595703,-0.00992626789957285
1763697204456806400,5.548806396484375,-0.028557108715176582,-0.3110739588737488,-0.06612421572208405
1763697204466394000,5.55839404296875,-0.06765133142471313,-0.41980478167533875,-0.1895153671503067
1763697204475980800,5.567980712890625,-0.08719844371080399,-0.5089884996414185,-0.13942588865756989
1763697204485568500,5.577568603515625,-0.1238492801785469,-0.5505260825157166,-0.14553436636924744
1763697204495157000,5.587156982421875,-0.11285403370857239,-0.6665870547294617,-0.06001574173569679
1763697204504744700,5.59674462890625,-0.12629267573356628,-0.6397097706794739,0.1513374149799347
1763697204514331400,5.606331298828125,-0.14583978056907654,-0.48455458879470825,0.2796153426170349
1763697204523919000,5.615919189453125,-0.1104106456041336,-0.46989426016807556,0.23563432693481445
1763697204533507600,5.625507568359375,-0.08964183181524277,-0.3709369897842407,0.3309265077114105
1763697204543095300,5.63509521484375,-0.0981936976313591,-0.23777230083942413,0.3602471649646759
1763697204552682000,5.644681884765625,-0.06154286116361618,-0.18646112084388733,0.40422818064689636
1763697204562269700,5.654269775390625,-0.037108972668647766,-0.12048961967229843,0.4506525695323944
1763697204571858200,5.663858154296875,0.004428642801940441,-0.036192700266838074,0.4934118688106537
1763697204581445600,5.673445556640625,0.04352286830544472,-0.016645587980747223,0.39078953862190247
1763697204591032600,5.683032470703125,0.20722992718219757,-0.23777230083942413,0.11712995916604996
1763697204600620300,5.692620361328125,0.27197974920272827,-0.2683146595954895,0.4408790171146393
1763697204610208800,5.702208740234375,0.12904147803783417,-0.037414394319057465,0.7366818189620972
1763697204619796200,5.711796142578125,-0.0004581354442052543,0.23258009552955627,0.8637380003929138
1763697204629383200,5.721383056640625,-0.05421269312500954,0.43049460649490356,0.9040539264678955
1763697204638971000,5.730970947265625,-0.07009471952915192,0.5758762359619141,0.9663603901863098
1763697204648559400,5.740559326171875,-0.0847550556063652,0.5416688323020935,0.9260444641113281
1763697204658146800,5.750146728515625,-0.08964183181524277,0.4402681589126587,0.8209787011146545
1763697204667733800,5.759733642578125,-0.0713164210319519,0.34131091833114624,0.726908266544342
1763697204677321500,5.769321533203125,-0.029778804630041122,0.2435753494501114,0.6743753552436829
1763697204686910000,5.778909912109375,0.02886253222823143,0.19226416945457458,0.7012526392936707
1763697204696497400,5.788497314453125,0.09116895496845245,0.2020377367734909,0.7977665066719055
1763697204706084400,5.79808447265625,0.19501298666000366,0.24846212565898895,0.9358180165290833
1763697204715671800,5.807671875,0.3208475112915039,0.28755635023117065,1.0873081684112549
1763697204725260300,5.81726025390625,0.441795289516449,0.3205420970916748,1.2155860662460327
1763697204734848000,5.826847900390625,0.5566345453262329,0.32909396290779114,1.321873426437378
1763697204744435000,5.83643505859375,0.6568135023117065,0.3242071866989136,1.4342693090438843
1763697204754022400,5.8460224609375,0.73255854845047,0.34253260493278503,1.5539953708648682
1763697204763611000,5.85561083984375,0.7863131165504456,0.4121691882610321,1.6639479398727417
1763697204773198600,5.865198486328125,0.8437327742576599,0.5441122055053711,1.7543532848358154
1763697204782785300,5.874785400390625,0.9011524319648743,0.6846070885658264,1.8056645393371582
1763697204792373000,5.884373046875,0.9573503732681274,0.7786775231361389,1.816659688949585
1763697204801961500,5.89396142578125,1.0062181949615479,0.8055548071861267,1.7885607481002808
1763697204811549000,5.903548828125,1.0392038822174072,0.7725690603256226,1.7433581352233887
1763697204821136000,5.913135986328125,1.0782980918884277,0.6907155513763428,1.6908252239227295
1763697204830723600,5.9227236328125,1.0966235399246216,0.5832064151763916,1.6334055662155151
1763697204840312000,5.93231201171875,1.0880717039108276,0.4622586667537689,1.5698775053024292
1763697204849899500,5.9418994140625,1.066081166267395,0.3315373361110687,1.5039058923721313
1763697204859486500,5.951486572265625,1.0318737030029297,0.1910424828529358,1.4550381898880005
1763697204869074200,5.96107421875,1.0135482549667358,0.04932591691613197,1.4452645778656006
1763697204878662700,5.97066259765625,1.0123265981674194,-0.058183200657367706,1.4721418619155884
1763697204888250000,5.98025,0.9903361201286316,-0.1644706279039383,1.51734459400177
1763697204897837000,5.989837158203125,0.9329164624214172,-0.29885703325271606,1.5686557292938232
1763697204907424800,5.9994248046875,0.8706100583076477,-0.45523393154144287,1.6028631925582886
1763697204917013200,6.00901318359375,0.8205205798149109,-0.617719292640686,1.595533013343811
1763697204926600700,6.0186005859375,0.778982937335968,-0.7508839964866638,1.5601038932800293
1763697204936187600,6.028187744140625,0.7496622800827026,-0.8156337738037109,1.5063493251800537
1763697204945775400,6.037775390625,0.7301151752471924,-0.8119687438011169,1.439156174659729
1763697204955363800,6.04736376953125,0.7081246972084045,-0.7887565493583679,1.3878449201583862
1763697204964951300,6.056951416015625,0.6873558759689331,-0.775317907333374,1.3426423072814941
1763697204974538200,6.066538330078125,0.6580352187156677,-0.7459971904754639,1.296217918395996
1763697204984126000,6.0761259765625,0.6360446810722351,-0.7069029808044434,1.2510151863098145
1763697204993714200,6.085714111328125,0.6201626658439636,-0.6336013078689575,1.2082558870315552
1763697205003302000,6.095302001953125,0.6213843822479248,-0.5419742465019226,1.1581664085388184
1763697205012888800,6.104888916015625,0.6299362182617188,-0.4637857675552368,1.1031901836395264
1763697205022476300,6.114476318359375,0.617719292640686,-0.4161396920681,1.054322361946106
1763697205032064800,6.124064697265625,0.6018372774124146,-0.42957833409309387,1.0030112266540527
1763697205041652500,6.133652587890625,0.5651864409446716,-0.45889899134635925,0.9590302109718323
1763697205051239200,6.1432392578125,0.5028799772262573,-0.4808894991874695,0.9174925684928894
1763697205060827000,6.152826904296875,0.441795289516449,-0.4918847680091858,0.8710681796073914
1763697205070415400,6.162415283203125,0.38071054220199585,-0.46989426016807556,0.813648521900177
1763697205080003000,6.172003173828125,0.3110739588737488,-0.41736137866973877,0.7452336549758911
1763697205089589800,6.18158984375,0.2426590770483017,-0.36849361658096313,0.6670452356338501
1763697205099177500,6.191177490234375,0.19745637476444244,-0.3623851239681244,0.5789304971694946
1763697205108766000,6.200765869140625,0.1644706279039383,-0.35261157155036926,0.4897467792034149
1763697205118353400,6.210353515625,0.12904147803783417,-0.3306210935115814,0.4017847776412964
1763697205127940400,6.2199404296875,0.10582929104566574,-0.2939702570438385,0.31260108947753906
1763697205137528000,6.229528076171875,0.09605573117733002,-0.21211670339107513,0.22586077451705933
1763697205147116500,6.239116455078125,0.09239064902067184,-0.12904147803783417,0.14522893726825714
1763697205156704000,6.2487041015625,0.07773031294345856,-0.07040014863014221,0.07681404054164886
1763697205166291000,6.258291015625,0.04718795046210289,-0.04107947647571564,0.020616095513105392
1763697205175878700,6.267878662109375,0.020310672000050545,-0.04230117425322533,-0.0331384651362896
1763697205185467100,6.277467041015625,0.017867282032966614,-0.04107947647571564,-0.09666658192873001
1763697205195054600,6.2870546875,0.008093725889921188,-0.009315420873463154,-0.1626380831003189
1763697205204641500,6.2966416015625,-0.0029015245381742716,0.04443913698196411,-0.22494450211524963
1763697205214229200,6.306229248046875,-0.004123218823224306,0.09330692142248154,-0.305576354265213
1763697205223817700,6.315817626953125,-0.0016798300202935934,0.12995775043964386,-0.4155288338661194
1763697205233405200,6.3254052734375,-0.013896775431931019,0.15561333298683167,-0.543806791305542
1763697205242992000,6.3349921875,-0.037108972668647766,0.16172181069850922,-0.6769714951515198
1763697205252579800,6.344579833984375,-0.06887302547693253,0.15927842259407043,-0.8101361989974976
1763697205262168000,6.35416796875,-0.1104106456041336,0.16172181069850922,-0.9347490072250366
1763697205271755800,6.363755859375,-0.15927842259407043,0.19592925906181335,-1.0349279642105103
1763697205281342700,6.3733427734375,-0.19226416945457458,0.3058817684650421,-1.071578860282898
1763697205290930200,6.38293017578125,-0.2032594233751297,0.40850409865379333,-1.0092723369598389
1763697205300518700,6.3925185546875,-0.1910424828529358,0.4805840849876404,-0.7905890941619873
1763697205310106400,6.4021064453125,-0.16172181069850922,0.5465555787086487,-0.47294849157333374
1763697205319693000,6.411693115234375,-0.19592925906181335,0.5123481154441833,-0.256708562374115
1763697205329280800,6.42128076171875,-0.2411319613456726,0.3828485310077667,-0.24937839806079865
1763697205338869200,6.430869140625,-0.3046600818634033,0.2313583940267563,-0.32634514570236206
1763697205348457000,6.44045703125,-0.40361732244491577,-0.009315420873463154,-0.337340384721756
1763697205358043600,6.450043701171875,-0.43171629309654236,-0.3049654960632324,-0.2921377122402191
1763697205367631400,6.45963134765625,-0.3706315755844116,-0.5077667832374573,-0.2298312783241272
1763697205377219800,6.4692197265625,-0.36574479937553406,-0.5688515305519104,-0.15530791878700256
1763697205386807600,6.4788076171875,-0.44637662172317505,-0.7044596076011658,-0.14064757525920868
1763697205396394200,6.488394287109375,-0.5465555787086487,-0.8498412370681763,-0.254265159368515
1763697205405982000,6.49798193359375,-0.6003101468086243,-0.775317907333374,-0.44607120752334595
1763697205415570400,6.5075703125,-0.5929799675941467,-0.5835118293762207,-0.6549809575080872
1763697205425158000,6.517157958984375,-0.5587725043296814,-0.39292749762535095,-0.8211314082145691
1763697205434744800,6.526744873046875,-0.5367820262908936,-0.2047865390777588,-0.9518527388572693
1763697205444332500,6.53633251953125,-0.5392253994941711,-0.08383878320455551,-1.0679137706756592
1763697205453921000,6.545921142578125,-0.5502206683158875,-0.017867282032966614,-1.187639832496643
1763697205463508500,6.555508544921875,-0.5514423847198486,0.02244863659143448,-1.3269129991531372
1763697205473095400,6.565095458984375,-0.5441122055053711,0.07620319724082947,-1.44053053855896
1763697205482683100,6.57468310546875,-0.5074613690376282,0.15316994488239288,-1.5003936290740967
1763697205492271600,6.584271728515625,-0.4537068009376526,0.2411319613456726,-1.5211623907089233
1763697205501859000,6.593859130859375,-0.40361732244491577,0.32909396290779114,-1.5211623907089233
1763697205511446000,6.603446044921875,-0.3718532621860504,0.3901786804199219,-1.5284925699234009
1763697205521033700,6.61303369140625,-0.3584146201610565,0.423164427280426,-1.5541481971740723
1763697205530622000,6.6226220703125,-0.3596363365650177,0.42194274067878723,-1.5944640636444092
1763697205540209700,6.632209716796875,-0.3706315755844116,0.4268295168876648,-1.634779930114746
1763697205549796600,6.641796630859375,-0.38162681460380554,0.4243861436843872,-1.6653223037719727
1763697205559384000,6.651384033203125,-0.3865135908126831,0.3901786804199219,-1.6616572141647339
1763697205568972500,6.66097265625,-0.37796175479888916,0.3571929335594177,-1.6140111684799194
1763697205578560300,6.670560302734375,-0.36574479937553406,0.3486410677433014,-1.5284925699234009
1763697205588147200,6.680147216796875,-0.35352784395217896,0.3498627543449402,-1.4344221353530884
1763697205597734700,6.689734619140625,-0.3486410677433014,0.3633013963699341,-1.3574553728103638
1763697205607323100,6.6993232421875,-0.3474193811416626,0.402395635843277,-1.3244695663452148
1763697205616910800,6.708910888671875,-0.3486410677433014,0.44271156191825867,-1.3379082679748535
1763697205626497500,6.71849755859375,-0.3608580231666565,0.47325390577316284,-1.362342119216919
1763697205636085200,6.728085205078125,-0.3877353072166443,0.4818057715892792,-1.3733373880386353
1763697205645673700,6.737673828125,-0.4268295168876648,0.45737189054489136,-1.3660072088241577
1763697205655261400,6.747261474609375,-0.4659237563610077,0.4512633979320526,-1.32935631275177
1763697205664848100,6.75684814453125,-0.4903576374053955,0.4634803533554077,-1.2804886102676392
1763697205674435800,6.766435791015625,-0.4903576374053955,0.4659237563610077,-1.2377293109893799
1763697205684024300,6.7760244140625,-0.47203221917152405,0.4634803533554077,-1.2035218477249146
1763697205693612000,6.785612060546875,-0.4378247857093811,0.448820024728775,-1.1754227876663208
1763697205703198700,6.79519873046875,-0.37796175479888916,0.45737189054489136,-1.1534323692321777
1763697205712786400,6.804786376953125,-0.3083251416683197,0.49646610021591187,-1.1448805332183838
1763697205722375000,6.814375,-0.23991025984287262,0.557550847530365,-1.1534323692321777
1763697205731962400,6.82396240234375,-0.18493400514125824,0.6137487888336182,-1.171757698059082
1763697205741549300,6.83354931640625,-0.1629435122013092,0.6552863717079163,-1.1937482357025146
1763697205751137000,6.843136962890625,-0.1629435122013092,0.6772769093513489,-1.210852026939392
1763697205760725500,6.8527255859375,-0.16905197501182556,0.6613948941230774,-1.2230689525604248
1763697205770313000,6.86231298828125,-0.18126893043518066,0.6113054156303406,-1.2218471765518188
1763697205779900000,6.87189990234375,-0.19226416945457458,0.5233433842658997,-1.1974133253097534
1763697205789487600,6.881487548828125,-0.2020377367734909,0.399952232837677,-1.148545503616333
1763697205799076000,6.891076171875,-0.21181128919124603,0.2301367074251175,-1.0691354274749756
1763697205808663600,6.90066357421875,-0.20692451298236847,0.07986827939748764,-0.9836167693138123
1763697205818250500,6.91025048828125,-0.18004722893238068,-0.03130592033267021,-0.9066500663757324
1763697205827838000,6.919837890625,-0.1372879147529602,-0.11315945535898209,-0.8455653190612793
1763697205837426400,6.929426513671875,-0.08719844371080399,-0.17302247881889343,-0.8015843033790588
1763697205847014100,6.93901416015625,-0.04077405482530594,-0.21333840489387512,-0.7673768401145935
1763697205856601000,6.94860107421875,0.0007635590736754239,-0.2426590770483017,-0.7343910932540894
1763697205866188500,6.9581884765625,0.04107947647571564,-0.2573194205760956,-0.6928535103797913
1763697205875777000,6.967777099609375,0.08139539510011673,-0.24998924136161804,-0.6562026739120483
1763697205885364700,6.97736474609375,0.12171131372451782,-0.22189027070999146,-0.6183301210403442
1763697205894951700,6.98695166015625,0.15714046359062195,-0.14492350816726685,-0.575570821762085
1763697205904539100,6.9965390625,0.17424418032169342,-0.020310672000050545,-0.520594596862793
1763697205914127600,7.006127685546875,0.1766875684261322,0.12751436233520508,-0.4546230733394623
1763697205923715300,7.01571533203125,0.17180079221725464,0.23991025984287262,-0.3837648034095764
1763697205933302000,7.025302001953125,0.1522536724805832,0.30221667885780334,-0.3202366828918457
1763697205942889700,7.0348896484375,0.12659808993339539,0.30221667885780334,-0.24571330845355988
1763697205952478200,7.044478271484375,0.10460758954286575,0.3107685446739197,-0.17241163551807404
1763697205962066000,7.05406591796875,0.08017370104789734,0.3058817684650421,-0.10155335813760757
1763697205971652600,7.063652587890625,0.05329642444849014,0.2973299026489258,-0.05390727147459984
1763697205981240300,7.073240234375,0.025197450071573257,0.2777827978134155,-0.029473381116986275
1763697205990828800,7.082828857421875,-0.0016798300202935934,0.26434415578842163,-0.02214321307837963
1763697206000416500,7.09241650390625,-0.01511846948415041,0.21791976690292358,-0.028251685202121735
1763697206010003200,7.102003173828125,-0.017561858519911766,0.09575030952692032,-0.029473381116986275
1763697206019591000,7.1115908203125,-0.0004581354442052543,-0.015423892997205257,-0.047798797488212585
1763697206029179400,7.121179443359375,0.039857782423496246,-0.10582929104566574,-0.07711946964263916
1763697206038766800,7.130766845703125,0.09605573117733002,-0.18035265803337097,-0.10888352245092392
1763697206048353800,7.140353759765625,0.15714046359062195,-0.20845162868499756,-0.14064757525920868
1763697206057941500,7.14994140625,0.21089501678943634,-0.1889045089483261,-0.17241163551807404
1763697206067530000,7.159530029296875,0.25121092796325684,-0.16080553829669952,-0.2017323076725006
1763697206077117400,7.169117431640625,0.2707580327987671,-0.1375933438539505,-0.23105297982692719
1763697206086704400,7.178704345703125,0.2658712565898895,-0.11315945535898209,-0.2530434727668762
1763697206096292000,7.1882919921875,0.24510246515274048,-0.08383878320455551,-0.2652604281902313
1763697206105880600,7.197880615234375,0.21333840489387512,-0.017867282032966614,-0.27503398060798645
1763697206115468000,7.207468017578125,0.1766875684261322,0.06642963737249374,-0.282364159822464
1763697206125055000,7.217054931640625,0.13392825424671173,0.1385096162557602,-0.279920756816864
1763697206134642400,7.226642333984375,0.08139539510011673,0.19470755755901337,-0.2701472043991089
1763697206144231000,7.23623095703125,0.020310672000050545,0.2301367074251175,-0.25060009956359863
1763697206153818600,7.245818603515625,-0.04199574887752533,0.23991025984287262,-0.23471805453300476
1763697206163405600,7.255405517578125,-0.09452861547470093,0.23624517023563385,-0.22250111401081085
1763697206172993000,7.264992919921875,-0.12995775043964386,0.2423536479473114,-0.21028417348861694
1763697206182581500,7.27458154296875,-0.1507265567779541,0.2912214398384094,-0.21028417348861694
1763697206192169200,7.284169189453125,-0.16660858690738678,0.3229855000972748,-0.21028417348861694
1763697206201756200,7.293756103515625,-0.18126893043518066,0.2948864996433258,-0.15530791878700256
1763697206211343600,7.303343505859375,-0.18737739324569702,0.3058817684650421,-0.10766182839870453
1763697206220932000,7.31293212890625,-0.18493400514125824,0.3242071866989136,-0.09544488787651062
1763697206230519800,7.322519775390625,-0.18249061703681946,0.32787227630615234,-0.1113269105553627
1763697206240106500,7.3321064453125,-0.18126893043518066,0.31443363428115845,-0.13209572434425354
1763697206249694200,7.341694091796875,-0.1776038408279419,0.28633466362953186,-0.14797775447368622
1763697206259282700,7.35128271484375,-0.17149536311626434,0.26190075278282166,-0.15775130689144135
1763697206268870400,7.360870361328125,-0.16050012409687042,0.2570139765739441,-0.16019469499588013
1763697206278457000,7.37045703125,-0.13973131775856018,0.2716743052005768,-0.15530791878700256
1763697206288044800,7.380044921875,-0.12140589207410812,0.26067906618118286,-0.14064757525920868
1763697206297633300,7.38963330078125,-0.10552386194467545,0.25945737957954407,-0.13087402284145355
1763697206307221000,7.399220947265625,-0.0859767496585846,0.25212720036506653,-0.11743538826704025
1763697206316807700,7.4088076171875,-0.06642963737249374,0.22647161781787872,-0.09177979826927185
1763697206326395400,7.4183955078125,-0.06642963737249374,0.19348587095737457,-0.06734590977430344
1763697206335983900,7.42798388671875,-0.09330692142248154,0.1751604527235031,-0.0587940476834774
1763697206345571300,7.4375712890625,-0.1372879147529602,0.18126893043518066,-0.06612421572208405
1763697206355158300,7.447158203125,-0.18615570664405823,0.20692451298236847,-0.07589777559041977
1763697206364746000,7.45674609375,-0.22402822971343994,0.24846212565898895,-0.07101099193096161
1763697206374334500,7.46633447265625,-0.2423536479473114,0.2924431264400482,-0.047798797488212585
1763697206383922000,7.475921875,-0.2411319613456726,0.31565532088279724,-0.01847812905907631
1763697206393508900,7.4855087890625,-0.21914145350456238,0.3071034550666809,0.0022906772792339325
1763697206403096600,7.4950966796875,-0.18004722893238068,0.270452618598938,0.024281177669763565
1763697206412685000,7.50468505859375,-0.12751436233520508,0.2289150059223175,0.03527642786502838
1763697206422272500,7.5142724609375,-0.07375980913639069,0.18737739324569702,0.026724567636847496
1763697206431859500,7.523859375,-0.031000498682260513,0.15439164638519287,0.009620844386518002
1763697206441447000,7.533447021484375,-0.0029015245381742716,0.14095300436019897,-0.007482878863811493
1763697206451035400,7.543035400390625,0.010537114925682545,0.14706148207187653,-0.025808297097682953
1763697206460623000,7.552623046875,0.014202198944985867,0.16660858690738678,-0.047798797488212585
1763697206470210000,7.5622099609375,0.004428642801940441,0.1776038408279419,-0.07101099193096161
1763697206479797500,7.571797607421875,-0.012675080448389053,0.17882554233074188,-0.0844496339559555
1763697206489386000,7.581385986328125,-0.03833066672086716,0.1763821393251419,-0.07834116369485855
1763697206498973700,7.5909736328125,-0.06276455521583557,0.17271706461906433,-0.06612421572208405
1763697206508560400,7.600560302734375,-0.0859767496585846,0.1519482582807541,-0.05512896552681923
1763697206518148000,7.610148193359375,-0.1104106456041336,0.1250709742307663,-0.05024218559265137
1763697206527736600,7.619736572265625,-0.13240113854408264,0.10063708573579788,-0.05268557742238045
1763697206537324300,7.62932421875,-0.1495048701763153,0.08108997344970703,-0.06123743951320648
1763697206546911000,7.638910888671875,-0.15561333298683167,0.07498150318861008,-0.07101099193096161
1763697206556498700,7.648498779296875,-0.1495048701763153,0.08353336155414581,-0.08078455179929733
1763697206566087200,7.658087158203125,-0.1372879147529602,0.09941539168357849,-0.08811471611261368
1763697206575675000,7.6676748046875,-0.11529742181301117,0.111632339656353,-0.09544488787651062
1763697206585261600,7.677261474609375,-0.09208522737026215,0.11529742181301117,-0.10644013434648514
1763697206594849300,7.686849365234375,-0.0725381150841713,0.11407572776079178,-0.11987877637147903
1763697206604437800,7.696437744140625,-0.0590994730591774,0.10308047384023666,-0.12965233623981476
1763697206614025500,7.706025390625,-0.05665608495473862,0.08842013776302338,-0.1369825005531311
1763697206623612200,7.715612060546875,-0.0590994730591774,0.06887302547693253,-0.14186927676200867
1763697206633199900,7.725199951171875,-0.06642963737249374,0.051769305020570755,-0.15530791878700256
1763697206642788400,7.734788330078125,-0.07742489129304886,0.028557108715176582,-0.18096350133419037
1763697206652375800,7.744375732421875,-0.09086353331804276,-0.001985253533348441,-0.21150586009025574
1763697206661962800,7.753962646484375,-0.10185877978801727,-0.022754060104489326,-0.23838314414024353
1763697206671550500,7.763550537109375,-0.1104106456041336,-0.025197450071573257,-0.26037365198135376
1763697206690726400,7.782726318359375,-0.10552386194467545,-0.014202198944985867,-0.2835858464241028
1763697206700313300,7.792313232421875,-0.10308047384023666,-0.010537114925682545,-0.27625566720962524
1763697206709901000,7.801901123046875,-0.10430216789245605,0.0004581354442052543,-0.26159533858299255
1763697206719489500,7.811489501953125,-0.1104106456041336,0.011453386396169662,-0.2408265322446823
1763697206729077000,7.821076904296875,-0.12018419802188873,0.02244863659143448,-0.2163926362991333
1763697206738664000,7.830663818359375,-0.12751436233520508,0.031000498682260513,-0.19195875525474548
1763697206748251600,7.840251708984375,-0.13240113854408264,0.034665580838918686,-0.17241163551807404
1763697206757840000,7.84983984375,-0.1372879147529602,0.02367033064365387,-0.16630317270755768
1763697206767427600,7.859427490234375,-0.14339639246463776,0.012675080448389053,-0.17241163551807404
1763697206777014500,7.8690146484375,-0.14095300436019897,0.013896775431931019,-0.18340688943862915
1763697206786602000,7.87860205078125,-0.13362284004688263,0.017561858519911766,-0.19562382996082306
1763697206796190500,7.8881904296875,-0.12751436233520508,0.021226942539215088,-0.21028417348861694
1763697206805778200,7.897778076171875,-0.1250709742307663,0.012675080448389053,-0.22127941250801086
1763697206815364900,7.90736474609375,-0.12140589207410812,-0.008093725889921188,-0.21883602440357208
1763697206824952600,7.91695263671875,-0.12140589207410812,-0.036192700266838074,-0.20784078538417816
1763697206834541000,7.926541015625,-0.12629267573356628,-0.06062658876180649,-0.19562382996082306
1763697206844128800,7.936128662109375,-0.1360662281513214,-0.08261708915233612,-0.18462859094142914
1763697206853715500,7.945715576171875,-0.14217470586299896,-0.10216420143842697,-0.17485502362251282
1763697206863303200,7.95530322265625,-0.14583978056907654,-0.1119377613067627,-0.1650814712047577
1763697206872891600,7.9648916015625,-0.14217470586299896,-0.11315945535898209,-0.15408621728420258
1763697206882479400,7.974479248046875,-0.12262758612632751,-0.10705098509788513,-0.13209572434425354
1763697206892066000,7.984066162109375,-0.09575030952692032,-0.09239064902067184,-0.09544488787651062
1763697206901653800,7.99365380859375,-0.0713164210319519,-0.06673506647348404,-0.05390727147459984
1763697206911242200,8.0032421875,-0.04932591691613197,-0.036192700266838074,-0.013591351918876171
1763697206920830000,8.012829833984375,-0.028557108715176582,-0.010537114925682545,0.014507622458040714
1763697206930416600,8.022416748046876,-0.01511846948415041,0.005344913341104984,0.027946261689066887
1763697206940004400,8.03200439453125,-0.005344913341104984,0.016340164467692375,0.03405473381280899
1763697206949592800,8.0415927734375,0.005650337319821119,0.021226942539215088,0.03527642786502838
1763697206959180300,8.05118017578125,0.01175880990922451,0.013896775431931019,0.03527642786502838
1763697206968767200,8.060767333984375,0.009315420873463154,-0.016645587980747223,0.03527642786502838
1763697206978355000,8.07035498046875,-0.004123218823224306,-0.06184828653931618,0.03405473381280899
1763697206987943400,8.079943359375,-0.021226942539215088,-0.10338589549064636,0.03161134570837021
1763697206997531000,8.08953076171875,-0.02733541466295719,-0.12781979143619537,0.03405473381280899
1763697207007117800,8.099117919921875,-0.020005248486995697,-0.13392825424671173,0.03894151374697685
1763697207016705500,8.10870556640625,-0.004123218823224306,-0.11804623156785965,0.043828289955854416
1763697207026294000,8.1182939453125,0.015423892997205257,-0.08750387281179428,0.05115845799446106
1763697207035881500,8.127881591796875,0.038636088371276855,-0.05329642444849014,0.062153708189725876
1763697207045468400,8.137468505859376,0.056961506605148315,-0.02641914412379265,0.07437065243721008
1763697207055056100,8.14705615234375,0.072843536734581,-0.010537114925682545,0.08780929446220398
1763697207064644400,8.156644287109375,0.08383878320455551,-0.005650337319821119,0.10246963053941727
1763697207074232000,8.166232177734376,0.08872556686401367,-0.009315420873463154,0.11468657106161118
1763697207083819000,8.175819091796875,0.08628217875957489,-0.017867282032966614,0.11957334727048874
1763697207093406700,8.18540673828125,0.07773031294345856,-0.02764083817601204,0.11468657106161118
1763697207102995000,8.194994873046875,0.06795676052570343,-0.036192700266838074,0.10613471269607544
1763697207112582700,8.204582763671874,0.055739812552928925,-0.04474456235766411,0.09147437661886215
1763697207122169600,8.214169677734375,0.04230117425322533,-0.0459662564098835,0.06948387622833252
1763697207131757000,8.223757080078125,0.02886253222823143,-0.04352286830544472,0.042606595903635025
1763697207141345500,8.233345458984376,0.01175880990922451,-0.05085303261876106,0.019394399598240852
1763697207150933200,8.242933349609375,-0.007788302376866341,-0.056961506605148315,-0.00015271181473508477
1763697207160520000,8.25252001953125,-0.02244863659143448,-0.06062658876180649,-0.01847812905907631
1763697207170107600,8.262107666015625,-0.031000498682260513,-0.06917845457792282,-0.03802524134516716
1763697207179696000,8.271696044921875,-0.034665580838918686,-0.08383878320455551,-0.0587940476834774
1763697207189283800,8.281283935546876,-0.04077405482530594,-0.09605573117733002,-0.07711946964263916
1763697207198870500,8.29087060546875,-0.04443913698196411,-0.09483403712511063,-0.08689302206039429
1763697207208458200,8.300458251953126,-0.04443913698196411,-0.07650861889123917,-0.08933641016483307
1763697207218046700,8.310046630859375,-0.04077405482530594,-0.056961506605148315,-0.08811471611261368
1763697207227634400,8.319634521484375,-0.03833066672086716,-0.038636088371276855,-0.08933641016483307
1763697207237221000,8.32922119140625,-0.03955236077308655,-0.022754060104489326,-0.09544488787651062
1763697207246808800,8.338808837890625,-0.04199574887752533,-0.008093725889921188,-0.09666658192873001
1763697207256397300,8.348397216796876,-0.0456608310341835,0.011453386396169662,-0.09055810421705246
1763697207265984800,8.35798486328125,-0.04932591691613197,0.02733541466295719,-0.08078455179929733
1763697207275571700,8.36757177734375,-0.050547610968351364,0.034665580838918686,-0.06856760382652283
1763697207285159400,8.377159423828125,-0.04932591691613197,0.037108972668647766,-0.05512896552681923
1763697207294748000,8.386747802734375,-0.0456608310341835,0.04199574887752533,-0.04169032722711563
1763697207304335400,8.39633544921875,-0.04321744292974472,0.050547610968351364,-0.031916771084070206
1763697207313922300,8.40592236328125,-0.04321744292974472,0.06276455521583557,-0.027029991149902344
1763697207323510000,8.415510009765624,-0.04443913698196411,0.07498150318861008,-0.027029991149902344
1763697207333098500,8.425098388671875,-0.04443913698196411,0.08964183181524277,-0.025808297097682953
1763697207342686000,8.43468603515625,-0.04321744292974472,0.09941539168357849,-0.02214321307837963
1763697207352273000,8.44427294921875,-0.04077405482530594,0.09941539168357849,-0.014813045971095562
1763697207361860600,8.453860595703125,-0.037108972668647766,0.09208522737026215,0.0010689827613532543
1763697207371449000,8.463448974609374,-0.029778804630041122,0.08231166750192642,0.024281177669763565
1763697207381036500,8.47303662109375,-0.021226942539215088,0.06642963737249374,0.04504998400807381
1763697207390623500,8.48262353515625,-0.012675080448389053,0.050547610968351364,0.0584886260330677
1763697207400211200,8.492211181640625,-0.0029015245381742716,0.04077405482530594,0.06948387622833252
1763697207409799700,8.501799560546875,0.0068720318377017975,0.037108972668647766,0.07803573459386826
1763697207419387100,8.51138720703125,0.014202198944985867,0.029778804630041122,0.0841442123055458
1763697207428974000,8.52097412109375,0.016645587980747223,0.021226942539215088,0.0853659063577652
1763697207438561500,8.5305615234375,0.012980503961443901,0.010231691412627697,0.0841442123055458
1763697207448150300,8.540150390625,0.009315420873463154,-0.005650337319821119,0.08170082420110703
1763697207457737700,8.54973779296875,0.0007635590736754239,-0.03008422814309597,0.07437065243721008
1763697207467324700,8.55932470703125,-0.007788302376866341,-0.05329642444849014,0.060932014137506485
1763697207476912000,8.568912109375,-0.013896775431931019,-0.07895200699567795,0.04749337583780289
1763697207486500600,8.57850048828125,-0.011453386396169662,-0.09972081333398819,0.03771981969475746
1763697207496088300,8.58808837890625,-0.0065666078589856625,-0.11560284346342087,0.03161134570837021
1763697207505675300,8.59767529296875,-0.007788302376866341,-0.12781979143619537,0.029167955741286278
1763697207515262700,8.6072626953125,-0.007788302376866341,-0.14003673195838928,0.029167955741286278
1763697207524851200,8.616851318359375,-0.009009997360408306,-0.1498102843761444,0.024281177669763565
1763697207534439000,8.62643896484375,-0.01511846948415041,-0.1522536724805832,0.01572931744158268
1763697207544025600,8.636025634765625,-0.020005248486995697,-0.14858859777450562,0.0010689827613532543
1763697207553613300,8.64561328125,-0.02367033064365387,-0.1388150453567505,-0.01725643500685692
1763697207563201800,8.655201904296876,-0.031000498682260513,-0.12659808993339539,-0.03558185324072838
1763697207572789500,8.66478955078125,-0.03588727489113808,-0.10949437320232391,-0.049020491540431976
1763697207582376200,8.674376220703126,-0.03955236077308655,-0.08261708915233612,-0.05268557742238045
1763697207591964000,8.6839638671875,-0.04321744292974472,-0.05207473039627075,-0.047798797488212585
1763697207601552400,8.693552490234374,-0.05543438717722893,-0.021532366052269936,-0.03680354729294777
1763697207611140000,8.70314013671875,-0.06642963737249374,0.004123218823224306,-0.01969982497394085
1763697207620726800,8.712726806640624,-0.07009471952915192,0.02489202655851841,-0.0038177953101694584
1763697207630314500,8.722314453125,-0.06765133142471313,0.04077405482530594,0.005955760832875967
1763697207639903000,8.731903076171875,-0.06642963737249374,0.0590994730591774,0.007177455350756645
1763697207649490700,8.74149072265625,-0.06398624926805496,0.0847550556063652,0.0022906772792339325
1763697207659077400,8.751077392578125,-0.06398624926805496,0.11774080991744995,-0.011147962883114815
1763697207668665000,8.7606650390625,-0.06398624926805496,0.15561333298683167,-0.029473381116986275
1763697207678253600,8.770253662109376,-0.06154286116361618,0.20570281147956848,-0.04046862944960594
1763697207687841000,8.779841064453125,-0.05787777900695801,0.2667875289916992,-0.04046862944960594
1763697207697428000,8.789427978515626,-0.05665608495473862,0.33031564950942993,-0.029473381116986275
1763697207707015700,8.799015625,-0.05421269312500954,0.38162681460380554,-0.01969982497394085
1763697207716604200,8.808604248046874,-0.051769305020570755,0.43049460649490356,-0.012369656935334206
1763697207726191600,8.818191650390625,-0.04688252881169319,0.4659237563610077,-0.00992626789957285
1763697207735778600,8.827778564453125,-0.04688252881169319,0.47203221917152405,-0.01969982497394085
1763697207745366300,8.8373662109375,-0.051769305020570755,0.44271156191825867,-0.028251685202121735
1763697207754954800,8.846954833984375,-0.06520794332027435,0.39140036702156067,-0.04046862944960594
1763697207764542200,8.856542236328124,-0.0859767496585846,0.3571929335594177,-0.051463883370161057
1763697207774129200,8.866129150390625,-0.10552386194467545,0.376740038394928,-0.046577103435993195
1763697207783716900,8.875716796875,-0.10918894410133362,0.4634803533554077,-0.012369656935334206
1763697207793305000,8.88530517578125,-0.09697200357913971,0.6381826996803284,0.04749337583780289
1763697207802892800,8.894892822265625,-0.07375980913639069,0.8470924496650696,0.10613471269607544
1763697207812479700,8.904479736328126,-0.0456608310341835,0.9472714066505432,0.15500248968601227
1763697207822067500,8.9140673828125,-0.02489202655851841,0.8690829277038574,0.18065807223320007
1763697207831655700,8.92365576171875,-0.021226942539215088,0.6479562520980835,0.1647760421037674
1763697207841243400,8.933243408203126,-0.03955236077308655,0.35352784395217896,0.10491301864385605
1763697207850830300,8.942830322265625,-0.07620319724082947,0.1238492801785469,0.03161134570837021
1763697207860417800,8.952417724609376,-0.11407572776079178,0.04688252881169319,-0.012369656935334206
1763697207870006300,8.96200634765625,-0.14706148207187653,0.06154286116361618,-0.007482878863811493
1763697207879594000,8.971593994140624,-0.1751604527235031,0.08964183181524277,0.03405473381280899
1763697207889180700,8.9811806640625,-0.19715094566345215,0.10185877978801727,0.07925742864608765
1763697207898768400,8.990768310546875,-0.2044811248779297,0.10308047384023666,0.11346487700939178
1763697207908356900,9.00035693359375,-0.2044811248779297,0.09330692142248154,0.13545538485050201
1763697207917944600,9.009944580078125,-0.21181128919124603,0.0725381150841713,0.1366770714521408
1763697207927531300,9.01953125,-0.23502348363399506,0.04199574887752533,0.12934690713882446
1763697207937119000,9.029118896484375,-0.27656111121177673,0.016340164467692375,0.13179029524326324
1763697207946707500,9.03870751953125,-0.32665055990219116,0.017561858519911766,0.15622419118881226
1763697207956295200,9.048295166015626,-0.3840702176094055,0.010231691412627697,0.19409671425819397
1763697207965881900,9.0578818359375,-0.44515493512153625,-0.058183200657367706,0.23196925222873688
1763697207975469600,9.067469482421876,-0.4940227270126343,-0.13392825424671173,0.26373329758644104
1763697207985058000,9.07705810546875,-0.5184566378593445,-0.1375933438539505,0.2673983871936798
1763697207994645500,9.0866455078125,-0.5123481154441833,-0.06184828653931618,0.20875705778598785
1763697208004232400,9.096232421875,-0.48302745819091797,-0.03497100621461868,0.1525591015815735
1763697208013820200,9.105820068359375,-0.4500417113304138,-0.0032069480512291193,0.0988045409321785
1763697208023408600,9.11540869140625,-0.41949936747550964,0.0456608310341835,0.043828289955854416
1763697208032996000,9.12499609375,-0.3962871730327606,0.07986827939748764,0.0035123717971146107
1763697208042583000,9.1345830078125,-0.376740038394928,0.10674555599689484,-0.028251685202121735
1763697208052170800,9.144170654296875,-0.36452311277389526,0.0981936976313591,-0.01725643500685692
1763697208061759200,9.15375927734375,-0.3498627543449402,0.10552386194467545,0.014507622458040714
1763697208071346700,9.1633466796875,-0.32665055990219116,0.11896250396966934,0.059710320085287094
1763697208080933600,9.17293359375,-0.3046600818634033,0.1360662281513214,0.10857810080051422
1763697208090521300,9.182521240234376,-0.2851129472255707,0.14217470586299896,0.15622419118881226
1763697208100109800,9.19210986328125,-0.2680092453956604,0.13362284004688263,0.20753535628318787
1763697208109697300,9.201697265625,-0.2557922899723053,0.11774080991744995,0.2686200737953186
1763697208119284200,9.2112841796875,-0.2411319613456726,0.09330692142248154,0.34192174673080444
1763697208128872000,9.220871826171875,-0.22036315500736237,0.06398624926805496,0.42133188247680664
1763697208138460400,9.23046044921875,-0.2020377367734909,0.02244863659143448,0.5007420182228088
1763697208148048000,9.2400478515625,-0.1910424828529358,-0.038636088371276855,0.5789304971694946
1763697208157634800,9.249634765625,-0.18249061703681946,-0.1107160672545433,0.6401679515838623
1763697208167222500,9.259222412109375,-0.18493400514125824,-0.18646112084388733,0.6853706240653992
1763697208176810800,9.268810791015625,-0.19470755755901337,-0.24632415175437927,0.7195780873298645
1763697208186398500,9.2783984375,-0.20814619958400726,-0.2829749882221222,0.7562289237976074
1763697208195985400,9.2879853515625,-0.22158484160900116,-0.30374380946159363,0.7977665066719055
1763697208205572900,9.29757275390625,-0.22524993121623993,-0.3208475112915039,0.836860716342926
1763697208215161300,9.307161376953125,-0.21058958768844604,-0.3477247953414917,0.869846522808075
1763697208224749000,9.3167490234375,-0.18126893043518066,-0.3709369897842407,0.8955020904541016
1763697208234336000,9.3263359375,-0.13973131775856018,-0.39170581102371216,0.9138274788856506
1763697208243923500,9.33592333984375,-0.08353336155414581,-0.4100312292575836,0.9260444641113281
1763697208253512000,9.345511962890624,-0.020005248486995697,-0.4124746024608612,0.9333745837211609
1763697208263099600,9.355099609375,0.04107947647571564,-0.3855973184108734,0.9504783153533936
1763697208272686600,9.3646865234375,0.09727742522954941,-0.333064466714859,0.9883508682250977
1763697208282274000,9.374274169921875,0.1498102843761444,-0.2658712565898895,1.0396620035171509
1763697208291862500,9.383862548828125,0.20600824058055878,-0.18768282234668732,1.0885298252105713
1763697208301450200,9.3934501953125,0.2707580327987671,-0.11315945535898209,1.1190721988677979
1763697208311037000,9.403036865234375,0.34283801913261414,-0.07650861889123917,1.1117420196533203
1763697208320624600,9.412624755859374,0.4112529158592224,-0.08628217875957489,1.045770525932312
1763697208330213000,9.422213134765625,0.48455458879470825,-0.1510319858789444,0.916270911693573
1763697208339800800,9.43180078125,0.5517477989196777,-0.26342788338661194,0.7598940134048462
1763697208349387500,9.441387451171876,0.5859552621841431,-0.4039227366447449,0.6253548860549927
1763697208358975200,9.450975341796875,0.5835118293762207,-0.5395308136940002,0.530062735080719
1763697208368563700,9.460563720703124,0.5590779781341553,-0.6531484127044678,0.48730340600013733
1763697208378151400,9.4701513671875,0.5273138880729675,-0.7435538172721863,0.4946335554122925
1763697208387738000,9.479738037109374,0.4931064546108246,-0.8083036541938782,0.5422796607017517
1763697208397325800,9.489325927734376,0.46012070775032043,-0.8449544906616211,0.61313796043396
1763697208406914300,9.498914306640625,0.43446511030197144,-0.8632798790931702,0.6914790868759155
1763697208416501800,9.508501708984374,0.4149180054664612,-0.8596147894859314,0.7611156702041626
1763697208426088700,9.518088623046875,0.3965925872325897,-0.8327375054359436,0.813648521900177
1763697208435676400,9.527676513671874,0.3733803927898407,-0.7826480269432068,0.8478559851646423
1763697208445265000,9.537264892578126,0.35627666115760803,-0.7069029808044434,0.8588512539863586
1763697208454852400,9.546852294921875,0.35138988494873047,-0.6128324866294861,0.8588512539863586
1763697208464439300,9.556439208984376,0.36727190017700195,-0.5175403356552124,0.8576295375823975
1763697208474027000,9.566027099609375,0.3990359604358673,-0.42102646827697754,0.8588512539863586
1763697208483615500,9.575615478515624,0.4381301999092102,-0.32573428750038147,0.8661814332008362
1763697208493203000,9.585202880859375,0.4662291705608368,-0.24510246515274048,0.8808417320251465
1763697208502790000,9.594789794921875,0.4784461259841919,-0.1913478970527649,0.9052756428718567
1763697208512377600,9.604377685546876,0.4784461259841919,-0.1620272397994995,0.9358180165290833
1763697208521966000,9.613966064453125,0.4760027229785919,-0.14736689627170563,0.9700254201889038
1763697208531553500,9.623553466796874,0.4772244095802307,-0.12904147803783417,1.0066763162612915
1763697208541140500,9.633140380859375,0.48455458879470825,-0.10705098509788513,1.0433270931243896
1763697208550728200,9.642728271484375,0.4943281412124634,-0.07650861889123917,1.0702043771743774
1763697208560316700,9.652316650390626,0.5163186192512512,-0.06917845457792282,1.0714260339736938
1763697208569904000,9.661904052734375,0.543195903301239,-0.06306997686624527,1.0421054363250732
1763697208579491000,9.671490966796876,0.5688515305519104,-0.036192700266838074,0.9920159578323364
1763697208589078800,9.681078857421875,0.5981721878051758,0.004123218823224306,0.9284878373146057
1763697208598667000,9.6906669921875,0.6311579346656799,0.021226942539215088,0.8637380003929138
1763697208608254700,9.700254638671876,0.669030487537384,0.033443886786699295,0.8063184022903442
1763697208617841700,9.709841552734375,0.7020162343978882,0.04321744292974472,0.7733326554298401
1763697208627429400,9.719429443359376,0.7178982496261597,0.05665608495473862,0.7708892226219177
1763697208637017600,9.729017578125,0.7301151752471924,0.06520794332027435,0.786771297454834
1763697208646605300,9.738605224609374,0.7496622800827026,0.08353336155414581,0.8173136115074158
1763697208656192300,9.748192138671875,0.7802046537399292,0.11407572776079178,0.8539644479751587
1763697208665779700,9.75777978515625,0.8278507590293884,0.12018419802188873,0.8783983588218689
1763697208675368200,9.7673681640625,0.8657232522964478,0.11407572776079178,0.9028322696685791
1763697208684956000,9.776955810546875,0.8803836107254028,0.10185877978801727,0.9236010313034058
1763697208694542800,9.78654296875,0.8779402375221252,0.07864658534526825,0.9370396733283997
1763697208704130300,9.79613037109375,0.8669449687004089,0.04932591691613197,0.948034942150116
1763697208713718800,9.80571875,0.858393132686615,0.005344913341104984,0.9504783153533936
1763697208723306500,9.815306396484376,0.8498412370681763,-0.023975754156708717,0.9517000317573547
1763697208732893400,9.8248935546875,0.835180938243866,-0.02764083817601204,0.9614735841751099
1763697208742481000,9.83448095703125,0.8058602213859558,-0.015423892997205257,0.9822424054145813
1763697208752069400,9.8440693359375,0.7863131165504456,-0.03130592033267021,0.9981244206428528
1763697208761657000,9.853656982421874,0.7679877281188965,-0.06917845457792282,1.014006495475769
1763697208771243800,9.863243896484375,0.7447755336761475,-0.09239064902067184,1.0347752571105957
1763697208780831500,9.87283154296875,0.7227849960327148,-0.10460758954286575,1.060430884361267
1763697208790420000,9.882419921875,0.7215633392333984,-0.11560284346342087,1.0824213027954102
1763697208800007700,9.892007568359375,0.7166765332221985,-0.14370182156562805,1.0995250940322876
1763697208809594400,9.901594482421874,0.7081246972084045,-0.17180079221725464,1.109298586845398
1763697208819182000,9.91118212890625,0.709346354007721,-0.22189027070999146,1.1178505420684814
1763697208828770600,9.9207705078125,0.7069029808044434,-0.2793098986148834,1.1373976469039917
1763697208838358300,9.930358154296876,0.6934643387794495,-0.3318427801132202,1.165496587753296
1763697208847945000,9.939945068359375,0.6739172339439392,-0.3880407214164734,1.1874871253967285
1763697208857532700,9.94953271484375,0.6470399498939514,-0.44790375232696533,1.1972606182098389
1763697208867121200,9.95912109375,0.6250494718551636,-0.49799323081970215,1.1948171854019165
1763697208876708900,9.968708984375,0.603058934211731,-0.543195903301239,1.1850436925888062
1763697208886295600,9.978295654296875,0.5725166201591492,-0.5725166201591492,1.1667182445526123
1763697208895883300,9.98788330078125,0.5334223508834839,-0.5835118293762207,1.1459494829177856
1763697208905471700,9.9974716796875,0.4943281412124634,-0.5529694557189941,1.1215155124664307
1763697208915059200,10.00705908203125,0.4491254389286041,-0.4760027229785919,1.0897514820098877
1763697208924646100,10.016646240234374,0.4124746024608612,-0.4100312292575836,1.0469921827316284
1763697208934233900,10.02623388671875,0.3843756318092346,-0.358720064163208,0.9920159578323364
1763697208943822300,10.035822265625,0.35505497455596924,-0.3208475112915039,0.939483106136322
1763697208953409800,10.045409912109376,0.3232909142971039,-0.2939702570438385,0.8918370008468628
1763697208962996700,10.054996826171875,0.2964136302471161,-0.284196674823761,0.8466343283653259
1763697208972584400,10.06458447265625,0.2695363461971283,-0.27320143580436707,0.7953231334686279
1763697208982173000,10.0741728515625,0.24998924136161804,-0.27564483880996704,0.735460102558136
1763697208991760400,10.083760498046875,0.22189027070999146,-0.29885703325271606,0.6780404448509216
1763697209001347300,10.093347412109376,0.1889045089483261,-0.3171824514865875,0.6192464232444763
1763697209010935000,10.10293505859375,0.16813570261001587,-0.335507869720459,0.5593833923339844
1763697209020523500,10.1125234375,0.1498102843761444,-0.3232909142971039,0.5007420182228088
1763697209030111000,10.122111083984375,0.12781979143619537,-0.2805316150188446,0.44698747992515564
1763697209039698000,10.131697998046874,0.0984991192817688,-0.26464956998825073,0.3968980014324188
1763697209049285600,10.14128564453125,0.08139539510011673,-0.26342788338661194,0.3504736125469208
1763697209058874000,10.1508740234375,0.06062658876180649,-0.23655059933662415,0.3077143132686615
1763697209068461600,10.160461669921874,0.036192700266838074,-0.22189027070999146,0.26251161098480225
1763697209078048500,10.170048583984375,0.016645587980747223,-0.21333840489387512,0.20875705778598785
1763697209087636000,10.179635986328124,-0.0029015245381742716,-0.20722992718219757,0.14522893726825714
1763697209097224400,10.189224365234375,-0.0261137206107378,-0.20234315097332,0.0841442123055458
1763697209106812200,10.198812255859375,-0.04077405482530594,-0.19989976286888123,0.019394399598240852
1763697209116399000,10.208399169921876,-0.05421269312500954,-0.18646112084388733,-0.04413371533155441
1763697209125986600,10.217986572265625,-0.06642963737249374,-0.1632489264011383,-0.10033166408538818
1763697209135575000,10.227574951171874,-0.07009471952915192,-0.12781979143619537,-0.15286453068256378
1763697209145162800,10.237162841796875,-0.06398624926805496,-0.08628217875957489,-0.21150586009025574
1763697209154749700,10.246749755859375,-0.04810422286391258,-0.037414394319057465,-0.2725905776023865
1763697209164337200,10.256337158203126,-0.02244863659143448,0.029778804630041122,-0.33978378772735596
1763697209173925600,10.265925537109375,0.009315420873463154,0.09086353331804276,-0.41675055027008057
1763697209183513300,10.275513427734374,0.039857782423496246,0.12629267573356628,-0.5010474920272827
1763697209193100000,10.28510009765625,0.06306997686624527,0.1385096162557602,-0.59023118019104
1763697209202687700,10.294687744140624,0.07040014863014221,0.12629267573356628,-0.6904101371765137
1763697209212276200,10.304276123046876,0.06673506647348404,0.11896250396966934,-0.7698202729225159
1763697209221864000,10.313864013671875,0.072843536734581,0.12629267573356628,-0.7759287357330322
1763697209231451000,10.323450927734376,0.055739812552928925,0.0847550556063652,-0.6904101371765137
1763697209241038300,10.333038330078125,0.01175880990922451,-0.023975754156708717,-0.5291464328765869
1763697209250626800,10.342626708984374,-0.029778804630041122,-0.1522536724805832,-0.3471139669418335
1763697209260214500,10.352214599609376,-0.0590994730591774,-0.25121092796325684,-0.19806721806526184
1763697209269801500,10.361801513671875,-0.10185877978801727,-0.28786176443099976,-0.10033166408538818
1763697209279389000,10.371388916015626,-0.1751604527235031,-0.27320143580436707,-0.03680354729294777
1763697209288977400,10.380977294921875,-0.26312246918678284,-0.24876753985881805,0.009620844386518002
1763697209308151800,10.40015185546875,-0.40972578525543213,-0.31473904848098755,0.0328330397605896
1763697209317739500,10.409739501953124,-0.448820024728775,-0.35261157155036926,0.030389651656150818
1763697209327328000,10.419327880859376,-0.4756973087787628,-0.34283801913261414,0.05115845799446106
1763697209346502400,10.43850244140625,-0.5123481154441833,-0.19379130005836487,0.10124793648719788
1763697209356090000,10.448090087890625,-0.49646610021591187,-0.0459662564098835,0.0975828468799591
1763697209365678600,10.4576787109375,-0.44759833812713623,0.06520794332027435,0.03649812191724777
1763697209375266300,10.467266357421876,-0.36574479937553406,0.09697200357913971,-0.09300149232149124
1763697209384853000,10.47685302734375,-0.2838912606239319,0.111632339656353,-0.23593975603580475
1763697209394440700,10.486440673828126,-0.22524993121623993,0.15561333298683167,-0.3483356535434723
1763697209404029200,10.496029296875,-0.20081603527069092,0.22402822971343994,-0.4020902216434479
1763697209413616600,10.50561669921875,-0.20936790108680725,0.2948864996433258,-0.4130854606628418
1763697209423203600,10.51520361328125,-0.2423536479473114,0.34253260493278503,-0.409420371055603
1763697209432791300,10.524791259765625,-0.26312246918678284,0.3486410677433014,-0.4130854606628418
1763697209442379800,10.5343798828125,-0.28999972343444824,0.399952232837677,-0.4130854606628418
1763697209451967200,10.54396728515625,-0.296108216047287,0.40850409865379333,-0.4289674758911133
1763697209461554200,10.55355419921875,-0.31199023127555847,0.3596363365650177,-0.4815003573894501
1763697209471142000,10.563141845703125,-0.3486410677433014,0.23502348363399506,-0.5682406425476074
1763697209480730400,10.57273046875,-0.39506545662879944,0.09941539168357849,-0.6635328531265259
1763697209490317800,10.58231787109375,-0.43538138270378113,0.07742489129304886,-0.733169436454773
1763697209499904800,10.59190478515625,-0.4634803533554077,0.17882554233074188,-0.7820371985435486
1763697209509492500,10.601492431640626,-0.44637662172317505,0.26434415578842163,-0.8590039610862732
1763697209519081000,10.6110810546875,-0.4121691882610321,0.3071034550666809,-0.9750649333000183
1763697209528668400,10.62066845703125,-0.3975088596343994,0.30221667885780334,-1.1008994579315186
1763697209538255400,10.63025537109375,-0.4133908748626709,0.2838912606239319,-1.1998567581176758
1763697209547843000,10.639843017578125,-0.43538138270378113,0.2557922899723053,-1.265828251838684
1763697209557431600,10.649431640625,-0.4512633979320526,0.20936790108680725,-1.2902621030807495
1763697209567019000,10.65901904296875,-0.45981526374816895,0.15927842259407043,-1.2939271926879883
1763697209576606000,10.66860595703125,-0.45737189054489136,0.10308047384023666,-1.3110309839248657
1763697209586193400,10.678193359375,-0.4500417113304138,0.07498150318861008,-1.3562335968017578
1763697209595782100,10.6877822265625,-0.4549284875392914,0.07009471952915192,-1.423426866531372
1763697209605369600,10.69736962890625,-0.4695888161659241,0.04810422286391258,-1.496728539466858
1763697209614956500,10.70695654296875,-0.48547086119651794,0.0261137206107378,-1.5468180179595947
1763697209624544300,10.716544189453124,-0.5001311898231506,0.0029015245381742716,-1.574916958808899
1763697209634132500,10.726132568359375,-0.5123481154441833,-0.038636088371276855,-1.5993508100509644
1763697209643720200,10.73572021484375,-0.5172349214553833,-0.07773031294345856,-1.612789511680603
1763697209653307100,10.74530712890625,-0.5172349214553833,-0.12293300777673721,-1.606680989265442
1763697209662894800,10.754894775390625,-0.5074613690376282,-0.16935740411281586,-1.5859122276306152
1763697209672483000,10.764483154296874,-0.4781406819820404,-0.1779092699289322,-1.5492613315582275
1763697209682070800,10.77407080078125,-0.43171629309654236,-0.16691401600837708,-1.4979501962661743
1763697209691657700,10.78365771484375,-0.376740038394928,-0.13148486614227295,-1.4454172849655151
1763697209701245200,10.7932451171875,-0.3242071866989136,-0.08750387281179428,-1.4051014184951782
1763697209710833700,10.802833740234375,-0.28755635023117065,-0.04352286830544472,-1.3794457912445068
1763697209720421400,10.81242138671875,-0.2777827978134155,0.018783552572131157,-1.3647854328155518
1763697209730008300,10.82200830078125,-0.29977330565452576,0.111632339656353,-1.3562335968017578
1763697209739595800,10.831595703125,-0.3449759781360626,0.22524993121623993,-1.3501251935958862
1763697209749184300,10.841184326171875,-0.4011739492416382,0.31199023127555847,-1.3415732383728027
1763697209758772000,10.85077197265625,-0.4622586667537689,0.36452311277389526,-1.3317997455596924
1763697209768359000,10.86035888671875,-0.5233433842658997,0.42072105407714844,-1.3256912231445312
1763697209777946400,10.8699462890625,-0.5734328627586365,0.5013529062271118,-1.314695954322815
1763697209787534800,10.879534912109374,-0.6149705052375793,0.5978667736053467,-1.2902621030807495
1763697209797122600,10.88912255859375,-0.6467345356941223,0.6809419989585876,-1.2523895502090454
1763697209806709200,10.898709228515624,-0.6577298045158386,0.7346965670585632,-1.2071869373321533
1763697209816297000,10.908296875,-0.6467345356941223,0.7640172243118286,-1.1534323692321777
1763697209825885400,10.917885498046875,-0.6149705052375793,0.793337881565094,-1.094791054725647
1763697209835473200,10.92747314453125,-0.5661026835441589,0.8348754644393921,-1.0349279642105103
1763697209845059800,10.937059814453125,-0.5074613690376282,0.8727480173110962,-0.9836167693138123
1763697209854647600,10.9466474609375,-0.448820024728775,0.8971819281578064,-0.9530744552612305
1763697209864236000,10.956236083984376,-0.3901786804199219,0.8849649429321289,-0.940857470035553
1763697209873823700,10.96582373046875,-0.3315373361110687,0.8519791960716248,-0.9396358132362366
1763697209883410400,10.975410400390626,-0.2667875289916992,0.8104416131973267,-0.9420791864395142
1763697209892998100,10.984998046875,-0.20081603527069092,0.7627955079078674,-0.940857470035553
1763697209902586600,10.994586669921874,-0.1372879147529602,0.7029324769973755,-0.9371923804283142
1763697209912174300,11.00417431640625,-0.08842013776302338,0.6442911624908447,-0.9310839176177979
1763697209921761000,11.013760986328125,-0.07498150318861008,0.5832064151763916,-0.9127585291862488
1763697209931348700,11.0233486328125,-0.0859767496585846,0.5245651006698608,-0.8822161555290222
1763697209940937200,11.032937255859375,-0.111632339656353,0.47081053256988525,-0.8443436026573181
1763697209950525000,11.04252490234375,-0.14706148207187653,0.4109475016593933,-0.8064711093902588
1763697209960111600,11.052111572265625,-0.18615570664405823,0.3327590525150299,-0.7649334669113159
1763697209969699300,11.06169921875,-0.2276933193206787,0.2557922899723053,-0.7172874212265015
1763697209979287800,11.071287841796876,-0.26190075278282166,0.20570281147956848,-0.6708629727363586
1763697209988875500,11.08087548828125,-0.2838912606239319,0.1776038408279419,-0.6256603002548218
1763697209998462200,11.090462158203126,-0.3071034550666809,0.16538690030574799,-0.5829010009765625
1763697210008050000,11.1000498046875,-0.3217637836933136,0.1776038408279419,-0.5425850749015808
1763697210017638400,11.109638427734374,-0.31321191787719727,0.21181128919124603,-0.5010474920272827
1763697210027225900,11.119225830078125,-0.2826695740222931,0.25212720036506653,-0.4558447599411011
1763697210036812800,11.128812744140625,-0.23746687173843384,0.2838912606239319,-0.40819868445396423
1763697210046400500,11.138400390625,-0.188599094748497,0.2948864996433258,-0.3605526089668274
1763697210055989000,11.147989013671875,-0.1385096162557602,0.293664813041687,-0.31534990668296814
1763697210065576400,11.157576416015624,-0.09086353331804276,0.30343836545944214,-0.27625566720962524
1763697210075163400,11.167163330078125,-0.04810422286391258,0.3217637836933136,-0.24693500995635986
1763697210084751000,11.176751220703125,-0.01511846948415041,0.3474193811416626,-0.22250111401081085
1763697210094339600,11.186339599609376,0.001985253533348441,0.3755183517932892,-0.19806721806526184
1763697210103927000,11.195927001953125,0.005650337319821119,0.3852919042110443,-0.18096350133419037
1763697210113514000,11.205513916015626,0.0032069480512291193,0.3755183517932892,-0.17485502362251282
1763697210123101700,11.215101806640625,0.005650337319821119,0.3352024257183075,-0.1772984117269516
1763697210132690200,11.224690185546875,0.012980503961443901,0.2716743052005768,-0.18585027754306793
1763697210142277600,11.234277587890626,0.020310672000050545,0.1776038408279419,-0.19195875525474548
1763697210151864600,11.243864501953125,0.03130592033267021,0.08842013776302338,-0.1895153671503067
1763697210161452300,11.253452392578126,0.05329642444849014,0.031000498682260513,-0.19195875525474548
1763697210171040800,11.263040771484375,0.0850604772567749,-0.004428642801940441,-0.20051060616970062
1763697210180628200,11.272628173828124,0.12048961967229843,-0.037414394319057465,-0.20661908388137817
1763697210190215200,11.282215087890625,0.14614520967006683,-0.05329642444849014,-0.20051060616970062
1763697210199803000,11.291802978515625,0.15836215019226074,-0.055739812552928925,-0.18218518793582916
1763697210209391400,11.301391357421876,0.16935740411281586,-0.06306997686624527,-0.1516428291797638
1763697210218978800,11.310978759765625,0.1754658818244934,-0.09727742522954941,-0.1247655525803566
1763697210228565800,11.320565673828124,0.1766875684261322,-0.14736689627170563,-0.1113269105553627
1763697210238153500,11.330153564453125,0.17057909071445465,-0.19501298666000366,-0.11865708231925964
1763697210247742000,11.339741943359375,0.15469707548618317,-0.23532891273498535,-0.14309096336364746
1763697210257329400,11.349329345703126,0.12293300777673721,-0.2548760175704956,-0.1785201132297516
1763697210266916400,11.358916259765625,0.08383878320455551,-0.252432644367218,-0.21394924819469452
1763697210276504000,11.368504150390624,0.04474456235766411,-0.21944688260555267,-0.23471805453300476
1763697210286092500,11.378092529296875,0.012980503961443901,-0.16691401600837708,-0.23716144263744354
1763697210295680000,11.387679931640625,-0.004123218823224306,-0.11560284346342087,-0.22738789021968842
1763697210305267000,11.397266845703125,-0.0016798300202935934,-0.09361234307289124,-0.21394924819469452
1763697210314854400,11.4068544921875,0.016645587980747223,-0.09605573117733002,-0.2041756957769394
1763697210324443100,11.416443115234374,0.039857782423496246,-0.1107160672545433,-0.2017323076725006
1763697210334030600,11.426030517578125,0.054518118500709534,-0.13270656764507294,-0.20784078538417816
1763697210343617500,11.435617431640624,0.056961506605148315,-0.14125843346118927,-0.2176143378019333
1763697210353205000,11.445205078125,0.05085303261876106,-0.14125843346118927,-0.2286095917224884
1763697210362793500,11.45479345703125,0.04230117425322533,-0.13514995574951172,-0.23593975603580475
1763697210372381200,11.464381103515626,0.03374931216239929,-0.12293300777673721,-0.23838314414024353
1763697210381968100,11.473968017578125,0.03130592033267021,-0.11560284346342087,-0.2408265322446823
1763697210391555600,11.4835556640625,0.03497100621461868,-0.09361234307289124,-0.23593975603580475
1763697210401144000,11.49314404296875,0.04963133856654167,-0.07895200699567795,-0.2163926362991333
1763697210410731800,11.502731689453125,0.06795676052570343,-0.08872556686401367,-0.19318044185638428
1763697210420318700,11.512318603515626,0.08017370104789734,-0.10949437320232391,-0.17485502362251282
1763697210429906200,11.52190625,0.08383878320455551,-0.1363716572523117,-0.16874656081199646
1763697210439494700,11.53149462890625,0.08261708915233612,-0.1522536724805832,-0.17485502362251282
1763697210449082400,11.541082275390625,0.07895200699567795,-0.1498102843761444,-0.18218518793582916
1763697210458669300,11.55066943359375,0.07406523078680038,-0.10705098509788513,-0.18462859094142914
1763697210468256800,11.5602568359375,0.07895200699567795,-0.02886253222823143,-0.16630317270755768
1763697210477845200,11.56984521484375,0.09239064902067184,0.05665608495473862,-0.12965233623981476
1763697210487433000,11.579432861328126,0.10949437320232391,0.13484452664852142,-0.09422318637371063
1763697210497020000,11.58902001953125,0.12904147803783417,0.19715094566345215,-0.06856760382652283
1763697210506607400,11.598607421875,0.14736689627170563,0.2582356929779053,-0.05268557742238045
1763697210516195800,11.60819580078125,0.15958385169506073,0.3229855000972748,-0.03680354729294777
1763697210525783600,11.617783447265625,0.1632489264011383,0.40483900904655457,-0.016034740954637527
1763697210535370200,11.627370361328126,0.1644706279039383,0.4928010404109955,0.010842538438737392
1763697210544958000,11.6369580078125,0.15958385169506073,0.5697677731513977,0.0462716780602932
1763697210554546400,11.64654638671875,0.15714046359062195,0.6308525204658508,0.08658760040998459
1763697210564134100,11.656134033203125,0.1620272397994995,0.6662816405296326,0.12201674282550812
1763697210573720800,11.665720947265624,0.17424418032169342,0.6772769093513489,0.14767232537269592
1763697210583308500,11.67530859375,0.18157434463500977,0.6699467301368713,0.16599774360656738
1763697210592897000,11.68489697265625,0.18035265803337097,0.6601731777191162,0.16966283321380615
1763697210602484700,11.694484619140624,0.16935740411281586,0.6369609832763672,0.16111096739768982
1763697210612071400,11.704071533203125,0.14492350816726685,0.5966450572013855,0.14034216105937958
1763697210621659100,11.7136591796875,0.10949437320232391,0.5551074743270874,0.111021488904953
1763697210631247600,11.72324755859375,0.072843536734581,0.5331169366836548,0.0841442123055458
1763697210640835300,11.73283544921875,0.054518118500709534,0.5563291311264038,0.07314895838499069
1763697210650422000,11.742422119140626,0.06062658876180649,0.612527072429657,0.06948387622833252
1763697210660009700,11.752009765625,0.08628217875957489,0.6601731777191162,0.06948387622833252
1763697210669598200,11.76159814453125,0.11926792562007904,0.6736118197441101,0.05604523420333862
1763697210679186000,11.77118603515625,0.13392825424671173,0.6235223412513733,0.042606595903635025
1763697210688772600,11.780772705078125,0.12904147803783417,0.552664041519165,0.03405473381280899
1763697210698360300,11.7903603515625,0.10460758954286575,0.474475622177124,0.0328330397605896
1763697210707948800,11.79994873046875,0.055739812552928925,0.41949936747550964,0.03527642786502838
1763697210717536500,11.80953662109375,0.012980503961443901,0.39140036702156067,0.03405473381280899
1763697210727123200,11.819123291015625,0.0032069480512291193,0.3217637836933136,0.043828289955854416
1763697210736711000,11.8287109375,-0.007788302376866341,0.2838912606239319,0.041384901851415634
1763697210746299400,11.83829931640625,-0.012675080448389053,0.24724042415618896,0.04016320779919624
1763697210755886800,11.847886962890625,0.001985253533348441,0.19837264716625214,0.04504998400807381
1763697210765473800,11.857473876953126,0.016645587980747223,0.1507265567779541,0.03649812191724777
1763697210775061500,11.8670615234375,0.021532366052269936,0.10308047384023666,0.012064233422279358
1763697210784650000,11.87664990234375,0.010537114925682545,0.05787777900695801,-0.013591351918876171
1763697210794237400,11.886237548828126,-0.009009997360408306,0.028557108715176582,-0.027029991149902344
1763697210803824400,11.895824462890625,-0.021226942539215088,0.0261137206107378,-0.03802524134516716
1763697210813412000,11.905412109375,-0.028557108715176582,0.04321744292974472,-0.05390727147459984
1763697210823000600,11.91500048828125,-0.028557108715176582,0.05787777900695801,-0.06978929787874222
1763697210832588000,11.924588134765624,-0.02733541466295719,0.06398624926805496,-0.08811471611261368
1763697210842175000,11.934175048828125,-0.034665580838918686,0.050547610968351364,-0.10888352245092392
1763697210851762700,11.9437626953125,-0.04932591691613197,0.0261137206107378,-0.13576079905033112
1763697210861351200,11.95335107421875,-0.0713164210319519,0.0065666078589856625,-0.16874656081199646
1763697210870938600,11.962938720703125,-0.09941539168357849,-0.001985253533348441,-0.1895153671503067
1763697210880525600,11.972525634765624,-0.13117945194244385,-0.008093725889921188,-0.18340688943862915
1763697210890113300,11.98211328125,-0.16660858690738678,-0.021532366052269936,-0.15530791878700256
1763697210899701800,11.99170166015625,-0.19959434866905212,-0.04718795046210289,-0.12354385852813721
1763697210909289200,12.001289306640626,-0.21914145350456238,-0.08261708915233612,-0.10277505218982697
1763697210918876200,12.010876220703125,-0.2276933193206787,-0.11804623156785965,-0.09177979826927185
1763697210928464000,12.0204638671875,-0.22524993121623993,-0.13026317954063416,-0.08689302206039429
1763697210938052400,12.03005224609375,-0.21914145350456238,-0.11926792562007904,-0.09422318637371063
1763697210947639800,12.039639892578125,-0.21425467729568481,-0.09972081333398819,-0.11254860460758209
1763697210957226800,12.049226806640625,-0.2044811248779297,-0.072843536734581,-0.13331741094589233
1763697210966814500,12.058814453125,-0.18615570664405823,-0.03130592033267021,-0.14186927676200867
1763697210976403000,12.06840283203125,-0.16660858690738678,0.010231691412627697,-0.12720894813537598
1763697210985990400,12.077990478515625,-0.14828316867351532,0.034665580838918686,-0.09177979826927185
1763697210995577300,12.087577392578124,-0.12140589207410812,0.031000498682260513,-0.051463883370161057
