time,seconds_elapsed,z,y,x
1763699237699444200,0.0524443359375,-0.16948153739273547,0.2702703545704484,-0.175025124728214
1763699237709404200,0.062404052734375,0.05672843391597271,0.26552579039186236,-0.23590581948542966
1763699237719365400,0.072365478515625,0.32306758651733397,0.24829145473539826,-0.31271837073210623
1763699237729325300,0.0823251953125,0.38104339014589783,0.17909896830469368,-0.31272509273383764
1763699237739285200,0.09228515625,0.26361586511731144,0.06720365070104599,-0.22976081392439082
1763699237749245400,0.102245361328125,0.11187515159845351,0.01206423954218626,-0.09942476228289306
1763699237759206400,0.112206298828125,-0.1942629274278879,-0.056876610215008255,-0.013181425270158796
1763699237769166300,0.122166259765625,-0.33746786779165266,-0.07352525493800639,0.003051624389272183
1763699237779126500,0.13212646484375,-0.3167968356847763,-0.045691199333965773,-0.05951758971046656
1763699237789087200,0.142087158203125,-0.28293606713712216,-0.04298457072377205,-0.14254485075352713
1763699237799047200,0.152047119140625,-0.24919454105496405,-0.024573592503368852,-0.19653277205601333
1763699237809007400,0.16200732421875,-0.23899814121127128,0.033493396539986134,-0.2202604517871514
1763699237818968300,0.17196826171875,-0.23855858075022696,0.09278408215939998,-0.2174495590848848
1763699237828928300,0.18192822265625,-0.22075579755604266,0.10915537124574184,-0.17996128422245383
1763699237838888400,0.191888427734375,-0.18859657222926615,0.09433452647179365,-0.18440850942227988
1763699237848849400,0.201849365234375,-0.14738953257203102,0.0911053352922201,-0.19190555064678191
1763699237858809300,0.211809326171875,-0.094124975374341,0.0491147440418601,-0.1876653192611411
1763699237868769300,0.221769287109375,-0.04683598545491695,-0.030387539479136465,-0.18229853153098374
1763699237878730200,0.231730224609375,-0.033298458489775654,-0.07130524080097675,-0.1619665951853618
1763699237888690200,0.241690185546875,-0.06388064375817776,-0.060091772869229315,-0.12679868956189602
1763699237898650400,0.251650390625,-0.1261357321411371,-0.04084901999980211,-0.07140234449990093
1763699237908611300,0.261611328125,-0.11953706452846527,-0.0502191981524229,-0.05590732679143548
1763699237918571300,0.2715712890625,-0.06142097564637661,-0.07952391083091497,-0.05521375503670424
1763699237928531500,0.281531494140625,-0.005319149196147919,-0.10563041198998689,-0.03400211324710399
1763699237938492400,0.291492431640625,0.0027536826223134993,-0.1724061926677823,0.004936835347674787
1763699237948452400,0.301452392578125,0.007146949145197868,-0.27698095812499524,0.07610862249471247
1763699237958412300,0.311412353515625,0.041708559438586236,-0.25916122379601,0.17552293644882738
1763699237968373200,0.321373291015625,-0.16515139923393726,-0.32762481143027544,0.14000117588639258
1763699237978333200,0.331333251953125,-0.1944113959878683,-0.28067718229442834,0.05476582860611379
1763699237988293400,0.34129345703125,-0.06231646318137645,-0.17043313902914523,-0.12285656433999538
1763699237998253300,0.35125341796875,-0.16457155351936817,-0.12772709298580884,-0.31302688869200646
1763699238008214300,0.36121435546875,-0.5249959340065717,-0.3768108671426773,-0.44809334812257434
1763699238018174500,0.371174560546875,-0.37490474126040935,-0.08759031290858983,-0.0633638533424586
1763699238028134400,0.381134521484375,-0.11516250270605087,0.08114654359668493,0.2537625796228647
1763699238038095400,0.391095458984375,0.2490618545860052,0.031096564531326292,0.2989672010162845
1763699238048055300,0.40105517578125,0.6559843668758869,0.07870616470724344,0.2941800398049876
1763699238058015200,0.41101513671875,0.7461316707909107,-0.007361468678712844,0.32999059071354564
1763699238067976200,0.42097607421875,0.41668227428197857,-0.3929626682594418,-0.49112632456533606
1763699238077936400,0.430936279296875,0.8522849376112223,0.23508389037698507,-0.47512649913989
1763699238087896300,0.440896240234375,1.0088006104469298,0.49370764629542824,-0.10232647507376968
1763699238097857300,0.450857177734375,0.49015258416235447,0.24626199473440646,0.08268310551419854
1763699238107817500,0.4608173828125,0.29103870957195754,0.30440380257964134,0.1473462779521942
1763699238117777400,0.47077734375,-0.03695990360677242,0.2999804331794381,0.07266030867174267
1763699238127738000,0.480738037109375,-0.2646475462526083,-0.11701631387919187,-0.23226678712964058
1763699238137698300,0.4906982421875,0.03928454716205597,-1.3975465377941727,-1.0548178268648682
1763699238147658200,0.500658203125,-0.03147650375962257,-0.5813982047080993,-0.737886843406409
1763699238157619200,0.510619140625,0.22221008801758288,0.2932072857826948,0.09059782416149974
1763699238167579400,0.520579345703125,0.1329243693679571,0.1758627628624439,-0.2427213995181024
1763699238177539300,0.530539306640625,0.3577425940573215,1.1321645397871731,0.2922055613942444
1763699238187499300,0.540499267578125,0.3367956676185131,2.0199147585332393,0.5367237812012434
1763699238197460500,0.55046044921875,-0.15009060822427273,2.2860445061676202,0.5553606771320104
1763699238207420400,0.56042041015625,-0.5531096833348274,1.769717177915573,0.26114392204582687
1763699238217380400,0.57038037109375,-0.8579980545610189,0.750757138634473,-0.6558437893614173
1763699238227341300,0.58034130859375,-0.8119283773034811,-0.006083996088802814,-1.026928095550835
1763699238237301200,0.59030126953125,-0.8836573964744806,-0.15904051513820885,-0.8635790695637464
1763699238247261200,0.60026123046875,-0.753449300327897,0.1124305935241282,-0.5316165211901068
1763699238257222400,0.610222412109375,3.2088749522536992,0.4499162892334163,-2.729005277174711
1763699238267182300,0.620182373046875,-0.21291735901534556,1.3236765610717236,-0.7058806166842579
1763699238277142300,0.630142333984375,0.6583470043540001,0.9114709938123822,-0.9586445406585932
1763699238287103500,0.640103515625,0.5709451997548342,0.2766857745707035,-0.7335232413694263
1763699238297063400,0.6500634765625,-0.21624387308955192,-0.5105265330187976,-0.14728431863188743
1763699238307023400,0.6600234375,0.6517530129164457,-0.9060906159482895,-0.36092297765910625
1763699238316984300,0.669984375,0.33399931489825246,-0.6920296398557723,-0.09955693729519843
1763699238326944300,0.6799443359375,0.400690924423933,0.6652054919466376,0.2633855634927749
1763699238336904200,0.689904296875,0.22612463111281395,0.48004926942959425,0.020371464638412
1763699238346865400,0.699865478515625,-0.17246844424903393,-0.19352453015074134,-0.4039697999641299
1763699238356825300,0.709825439453125,-0.36430326774716376,-0.39703634743914007,-0.38021220001876355
1763699238366785300,0.719785400390625,-0.4354606245100498,-0.541290796855837,0.002363222000002861
1763699238376745200,0.7297451171875,-0.7092687978178263,-0.5015457925751805,0.3623141397565603
1763699238386706400,0.73970654296875,-0.9576017536073923,-0.3664335577741265,0.6521960805088282
1763699238396665900,0.749665771484375,-1.1436199997812508,-0.3927984176084399,0.9925216758191585
1763699238406626000,0.7596259765625,-1.1553607064574956,-0.3534098255500197,1.0710612517878413
1763699238416586800,0.769586669921875,-0.5884685814857482,-0.2630097159177065,1.264236968500912
1763699238426546700,0.779546630859375,-0.09751578685641288,-0.5289952327758074,1.048657404538989
1763699238436507000,0.7895068359375,-0.13861410544216632,-0.7711810641124844,0.45452129881083964
1763699238446467800,0.7994677734375,0.18330138843059537,-0.591449350862205,0.47561260215640067
1763699238456427800,0.809427734375,0.42117549404799937,-0.32670068232268096,0.3786789991021156
1763699238466388000,0.819387939453125,3.0608395229935645,0.5103074834406376,-2.106777926211059
1763699238476349000,0.829348876953125,0.5685141732156276,0.44749972961097956,-0.8085407806918025
1763699238486308900,0.839308837890625,-2.136423999673128,-0.24169483294934033,0.9066635935306548
1763699238496269000,0.84926904296875,-0.8418541444897651,-0.07111965510100125,0.09263239872902632
1763699238506229800,0.859229736328125,-1.1660200476378202,-0.03890226984620094,0.2875929530322552
1763699238516189700,0.869189697265625,-0.6477899545043706,-0.0921449074730277,0.13871990390419958
1763699238526150000,0.87914990234375,1.516826120430231,0.005390753127634525,-0.3803282276138663
1763699238536110800,0.88911083984375,-0.14196867656707762,-0.02254939319938421,-0.11499123779237269
1763699238546070800,0.89907080078125,-0.15578502047359943,-0.10091507390588521,-0.0008162848189473151
1763699238556031000,0.909031005859375,-0.7292150227814912,-0.048775136823952195,0.050876493017375464
1763699238565991000,0.918990966796875,-1.0537842460334301,0.26175796229094267,-0.10413403595238924
1763699238575952000,0.928951904296875,-1.3346271402835845,0.5562117410033941,-0.20227263088226316
1763699238585912000,0.938912109375,-0.6744891608595848,1.0489172245189546,0.5701031959727406
1763699238595872000,0.9488720703125,0.006838906109333038,-0.6807207487255335,-0.6576619446992874
1763699238605832700,0.958832763671875,0.31846389211416243,-0.8617369488283991,-0.4141822741597891
1763699238615793000,0.96879296875,-0.06672668083906173,-0.6117056646883487,-0.20712416256666183
1763699238625752800,0.9787529296875,-0.8185130163908004,0.04997282217592001,0.4098565199151635
1763699238635713800,0.9887138671875,-1.2253227159559725,0.6150523447677493,1.0896052087381483
1763699238645674000,0.998674072265625,-1.9083406357079744,0.16298369980603455,0.7649313560679555
1763699238655634000,1.008634033203125,-2.1605425418853756,-0.1685603308945894,0.8621110428377985
1763699238665595000,1.018594970703125,-2.7998072446286675,-0.34365035581886766,0.9418377827644347
1763699238675555000,1.02855517578125,-3.11955825394392,-0.494610732614994,1.1373819821745157
1763699238685515000,1.038514892578125,-3.8763369909554717,-0.7727709636524319,1.267226797966659
1763699238695475700,1.048475830078125,-4.392863202780485,-1.1383666092976927,1.6013669826403258
1763699238705436000,1.058435791015625,-4.679667051261664,-1.3491051629692314,1.7083502705439924
1763699238715395800,1.068395751953125,0.5580535694777965,-1.683078466643393,1.4571201320081948
1763699238725355800,1.078355712890625,3.9096073923945425,-0.9581747311897575,0.41035336352139706
1763699238735317000,1.08831689453125,-0.6301777254462242,-0.6366679642483591,0.25996464913338424
1763699238745277000,1.09827685546875,-0.8363304126322268,-0.6720841455444693,-0.33547844754010436
1763699238755236900,1.10823681640625,0.9787374806165695,-0.8574930276483297,-0.16548720705956219
1763699238765198000,1.118197998046875,-5.1841766620784995,-1.0359938839294016,1.163730183134973
1763699238775158000,1.128157958984375,-4.10743414978385,-0.5351068475238978,1.1170067181438208
1763699238785118000,1.138117919921875,1.9666835190832614,-0.7638274864792823,0.47772711009234187
1763699238795079000,1.148078857421875,-0.7223071430891752,-0.9768694947876035,-0.1420798818565905
1763699238805038800,1.158038818359375,0.029494390031695364,-0.6882961524158716,-0.8795762646406888
1763699238814998800,1.167998779296875,-0.7095306636244059,-0.37092546236589546,-0.8691076237268746
1763699238824960000,1.1779599609375,-1.1829033778995275,-0.3225738116510212,-0.33102234491407867
1763699238834920000,1.187919921875,-1.2371341497808694,-0.403021267067641,0.22966230371966956
1763699238844880000,1.1978798828125,-1.4662971256762742,-0.5184479736678302,0.7649677425555884
1763699238854841000,1.207841064453125,0.13252104926407338,-0.5014418938092887,0.8811321888457984
1763699238864801000,1.217801025390625,1.1544511903971433,-0.6807070124611259,0.9604389497946947
1763699238874761000,1.227760986328125,0.9283020093649625,-0.919866627844423,0.6464551987692714
1763699238884722000,1.237721923828125,0.8850859679728746,-0.8033030261687933,0.4865781597416848
1763699238894681900,1.247681884765625,0.23019290346503257,-0.6409430112190544,0.726257634280622
1763699238904641800,1.257641845703125,0.456117043569684,-0.5827554645359516,1.2356462493106721
1763699238914601700,1.267601806640625,1.1342623888492585,-0.5006060275070369,1.7323260432846843
1763699238924563000,1.27756298828125,1.4313999998182056,-0.5112433029860258,1.6268807786032558
1763699238934523000,1.28752294921875,1.0260527740210295,-0.6463947007536888,1.1871392619036136
1763699238944482800,1.29748291015625,1.3591355585962532,-0.6836747762255371,0.8183965504042804
1763699238954444000,1.307444091796875,1.1915911267459391,-0.609882102522999,0.2902724561735056
1763699238964404000,1.317404052734375,0.52915831438303,-0.45762160291373727,0.000025499767437577247
1763699238974364000,1.327364013671875,0.09454173948168754,-0.05319149196147918,-0.047821708556637164
1763699238984324900,1.337324951171875,-0.3547422431975603,0.14611322902590035,0.08783146472070366
1763699238994284800,1.347284912109375,-0.85767890560925,-0.06365735639631748,0.3892544979238882
1763699239004244700,1.35724462890625,-1.3896733202010392,-0.15125336839333176,0.457582001555711
1763699239014206000,1.3672060546875,-1.320416828623414,-0.0045674540460109705,0.22817929862029848
1763699239024166000,1.377165771484375,-0.8111240751832723,0.15476181490570307,0.27731194364503026
1763699239034125800,1.387125732421875,-0.5316133063197136,0.20690555137991903,0.2489531335145235
1763699239044087000,1.397087158203125,0.6730401310950517,0.28895401225239037,0.17723711995556948
1763699239054047000,1.407046875,2.708496157631278,-0.45630160635635253,0.2604284672528505
1763699239064007000,1.4170068359375,2.207784770053625,-0.9279945508509874,0.3405262324489653
1763699239073967000,1.426967041015625,1.7341829231977461,-0.6255841140456497,-0.5793737131431699
1763699239083927800,1.436927734375,0.31153029345870015,-0.01885711455270648,-1.8524780248411
1763699239093887700,1.4468876953125,-0.27718261817693707,1.1084909648634493,-2.9859739593625068
1763699239103848000,1.456847900390625,0.1895791535258293,1.2289325770162045,-2.2907880474328994
1763699239113809000,1.466808837890625,0.6350596522688865,0.7280605920493602,-1.9134762450307607
1763699239123768800,1.476768798828125,0.6228314543366432,0.4692307921648025,-2.1419719891890883
1763699239133729000,1.48672900390625,0.5631780728846788,0.031846213854849335,-1.7518100575640796
1763699239143690000,1.49668994140625,0.6570704085469246,-0.07070055290609598,-1.2395377037912607
1763699239153650000,1.50664990234375,0.904486834013462,0.07305456868633628,-1.0321996062129735
1763699239163609900,1.51660986328125,1.1346592792123555,0.13187069559656084,-1.0798632746636867
1763699239173570800,1.52657080078125,1.0433826790064573,0.2419491730365902,-1.06756668767035
1763699239183530800,1.53653076171875,0.9743068046927451,0.3268316152259707,-1.0881327980980275
1763699239193491000,1.546490966796875,0.7714630959242582,0.31608627626262603,-1.1315049068346619
1763699239203451000,1.556450927734375,0.6747486885786056,0.2711829393707216,-1.312940209132433
1763699239213411800,1.566411865234375,0.4518675694316625,0.25974136177152396,-1.3615826594874263
1763699239223372000,1.5763720703125,0.011098901641368866,0.21447028754577038,-1.0267737817719578
1763699239233332000,1.58633203125,-0.4369406339347362,0.12492248389385639,-0.5378980856776238
1763699239243293000,1.59629296875,-0.595807838332653,0.0026980069123208523,-0.09205869049429893
1763699239253252900,1.6062529296875,-0.510278841868043,-0.05192790176644921,0.6008315117135644
1763699239263212800,1.616212890625,0.23503391375541685,0.10950330790057777,1.3643895336017011
1763699239273173800,1.626173828125,1.9233195936530827,0.038939606181904673,1.305399584494531
1763699239283134000,1.636134033203125,1.9966110398352146,-0.12217676538228987,0.790281193640828
1763699239293094000,1.646093994140625,0.4951058226555586,0.286581949358806,-0.4055690518543124
1763699239303054800,1.656054931640625,-0.43785014999508853,1.1866018670912832,-2.187789445251226
1763699239313015000,1.66601513671875,-0.5929530334234238,1.2068833153586833,-2.9707632384881375
1763699239322975000,1.67597509765625,-0.5139145680218935,0.36555348700396717,-1.5081921475976705
1763699239332936000,1.68593603515625,-0.518831566157937,0.16424926276244223,-0.8340855563148856
1763699239342895900,1.695895751953125,-0.3106926735907793,-0.07917363608852028,-0.06442395685464143
1763699239352855800,1.705855712890625,-0.030995442244410514,-0.007070230647176504,1.1318658491015434
1763699239362815700,1.715815673828125,0.10143442160487175,0.058198506468534465,0.7785843261063099
1763699239372777000,1.72577685546875,0.13003683123290538,-0.37205329735204573,0.5095265621960163
1763699239382737000,1.73573681640625,0.6242448282659053,-0.697812461040914,0.7361071203827858
1763699239392697000,1.745697021484375,0.9117162007451057,-0.8050112183261662,0.519762125006318
1763699239402658300,1.755658203125,0.454796608620882,-0.5054042215690017,0.3537456333756447
1763699239412618200,1.7656181640625,-0.006262567526102066,-0.193936837278679,0.3981611136853695
1763699239422578200,1.775578125,-0.19635200866162775,0.006125716338679194,0.5067278713881969
1763699239432539100,1.7855390625,0.21588906830251214,0.7704090568266808,-0.007544424030184745
1763699239442499000,1.7954990234375,0.5349193621277809,0.9883743468813597,-0.2266875256925821
1763699239452459000,1.805458984375,0.30787527808248993,1.1091391265738755,-0.10401917740106582
1763699239462420200,1.815420166015625,0.3254921833157539,0.742802599433437,0.2319166585177183
1763699239472380200,1.825380126953125,0.3148001089096069,0.16622903840281067,0.4871516487807035
1763699239482340000,1.835340087890625,-0.1735673454016447,0.04131941399052739,0.33995267034471033
1763699239492300300,1.84530029296875,-0.6480962439745664,-0.7042986081898212,0.06812836433053017
1763699239502261200,1.85526123046875,-0.5496288554817438,-0.43950485839955505,-0.4603904831051826
1763699239512221200,1.86522119140625,-0.2519710200309753,0.13949775640890003,-0.9803811561703681
1763699239522181400,1.875181396484375,-0.2299386364430189,-0.10232296794243156,-0.7385603587538003
1763699239532142000,1.88514208984375,0.24107787009477613,-0.2508477881547063,-0.23298224192261693
1763699239542102000,1.89510205078125,0.5635515823721885,-0.2652241770967841,0.29347441228628157
1763699239552062200,1.905062255859375,1.0377204154610633,-0.08967237987965344,0.8929062863349914
1763699239562023200,1.915023193359375,1.342213065367937,0.3887441737815738,1.253890054270625
1763699239571983000,1.924983154296875,1.415140354412794,0.29739830773174764,1.6563684466332196
1763699239581943300,1.934943359375,1.376842480200529,-0.1655500431627035,1.8598440235644578
1763699239591904300,1.944904296875,0.9831617267996072,0.163568513956666,1.6654174300074576
1763699239601864200,1.9548642578125,0.5208581035494804,0.11328282643929123,1.321942430755496
1763699239611824400,1.964824462890625,-0.15372282724678515,0.016597791318595408,1.5610662441730498
1763699239621784300,1.974784423828125,-0.34163258625566956,-0.5192611897468566,1.6265999158352613
1763699239631745000,1.9847451171875,-0.45492461891472336,-0.023468407740443942,0.8321534192085266
1763699239641705200,1.994705322265625,-0.9299860169291496,-0.13278072311356662,0.0644277562469244
1763699239651665200,2.0046650390625,-0.5163444255173206,-0.8830994703307747,1.2834931653738022
1763699239661626000,2.014626220703125,-0.02863397381007671,-1.034692299811542,1.9658780479192732
1763699239671586300,2.02458642578125,-0.373594243183732,-1.0110426902852951,1.5171084445029497
1763699239681546200,2.034546142578125,-0.4054980324447155,-0.6902075389951468,0.9885814137607812
1763699239691507200,2.044507080078125,-0.3598486264258623,-0.373590078465268,1.0785060148358345
1763699239701467400,2.05446728515625,-0.6580214256614446,-0.3773368272455409,1.122308331683278
1763699239711427300,2.06442724609375,-0.6403992597311735,-0.7355844116829335,1.4139333167105912
1763699239721388000,2.074387939453125,-0.4562696037828922,-1.1212307655796407,1.8524480680942534
1763699239731348200,2.08434814453125,-0.14524083010554312,-1.5262081351511179,2.3822762445628642
1763699239741308200,2.09430810546875,0.37961248055994506,-2.0773113009691238,3.2470050686836243
1763699239751268000,2.10426806640625,0.05117606048583984,-2.352805819928646,3.433080598002672
1763699239761229300,2.114229248046875,0.05801905824840069,-2.217666112598777,3.3311727136671543
1763699239771189200,2.124189208984375,0.6428799706310033,-1.657882358327508,2.337932660445571
1763699239781149200,2.134149169921875,0.6943745955467223,-1.4199170672953128,1.3917185622930526
1763699239791110400,2.1441103515625,0.7867793229997158,-1.4365334171839057,0.8979302519768476
1763699239801070300,2.1540703125,0.15116963563263416,-1.379661483144015,0.9657534958809614
1763699239811030300,2.1640302734375,0.09366028047204017,-1.2187607270918785,0.8972545446723699
1763699239820991200,2.1739912109375,0.5327788429677486,-1.2843084272794425,0.5406242957711219
1763699239830951200,2.183951171875,0.6904039383500814,-1.2640987290740013,0.45226796692609783
1763699239840911000,2.1939111328125,0.8798609268009662,-1.1410628626443444,0.4808884967327118
1763699239850871000,2.20387109375,0.4228250148206949,-1.4939536327563225,0.3365910849571228
1763699239860832300,2.213832275390625,0.608575549969077,-1.2616321928299963,0.07431202140152454
1763699239870792200,2.223792236328125,0.7855424746811389,-0.8398565409317612,-0.1648667370736599
1763699239880752000,2.233752197265625,0.24152093768715857,-0.8175666754513978,-0.12144026780128478
1763699239890713000,2.243713134765625,-0.07595978860855102,-1.2560989624917507,-0.18324644337296483
1763699239900673000,2.253673095703125,-0.5955845509707928,-1.3826590575248001,-0.3603817103892565
1763699239910633000,2.263633056640625,-0.6520294917702675,-1.0157654810234904,-0.9663386022925377
1763699239920594200,2.27359423828125,-1.0771148527383805,-0.8501084703549742,-1.405712600854039
1763699239930554000,2.28355419921875,-1.223009178316593,-0.7531821738243103,-1.7100217108875513
1763699239940514000,2.29351416015625,-0.7707739446163177,-0.7464435132190584,-1.872687723046541
1763699239950475300,2.303475341796875,-0.9243868817478418,-0.7132803715467453,-1.6061837352722883
1763699239960435200,2.313435302734375,-1.0112345595955847,-0.8053554286539554,-1.4283482110321521
1763699239970395100,2.32339501953125,-0.6979343338549137,-0.9142150318235158,-1.5694816058188676
1763699239980355300,2.333355224609375,-0.8873965830028057,-0.8292652965515851,-1.7564479464977978
1763699239990316000,2.34331591796875,-0.9076409141302109,-0.6211337105080486,-2.0033675283581016
1763699240000276000,2.35327587890625,-0.7859329353034495,-0.22934330089837313,-2.3831974510610103
1763699240010236200,2.363236083984375,-0.8516963240683079,-0.024605741207301614,-2.566324651968479
1763699240020197000,2.373197021484375,-0.9011717181161045,0.023505963271856306,-2.6360195349633693
1763699240030157000,2.383156982421875,-0.7362877376466989,0.2312254613831639,-2.6661832025587557
1763699240040117200,2.3931171875,-0.6279834302723407,0.3144482267320156,-2.750395271205902
1763699240050078200,2.403078125,-0.053963937638700006,0.859646406289935,-2.997221329563856
1763699240060038100,2.4130380859375,-0.11228022526800632,1.1717059843197464,-3.1094863572627305
1763699240069998300,2.422998291015625,-0.3312628756716847,1.1670528978168964,-2.922937949734926
1763699240079958300,2.432958251953125,-0.634021833653748,1.0374491973042488,-2.5869027450948954
1763699240089919000,2.4429189453125,-0.5443558835148811,0.8771662808895111,-2.4247996275156734
1763699240099879200,2.452879150390625,-0.8012406868115067,0.9214484902083874,-2.3485429017871615
1763699240109839000,2.462839111328125,-0.42254649014025925,1.137735617917776,-2.560474756896496
1763699240119800000,2.472800048828125,0.1394739371418953,1.5270938319444656,-2.543584412372112
1763699240129760300,2.48276025390625,-0.7382333187565207,1.8366840972512959,-2.2989918121546506
1763699240139720200,2.49272021484375,-1.1443252254411578,1.1427736120849847,-2.1823452083706854
1763699240149681200,2.50268115234375,0.7666150713711977,0.9713485394090413,-2.4818647460401055
1763699240159641300,2.512641357421875,1.9026602519840001,1.0766162555664778,-3.1071178745657204
1763699240169601300,2.522601318359375,1.4217065810605882,0.727085609537363,-3.285862914866209
1763699240179562000,2.53256201171875,2.130612975306809,0.5299392356276512,-3.7420968628138302
1763699240189522200,2.542522216796875,3.0128476455017923,0.5813870987921953,-3.7406560163557527
1763699240199482000,2.552482177734375,3.2181518991649147,0.7520645679712296,-3.516621635520458
1763699240209442000,2.562442138671875,4.648255429431796,0.9242939427673816,-3.2006197496056554
1763699240219403300,2.5724033203125,8.767095354849099,1.3092115439981222,-2.152908686006069
1763699240229363200,2.58236328125,10.994375098967552,1.4521481888145207,-0.862382553255558
1763699240239323100,2.5923232421875,6.652270023521781,1.999143188661337,-0.38606092604696746
1763699240249284400,2.602284423828125,3.101320586463809,1.7778601523607969,-0.27332477370500563
1763699240259244300,2.612244384765625,0.9362656817205249,1.7445511724770069,-0.42283436717092987
1763699240269204200,2.622204345703125,-0.11552899793088435,1.7939520399838684,-0.42936581476628777
1763699240279165200,2.632165283203125,-0.11232888671532272,1.294627722850442,-0.20254034190773962
1763699240289125000,2.642125,0.4353868286214769,0.42985915124118323,-0.09145955555737018
1763699240299085000,2.6520849609375,0.916441475701332,-0.3209714910209179,-0.3055243310421705
1763699240309045200,2.662045166015625,1.1380572510875762,-0.6773837132573127,-0.5029857622504234
1763699240319006200,2.672006103515625,1.135273173326999,-0.6520470274269581,-0.650109337362647
1763699240328966100,2.681966064453125,0.8004103004019707,-0.5987357084780931,-0.8075935629695653
1763699240338926300,2.69192626953125,-0.0308124138277024,-0.6616174043267965,-0.960078957375884
1763699240348887300,2.70188720703125,-0.8748013053238392,-0.9041746993243693,-1.0851935297757387
1763699240358847200,2.71184716796875,-1.7119862889587878,-1.214898352575302,-0.9908195480763912
1763699240368807400,2.721807373046875,-2.4280612596601245,-1.4428256491959095,-0.9142068485170602
1763699240378768100,2.73176806640625,-2.8237808254122734,-1.5390169094502926,-0.7815671413093804
1763699240388728000,2.74172802734375,-2.6937732202738522,-1.6288520786762237,-0.5239397029519081
1763699240398688000,2.75168798828125,-1.6914602182805538,-1.6469354323774574,-0.30420974131226536
1763699240408648200,2.761648193359375,-0.30920389633774753,-1.357549166187644,0.009490881922841072
1763699240418609200,2.771609130859375,0.6326701267838478,-0.861328660288453,0.23873276827335357
1763699240428569000,2.781569091796875,1.2356570629656314,-0.31047756953537464,0.2703939809501171
1763699240438529300,2.791529296875,0.9229495424211025,0.2858879026800394,-0.038953123250603676
1763699240448490200,2.801490234375,0.2181354224571958,0.6341773164764046,-0.3685767072826624
1763699240458450200,2.8114501953125,0.043605369503237304,0.753376527352631,-0.3843517840415239
1763699240468410400,2.821410400390625,0.04707045179791748,0.6408341440171003,-0.2546568981140852
1763699240478371000,2.83137109375,-0.03090374537296593,0.667795216178894,-0.22060031473338604
1763699240488331000,2.8413310546875,0.09321246363930404,0.7039329897478223,-0.005573416218161583
1763699240498291200,2.851291259765625,0.5605796538893133,0.8408554888412356,0.26958091100156306
1763699240508251100,2.861251220703125,0.20874328820109367,0.8686436594769358,0.08558803317546844
1763699240518212000,2.871212158203125,-0.20019407104253767,0.6864096080169081,-0.1248205578893423
1763699240528172300,2.88117236328125,0.1833994419775903,0.7969789377138018,0.07346212657392025
1763699240538132200,2.89113232421875,-0.031731501433998346,1.0873539226800202,-0.017409984484314918
1763699240548093200,2.90109326171875,-0.0544411997616291,1.1896803246885537,0.1703513059645891
1763699240558053400,2.911053466796875,0.5402502748269588,1.3620339103862642,0.2528174077272415
1763699240568013300,2.921013427734375,0.8382803776562213,1.6171166326969861,0.4644628471106291
1763699240577974000,2.93097412109375,0.7732287904225289,1.6284215783044695,0.854204507496953
1763699240587934200,2.940934326171875,0.3500210598945617,1.5476973517730832,0.5774836616128682
1763699240597894100,2.95089404296875,0.44028994436264035,1.4460188922792672,0.8882377100020646
1763699240607854000,2.96085400390625,0.12972184699960052,1.3657707588270305,1.2376876920104025
1763699240617815300,2.970815185546875,-0.30104608964957297,1.3035107020080088,1.1253396622031926
1763699240627775200,2.980775146484375,-0.012916691653057932,1.3297589497253297,0.8666665141850709
1763699240637735200,2.990735107421875,-1.3500560339532792,1.5414359532907604,0.14526479550302027
1763699240647696400,3.0006962890625,-1.4357985270380973,1.3601608099907636,0.10023673625290393
1763699240657656300,3.01065625,-1.2040144088588653,0.9025710635200143,-0.27755086696743964
1763699240667616300,3.0206162109375,-1.5831038884580135,0.9643769468307495,-0.1665180114120245
1763699240677577200,3.0305771484375,-1.7821945283032952,0.9219409499004483,0.11818389635384081
1763699240687537200,3.040537109375,-0.570431551144272,0.6467173568367958,0.3579278874963522
1763699240697497000,3.0504970703125,-0.3975510189630091,0.38762262240573764,0.40611762564778325
1763699240707457000,3.06045703125,-0.30385303682908416,0.42692046744078394,1.0026210450291633
1763699240717418200,3.070418212890625,-0.05111527020931243,0.49440322734415526,1.8069775257736442
1763699240727378200,3.080378173828125,0.6153272161863744,0.525295793735981,2.510529699510336
1763699240737338000,3.090338134765625,1.2877825331307946,0.516375405177474,3.6132670692831277
1763699240747299000,3.100299072265625,1.9503638140536843,0.584693300730735,4.8098266320914025
1763699240757259000,3.110259033203125,3.0730548614442346,0.4033987220779061,6.065912150579691
1763699240767219000,3.120218994140625,3.7103929800391193,-10.081369442933797,8.967596884405612
1763699240777180200,3.13018017578125,5.056932676434517,-4.129916615226865,4.995218855321407
1763699240787140000,3.14014013671875,1.931821464538574,3.8301451486229894,4.06614235445261
1763699240797100000,3.15010009765625,2.8464100058495996,-2.458144847756624,3.476003793928027
1763699240807060200,3.160060302734375,4.218541239619255,-5.8161763422548765,-1.5972446420133113
1763699240817021200,3.170021240234375,1.5621207216620445,-4.492428323382139,-1.331155080258846
1763699240826981000,3.179981201171875,-0.29147419664608315,-3.7109377544403075,-2.629219791820645
1763699240836941300,3.18994140625,-2.4015444241344928,-4.655431312410533,-4.191658493390679
1763699240846902000,3.199902099609375,-4.081105530306696,-4.583585973383486,-4.090651941809058
1763699240856862000,3.209862060546875,-4.060743125757575,-4.890806294688582,-2.0549387256413696
1763699240866822100,3.219822265625,-2.6985353201091287,-4.799449614983796,0.5153484002172947
1763699240876783000,3.229783203125,-1.6652964339762926,-4.313862146779894,2.308725855183601
1763699240886743000,3.239742919921875,-1.4299270046561956,-3.344674000275135,1.7108587462335825
1763699240896703200,3.249703125,-0.6227133809149265,-2.5943437087506056,-0.7087187627196312
1763699240906663200,3.2596630859375,-0.08063950738999992,-1.5734668760627508,-2.901402994275093
1763699240916624100,3.2696240234375,0.34883214237093924,-0.9229664935559034,-2.3466706781744957
1763699240926584300,3.279584228515625,0.6415192036718129,-0.3738169460237026,-1.3661749557137488
1763699240936544300,3.289544189453125,0.12754561720537022,0.3944388782918453,-0.6342939285933971
1763699240946505000,3.2995048828125,0.15573358254730701,0.9532774606674909,1.1980080080509186
1763699240956465200,3.309465087890625,0.6856009219825268,1.531908538749814,2.430494039765
1763699240966425000,3.319425048828125,1.1221622012108563,2.3140157782852646,3.3845477455019948
1763699240976386000,3.329385986328125,1.7328876226902008,5.13730735887587,1.7481214321792125
1763699240986346200,3.33934619140625,1.0937240422338246,5.786230116802454,-0.16486030733287332
1763699240996306200,3.34930615234375,-0.11341649928893893,4.935210084560513,-0.8068845379173755
1763699241006266000,3.35926611328125,-0.28373331846203653,4.076544506001472,-1.9063468315422534
1763699241016227300,3.369227294921875,-0.6747171243965625,3.1027836447536945,-2.393517185023427
1763699241026187300,3.379187255859375,-0.3429296403288841,2.829160180363059,-4.714644841140508
1763699241036147200,3.389147216796875,-1.4894284104168414,1.9209680620908736,-3.5142858860492705
1763699241046108200,3.399108154296875,-1.1445043814003466,1.4650187763035296,-2.8857132577121254
1763699241056068000,3.409068115234375,-1.074648170363903,2.161040554535389,-1.1890022792965174
1763699241066028000,3.419028076171875,-0.4410287800312042,3.4683600011765954,-0.6274193666487932
1763699241075989200,3.4289892578125,0.8534779467880725,4.5889510075479745,-0.07429799287617206
1763699241085949200,3.43894921875,1.838681408548355,5.729047509378194,0.4806862521588802
1763699241095909000,3.4489091796875,1.6696791791051626,5.66807018584609,0.6212696118474006
1763699241105869000,3.458869140625,1.1462801589012146,4.367680830729007,0.055254854232072825
1763699241115830300,3.468830322265625,1.3476894509524107,3.046434565544128,0.1276449676603079
1763699241125790200,3.478790283203125,0.9605553427159785,2.0857155566990375,0.71606912548244
1763699241135750100,3.488750244140625,-0.32030699923019856,1.070138583984971,1.5133616591900587
1763699241145711000,3.498711181640625,0.310077756562829,-0.9583569558888673,1.2776730809181929
1763699241155671000,3.508671142578125,2.194233799085021,-3.4085604892522094,1.7845152263358235
1763699241165631000,3.518630859375,0.8012958510648459,-3.824726046183705,2.474297233395278
1763699241175592200,3.52859228515625,0.08567103528380393,-3.123815911388397,2.2193632719054817
1763699241185552100,3.53855224609375,-1.7311644521594047,-3.42722836484313,0.7517962724238634
1763699241195512000,3.548511962890625,-1.420289407739043,-4.242581455898285,-1.2444193383529782
1763699241205472300,3.55847216796875,-1.068233115689829,-5.280276736918092,-2.0413526833593845
1763699241215433200,3.56843310546875,-0.7322288907099515,-5.947646421161294,-2.4353593077138065
1763699241225393200,3.57839306640625,0.3089935415226966,-6.047517246711254,-2.2555726494058965
1763699241235353300,3.588353271484375,0.6110925012260675,-5.086503054311871,-1.4022650907486676
1763699241245314000,3.59831396484375,0.5897855093032122,-3.424861635711789,-1.0956818983033298
1763699241255274000,3.60827392578125,0.544217936348915,-1.6610574812322854,-1.256648705329001
1763699241265234200,3.618234130859375,0.34117607465982436,-0.48615270087122914,-1.4168465738087892
1763699241275194000,3.628194091796875,0.07273439682126044,0.7765759088933467,-1.1141647727161645
1763699241285155000,3.638155029296875,0.2277460948348045,2.140581119352579,-0.7696513703271746
1763699241295115300,3.648115234375,0.20329203705787657,2.2736393442332745,-0.8103764716863632
1763699241305075200,3.6580751953125,0.33077509215474127,1.937140613734722,-0.8590043089941144
1763699241315036200,3.6680361328125,-0.2210913313870318,1.10893271728158,-0.4935600545182824
1763699241324996400,3.677996337890625,-0.6871803001284599,-0.025302783560752867,-0.36603637515008447
1763699241334956300,3.687956298828125,0.06493804385662079,-0.5128507381826639,-0.5822881392851471
1763699241344917000,3.6979169921875,0.1478127264201641,-0.1703735177963972,-0.5107905907824635
1763699241354877200,3.707877197265625,-0.36030922967493534,0.7153004791975021,-0.524441514994204
1763699241364837000,3.717837158203125,0.004903554132580757,1.2691659493356942,-0.5738619639843702
1763699241374797000,3.727797119140625,0.6322194604068995,1.2378636330991983,-0.4598533074885606
1763699241384758300,3.73775830078125,0.8372603869587183,1.211015373662114,-0.35086510950326916
1763699241394718200,3.74771826171875,0.8905424798130989,0.6433224537014961,-0.1266372519224882
1763699241404678100,3.75767822265625,0.7863105364441871,0.07244505848586559,0.05885404776781797
1763699241414639400,3.767639404296875,0.4463619577527046,-0.16139233896136282,0.10839636957198381
1763699241424599300,3.777599365234375,-0.10836918930411338,-0.22403964153230188,0.16733458849191665
1763699241434559200,3.787559326171875,-0.23168931603524834,-0.2848603131979704,0.06400660822540521
1763699241444520200,3.797520263671875,-0.08042734421035275,-0.35021979733705516,-0.17621669086664915
1763699241454480100,3.807480224609375,-0.2193774949401617,-0.2669429637134075,-0.23741817854344843
1763699241464440000,3.817440185546875,-0.42333588695228097,-0.721781657910347,-0.04248158963769674
1763699241474400000,3.82739990234375,-0.16516597574856132,-1.240318625035882,0.06395283221155405
1763699241484361200,3.837361328125,-0.1051045980175957,-0.7714519900083542,0.34122079058438537
1763699241494321200,3.847321044921875,0.08298921232130378,-0.1837672523766756,0.4509805574640631
1763699241504281000,3.857281005859375,0.2883025443400256,0.8654097921222448,0.8165677275419235
1763699241514242000,3.867241943359375,0.5251964615473523,1.3348019123286008,2.4701588184162975
1763699241524202000,3.877201904296875,-0.8556529527395963,1.3575263698339461,1.3579697296872735
1763699241534162000,3.887161865234375,-0.6871884834349155,1.203930383837223,0.3131637398794293
1763699241544122000,3.8971220703125,0.4376899909973144,0.4453974966347217,0.4776011456251144
1763699241554083000,3.9070830078125,0.2582423553854227,0.6448199987828731,0.34536358947753903
1763699241564043000,3.91704296875,-0.2770896791964769,4.254609162822366,0.4227048955723643
1763699241574003200,3.927003173828125,-0.209447637078166,11.4297620737195,0.8990710925750434
1763699241583964200,3.936964111328125,-0.2979740617930889,7.574370255637168,1.9453145678400992
1763699241593924000,3.946924072265625,0.0466331198265776,3.2095757939994334,1.1527790194012224
1763699241603884300,3.95688427734375,0.189866701762937,3.2806413808256387,1.3442979088179767
1763699241613845000,3.966844970703125,0.33636893010642377,1.0794558629065751,1.312892424467951
1763699241623805000,3.976804931640625,-0.09787417184002697,-0.11894786646366119,0.8052057910501956
1763699241633765000,3.98676513671875,-0.4470154897579923,0.47351709118187424,0.3522809676505625
1763699241643725000,3.99672509765625,0.37541382329370826,0.5276292051196098,-0.17748305754065513
1763699241653686000,4.00668603515625,-0.6881074979759753,-0.07295593061745166,-0.14324848724454642
1763699241663646200,4.016646240234375,-1.0010217931389809,0.2315419799864292,0.2980710924267769
1763699241673606100,4.026606201171875,-1.036232807251811,0.8584042972743511,0.31071948853246867
1763699241683567000,4.036567138671875,-0.6846645179152488,2.272494850373268,0.16414463334418833
1763699241693527300,4.04652734375,0.3768973033171147,3.3685873753041027,0.7234402387723327
1763699241703487200,4.0564873046875,0.18505663460008798,2.79721079839468,1.3507915086209774
1763699241713447200,4.066447265625,-0.17699731985032557,2.322978836941719,1.5837658594980835
1763699241723408100,4.076408203125,-0.24810272723026572,1.6639608014583587,1.3955065563991664
1763699241733368000,4.0863681640625,0.21200316677987574,1.1443050594359636,0.9985397670648991
1763699241743328000,4.096327880859375,0.5015636204928159,-1.3024065401583909,-0.38968255061022933
1763699241753289200,4.106289306640625,2.3628350465118886,-10.993206055188178,-4.6125691990226505
1763699241763249200,4.116249267578125,1.5542092178851366,-13.076512212657928,-6.084492347887158
1763699241773209000,4.126208984375,-1.2454536498367785,-7.587967988356947,-5.69983135176599
1763699241783170300,4.13617041015625,-1.3955810829401016,-3.6853263433218,-3.3987668249905107
1763699241793130200,4.146130126953125,-0.6345629547931253,-1.327160457664728,-0.5278258236702531
1763699241803090200,4.156090087890625,-0.7761836947053671,-0.38689386973977086,2.6508649296566844
1763699241813050400,4.16605029296875,-0.9081494481742381,0.2935357870846987,4.636780095693469
1763699241823011000,4.176010986328125,-0.20704715180769562,0.1978881321877241,4.455409967586398
1763699241832971000,4.185970947265625,-0.12717442753911018,-0.47391748867630956,3.1955192115962503
1763699241842931200,4.19593115234375,0.15130466018915176,-2.9157191043972968,2.890333903250098
1763699241852892200,4.20589208984375,0.6353501596480607,-4.644746544528007,2.7946365639925
1763699241862852000,4.21585205078125,0.6115929980941116,-4.98497452468276,1.179190056464821
1763699241872812300,4.225812255859375,0.6344961731672286,-4.510035291743279,0.12320377034246921
1763699241882772200,4.235772216796875,0.4243956251382828,0.6526338874042034,-0.17729206501320002
1763699241892733200,4.245733154296875,0.9338982219368219,-3.9980297722131013,0.687912998317182
1763699241902693400,4.255693359375,-2.2014906383454798,-4.646421199741959,1.9357355692423879
1763699241912653300,4.2656533203125,-0.33968072153553364,-2.4860768107771873,0.5671444922976195
1763699241922614000,4.275614013671875,0.4886206984199583,-2.2903134156584737,0.20024916223064063
1763699241932574200,4.28557421875,0.5287240146189928,-1.5226806916773319,0.5246164331696928
1763699241942534100,4.2955341796875,0.4533363268099725,-0.49159693775177,1.2754662185236811
1763699241952494000,4.305494140625,0.27804171922430393,0.5580652599155903,2.1976536905311046
1763699241962455300,4.315455322265625,0.43327436651214957,1.5925748966366051,2.8250965841859577
1763699241972415200,4.325415283203125,0.8929157848156988,2.0616531285881994,3.040776978173852
1763699241982375200,4.335375244140625,1.2608844432026147,1.749761600601673,2.9892680324718355
1763699241992336400,4.34533642578125,1.4690528541252017,1.3636322854936123,2.4832114844739435
1763699242002296300,4.35529638671875,1.6648887299582362,0.8945791879832744,1.6918185301989317
1763699242012256300,4.36525634765625,1.8690132723174988,0.44803369035720825,0.7345512692429125
1763699242022217200,4.37521728515625,1.8362351844400167,0.18738135122060776,-0.373931804575026
1763699242032177200,4.38517724609375,1.7527374015420674,0.09026420829296111,-1.543010655261576
1763699242042137000,4.39513720703125,1.3639648784488438,0.056475335937738416,-2.5538132531806825
1763699242052097000,4.405096923828125,0.5407707185044884,0.09131400960683822,-3.088451752540469
1763699242062058200,4.415058349609375,0.11048048236966132,0.18099661861956118,-3.19770240085423
1763699242072018200,4.42501806640625,0.3778144912272692,0.2374111642807722,-2.6956267391860482
1763699242081978000,4.43497802734375,0.39658641171455383,0.22586159626245497,-1.3360847917459904
1763699242091939300,4.444939208984375,0.2941583028972149,0.10350012196302413,0.6105470692377537
1763699242101899300,4.454899169921875,-0.3663485098391771,0.07630290295779704,2.4832564926594496
1763699242111859200,4.464859130859375,-1.3671324025690554,0.4676461533218622,3.6703941471278667
1763699242121819100,4.474819091796875,-1.4875854128986596,1.0097112955510616,3.6225253114938734
1763699242131780000,4.484780029296875,-1.0125745760276914,1.4692863706201313,2.499777419349551
1763699242141740000,4.494739990234375,-0.788127230477333,1.7249930700480938,0.9587482932940125
1763699242151700200,4.5047001953125,-0.8297197623208165,1.7967659283608197,-0.522850738671422
1763699242161661200,4.5146611328125,-0.8485358142107725,1.769780306279659,-1.6839159403808415
1763699242171621000,4.52462109375,-0.6982803708136082,1.640541347426176,-2.475655370005965
1763699242181581300,4.534581298828125,-0.3459621398925781,1.4006681769460438,-2.767377970188856
1763699242191542300,4.544542236328125,-0.14325930089950561,1.2660112846970557,-2.3518375594183802
1763699242201502200,4.554502197265625,-0.2482347561120987,1.3922434629499911,-1.4344577799536287
1763699242211462100,4.564462158203125,-0.3583990121394396,1.5629945818871258,-0.4111785622991621
1763699242221422000,4.574422119140625,-0.36737697610408065,1.5666566115260123,0.43716845134124155
1763699242231383000,4.584383056640625,-0.30573475892245766,1.4425702131301164,1.0386885298408568
1763699242241343200,4.59434326171875,-0.10517857656925916,1.2853531140267849,1.438311094380915
1763699242251303200,4.60430322265625,0.22219956662356852,1.1898323003798723,1.7032739901930092
1763699242261264100,4.61426416015625,0.5757058382853866,1.1835983744263647,1.9274824124209582
1763699242271224300,4.624224365234375,0.9234870102986693,1.1444833386123179,2.162109060549736
1763699242281184300,4.634184326171875,1.1373039485022425,1.0785253040581941,2.334088552238047
1763699242291144200,4.644144287109375,1.1491861094757914,1.0033224712967872,2.3049382994689047
1763699242301105200,4.654105224609375,1.0803645021840929,0.9497241521000862,2.0745814376138147
1763699242311065000,4.664065185546875,1.0116343725681305,0.976403484711051,1.7689378641061484
1763699242321025000,4.67402490234375,1.0474608882308005,0.983096844869852,1.4931759263820945
1763699242330986200,4.683986328125,1.2359107454657554,0.97976214748919,1.2847301598228513
1763699242340946200,4.6939462890625,1.3928507811933755,1.0191823037296532,1.1366177198037504
1763699242350906000,4.703906005859375,1.5492887126177548,1.063756189471483,1.0798486616164444
1763699242360867300,4.713867431640625,1.6899077281415462,1.1166747097104788,1.1675140855878592
1763699242370827300,4.7238271484375,1.8977166581019758,1.1193769544064998,1.3377851659230886
1763699242380787200,4.733787109375,2.378949730488658,1.0007160881906747,1.3860207890428602
1763699242390747100,4.7437470703125,2.952214897623658,0.6555722789436579,1.1675891966506837
1763699242400708000,4.7537080078125,3.3660537651732563,-0.21585633507668972,0.9421090009212494
1763699242410668000,4.76366796875,3.665238079538941,-1.8034505206912754,0.7919498575054109
1763699242420628200,4.773628173828125,3.6922201944887636,-3.2077427333533763,0.2315373038113117
1763699242430589200,4.783589111328125,3.346197556580603,-3.798112764546275,-0.43688481209427116
1763699242440549000,4.793549072265625,2.6993773238912224,-3.2843045795083046,-0.7998695445887744
1763699242450509300,4.80350927734375,1.8518422111555932,-1.8261866686344146,-0.8622523510046303
1763699242460469200,4.81346923828125,1.2167194305226205,-0.09337211118042468,-0.864620395310223
1763699242470430200,4.82343017578125,-0.25439532456845043,1.5931354531288147,-0.4130050470739603
1763699242480390400,4.833390380859375,-2.8379379455804825,3.0693869865864514,0.43238881584927435
1763699242490350300,4.843350341796875,-4.274025810953974,4.192976005730032,0.9528544129498302
1763699242500311000,4.85331103515625,-3.2982547789275642,4.4956127986371515,0.9441511742733418
1763699242510271200,4.863271240234375,-1.4067641557335853,3.732171681126952,1.5058974607892333
1763699242520231200,4.873231201171875,0.022515783190727234,2.3891718492954968,2.0138484442315994
1763699242530191000,4.883191162109375,0.7981231393128633,0.6114519821882247,1.833915070929378
1763699242540152300,4.89315234375,0.38162820429652927,-1.1105471667408942,2.135464945382625
1763699242550112300,4.9031123046875,-0.770036862513423,-2.3518033648878336,2.7779253754273054
1763699242560072200,4.913072265625,-1.3297960668653248,-2.9419021779239176,2.581608145818114
1763699242570033400,4.923033447265625,-1.2986723220661283,-2.6893653407037257,1.331492933911085
1763699242579993300,4.932993408203125,-1.5061767161220312,-1.864122139275074,-0.1740169888652861
1763699242589953300,4.942953369140625,-1.7801842113941906,-0.9533370819002389,-1.4856202503055334
1763699242599913200,4.952913330078125,-2.140121831277758,-0.08058569484353065,-2.3853736260563134
1763699242609874200,4.962874267578125,-2.252921111983806,0.4936971249014139,-2.7325875195756555
1763699242619834000,4.972834228515625,-2.1037505412138997,0.7351502580493688,-2.4910499230146406
1763699242629794000,4.9827939453125,-1.8847873261630534,0.6991600762575865,-1.9454408245682715
1763699242639755300,4.99275537109375,-1.6419776638396084,0.4328331986159086,-1.145480459890887
1763699242649715200,5.002715087890625,-1.49519354981482,-0.06920213104188441,-0.2330149020832032
1763699242659675100,5.012675048828125,-1.4494168641544878,-0.6529641422718763,0.43078138065263627
1763699242669635300,5.02263525390625,-1.400951670062542,-1.080780389508605,0.6995437418129294
1763699242679596300,5.03259619140625,-1.426796305415034,-1.3355448396503924,0.6643930795852094
1763699242689556200,5.04255615234375,-1.4361872340947388,-1.453035493043065,0.47472054868750274
1763699242699516400,5.052516357421875,-1.438348503781855,-1.4356500584781169,0.20142112861946224
1763699242709477000,5.06247705078125,-1.4066723857969046,-1.2205150234133004,-0.13298092186078428
1763699242719437000,5.07243701171875,-1.4992070232398806,-0.839237824511528,-0.5104502894448116
1763699242729397200,5.082397216796875,-1.7358039485283194,-0.4845698155939579,-0.8299779748655856
1763699242739357200,5.092357177734375,-1.9253478846102952,-0.1814139672487974,-1.1211912372868507
1763699242749318100,5.102318115234375,-1.9876358523495494,-0.05861643961966037,-1.3328541392616926
1763699242759278300,5.1122783203125,-1.955726217869669,-0.06539397093057632,-1.3938387693174183
1763699242769238300,5.12223828125,-1.89555904167667,-0.13750994359254837,-1.2994535355716943
1763699242779199200,5.13219921875,-1.7688647988699375,-0.16980360895395277,-1.1259693384088576
1763699242789159400,5.142159423828125,-1.633237746414542,-0.15039806673824788,-0.8698363763928413
1763699242799119400,5.152119384765625,-1.5274860461324453,-0.07109948909580707,-0.5816860452061519
1763699242809080000,5.162080078125,-1.3807336424201726,0.050213937455415726,-0.2537443863790482
1763699242819040300,5.172040283203125,-1.3112749062687157,0.17385200756192207,0.05831697261589579
1763699242829000200,5.182000244140625,-1.321832540640235,0.3563999472767114,0.3018175124134868
1763699242838960000,5.191960205078125,-1.3037795820772646,0.4539870458036661,0.5048045386428013
1763699242848921300,5.20192138671875,-1.247569619077444,0.5210650242984295,0.6666564214073121
1763699242858881300,5.21188134765625,-1.085318032938242,0.6015665479898452,0.6875561477035284
1763699242868841200,5.22184130859375,-1.002518753698468,0.67733285985291,0.5690793328177184
1763699242878802200,5.23180224609375,-0.9879758490830659,0.7037742920547724,0.42753940305672583
1763699242888762000,5.24176220703125,-0.9038046969681978,0.6667746409595012,0.26010440466394646
1763699242898722000,5.25172216796875,-0.7142261279642581,0.558537553602457,0.1597862554715946
1763699242908682000,5.261681884765625,-0.42780689488649365,0.47252340396940706,-0.11230377054037526
1763699242918643200,5.271643310546875,-0.28518234822656957,0.34510581532418727,-0.482408984298259
1763699242928603100,5.28160302734375,-0.2576771227180958,0.12909165933728217,-0.8561092451397329
1763699242938563000,5.29156298828125,-0.17122520272228867,-0.1003209074050188,-1.2854479527033864
1763699242948524300,5.301524169921875,0.05702712460160255,-0.366785147690773,-1.634424764242023
1763699242958484200,5.311484130859375,0.40173491705153136,-0.5588000039309263,-1.953748634186387
1763699242968444200,5.321444091796875,0.7399906838178634,-0.678998162716627,-2.208962727791816
1763699242978404400,5.331404296875,0.9161913733977823,-0.7423387082487344,-2.3849925177842377
1763699242988365000,5.341364990234375,0.9859774418074637,-0.7700964837461709,-2.396717442369461
1763699242998325000,5.351324951171875,1.1535435740329325,-0.7970201465070247,-2.3700597370684147
1763699243008285200,5.36128515625,1.262114861780405,-0.7367839967310428,-2.2530415234930814
1763699243018246100,5.37124609375,1.4306804533720017,-0.5921230123400688,-2.0297816341616213
1763699243028206000,5.3812060546875,1.6044703554831443,-0.5134861134767532,-1.686709516622126
1763699243038166300,5.391166259765625,1.7167521881863474,-0.43293958159983154,-1.3955340289279818
1763699243048126200,5.401126220703125,1.7788976787149906,-0.33432606263458725,-1.1956760579720138
1763699243058087200,5.411087158203125,1.7169979796409607,-0.19329262109100817,-1.0373663413263856
1763699243068047400,5.42104736328125,1.6475390973590314,0.026251462587714193,-0.9777820795878768
1763699243078007300,5.43100732421875,1.5420903255462646,0.18734101921021937,-1.003941333847493
1763699243087968000,5.440968017578125,1.4414298109233379,0.28765432783067224,-1.1618677502639592
1763699243097928200,5.45092822265625,1.3486369609355926,0.3213379862457514,-1.4552750886633992
1763699243107888000,5.46088818359375,1.1742904478549956,0.3189911308586597,-1.7694022667475044
1763699243117848000,5.47084814453125,0.9948305372834205,0.3650689914226532,-2.0523886027671394
1763699243127809300,5.480809326171875,0.9089103495441376,0.4780500584363937,-2.222222899120301
1763699243137769200,5.490769287109375,0.8549369864899664,0.5858610293358564,-2.24465611859411
1763699243147729200,5.500729248046875,0.8357293779991567,0.7283569446474313,-2.186529216057062
1763699243157690400,5.5106904296875,0.8999624884568155,0.7484440393865108,-2.023777133049816
1763699243167650300,5.520650390625,1.0589024658299981,0.5618617295891046,-1.7416940294802188
1763699243177610200,5.5306103515625,1.2395149074375629,0.2197434056431055,-1.3714587413355708
1763699243187570200,5.540570068359375,1.3789841684043407,-0.08003799783289432,-1.025695996472612
1763699243197531100,5.55053125,1.5193885182641447,-0.28113106354177,-0.8429655397977679
1763699243207491000,5.560490966796875,1.597653807336092,-0.4068494470536709,-0.8330099629726261
1763699243217451000,5.570450927734375,1.674544154793024,-0.4643704926520586,-1.0073124177157877
1763699243227412200,5.580412109375,1.7620223856292665,-0.5662181712329387,-1.3712513821952044
1763699243237372200,5.5903720703125,1.7984708325825631,-0.7456301510095595,-1.8345482542663811
1763699243247332000,5.60033203125,1.7946565349914132,-0.9593746084988116,-2.404956862926483
1763699243257292300,5.610292236328125,1.7278747629642486,-1.0961913091301918,-2.96537774605751
1763699243267253200,5.620253173828125,1.6463303060911594,-1.1498030723303556,-3.4518791142359375
1763699243277213200,5.630213134765625,1.5377705626510083,-1.1759072354018687,-3.8030505132094024
1763699243287173400,5.64017333984375,1.4899195549346507,-1.1660288154661655,-4.12651235974133
1763699243297134000,5.650134033203125,1.6179823096156118,-1.3347002055197954,-4.2332814203724265
1763699243307094000,5.660093994140625,1.9765012948729097,-1.774896041858196,-4.152869913052022
1763699243317054200,5.67005419921875,2.4123605633117258,-2.302709955894947,-3.997953784367442
1763699243327014100,5.68001416015625,2.9043688583433624,-2.8206624011307952,-3.815523918074369
1763699243336975000,5.68997509765625,3.2844109624922275,-3.0477912408500907,-3.6036774031609293
1763699243346935300,5.699935302734375,3.496841414773464,-3.0069027656227347,-3.3654940854638813
1763699243356895200,5.709895263671875,3.606979367315769,-2.8030484185069797,-3.0707720112040637
1763699243366856200,5.719856201171875,3.5560067204475403,-2.648898305758834,-2.75175048520714
1763699243376816400,5.72981640625,3.4708348668575284,-2.6795179004281757,-2.3360465544380244
1763699243386776300,5.7397763671875,3.3731226806461807,-2.8947347685575484,-1.7897934589996933
1763699243396736300,5.749736328125,3.101215957045555,-3.1222739426434036,-1.1200068498078732
1763699243406697000,5.759697021484375,2.832633993953466,-3.0833126360863443,-0.37222536598332223
1763699243416657000,5.769656982421875,2.3600433699667454,-2.6064450654327866,0.5318105093922466
1763699243426617000,5.7796171875,2.0532032801508904,-1.9298007723659276,1.5700000767350195
1763699243436578000,5.789578125,1.9530016152113674,-1.3300117554426192,2.487664372229576
1763699243446538000,5.7995380859375,1.7979507542312143,-0.9920990664929151,3.136557319539785
1763699243456498200,5.809498291015625,1.406820854356885,-1.022870052331686,3.5977316464990374
1763699243466458000,5.8194580078125,0.49105450143814083,-1.2442588870942592,4.142537027347087
1763699243476419000,5.829419189453125,-1.1698106720924377,-1.7573662303864954,4.797978957909345
1763699243486379300,5.839379150390625,-2.8129654168874025,-2.6997949647814035,5.478978523576259
1763699243496339200,5.849339111328125,-3.4316944043412803,-3.8382869540244338,5.492842798277735
1763699243506300000,5.8592998046875,-3.2656270593062042,-4.9174704297304155,4.8722103152900935
1763699243516260000,5.869260009765625,-2.8646558566361664,-5.276227753788232,3.8559190568268296
1763699243526220000,5.879219970703125,-1.5925070920974016,-4.671729243999719,2.3886446105509993
1763699243536180000,5.889179931640625,0.1085576976135373,-3.9527264031529423,1.1279890807334334
1763699243546141200,5.89914111328125,1.0977847158014773,-3.694220428395271,0.5776268694758415
1763699243556101000,5.90910107421875,1.0189391426235437,-3.621304829788208,0.2574695443820208
1763699243566061000,5.91906103515625,-0.13003741575479508,-3.3835172334104775,-0.06456767617426812
1763699243576021200,5.929021240234375,-1.9083470654487609,-2.843739325335622,-0.13869462333247065
1763699243585982200,5.938982177734375,-3.2928032355234027,-1.983730515474081,-0.23942184651605783
1763699243595942100,5.948942138671875,-4.117431227663159,-1.004725323832035,-0.12973277025241403
1763699243605902000,5.958902099609375,-4.378745245578885,0.08156126187741757,0.1687297326447442
1763699243615863000,5.968863037109375,-4.149605650559067,1.126875785729289,0.7360416539311408
1763699243625823000,5.978822998046875,-3.656486033284664,1.9133143324673174,1.624181456516683
1763699243635783200,5.988783203125,-3.3538875265613197,2.7953537723511457,2.3166228920437395
1763699243645744000,5.998744140625,-3.4372482390761374,3.7931981044977903,2.6438404378473757
1763699243655704000,6.0087041015625,-3.4011046202883124,4.799029928267002,2.715885391099751
1763699243665664300,6.018664306640625,-3.1693215250223874,5.507694330450892,2.596200442533195
1763699243675624200,6.028624267578125,-3.2260078733623025,6.0038879483431575,2.331111436123401
1763699243685585000,6.0385849609375,-3.482840361949801,6.29204438047707,1.8841085501186547
1763699243695545000,6.048545166015625,-3.755269648119807,6.3291819787383075,1.2280780060134828
1763699243705505000,6.058505126953125,-4.173579815864563,6.286565656805038,0.441431077221781
1763699243715466000,6.068466064453125,-4.652154774957895,6.337242535597086,-0.2148307914212346
1763699243725426200,6.07842626953125,-4.914056821894645,6.393485231822729,-0.5938439909137785
1763699243735386000,6.08838623046875,-4.850365270967782,6.31899376220107,-0.49871013075783843
1763699243745346000,6.098345947265625,-4.650239296725392,6.187504978594183,-0.011500413380656391
1763699243755307300,6.108307373046875,-4.302580289787054,6.043226271519065,0.7664303624540567
1763699243765267200,6.11826708984375,-3.261564924433827,5.760443349117041,1.4063535291060805
1763699243775227100,6.12822705078125,-2.052657336705923,5.286418308413029,1.93602052366361
1763699243785188000,6.13818798828125,-0.40706688919663425,4.46376103182435,2.5054072419300675
1763699243795148000,6.14814794921875,2.1213141088247296,3.2755443499475714,2.6837910477027296
1763699243805108000,6.15810791015625,4.980242235463857,1.7602923469662666,2.052890268678963
1763699243815068000,6.16806787109375,7.128632567262649,-0.1783423047184944,0.31483393811397253
1763699243825029000,6.178029052734375,7.516151875424384,-2.1036814215004442,-2.2248026864804324
1763699243834989000,6.187989013671875,6.952234966871142,-3.5332191345781085,-4.417781955459714
1763699243844949000,6.197948974609375,6.450020773515105,-4.10318233755827,-5.5112838793754575
1763699243854910200,6.20791015625,6.988488768035173,-4.019868094533682,-5.320504117888212
1763699243864870100,6.2178701171875,8.007437847530841,-3.3481489829093216,-4.2235052917674185
1763699243874830000,6.227830078125,8.32853851788938,-2.255838314604759,-2.839939640791714
1763699243884790300,6.237790283203125,7.597551809260248,-1.0763426993221044,-1.4438281042367218
1763699243894751000,6.2477509765625,6.421026149699092,0.0597439823448658,-0.40258481187913564
1763699243904711000,6.2577109375,5.374023526629805,1.0794681378662585,0.09066732746744528
1763699243914671000,6.267671142578125,3.946068698829412,1.538626448827982,0.43301988029442723
1763699243924631000,6.277631103515625,2.4587860682696103,0.907644421261549,0.8931619415964931
1763699243934592000,6.287592041015625,1.7580325853407381,-0.611378916952014,1.1734001479517668
1763699243944552200,6.29755224609375,1.2734504947870968,-2.0769500664412974,1.043498998862505
1763699243954512100,6.30751220703125,0.32519057002067564,-2.687332958093285,0.7744301290363073
1763699243964473000,6.31747314453125,-0.061597501257061954,-2.7855326355606316,0.7353076405681669
1763699243974433300,6.327433349609375,1.5276871216624974,-3.6541859396487473,1.5121180888697505
1763699243984393200,6.337393310546875,3.930078225754201,-6.15065964127779,3.7511435081005096
1763699243994353200,6.347353271484375,2.7441408869862554,-8.901702562737464,6.26983313319087
1763699244004314000,6.357314208984375,-4.05682595231384,-9.389643316069245,8.134705798572302
1763699244014274000,6.367274169921875,-9.95344448928833,-7.255167527854442,9.438824403345585
1763699244024234000,6.37723388671875,-9.727132811170815,-2.4713965435177085,8.929530480861663
1763699244034195200,6.3871953125,-7.7738775134593245,3.0608465372562406,8.338791031834482
1763699244044155100,6.397155029296875,-6.584964666011929,6.842642957773804,9.176714851137994
1763699244054115000,6.407114990234375,-5.525335201081633,8.762720208504795,9.340973100924492
1763699244064075000,6.417074951171875,-7.008157929623127,8.904982899582386,7.208164369139075
1763699244074036200,6.4270361328125,-9.478613977420329,6.747399207502603,3.3843729734569785
1763699244083996200,6.43699609375,-9.274688903155923,2.714965645906329,0.3116467594452202
1763699244093956000,6.4469560546875,-8.463667119303345,-1.4256687626898288,-1.903699239642918
1763699244103917000,6.4569169921875,-7.284841366106272,-5.68864068018794,-3.3387010633453724
1763699244113877000,6.466876953125,-5.679822582960129,-10.018153400564193,-3.911296076133847
1763699244123837000,6.4768369140625,-3.6428447536841033,-13.432580736023187,-3.3116581581190228
1763699244133797000,6.486797119140625,-0.43802901369333264,-13.651272586786746,-1.1368138268977404
1763699244143758000,6.496758056640625,1.1870733570605516,-9.187215202364325,-0.17081486835572868
1763699244153718000,6.506718017578125,0.31069851880967614,-4.070978688567877,-0.24630738651240244
1763699244163678200,6.51667822265625,-1.1528174517154692,-0.4891735099971294,-0.15912019277829675
1763699244173639200,6.52663916015625,-2.60988906840682,1.9313234518885611,0.117115134611167
1763699244183599000,6.53659912109375,-3.8234851062119004,3.2748657200336453,0.4956608992550522
1763699244193559300,6.546559326171875,-4.241103784561157,3.647562137594819,0.9417881714690476
1763699244203519200,6.556519287109375,-4.131366229513287,3.3596780926615,1.1485975689981132
1763699244213480000,6.56647998046875,-3.680167937645316,2.813841030678153,1.1496315882209687
1763699244223440100,6.576440185546875,-3.054642421919107,2.028693692794442,0.975106649833545
1763699244233400000,6.586400146484375,-2.469615213058889,1.012701709538698,0.8259769225306809
1763699244243360000,6.596360107421875,-1.9232244627155362,-0.01650748268663883,0.6008936536969617
1763699244253321200,6.6063212890625,-1.396943603464961,-0.8266518991827965,0.27953239617347714
1763699244263281200,6.61628125,-1.073097579921037,-1.596284857070446,0.1903419911244884
1763699244273241000,6.626240966796875,-0.8210096555121242,-1.9757488690704106,0.031923845668323333
1763699244283202000,6.6362021484375,-0.7424895148962736,-1.8019447923034428,-0.1690786922128871
1763699244293162000,6.646161865234375,-0.9270904416181146,-1.2166735455542803,-0.26345808073971416
1763699244303122000,6.656121826171875,-1.1137240432113409,-0.3610007190704346,-0.43379630802702157
1763699244313081900,6.666081787109375,-1.138414247831702,0.4425140501528978,-0.699474256773293
1763699244323043000,6.67604296875,-0.9645758304037153,0.9498831420540809,-1.0552966964229942
1763699244333003000,6.6860029296875,-0.6151578509688377,1.1642302416116,-1.4282583407916127
1763699244342963000,6.695962890625,-0.37549335480332374,1.1133809288620948,-1.7138579280495643
1763699244352924200,6.705924072265625,-0.2515210843063891,0.860075445356965,-2.047696499428153
1763699244362884000,6.715884033203125,-0.12754340698197483,0.5304875171601772,-2.481374039913714
1763699244372844000,6.725843994140625,0.002496492990851402,0.0889314983844757,-2.7912936833053825
1763699244382804200,6.73580419921875,-0.03088321404159069,-0.3978589158684015,-3.067183339062333
1763699244392765000,6.745764892578125,-0.3492136890344322,-0.7223352001398802,-3.1969960061505436
1763699244402725000,6.75572509765625,-0.8583556358270347,-0.8412035716265439,-3.1178374215006825
1763699244412685000,6.76568505859375,-1.2861474792748688,-0.7504507030338049,-2.95890708873868
1763699244422646000,6.77564599609375,-1.4675995865769684,-0.4935492408633232,-2.864955131843686
1763699244432606200,6.785606201171875,-1.5292270445808767,-0.18025486034154892,-2.9489783999204633
1763699244442566100,6.795566162109375,-1.6219588120311497,0.014983049598336219,-3.042537265844643
1763699244452526000,6.805526123046875,-1.8561029373399913,-0.08728314665555953,-2.6167031323358416
1763699244462487300,6.8154873046875,-2.2986769009865817,-0.21465105094015596,-2.210859209062904
1763699244472447200,6.825447265625,-3.187832456485927,-0.6819324626028538,-2.4221157952591774
1763699244482407200,6.8354072265625,-4.578763960054516,-1.5875345643818377,-2.764110785086453
1763699244492367400,6.845367431640625,-5.5538633764296765,-2.5001433300524947,-3.3582012981072067
1763699244502328000,6.855328125,-5.57338348493576,-3.4369904649227854,-3.6944042605295775
1763699244512288000,6.8652880859375,-4.988312144672871,-4.045923157766461,-3.350358475652337
1763699244522248200,6.875248291015625,-3.7352573721826072,-4.055348573237658,-2.6515415137439966
1763699244532209200,6.885209228515625,-2.5674802517443895,-3.5088568467378614,-1.8794491800054907
1763699244542169000,6.895169189453125,-2.13748373785913,-2.7454659981101748,-1.0179327420599757
1763699244552129300,6.90512939453125,-2.0149922074392435,-2.046648451679945,-0.1228837446078658
1763699244562089200,6.915089111328125,-1.7532164172306657,-1.4647878901571034,0.4253079907428473
1763699244572050200,6.92505029296875,-1.2990350178986787,-1.0573854853957891,0.5827700045179576
1763699244582010400,6.93501025390625,-0.8617863409280776,-0.6900643311321735,0.7350521314371377
1763699244591970300,6.94497021484375,-0.325035087198019,-0.24394027378857133,1.2080657300762832
1763699244601931000,6.954930908203125,0.5380605827629565,0.27844050928354264,2.0744480204924938
1763699244611891200,6.96489111328125,1.6344786863863467,0.8535761464655399,3.144709354074299
1763699244621851100,6.97485107421875,2.7887314316019416,1.4588696060240267,4.1801662085175515
1763699244631811000,6.98481103515625,3.674361589454114,1.9048416876763103,4.716174242664874
1763699244641772300,6.994772216796875,3.597060030847788,2.2219524116158484,4.402697199052572
1763699244651732200,7.004732177734375,2.978804213863611,2.405833645761013,3.4349206729114052
1763699244661692200,7.014692138671875,2.206644075585902,2.106023016190529,1.8330530472725628
1763699244671653400,7.0246533203125,1.5830930748030543,1.0723065756738186,-0.07175839139595627
1763699244681613300,7.03461328125,0.8668237505733967,-0.35792028871178627,-1.6509692179381847
1763699244691573200,7.0445732421875,-0.009373685283958912,-1.547818640065193,-2.824440750625729
1763699244701533200,7.054533203125,-0.30126959620714183,-2.0626456467568874,-3.6205759309917687
1763699244711494100,7.064494140625,0.33581951606273647,-1.7046283274114131,-3.720142805159092
1763699244721454000,7.0744541015625,0.9414771327584981,-0.4816559739738702,-3.221433989575505
1763699244731414000,7.0844140625,1.583944138674438,0.9389543362826108,-2.8706144727796317
1763699244741374200,7.094374267578125,2.066849528187513,2.319427281939983,-2.766542688408494
1763699244751335200,7.104335205078125,2.077521144327521,3.607344693496823,-3.0089263804048296
1763699244761295000,7.114295166015625,1.2850076615899801,4.791795885360241,-3.3834196182548997
1763699244771255300,7.12425537109375,-0.09218845435380935,5.720848420831561,-3.7200463590472936
1763699244781216300,7.13421630859375,-1.0009285618975758,5.847847491803765,-3.5308044746518132
1763699244791176200,7.14417626953125,-1.028388523492217,4.8318186836689705,-2.423109920863062
1763699244801136000,7.15413623046875,-0.8987509207099675,3.3410482109934088,-0.9153528036817907
1763699244811096000,7.164095947265625,-1.344493869781494,2.186740228459239,0.2740677010267973
1763699244821057000,7.17405712890625,-2.2281039199829102,1.4325275425434112,0.7193726970724761
1763699244831017200,7.184017333984375,-2.83048295339942,1.1730044996976852,0.5437232846997678
1763699244840977200,7.19397705078125,-3.05730433460474,1.189756312534213,0.12110738258510827
1763699244850938000,7.203938232421875,-2.7322128410443662,1.0693711067438125,-0.23933555647209284
1763699244860898300,7.213898193359375,-1.9483096580028534,0.845765180453658,-0.37910774590820073
1763699244870858200,7.223858154296875,-1.1213070456862448,0.5877706623494625,-0.2178274890191853
1763699244880818200,7.233818115234375,-0.3720338619992137,0.24390111082196234,0.26528175250291824
1763699244890779100,7.243779052734375,0.20467472358793018,-0.1879933456391096,0.9748594701394439
1763699244900739000,7.253739013671875,0.5802464043244719,-0.7052057861626148,1.836961745148897
1763699244910699000,7.263698974609375,0.7687061984315514,-1.1632236949175596,2.7402947329521177
1763699244920659000,7.273658935546875,0.5918225680887699,-1.2690969757527113,3.3222716143310067
1763699244930620200,7.2836201171875,0.2215089540109038,-1.0052461328357458,3.491306577000022
1763699244940580000,7.293580078125,-0.103740944981575,-0.6798346135407686,3.400526820400357
1763699244950540000,7.3035400390625,-0.4847315820269286,-0.2754226227670908,2.956988103374839
1763699244960501200,7.313501220703125,-0.8690921338967978,0.12713175744116306,2.1765737853623923
1763699244970461200,7.323461181640625,-1.0700777937084436,0.2681552621126175,1.3564241076804697
1763699244980421000,7.333421142578125,-0.8592039232194423,0.10636077209115027,0.6162663967326283
1763699244990381300,7.34338134765625,-0.5264660065591334,-0.0549117398828268,-0.21090894180238245
1763699245000342000,7.353342041015625,-0.401366047206521,-0.22606676344573495,-0.8902906970091163
1763699245010302000,7.363302001953125,-0.13064305349774658,-0.4868769234925508,-1.182526799672097
1763699245020262100,7.37326220703125,0.3286217135131359,-0.8565496093183755,-0.9940149831168353
1763699245030223000,7.38322314453125,0.6827350111573934,-1.322844932553172,-0.32496640587598086
1763699245040183000,7.39318310546875,0.6029559199890121,-1.7023323254287241,0.5976828384242951
1763699245050143200,7.403143310546875,0.24220712985303253,-1.6820044076710938,1.3872193511776625
1763699245060103200,7.413103271484375,0.1545353126734495,-1.325799106183648,1.9463785438098011
1763699245070064000,7.423064208984375,0.403719953388907,-0.8864104945749044,2.3240727696582675
1763699245080024300,7.4330244140625,0.7519429874181747,-0.5742880804419517,2.661324656611681
1763699245089984300,7.442984375,0.8655950855612754,-0.3095861736536026,2.7337197384759784
1763699245099944200,7.452944091796875,0.39874972722828383,0.12971300610601902,2.2379339707322417
1763699245109905200,7.4629052734375,-0.1794318535208702,0.6964987480938434,1.2854763020150364
1763699245119865000,7.472864990234375,-0.32751346001029014,1.1245254232108592,0.27390885720327496
1763699245129825000,7.482824951171875,-0.10017653049826622,1.5012603025078772,-0.5003197579115629
1763699245139786200,7.4927861328125,0.19633973370194435,1.9085265136688947,-1.056272994109243
1763699245149746200,7.50274609375,0.617123013561964,2.2532523897647856,-1.498787774914503
1763699245159706000,7.5127060546875,0.99636081559062,2.349194643694162,-1.8205340497002005
1763699245169666000,7.522666015625,1.643185724455118,1.8221674961209295,-2.120661928526312
1763699245179627300,7.532627197265625,2.165847662556171,0.6731319010317325,-2.5234248369187116
1763699245189587200,7.542587158203125,1.850128685235977,-0.8045148861765861,-3.0241695422440764
1763699245199547100,7.552547119140625,1.4548960262179373,-2.246278459098935,-3.5853383211329577
1763699245209508000,7.562508056640625,1.9293314012885092,-3.2898744885951277,-3.8431741415441034
1763699245219468000,7.572468017578125,2.763960855221748,-4.030045789676905,-3.3805776728272434
1763699245229428000,7.582427978515625,3.0519559593141077,-4.103532466170192,-2.5736495880290864
1763699245239388200,7.59238818359375,3.2183915531396865,-2.8749451954603193,-2.497862233377993
1763699245249349000,7.60234912109375,3.3630209733486174,-1.1753390801250934,-3.0387849275737997
1763699245259309000,7.61230908203125,3.1167198156476017,-0.13810907852947713,-3.4249849698305126
1763699245269269200,7.622269287109375,2.5267197868108746,0.1586006624162197,-3.4953941385746
1763699245279229200,7.632229248046875,2.109934636676311,-0.29831951422989367,-3.3499919804275033
1763699245289190100,7.642190185546875,2.030847655957937,-1.1594470989882946,-3.1572642997428773
1763699245299150300,7.652150390625,2.438743543324619,-2.1972610379517077,-2.852292049625516
1763699245309110300,7.6621103515625,3.1083553074061867,-3.3257056804329155,-2.302695781239122
1763699245319071000,7.672071044921875,3.4830864456653594,-4.293330815404653,-1.6218138506025075
1763699245329031200,7.68203125,3.3893583606541156,-4.551764309448004,-1.0687829315923154
1763699245338991000,7.6919912109375,2.7622482060849665,-3.9369495728284116,-0.8756023925736546
1763699245348951000,7.701950927734375,1.7993654433347284,-2.5799662238299845,-1.136897267397493
1763699245358912300,7.711912353515625,0.8270999352112411,-1.3700935904622078,-1.4847870143517852
1763699245368872200,7.7218720703125,0.12572130612134932,-0.5260469043642282,-1.6875934598498046
1763699245378832100,7.73183203125,0.19599486578702927,-0.04473930543661117,-1.7125002298302947
1763699245388793300,7.74179345703125,0.6952336965940892,0.08970189823508262,-1.4097548619821667
1763699245398753300,7.751753173828125,1.0053707821287214,0.17114391764700412,-0.9596855741441249
1763699245408713200,7.761713134765625,1.303440705511719,0.21206746418774128,-0.5692134075261652
1763699245418673400,7.77167333984375,1.4343418984889984,0.19279285487532616,-0.10945669227987527
1763699245428634400,7.78163427734375,1.3214379883646965,0.302125336253643,0.38327480245977635
1763699245438594300,7.79159423828125,1.1660697319984434,0.6216162333279848,0.7453548411995172
1763699245448554500,7.801554443359375,1.063614735174179,0.9596639468342065,0.7244482467710971
1763699245458514400,7.811514404296875,0.9335526233695447,1.2190040343284607,0.472791991777718
1763699245468475400,7.821475341796875,0.7976290721856057,1.3529770359665154,0.03325724969655275
1763699245478435600,7.831435546875,0.7348446992315352,1.4091355610400438,-0.545534864166379
1763699245488395500,7.8413955078125,0.7512099969685078,1.37799691093266,-1.2128024032093583
1763699245498356200,7.851356201171875,0.8034053174994885,1.3438286838710307,-1.8992130341395734
1763699245508316400,7.86131640625,0.8253168511867522,1.3078624674767254,-2.4982418803453443
1763699245518276400,7.8712763671875,0.8950491435825825,1.2083166360974311,-2.9109640188246964
1763699245528236300,7.881236328125,0.9827027309857308,1.118263440206647,-3.1640526447087525
1763699245538197500,7.891197509765625,1.0380324040196836,1.0005313792735337,-3.24824308604598
1763699245548157400,7.901157470703125,1.1433411828398703,0.8309574874222279,-3.2564857214733958
1763699245558117400,7.911117431640625,1.2217818284787236,0.5738438438057899,-3.198445912697911
1763699245568077300,7.921077392578125,1.2661654523454606,0.16919336810111998,-3.0426372190877795
1763699245578038500,7.93103857421875,1.3145068739272654,-0.32716800757348535,-2.8057322507634757
1763699245587998500,7.94099853515625,1.2605027504086495,-0.7481716521859169,-2.5927935566991565
1763699245597958400,7.95095849609375,1.110423394230753,-0.961046925625205,-2.4565549482166764
1763699245607919400,7.96091943359375,0.9182032246768475,-0.9898808059215545,-2.3748997244454917
1763699245617879300,7.97087939453125,0.7690098575532436,-0.968335329067707,-2.261335889107734
1763699245627839200,7.980839111328125,0.7428302911579608,-0.9997370140254497,-2.1330185751438138
1763699245637799400,7.99079931640625,0.7785070230863987,-1.02066172863245,-2.0681224707327783
1763699245647760400,8.000760498046875,0.9020430941231549,-0.9405489119976759,-2.158401145942509
1763699245657720300,8.01072021484375,1.059227460000664,-0.8180342929631471,-2.38520689118728
1763699245667680500,8.020680419921876,1.1584686093449592,-0.8024825035661458,-2.6294226209163662
1763699245677641500,8.030641357421874,1.0883763975955545,-0.9516448910295963,-2.765280121126771
1763699245687601400,8.040601318359375,0.9961670465841889,-1.0850421386063098,-2.819754930897057
1763699245697561600,8.0505615234375,1.0161609100818634,-1.0324123721808194,-2.8965564310267564
1763699245707521500,8.060521484375,1.2132464937150478,-0.935623146033287,-3.0457918837264177
1763699245717482200,8.070482177734375,1.3615141242958604,-0.7727811927855014,-3.1687673982709645
1763699245727442400,8.0804423828125,1.4662662921465932,-0.6456973661392926,-3.1763071461260317
1763699245737402400,8.09040234375,1.62438282430768,-0.7001333052039146,-3.014560002377629
1763699245747362300,8.1003623046875,1.9462356282077728,-1.2093103233098983,-2.875107984806597
1763699245757323500,8.110323486328125,2.3288554738901555,-2.3220541233122347,-2.9974235741376876
1763699245767283500,8.120283447265624,2.355401243249327,-3.163917035630345,-3.5416719056248662
1763699245777243400,8.130243408203125,1.9164603754080831,-3.226439835038781,-4.058240787547827
1763699245787204600,8.14020458984375,1.570313234337419,-3.1170471479058266,-3.9908410297527905
1763699245797164500,8.15016455078125,1.6059890894830227,-3.0671394999206063,-3.267850872835517
1763699245807124500,8.16012451171875,1.761406737948954,-3.166494192641973,-2.017969031292945
1763699245817084400,8.17008447265625,2.10610031921044,-3.481255138584971,-0.3669531977340579
1763699245827045400,8.18004541015625,2.723257088911533,-4.007530006486177,1.173962677205354
1763699245837005300,8.19000537109375,3.493475737732649,-4.629991458466649,2.1542015022955834
1763699245846965200,8.19996533203125,4.265663056278228,-5.264741898655891,2.5592104360491037
1763699245856926500,8.209926513671874,4.790578910785913,-5.920665475255251,2.766540350320935
1763699245866886400,8.219886474609375,4.939587568992376,-6.244907366248965,2.8659356673136354
1763699245876846300,8.229846435546875,5.191835652399063,-5.936541089779138,2.727526144532859
1763699245886806500,8.239806640625,5.673869227513671,-5.1409705575585365,2.45436649826169
1763699245896767500,8.249767578125,5.65590979245305,-4.401457428124547,2.1795580618701873
1763699245906727400,8.2597275390625,4.320201286673545,-3.830550806814432,2.087010857206583
1763699245916687600,8.2696875,1.2948546634741127,-3.256422885370254,1.8942421138592063
1763699245926647600,8.2796474609375,-3.658837564846873,-2.5141052199095486,1.28519894637838
1763699245936608300,8.289608154296875,-8.146279331988096,-1.537020182675123,0.07542685077562927
1763699245946568400,8.299568359375,-8.828606346866488,-0.7960551008671521,-1.3345561208739876
1763699245956528400,8.3095283203125,-5.9857099020957945,-0.3484393436610698,-2.601538004168868
1763699245966489300,8.3194892578125,-0.43503363126963374,-0.612445669400692,-3.83005162512064
1763699245976449500,8.329449462890626,3.575110357107222,-1.3672422926843166,-3.950499959275126
1763699245986409500,8.339409423828124,3.89361078183949,-1.8838737184494734,-2.7966163396328687
1763699245996369400,8.349369384765625,1.5972235992252826,-1.4928355885118245,-1.9178037528410552
1763699246006330400,8.359330322265626,-1.3051377186879516,-0.4778595043003559,-1.3788275165379047
1763699246016290300,8.369290283203124,-3.4359704742252823,0.6518477054625749,-0.8945787495918571
1763699246026250200,8.379250244140625,-4.99849568503499,2.081266176074743,-0.3806105516865849
1763699246036210200,8.389210205078125,-5.519563047420978,3.6208740371555086,0.17368731851950286
1763699246046171400,8.39917138671875,-4.892780225110053,5.2494969832509755,0.39616540982350706
1763699246056131300,8.40913134765625,-4.2243890888646245,6.827927619200945,0.2840596643395722
1763699246066091300,8.41909130859375,-3.8798978983074424,8.119220060148836,-0.05414587007686496
1763699246076052500,8.429052490234374,-3.870066240122914,9.101780898445844,-0.46383565512299535
1763699246086012400,8.439012451171875,-3.7701720336973663,9.724611768260598,-1.0424436445906757
1763699246095972400,8.448972412109375,-3.343449134655297,9.69490052060783,-1.5999217522680758
1763699246105932500,8.4589326171875,-2.753137847912311,8.975682575705648,-2.0476561674177645
1763699246115893200,8.468893310546875,-2.218428913664818,7.8979703415960065,-2.192366105517
1763699246125853200,8.478853271484375,-1.3316206519439815,6.485845535612106,-1.9737068418487906
1763699246135813400,8.4888134765625,-0.14747896442115305,4.782520107492804,-1.1656227188833057
1763699246145774300,8.4987744140625,1.2129036716267465,2.8595336913168428,0.31429245164841413
1763699246155734300,8.508734375,2.8910031808137893,0.754368753260374,2.2066250786244868
1763699246165694500,8.518694580078124,5.242367569762468,-1.414338390380144,3.7439927595630285
1763699246175654400,8.528654296875,7.794519903993606,-3.3886043274164197,3.813730604916811
1763699246185615400,8.538615478515625,9.111146692684292,-4.222848581424355,1.761303131444007
1763699246195575600,8.548575439453124,8.481619540101288,-3.1160172203361984,-1.8710460933193562
1763699246205535500,8.558535400390625,6.710090928849578,-1.450795605161786,-4.66392207738012
1763699246215495400,8.568495361328125,4.482314925646782,-0.23523791189491747,-5.27026446146965
1763699246225456400,8.578456298828126,3.0746181652382014,0.664928720831871,-4.509872502397
1763699246235416300,8.588416259765625,2.8626737429082394,1.551217050331831,-3.4075305616825817
1763699246245376300,8.598376220703125,2.8077321924090386,2.2202327482163904,-1.813613895048201
1763699246255337500,8.60833740234375,2.459933484739065,2.8990391877532002,0.06891206205412745
1763699246265297400,8.61829736328125,2.017700297354162,3.667797116371989,1.5841579275555908
1763699246275257300,8.62825732421875,1.5552145955353975,4.4855081687301395,2.3862781736806036
1763699246285217500,8.638217529296876,1.808693974302709,5.145269131535291,2.383079962161183
1763699246295178500,8.648178466796875,3.4181314506739375,5.605139390158653,2.1300996189571917
1763699246305138400,8.658138427734375,4.132520952506363,4.876193247446418,1.8858564166992902
1763699246315098600,8.6680986328125,1.2978905240386724,3.2207091824322935,1.7090563729867339
1763699246325059300,8.678059326171875,-2.487446345564723,1.428216109085083,1.445637199485302
1763699246335019300,8.688019287109375,-6.17988398219645,-0.587592383173108,2.140381212866306
1763699246344979500,8.6979794921875,-8.607491652870177,-2.2855782038301227,3.3983681810617443
1763699246354939400,8.707939453125,-6.841605431419611,-2.975696895498037,4.512945041710138
1763699246364900400,8.717900390625,-4.031892878848314,-1.848610681888461,5.684889803221822
1763699246374860500,8.727860595703126,-1.4819716646701098,-0.07493512173593044,6.7965785412132735
1763699246384820500,8.737820556640624,-1.152982286888361,2.018635824638605,7.751789600291848
1763699246394781400,8.747781494140625,-3.9596982879921794,4.842323711070418,7.229390697041153
1763699246404741000,8.7577412109375,-8.06061180383563,6.85391487789452,4.828739422354102
1763699246414701300,8.767701416015624,-10.919058284437655,6.4344011795789,2.453337155213952
1763699246424661200,8.7776611328125,-10.615125606501103,4.150941283077001,1.2004850656889379
1763699246434622000,8.7876220703125,-8.273806810748576,0.9912082551330328,0.7668474188223481
1763699246444582100,8.79758203125,-5.457525401180982,-2.628086403876543,0.4977011729110032
1763699246454542000,8.8075419921875,-3.0555835021615025,-6.238609727409481,0.1066363741621375
1763699246464502000,8.817501953125,-1.4305840072602032,-9.373290147161484,-0.157310476475209
1763699246474463200,8.827463134765624,-0.05902560494244098,-11.88383621328473,-0.767581432185322
1763699246484423200,8.837423095703125,0.5831681369900703,-12.389572735548018,-2.3249708875417707
1763699246494383000,8.847383056640625,0.5030690566197037,-10.817711541116237,-4.645183766901493
1763699246504344300,8.85734423828125,0.4159364243507385,-8.654452141487598,-6.35135230949223
1763699246514304300,8.86730419921875,0.3935109497919678,-6.927543008685111,-6.732085903036594
1763699246524264200,8.87726416015625,-0.34941198808550833,-5.489700408598781,-6.418732485803961
1763699246534224400,8.887224365234376,-0.9783734696097671,-4.7715042079597705,-5.719066798111796
1763699246544185000,8.89718505859375,-1.07907358559072,-5.063030408787727,-4.60927746400088
1763699246554145000,8.90714501953125,0.11217428067550063,-6.1022740882933135,-3.4681519113838672
1763699246564105200,8.917105224609376,2.951789950209856,-7.814602322557568,-2.786795787364244
1763699246574065200,8.927065185546875,5.386552753335237,-9.250719998547435,-3.0502684446185824
1763699246584026000,8.937026123046875,6.143529643267393,-9.533007830908893,-4.40092902033627
1763699246593986300,8.946986328125,6.756792474269867,-8.906597933563589,-6.041599547100067
1763699246603946200,8.9569462890625,7.570382647305727,-7.792439590588211,-7.261622987604141
1763699246613907200,8.9669072265625,8.45765414262414,-6.147097564882039,-7.542209276744723
1763699246623867400,8.976867431640626,9.022372430688142,-3.739903736683726,-6.956216145461798
1763699246633827300,8.986827392578125,8.459640348005294,-0.9318974035084246,-5.874786352133751
1763699246643787300,8.996787353515625,7.142470538479089,1.8323370079576968,-4.719681081742048
1763699246653748200,9.006748291015626,6.155830321913958,4.3319928467541935,-3.6734471049576998
1763699246663708200,9.016708251953125,5.778565865784883,6.300451558816433,-2.704254282277822
1763699246673668000,9.026668212890625,5.72312513359189,7.435108499941229,-1.5406978482745588
1763699246683629300,9.03662939453125,5.940002628409863,7.447149066346883,-0.7680531413502991
1763699246693589200,9.04658935546875,6.126649820137024,7.125114914530515,-0.8435108256556093
1763699246703549200,9.056549072265625,5.779684640681744,7.187952771237492,-1.4839922107122838
1763699246713509000,9.066509033203126,5.241007971847057,7.584857162860035,-2.178429934623092
1763699246723470300,9.07647021484375,4.915953010904789,8.0533760073632,-2.7885315251156686
1763699246733430300,9.08643017578125,5.161770184481144,8.399872400262952,-3.933851606813073
1763699246743390200,9.09639013671875,4.565048153913021,8.006767985445261,-4.617746309399605
1763699246753350100,9.10635009765625,2.2888988726854325,7.65282770628035,-4.086085072284937
1763699246763311000,9.11631103515625,-0.05499708007872104,7.659932569849491,-3.782053025627136
1763699246773271000,9.12627099609375,-0.6133925948619842,7.103313417088985,-4.103644694373012
1763699246783231200,9.136231201171874,1.6116571982473133,5.084890358418226,-4.291853144067526
1763699246793192200,9.146192138671875,4.850864160400628,1.659840506657958,-4.580117712751031
1763699246803152100,9.156152099609375,6.35213439978063,-2.314591532346606,-5.329320461550354
1763699246813112300,9.1661123046875,5.258476408520341,-6.070341072937846,-6.028719022738933
1763699246823072300,9.176072265625,2.8311873022764917,-9.629563248300553,-4.792175240066647
1763699246833033000,9.186032958984375,0.6582642945066094,-13.569077118659019,-2.699094707557559
1763699246842993200,9.1959931640625,-1.4048244198426603,-17.79458352111578,-0.6437804266020656
1763699246852953000,9.205953125,-2.804648254919052,-21.44168914711475,0.7961984548605978
1763699246862913000,9.2159130859375,-2.1532751812309026,-22.7831364888072,0.9020460897978395
1763699246872874200,9.225874267578124,1.4985688714668153,-20.55365543525219,-0.2520801064286381
1763699246882834200,9.235834228515625,5.644317554336786,-15.534284135448932,-0.3744068747408688
1763699246892794000,9.245794189453125,6.967240228301287,-11.775755777794123,-0.5547954444646835
1763699246902755300,9.25575537109375,6.2949395173966884,-9.741431385636329,-1.463778859245032
1763699246912715300,9.26571533203125,4.7362245125249025,-8.394657880485058,-1.9000003851249814
1763699246922675200,9.27567529296875,2.400978899206221,-7.128701540845632,-1.8946233682617544
1763699246932635100,9.28563525390625,-0.007291910573840141,-5.831989412936568,-1.3976841926991939
1763699246942596000,9.29559619140625,-1.7526222507297993,-4.330235189431906,-1.0537233826916663
1763699246952556000,9.30555615234375,-3.050020022815466,-2.346181433352828,-1.146248448588699
1763699246962516000,9.315515869140626,-4.485701353214681,-0.10796060850322246,-1.1788002534296362
1763699246972477200,9.325477294921875,-5.944139874345064,1.9508330390006303,-0.6706123194262384
1763699246982437000,9.33543701171875,-6.715500678938627,4.045187244707345,0.11071275675557553
1763699246992397000,9.34539697265625,-6.812405055898427,6.318223362350463,0.9927753583192824
1763699247002357200,9.355357177734374,-6.603593378636241,8.68775527615249,2.3207876105077565
1763699247012318200,9.365318115234375,-6.431002184790373,11.242339805966616,3.7500410998165603
1763699247022278100,9.375278076171876,-6.4002849749654525,13.938635238194465,4.821652094441652
1763699247032238300,9.38523828125,-5.780657285106182,16.106986992526053,5.170785850107669
1763699247042198300,9.3951982421875,-5.434986821636557,17.232070049619672,4.572850936618447
1763699247052159000,9.405158935546876,-5.958771626287699,17.21331391122341,3.2215339428186414
1763699247062119200,9.415119140625,-6.301637553730607,16.428832928293943,1.78049313121289
1763699247072079000,9.4250791015625,-5.168456530377268,15.057838005077839,0.912988558768481
1763699247082040000,9.4350400390625,-2.891277321580052,12.694253601503371,0.42529871145784853
1763699247092000300,9.445000244140624,-0.3447112630486488,9.530820549997687,0.31570524105578657
1763699247101960200,9.454960205078125,3.2947070233181117,5.797699020799994,0.27837299700528384
1763699247111920000,9.464920166015625,7.393776372599602,1.3191378947287797,0.14679821561537681
1763699247121881300,9.47488134765625,9.31762671212852,-3.026994536536932,-0.1521131270278245
1763699247131841300,9.48484130859375,7.718398787343501,-6.057019819071889,-0.5579898565918207
1763699247141801200,9.49480126953125,2.2792636138558384,-6.172080614969134,-1.519165523163229
1763699247151762200,9.50476220703125,-5.273382885751128,-3.696988724064827,-2.0075496363483367
1763699247161722000,9.51472216796875,-14.681079744905233,-2.068797739645839,-0.6952442179881035
1763699247171682000,9.52468212890625,-15.854319222402571,-4.793092939433455,2.762786258484423
1763699247181642000,9.53464208984375,-9.042717299580573,-12.435787374234199,9.94182653220892
1763699247191603200,9.544603271484375,-6.450327647507191,-14.475828390473126,13.569108682841062
1763699247201563100,9.554563232421875,-9.108388333886861,-4.920710434564948,8.0576833491683
1763699247211523000,9.564523193359374,-3.3086335496008394,3.314468247103691,3.26752821675241
1763699247221483300,9.574483154296875,-5.710172128516435,8.091163593965769,2.7046716309070584
1763699247231444200,9.5844443359375,-9.56158569061756,10.902448510420323,2.1006837009891868
1763699247241404200,9.594404052734374,-7.952782712757587,11.313344017994403,0.5239398856149986
1763699247251364400,9.6043642578125,-3.3409482577502727,7.072315052235126,0.7494305662058294
1763699247261325000,9.614324951171875,0.7976303873598575,-0.1372340492606163,1.2230442496299743
1763699247271285000,9.624284912109376,3.327266353878379,-8.486776776733993,0.6616207653276622
1763699247281245200,9.6342451171875,2.4314022406511007,-16.398835264915228,-1.531867329956591
1763699247291205000,9.644205078125,-0.8838833141848444,-21.29267815082073,-4.300269090235233
1763699247301166000,9.654166015625,-3.8240871637582776,-20.593239257621764,-7.306305009895563
1763699247311126300,9.664126220703125,-5.135508785021305,-19.366050747793913,-9.699089788991213
1763699247321086200,9.674086181640625,-4.440360282492637,-16.990573661851883,-9.841441911917924
1763699247331047200,9.684047119140626,-1.0760790799498556,-13.097522267460823,-7.809026568251848
1763699247341007400,9.69400732421875,4.539538449603319,-10.027491722273826,-5.530107822310924
1763699247350967300,9.70396728515625,10.623533369362354,-7.237479895472526,-3.3407688095301387
1763699247360927200,9.71392724609375,14.979994886940716,-5.248809000986814,-0.8681940160132944
1763699247370888200,9.72388818359375,15.947914036422967,-3.5178128911316393,1.1988611177489161
1763699247380848000,9.73384814453125,13.461237506186961,-2.040333277183771,2.8177096888050435
1763699247390808000,9.74380810546875,10.374765529286861,-0.9621084173768758,3.5591932415291665
1763699247400768300,9.753768310546874,7.276676764351129,0.5979033493071794,3.215484141260385
1763699247410729200,9.763729248046875,5.296505987185239,2.5440064371764657,1.1264604829266667
1763699247420689200,9.773689208984376,4.018937535685301,4.391347537520527,-1.9619129436805842
1763699247430649300,9.7836494140625,2.597489021039009,5.952048455512523,-5.025656663683057
1763699247440610000,9.793610107421875,2.0389852235756813,7.012537167620659,-7.413610953882336
1763699247450570000,9.803570068359376,2.6335668811142443,7.852988459575176,-8.997936493089794
1763699247460530200,9.8135302734375,4.220659546947479,8.999927959167957,-10.340894823867082
1763699247470490000,9.823489990234375,5.592358234518766,9.855784910047054,-11.377178484523295
1763699247480451000,9.833451171875,6.033465340483188,9.90288100774288,-11.565792007887362
1763699247490411000,9.843410888671874,5.728989057189226,9.818201321583986,-10.393743786001204
1763699247500371200,9.85337109375,5.329553685784339,9.464323586261273,-7.6328966788858175
1763699247510332200,9.863332275390626,5.737421369969844,8.626813608455658,-3.774569976395368
1763699247520292000,9.8732919921875,5.098855755406618,8.98998348825872,-1.9763937428452074
1763699247530252300,9.883252197265625,2.287622276878357,9.218378986912965,-2.1829427358724174
1763699247540212200,9.893212158203125,-1.3166618600040674,7.966796040540933,-2.6830615643844005
1763699247550173000,9.9031728515625,-2.7754899649739264,4.986029586693644,-2.8372248288750646
1763699247560133000,9.913133056640625,-0.5625076993424445,0.5956032556712627,-2.6751576593920587
1763699247570093000,9.923093017578125,3.1714158669531343,-5.051708219784498,-2.7869933557629585
1763699247580053000,9.933052978515626,3.779559455245733,-11.498548609697819,-2.9292674450173974
1763699247590014200,9.94301416015625,0.5143137964725494,-17.42428422782421,0.11235687070079148
1763699247599974100,9.95297412109375,-2.668346518072486,-22.134275105679034,5.252574491000175
1763699247609934000,9.96293408203125,-3.718719494357705,-24.72886256005764,7.842976768648624
1763699247619895300,9.972895263671875,-3.988212727075815,-25.432711086392402,9.638024202653765
1763699247629855200,9.982855224609375,-2.140721404606104,-23.09545121064186,9.01480345673859
1763699247639815200,9.992815185546876,2.723098683479428,-16.648489240175486,4.550989233422279
1763699247649775400,10.002775390625,5.351266335898638,-13.035937041163443,0.4429528068963438
1763699247659736000,10.012736083984375,3.9342929208397863,-11.252733774209021,-2.6127152317434548
1763699247669696000,10.022696044921876,1.697198469671607,-9.295473917031288,-5.209323378294706
1763699247679656200,10.03265625,0.7878069124817848,-7.2850810200810425,-6.898477657720446
1763699247689616100,10.0426162109375,0.024393559761345385,-5.215070982035995,-6.312666312745213
1763699247699577000,10.0525771484375,-0.683504241964221,-3.0174253286808725,-5.155102543285489
1763699247709537300,10.062537353515625,-1.7418197016865014,-0.505293454670906,-4.0661227729693055
1763699247719497200,10.072497314453125,-3.4525983684211967,2.082051773494482,-2.4656392951652406
1763699247729458200,10.082458251953126,-4.826686581477523,4.632132562148571,-0.7491635127674788
1763699247739418400,10.09241845703125,-5.919088435196876,7.068635486939549,0.7824221507035195
1763699247749378300,10.10237841796875,-6.95453213789761,9.769991125166415,2.1162042184650898
1763699247759338200,10.112338134765626,-6.846950299578904,12.5967354765594,2.5098309035912156
1763699247769299200,10.12229931640625,-6.088934129726886,15.256421133792399,2.493098672237992
1763699247779259100,10.132259033203125,-4.926455115696788,16.892770290225744,1.8149536192193627
1763699247789219000,10.142218994140626,-5.188276498612761,17.670639161539075,0.6171278358675539
1763699247799180300,10.15218017578125,-5.760981109255552,18.336956706380843,-1.0981408357627689
1763699247809140200,10.16214013671875,-6.085220077639818,18.338613241416216,-2.5258786598116156
1763699247819100200,10.17210009765625,-5.281871897155046,17.14722319020033,-2.5729502075880766
1763699247829060000,10.18206005859375,-3.0977947504252192,14.345019405823946,-1.34918714216426
1763699247839021300,10.192021240234375,-0.7423311094641685,10.757851823437214,-0.5440002750102431
1763699247848981200,10.201981201171876,1.6729519171655176,6.816150087645649,-0.10904752695709466
1763699247858941200,10.211941162109374,3.6078216633588074,2.7264795580893755,0.04288206019736826
1763699247868901400,10.2219013671875,9.278429258728027,-2.526612819305062,-0.6266205444213002
1763699247878862000,10.231862060546876,12.803431769102811,-7.404028886544704,-2.25392005989328
1763699247888822000,10.241822021484374,4.274806732198596,-9.572690437477826,-3.4412674115896222
1763699247898782200,10.2517822265625,-8.840617102655768,-12.611326311969757,-4.451726895159482
1763699247908743200,10.2617431640625,-15.124592742967605,-16.568744087809325,2.0697632236771284
1763699247918703000,10.271703125,-12.35793957992196,-15.905252121782302,10.767122340607642
1763699247928663300,10.281663330078125,-2.3170155446231364,-8.579206054106354,12.071482937443255
1763699247938623200,10.291623291015625,8.65239696252346,-0.9631400985121726,13.198446985977887
1763699247948584200,10.301584228515624,-5.023048527011275,6.609493542590737,13.413683143329619
1763699247958544100,10.311544189453125,-14.360122282409668,12.126032858276366,11.141071388578414
1763699247968504000,10.321504150390625,-13.458074073719978,14.021679432106017,7.951923465579748
1763699247978465000,10.331465087890624,-14.142739760679007,13.434521348696947,4.677591706292331
1763699247988425200,10.34142529296875,-9.030987698820233,8.902295852455497,3.5451048026829954
1763699247998385200,10.35138525390625,-4.292871673460304,-0.05635141729712486,4.687651912535727
1763699248008345000,10.361344970703126,-0.8245277466356754,-11.665087079375981,4.451485779879987
1763699248018306300,10.371306396484375,-2.744651174595952,-20.829846704304217,2.0039340761996804
1763699248028266200,10.381266357421875,-7.398881002262234,-24.837990458774566,-1.3854846363395452
1763699248038226200,10.39122607421875,-8.763031758671998,-26.845383589386937,-5.586313109135627
1763699248048186000,10.40118603515625,-5.907877305352687,-26.325530863487717,-9.892916078567504
1763699248058147000,10.41114697265625,-0.04853751954264007,-23.960791444659232,-11.906300558549166
1763699248068107000,10.42110693359375,7.728269023972749,-18.18766981575489,-11.564537623912095
1763699248078067000,10.43106689453125,15.737343532794712,-12.501293573367596,-10.097940638506412
1763699248088028200,10.441028076171875,21.723508192920683,-7.675092729580402,-7.283699210333824
1763699248097988000,10.450988037109376,21.110721162736414,-3.3420389755964277,-3.708689390991628
1763699248107948000,10.460947998046874,15.5270711353302,-0.2872504232048988,-0.2294540677964687
1763699248117908200,10.470908203125,9.15294760658145,1.7029408127158878,2.964369153536856
1763699248127869200,10.480869140625,5.358281767618656,3.9324259579241274,4.5117941181093455
1763699248137829000,10.4908291015625,4.522046339793503,5.873659393930435,3.4024618801161646
1763699248147789300,10.500789306640625,4.505106603169441,7.2238967757999895,-0.26041049320474263
1763699248157749200,10.510749267578126,4.1680864791452885,7.768407557615637,-4.535227016144991
1763699248167710000,10.5207099609375,4.069022001542151,7.800003888362646,-7.738516861742735
1763699248177670100,10.530670166015625,4.687428625173866,8.136752794229984,-9.993355643916129
1763699248187630000,10.540630126953126,6.201255856049061,8.684226517504452,-11.972171499341725
1763699248197591000,10.550591064453124,8.336116844189167,8.60069717042446,-14.373200375169514
1763699248207551200,10.56055126953125,10.065722960990668,8.230130166107415,-16.448132672047613
1763699248217511200,10.57051123046875,10.380180540072917,7.978933637580275,-16.644062071382997
1763699248227471000,10.58047119140625,9.49614145080447,7.520781873312592,-12.896753026878834
1763699248237432300,10.590432373046875,8.57895295612812,6.758958712393045,-6.575329407182336
1763699248247392300,10.600392333984376,6.27052169997692,7.314176766183972,-3.2659237041652203
1763699248257352200,10.610352294921874,3.038911768823862,7.545029010340571,-1.8528968347750603
1763699248267313200,10.620313232421875,-1.258994683933258,5.733099999639392,-0.616972937566787
1763699248277273000,10.630273193359375,-2.4538024346381424,1.827914515340328,0.9101503396678715
1763699248287233000,10.64023291015625,1.632773636034131,-3.6892175055414436,1.3534005220755934
1763699248297193000,10.65019287109375,5.342777324494719,-11.572939541554451,-0.006627601446211337
1763699248307154200,10.660154296875,2.8031846121072768,-18.856131386888027,0.2973505961325019
1763699248317114000,10.670114013671874,-1.6364176916249096,-24.743197374880314,4.067821685841679
1763699248327074000,10.680073974609375,-4.469540492008626,-29.03057425031662,8.207916580733656
1763699248337034200,10.6900341796875,-5.143989028596878,-29.481112032449243,10.229843848133086
1763699248346995200,10.6999951171875,-4.213931992258131,-27.223115663027762,10.581831239664554
1763699248356955100,10.709955078125,1.0733151681944728,-21.075044284677503,7.308651865282655
1763699248366915300,10.719915283203125,6.7617071343183515,-15.953133816897868,2.1873712198391555
1763699248376876000,10.7298759765625,6.843467718160152,-14.034793765223025,-1.5132269268944858
1763699248386836000,10.7398359375,3.7653587881967425,-11.543746180295944,-5.498488110688329
1763699248396796200,10.749796142578125,1.9225287355363367,-8.603526256370545,-9.743726803097129
1763699248406755800,10.759755859375,0.8478273736804723,-5.088868029877543,-11.508167501914501
1763699248416717000,10.769717041015625,-0.4199702099114656,-1.786315846017003,-10.640939262193442
1763699248426677000,10.779677001953125,-1.9567109911233185,1.3405471779823301,-9.497381806254387
1763699248436637000,10.789636962890626,-4.549127531203627,4.6392678208559746,-7.435035434705019
1763699248446597000,10.79959716796875,-7.274647888872027,7.672576362845301,-5.003353061938285
1763699248456558000,10.80955810546875,-10.04572412905693,10.387719703406095,-1.8692991035215556
1763699248466518000,10.81951806640625,-12.259417246371507,12.857663710027932,1.608621776074171
1763699248476478200,10.829478271484374,-12.8220277485013,15.007138914453982,4.349722856973111
1763699248486439000,10.83943896484375,-12.575387568104267,16.431365077120066,6.433910181191563
1763699248496398800,10.84939892578125,-11.809642849826812,16.95543454393148,6.734020670491456
1763699248506359000,10.859359130859374,-11.329366932034493,17.382271132481097,5.834966382920742
1763699248516319000,10.869319091796875,-11.977211247074603,18.073928870284558,5.197955596584081
1763699248526280000,10.879280029296876,-12.20017829093933,18.543945259869098,4.5271109297066925
1763699248536240000,10.889240234375,-10.912743109941482,17.71537729793191,4.027954078094661
1763699248546200000,10.899199951171875,-9.202357241916657,15.777192728102206,3.7723245355561374
1763699248556161000,10.9091611328125,-7.004222928261757,13.194402094501257,4.1620065747097135
1763699248566121200,10.919121337890624,-3.1908193633422255,8.776621892607212,4.7669878995791075
1763699248576081200,10.9290810546875,4.271491031779348,2.2270716543257234,4.931525258567929
1763699248586041000,10.939041015625,13.791733196878432,-7.2045865106523035,3.129474375541508
1763699248596002000,10.949001953125,19.25851391766071,-16.90265806251168,-1.2047352704793215
1763699248605962000,10.9589619140625,8.700747444194555,-20.246996547222135,-5.366257568803429
1763699248615922000,10.968921875,-0.929246596738696,-13.87879656330347,-6.882410904538631
1763699248625882000,10.978882080078124,-6.657712506836653,-7.317794956681132,-6.659576547142863
1763699248635843000,10.988843017578125,-13.283365157067776,-4.272665043994784,-0.9587059154570102
1763699248645803000,10.998802978515625,-12.289274624496697,-5.322543514761328,6.754966427886486
1763699248655763200,11.00876318359375,-10.142380668735504,-5.1324920675486325,12.134619484835863
1763699248665724200,11.01872412109375,-13.892656746351719,1.4013380390316248,11.674351751327514
1763699248675684000,11.02868408203125,-13.862474374055862,8.635118495464324,9.513037640547752
1763699248685644000,11.03864404296875,-12.557940758740902,12.531630259442329,9.641409753438829
1763699248695604000,11.04860400390625,-9.079320060312748,14.747650942921638,11.033285552120208
1763699248705565000,11.05856494140625,-4.244264294418692,13.584239616477488,13.012521094262599
1763699248715525000,11.068525146484374,1.781726180139184,7.502827698948979,14.088430662864447
1763699248725485000,11.078485107421875,5.842592640015482,-0.8498971656918525,13.92954358472228
1763699248735446000,11.088446044921875,2.2985370541244743,-10.7365424934268,11.072012465399503
1763699248745406200,11.09840625,-2.3429180476427076,-19.77283472839594,5.398919482955336
1763699248755366100,11.1083662109375,-5.626826321309805,-25.2675859906435,-3.622218145240843
1763699248765326000,11.118326171875,-9.345970178559423,-29.167300934576986,-12.437849567461013
1763699248775287000,11.128287109375,-12.506594017863273,-32.83398336770534,-18.498968638545275
1763699248785247000,11.1382470703125,-9.229716373485326,-35.159585538887974,-22.136608517062662
1763699248795207000,11.14820703125,2.7530466624975203,-33.606744686746595,-24.536718524479866
1763699248805166800,11.158166748046876,20.877466533613205,-25.950634890055653,-23.09720711439848
1763699248815128000,11.168128173828125,35.85065407862663,-15.874012933909892,-18.10717764441371
1763699248825088000,11.178087890625,34.13320017191172,-4.259584613147378,-11.082918474817275
1763699248835048000,11.1880478515625,18.586493777263165,2.397605331119895,-2.549187639206648
1763699248845009200,11.198009033203125,4.221221564744413,6.042212710562348,4.590099008539319
1763699248854969000,11.207968994140625,-1.6939575880542397,8.014078016197681,7.538101256904006
1763699248864929000,11.217928955078126,0.2814937593743205,9.12948606697321,4.731624032992125
1763699248874889200,11.22788916015625,4.892772626325487,10.696944642531871,-0.8005465670675039
1763699248884850000,11.237849853515625,7.6404060316026206,11.756385891413688,-5.421752661532163
1763699248894809900,11.247809814453126,9.03779796335697,11.478043581807613,-9.472137474882603
1763699248904770000,11.25777001953125,8.489252811458707,9.571409750017523,-12.788221340489386
1763699248914730000,11.26772998046875,6.326293271559477,7.741572157660126,-14.006368465727567
1763699248924691000,11.27769091796875,5.5944157515704624,7.6901728098124265,-14.436459672158955
1763699248934651100,11.287651123046874,6.865619928735494,7.966649325546622,-14.080054464185237
1763699248944611000,11.297611083984375,8.427844695293903,6.56519379761517,-9.86647932254076
1763699248954572000,11.307572021484376,8.07620100263357,5.315194321042299,-5.556196203291416
1763699248964532200,11.3175322265625,6.369124697548151,5.12164158771038,-2.942079872578382
1763699248974492200,11.3274921875,4.832913493168354,5.140055196279287,-1.6624639870293438
1763699248984452000,11.3374521484375,3.8912744478464125,4.767045474985242,-1.5593763913899659
1763699248994413000,11.3474130859375,1.9859224725604057,3.3938878207772967,-2.3947397125557064
1763699249004373000,11.357373046875,0.22947101893126964,0.41534021202325816,-3.1916245422452687
1763699249014333000,11.3673330078125,1.2093839730679987,-4.98346412011981,-3.29654739048779
1763699249024292900,11.37729296875,4.099396389278769,-13.152111935782433,-6.0326329813122745
1763699249034254000,11.387254150390625,3.816049987775087,-22.654324230933188,-7.53572517542243
1763699249044214000,11.397214111328125,-0.43012569322288036,-31.301881352210042,-3.5638878290861844
1763699249054174000,11.407174072265626,-5.7804936189770695,-37.4140654246211,0.7020150272972882
1763699249064135200,11.41713525390625,-10.050620084404946,-36.900329135775564,3.7577225942298766
1763699249074095000,11.42709521484375,-6.51888621994853,-29.330097295117376,5.641703572446107
1763699249084055000,11.437054931640626,2.951619854339957,-20.867429123723507,5.071643338832259
1763699249094015200,11.44701513671875,9.08475962101817,-15.838462312579153,2.1627545188464223
1763699249103976000,11.456975830078125,7.0095958534717555,-12.739771490097045,-0.6240269477315247
1763699249113936000,11.466935791015626,1.1541653591930865,-10.576906058222054,-3.2097397523894906
1763699249123896000,11.47689599609375,-2.591804545661807,-8.104078605118394,-4.824733401583135
1763699249133856000,11.48685595703125,-4.834107671388983,-4.812464579379558,-4.738565230432153
1763699249143817000,11.49681689453125,-6.272769771164655,-0.4068757505387068,-4.457192759349942
1763699249153777200,11.506777099609375,-7.808307606327533,4.462494957411289,-4.407129628542066
1763699249163737000,11.516737060546875,-10.516551835024357,8.665645151153207,-2.0017076323218643
1763699249173698000,11.526697998046876,-12.883807036066054,12.069030283594131,1.4894545677714048
1763699249183658200,11.536658203125,-14.828686719620228,14.424445409238338,4.429093915329873
1763699249193618200,11.5466181640625,-16.2900019652307,16.558682128000257,7.052746428412199
1763699249203578000,11.556578125,-16.297677906686065,18.305511766803264,8.29213391007781
1763699249213539000,11.5665390625,-15.734789172136782,19.656521886610985,7.721693737235665
1763699249223499000,11.5764990234375,-15.682753864473103,21.041993078947065,6.37513182900846
1763699249233459000,11.586458984375,-17.358146745049954,21.452759991705417,5.581725781345367
1763699249243419000,11.5964189453125,-17.258998973077535,20.27816793055534,5.48432982147634
1763699249253380000,11.606380126953125,-14.080609759980439,18.33425855333805,5.776728713485598
1763699249263340000,11.616340087890626,-9.533056346225738,16.406116069573162,5.897472231194377
1763699249273300000,11.626300048828124,-5.3000674790591,12.757608760082721,5.821612395828962
1763699249283261200,11.63626123046875,-0.23960136780142782,7.359240481269359,5.773811364734173
1763699249293221000,11.64622119140625,9.327541372421383,0.0661444970369339,5.519198890283704
1763699249303181000,11.65618115234375,20.55732623271942,-8.451016896566749,3.6307308297812937
1763699249313141000,11.66614111328125,20.35077723969221,-15.287861397194861,-1.3241956165097652
1763699249323102000,11.67610205078125,6.547963845872879,-19.880688369393347,-5.5526265281111
1763699249333062000,11.686061767578124,0.3898679171144962,-18.73342621371746,-7.9924074516594406
1763699249343022000,11.69602197265625,-2.069516993831098,-12.690959236133098,-9.756112821939587
1763699249352983000,11.705983154296876,-10.770531272268295,-6.590524638226628,-8.42249748904705
1763699249362943000,11.71594287109375,-16.667529456210136,-6.5842667468756435,-4.428083276982605
1763699249372903200,11.725903076171875,-16.402439426887035,-12.162081492257117,5.765205448952317
1763699249382863000,11.735863037109375,-15.467199727213382,-10.47417399802208,11.8654635212481
1763699249392823800,11.74582373046875,-11.620486890149115,2.4515748217165467,8.56645996977985
1763699249402784300,11.7557841796875,-0.5900210716247558,9.813803378885984,7.635953143846988
1763699249412744200,11.765744140625,5.105289587846398,14.188768521404265,10.290712450593709
1763699249422704000,11.7757041015625,0.717592681787908,15.841401288640498,11.828116079628467
1763699249432665300,11.785665283203125,-1.2175716634377836,13.446439750027656,13.447467339509725
1763699249442625300,11.795625244140625,-1.9290951083146035,7.78565329144895,13.459050225275755
1763699249452585200,11.805585205078126,-2.6353198622614142,-0.8217325629591942,10.407809720754623
1763699249462546400,11.81554638671875,-3.3972049825012682,-10.210657501626015,5.38809413755834
1763699249472506400,11.82550634765625,-5.804377767911553,-18.39235184586644,-0.8010580967862159
1763699249482466300,11.83546630859375,-9.427527348783611,-24.47833647813797,-8.02426272560358
1763699249492426500,11.845426513671875,-11.690737068939208,-31.685900543296334,-13.691180234283207
1763699249502387200,11.85538720703125,-7.223902621018886,-37.03110538719892,-17.41503358439803
1763699249512347100,11.86534716796875,8.424115445637703,-36.72137191402912,-17.81319820521474
1763699249522307300,11.875307373046875,29.00568998442888,-28.49102313673496,-13.978306738847493
1763699249532267300,11.885267333984375,37.843754479992384,-16.57109854198098,-9.037097706133126
1763699249542228200,11.895228271484376,26.597305485141277,-5.0014095266550775,-3.562875144912302
1763699249552188400,11.9051884765625,9.902149186336993,2.0851000551491974,3.331372620153427
1763699249562148400,11.9151484375,0.2876756628796458,6.449513408514857,7.252537763872742
1763699249572109300,11.925109375,-0.9645184011280536,9.75813935933113,5.8928235286057
1763699249582069500,11.935069580078125,2.9564228707075118,12.407858918344974,0.47583588951826095
1763699249592029400,11.945029541015625,8.540432963597773,14.567601834285258,-5.040135855412483
1763699249601989400,11.9549892578125,12.180359491747616,15.07501125819683,-9.682055067560077
1763699249611950300,11.964950439453125,11.711391734433173,13.027875315260886,-13.475785086977481
1763699249621910300,11.97491015625,8.784509430986642,11.036204654437302,-15.760180803024769
1763699249631870200,11.9848701171875,8.173422190457583,9.9213846326828,-18.10247575033307
1763699249641830100,11.994830078125,10.438220056587458,8.707596287176013,-20.118684640085696
1763699249651791400,12.004791259765625,11.82156475828886,7.047210421594977,-18.08701047017574
1763699249661751300,12.014751220703126,11.13638001589179,4.778510871851444,-11.516682816803455
1763699249671711200,12.024711181640624,9.088692284291982,3.6763720524936914,-7.33629858162105
1763699249681672400,12.03467236328125,4.433853384816646,3.101053459960222,-5.501816962850094
1763699249691632400,12.04463232421875,-1.7543103499472141,1.2777327021509408,-3.801859549859166
1763699249701592300,12.05459228515625,-2.4996762970626354,-2.5712673690676686,-2.5005472346782684
1763699249711552300,12.06455224609375,2.923941573819518,-9.896100553822517,-3.249622557705641
1763699249721513200,12.07451318359375,3.4324943225473166,-18.10543927631378,-3.3167920138761398
1763699249731473200,12.08447314453125,-1.0115141071893274,-25.16269470658302,1.5990378090403974
1763699249741433300,12.094433349609375,-6.011023791572451,-33.457427400982375,8.542272453984618
1763699249751393300,12.104393310546875,-8.249323526877165,-40.77923977661133,15.842942088341712
1763699249761354200,12.114354248046874,-3.606367665158212,-40.431926222109794,17.729167338353395
1763699249771314400,12.124314453125,2.7682366328448054,-34.76009054625034,15.432318967968225
1763699249781274400,12.1342744140625,7.45830817374289,-25.86754159630537,10.834571490502357
1763699249791234300,12.144234375,6.130711078226566,-20.159507648861407,6.45532647870779
1763699249801195300,12.1541953125,-0.053825698211789126,-16.615053419041633,1.9714250145219265
1763699249811155200,12.1641552734375,-4.770509351703525,-11.58663021325469,-4.581079835781455
1763699249821115100,12.174115234375,-6.464491197416186,-6.408760542365909,-10.40706971604228
1763699249831076400,12.184076416015625,-5.327780246371031,-0.7817384062230587,-13.90619427331686
1763699249841036300,12.194036376953125,-5.564788675069809,3.515727901551127,-13.327621647423506
1763699249850996200,12.203996337890626,-8.040772546377777,6.914123555141687,-10.445076498353481
1763699249860956200,12.2139560546875,-11.228776560038327,11.19434471360445,-7.318106506848335
1763699249870917400,12.22391748046875,-14.930190114808081,15.407557451677322,-2.5084280510559678
1763699249880877300,12.233877197265626,-17.969791619461773,18.358623763787744,2.0892007684662937
1763699249890837200,12.243837158203124,-20.191960304176806,20.166108070039748,5.283666963878273
1763699249900798200,12.253798095703125,-20.71273423657417,21.071127988016602,7.320123691889643
1763699249910758100,12.263758056640626,-20.849701743853092,22.489468015253543,8.66405525161326
1763699249920718000,12.273718017578124,-23.178694141995905,23.919217909777164,9.983119496583939
1763699249930678300,12.28367822265625,-22.66946568596363,23.883332941925524,10.390642312854528
1763699249940639200,12.29363916015625,-18.3642258215785,21.224574336409567,10.477780498081446
1763699249950599200,12.30359912109375,-12.96080025937557,17.143959219968316,10.110350038224459
1763699249960559400,12.313559326171875,-7.652782113572955,12.8106868547976,9.342514485147595
1763699249970519300,12.323519287109375,-1.9949217715740202,7.975508339306712,7.633066190233826
1763699249980480300,12.333480224609374,8.895403754854202,1.2886878114074467,6.232024503800273
1763699249990440400,12.3434404296875,22.170817076134682,-8.789484296789764,4.38125342900753
1763699250000400400,12.353400390625,22.625093460273742,-18.470428772759437,2.827733362430334
1763699250010361000,12.363361083984374,15.285975729578732,-23.543223035192486,-1.7313532527297735
1763699250020321300,12.3733212890625,8.074864785593748,-20.672477044987676,-5.52401768874228
1763699250030281200,12.38328125,-6.238156722944974,-12.94467096235156,-7.190859598594903
1763699250040241200,12.3932412109375,-19.198437926882505,-9.583805121210217,-9.012913112947345
1763699250050202400,12.403202392578125,-19.175829789233205,-10.234316609632968,-0.8844656441174447
1763699250060162300,12.413162353515625,-18.925740929687024,-9.874183321046829,7.782606178838014
1763699250070122200,12.423122314453124,-15.617999360489843,1.5391554411381483,6.72672174565494
1763699250080082200,12.433082275390625,-10.543891092848778,11.45992106513977,6.153369484758377
1763699250090043400,12.44304345703125,-8.41500099581182,16.347908210754394,6.479724422383308
1763699250100003300,12.45300341796875,-4.550909153923392,17.848415649068354,5.0229088262796395
1763699250109963300,12.46296337890625,-0.39310470707863565,14.781267965841293,3.79306775611639
1763699250119924200,12.47292431640625,2.2200712740443644,8.722941155824065,3.380086674439907
1763699250129884200,12.48288427734375,1.609769338674098,-0.4198357698768377,2.415753712881356
1763699250139844000,12.492843994140625,-1.5091133540958166,-10.243813921296596,2.000110864649713
1763699250149804300,12.50280419921875,-6.592157207864522,-19.580919825398922,0.5330412932962179
1763699250159765200,12.51276513671875,-11.131243237525224,-28.118895458972453,-3.33582433886528
1763699250169725200,12.52272509765625,-10.911934131646156,-35.20335453798771,-6.679366704761981
1763699250179685400,12.532685302734375,-1.3334360308028756,-38.88949687386751,-10.335345373046398
1763699250189645300,12.542645263671876,16.457829890197516,-33.58193290157318,-10.454642783600091
1763699250199606300,12.552606201171875,32.947289428889746,-23.382689943408966,-7.915594845613837
1763699250209566500,12.56256640625,32.670282167279716,-11.684781959927081,-5.201786553049088
1763699250219526400,12.5725263671875,20.48383078839779,-2.060366595908999,-1.4441129125274716
1763699250229486300,12.582486328125,7.133992632991075,4.506884718757868,3.2969840283393856
1763699250239447300,12.592447265625,-1.38768565351516,8.862647732678056,5.748420902889967
1763699250249407200,12.6024072265625,-2.5725252601742743,11.251424445176124,3.971131243893504
