time,seconds_elapsed,z,y,x
1763699237691974400,0.044974365234375,9.18715032043457,3.101987525939941,0.08918401184082031
1763699237701934300,0.054934326171875,9.31434228363037,3.0985458610534664,0.03067570877075195
1763699237711894300,0.064894287109375,9.585934534454346,3.0916625312805173,-0.03860650177001953
1763699237721855500,0.07485546875,9.775375740814209,3.0596400840759275,-0.10115502014160156
1763699237731815400,0.0848154296875,9.713725048065186,2.9640216552734375,-0.05117606048583984
1763699237741775400,0.094775390625,9.574861351776123,2.895786907958984,0.06988076095581054
1763699237751736300,0.104736328125,9.342324515533447,2.841618095397949,0.19692308654785154
1763699237761696300,0.1146962890625,9.075371030426025,2.7837083427429197,0.26560674667358397
1763699237771656200,0.12465625,9.04753843612671,2.8095956481933593,0.24630349578857422
1763699237781617400,0.134617431640625,9.068487700653076,2.8214170188903807,0.17657237243652343
1763699237791577300,0.144577392578125,9.114426445007323,2.8164789779663084,0.11671733093261719
1763699237801537300,0.154537353515625,9.134627521514892,2.844161934661865,0.09277531433105468
1763699237811498500,0.16449853515625,9.140613025665283,2.914940521240234,0.09696516723632811
1763699237821458400,0.17445849609375,9.151835845947264,2.9390321754455564,0.13003507766723632
1763699237831418400,0.18441845703125,9.173084385681152,2.9288568183898924,0.16505027694702148
1763699237841379300,0.19437939453125,9.215282189941405,2.907309003448486,0.17073650588989256
1763699237851339300,0.20433935546875,9.266458250427245,2.8878561149597166,0.18644845428466797
1763699237861299200,0.21429931640625,9.323170902252198,2.8076503593444824,0.1910872200012207
1763699237871259100,0.224259033203125,9.359981752777099,2.7467478546142576,0.20694880599975585
1763699237881220400,0.234220458984375,9.345167630004882,2.724451851654053,0.25528175201416015
1763699237891180300,0.24418017578125,9.29593685836792,2.7534815467834473,0.30047230834960936
1763699237901140200,0.25414013671875,9.256432530975342,2.759167775726318,0.34102409896850583
1763699237911101400,0.264101318359375,9.306561128234863,2.729090617370605,0.3458125022888183
1763699237921061400,0.274061279296875,9.346664006042479,2.7014076606750486,0.3525461944580078
1763699237931021300,0.284021240234375,9.41699367980957,2.6849475242614744,0.3968389251708984
1763699237940982300,0.293982177734375,9.353397698211669,2.5380033973693847,0.4170400016784668
1763699237950942200,0.303942138671875,9.456049094390869,2.5561095474243163,0.5482721801757812
1763699237960902100,0.313902099609375,9.327809667968749,2.5163059448242184,0.5663783302307128
1763699237970863400,0.32386328125,9.185653944396972,2.5206454353332517,0.5086182151794433
1763699237980823300,0.3338232421875,9.24371333465576,2.5821464904785154,0.35299510726928707
1763699237990783200,0.343783203125,9.358186101531983,2.7852047187805176,0.1970727241516113
1763699238000744400,0.353744384765625,8.961945726776122,2.5508722312927246,-0.023343466186523436
1763699238010704400,0.363704345703125,8.891765690612793,2.6013001037597654,0.13257891693115234
1763699238020664300,0.373664306640625,9.11098478012085,2.8884546653747556,0.5940612869262695
1763699238030625300,0.383625244140625,9.450362865447998,2.9135937828063962,0.8014590057373047
1763699238040585200,0.393585205078125,9.775824653625488,2.804657607269287,0.799962629699707
1763699238050545200,0.403545166015625,10.273668961334227,2.9713538978576657,1.0606313354492187
1763699238060506400,0.41350634765625,9.954791227722167,2.4742577781677246,0.5946598373413086
1763699238070466300,0.42346630859375,9.910797772216796,2.5781062751770016,0.241964005279541
1763699238080426200,0.43342626953125,10.435127935791016,3.2205005081176754,0.6474819114685059
1763699238090386400,0.443386474609375,10.08677159423828,3.060088996887207,1.0730512565612793
1763699238100347400,0.453347412109375,9.743054018402098,2.9535470230102536,1.2770073104858397
1763699238110307300,0.463307373046875,9.500491462707519,3.012204963684082,1.3808558074951172
1763699238120267300,0.473267333984375,9.150339469909667,2.8453590354919434,1.2828431770324706
1763699238130228200,0.483228271484375,9.203311181640624,1.916558428955078,0.7977180656433105
1763699238140188200,0.493188232421875,9.353846611022949,1.2868833923339842,0.3859153800964355
1763699238150148400,0.5031484375,9.395445864868163,2.708141352844238,1.437119546508789
1763699238160109300,0.513109375,9.528174419403076,2.692279766845703,1.7363947540283202
1763699238170069200,0.5230693359375,9.447519750976562,3.0291140129089356,1.7679682884216308
1763699238180029400,0.533029541015625,9.745298582458496,4.0626609420776365,2.6337714637756346
1763699238189990400,0.542990478515625,9.33379517211914,4.591480233764648,2.7588685005187985
1763699238199950300,0.552950439453125,8.859443968200683,4.452017987060547,2.9420249275207517
1763699238209910300,0.56291015625,8.449287296295166,3.558082942199707,2.3383868339538574
1763699238219871200,0.572871337890625,8.304587733459472,2.5891794578552245,1.7182886039733887
1763699238229831200,0.5828310546875,8.317456567382813,2.0688895095825193,1.772906329345703
1763699238239791400,0.592791259765625,8.249670732879638,2.205059729003906,2.1383213577270506
1763699238249752300,0.60275244140625,9.241169495391846,2.467673723602295,2.088791310882568
1763699238259712300,0.612712158203125,11.974001052856444,3.123086428070068,0.43230303726196284
1763699238269672400,0.62267236328125,7.640496047973633,3.4759318977355953,3.3405098663330075
1763699238279633400,0.63263330078125,10.60990465698242,2.737470323181152,1.8599954147338866
1763699238289593300,0.64259326171875,8.563311150360107,2.053027923583984,3.3092356071472167
1763699238299553300,0.65255322265625,9.254636879730224,1.3820529083251953,3.149871559143066
1763699238309513200,0.66251318359375,9.414449840545654,1.32144967880249,3.3674446350097655
1763699238319474200,0.67247412109375,9.09123261642456,2.1965303855895995,3.762936821746826
1763699238329434400,0.682434326171875,9.171588009643553,3.0645781249999997,4.006846115875244
1763699238339394300,0.692394287109375,8.731503816986084,2.366219428253174,3.6092590026855467
1763699238349355300,0.702355224609375,8.390778993225098,1.986289552307129,3.4741362464904784
1763699238359315500,0.7123154296875,8.255955512237549,1.8670283821105955,3.775057467651367
1763699238369275400,0.722275390625,8.072799085235594,1.8216881881713867,4.2396822273254395
1763699238379236000,0.732236083984375,7.73761085281372,1.9877859283447263,4.551227718353271
1763699238389196000,0.742196044921875,7.53320588607788,2.0904373245239256,4.911555068206787
1763699238399156000,0.752156005859375,7.3569327888488765,2.1149778915405273,5.107131416320801
1763699238409117000,0.762116943359375,7.633163805389404,2.272247013092041,5.1702784851074215
1763699238419076900,0.772076904296875,8.316558741760254,2.2468086204528808,5.283554151153564
1763699238429036800,0.782036865234375,8.435969549560546,1.9397522575378416,4.685303011322021
1763699238438998000,0.791998046875,8.526201024627685,1.9316718269348143,4.449174872589111
1763699238448958000,0.8019580078125,8.881291058349609,2.204461178588867,4.519354908752441
1763699238458918000,0.81191796875,9.156324974060057,2.468721186828613,4.141819234466553
1763699238468879000,0.821879150390625,12.02203472366333,3.537582590484619,1.4369699089050292
1763699238478839000,0.831839111328125,6.4460886947631835,2.5252842010498044,5.2061915100097655
1763699238488799000,0.841799072265625,7.082048510742187,2.4314614234924314,4.718672196960449
1763699238498759000,0.851759033203125,7.418433843994141,2.5480291168212887,4.618564640045165
1763699238508719900,0.861719970703125,7.125144140624999,2.503886023712158,4.722263499450683
1763699238518679800,0.8716796875,9.907356107330322,2.5104700782775877,4.229357232666016
1763699238528639700,0.8816396484375,8.527248487854003,2.565835991668701,4.262876055908203
1763699238538601000,0.89160107421875,8.26074391555786,2.5010429092407227,4.438700240325928
1763699238548561000,0.901560791015625,7.8444521018981925,2.456001990509033,4.532373380279541
1763699238558520800,0.911520751953125,7.433696879577636,2.6485855865478514,4.4756607284545895
1763699238568482000,0.92148193359375,7.144297753906249,2.9804817916870117,4.210053981781005
1763699238578442000,0.93144189453125,7.272237905120849,3.5811271331787107,4.552574456787109
1763699238588402000,0.94140185546875,8.002768686676024,2.8610709838867185,4.571877707672119
1763699238598363000,0.95136279296875,8.621220903015136,1.470937644958496,3.2817022880554196
1763699238608322800,0.96132275390625,8.71429549255371,1.8975544532775879,4.267514821624756
1763699238618282800,0.97128271484375,7.952939364624023,2.075473564147949,3.925892172241211
1763699238628244000,0.981243896484375,7.558045728302002,3.040187195587158,5.2810103118896485
1763699238638204000,0.991203857421875,6.945130103302001,2.987963671875,4.923526076507568
1763699238648163800,1.001163818359375,6.535571981811523,2.5002947212219238,4.848108724212646
1763699238658124000,1.0111240234375,6.148609138488769,2.2940941032409667,4.7746366607666015
1763699238668084700,1.021084716796875,5.652859757232665,2.1493945404052734,4.849305825042724
1763699238678044700,1.031044677734375,5.429600452423095,1.9515736282348632,4.765209491729736
1763699238688004900,1.0410048828125,4.472069425964356,1.599326708984375,4.901230073547363
1763699238697965800,1.0509658203125,4.453215087890625,1.269824705505371,4.773140284729004
1763699238707925800,1.06092578125,4.9151463706970215,1.118541088104248,4.582950890350341
1763699238717886000,1.070885986328125,14.58113702316284,0.838269856262207,3.6363434089660642
1763699238727847000,1.080846923828125,9.501538925933838,1.6730980476379393,3.066822689056396
1763699238737806800,1.090806884765625,8.162132734680176,1.600523809814453,2.7316344566345214
1763699238747767000,1.10076708984375,8.659677767181396,1.415272456359863,2.2616227432250975
1763699238757727700,1.110727783203125,9.215132552337646,1.0076596237182616,2.9454665924072265
1763699238767687700,1.120687744140625,2.484732410430908,1.2657844902038573,3.771017252349853
1763699238777647900,1.13064794921875,9.210942699432373,1.329230834197998,3.0111575004577635
1763699238787608800,1.14060888671875,10.392630856323242,0.9736918876647949,2.245312244415283
1763699238797568800,1.15056884765625,8.548048114776611,0.9513958847045898,1.4420575874328612
1763699238807529000,1.160529052734375,9.527575868988036,1.3263877197265623,0.8409633331298828
1763699238817490000,1.170489990234375,8.277204051971434,1.4477438163757324,1.0720037933349609
1763699238827449900,1.180449951171875,8.45886410293579,1.370081900024414,1.4667477920532226
1763699238837410000,1.19041015625,8.113350875854492,1.202188508605957,1.8264765914916992
1763699238847370000,1.200369873046875,8.519616970062255,1.094898346710205,2.018012724304199
1763699238857330700,1.21033056640625,10.765677402496337,1.063624087524414,1.7645266235351562
1763699238867291000,1.220290771484375,10.543615198516845,0.7836521308898925,1.5738883163452146
1763699238877250800,1.230250732421875,10.686219834899902,0.7820061172485351,1.071405242919922
1763699238887211800,1.240211669921875,10.083479566955566,1.0411784469604493,1.0191817192077637
1763699238897172000,1.250171875,9.97828433151245,1.1908160507202148,1.2603975364685058
1763699238907132000,1.2601318359375,10.270077658843993,1.2759598472595215,1.7519570648193359
1763699238917092900,1.2700927734375,11.18571015625,1.3670891479492187,1.8685247581481932
1763699238927053000,1.280052978515625,10.74487777557373,1.2624924629211425,1.433827519226074
1763699238937013000,1.290012939453125,10.786028116607666,1.213560966491699,1.0491092399597168
1763699238946973700,1.2999736328125,11.012130535888671,1.2509703674316406,0.5002385093688965
1763699238956934000,1.309933837890625,10.437073224639892,1.3955202926635741,0.02079962692260742
1763699238966893800,1.319893798828125,9.875184022521973,1.743427721405029,-0.213233585357666
1763699238976854800,1.329854736328125,9.501538925933838,2.1453543251037597,-0.28086978225708004
1763699238986815000,1.33981494140625,8.934711682891844,2.148347077178955,-0.21248539733886718
1763699238996775000,1.34977490234375,8.455721713256835,1.9352631294250486,-0.086191259765625
1763699239006734800,1.35973486328125,8.081178791046142,2.016815623474121,-0.4896142395019531
1763699239016696000,1.369696044921875,8.498667705535889,2.1884499549865724,-0.8051999458312988
1763699239026656000,1.379656005859375,8.756343659210204,2.2946926536560057,-1.0178349807739258
1763699239036616000,1.389615966796875,9.31374373321533,2.423530630493164,-1.3826514587402343
1763699239046577000,1.399576904296875,11.226561222076416,2.2026655273437497,-1.6211737991333006
1763699239056536800,1.409536865234375,12.0790466506958,1.3558663276672362,-1.565957523345947
1763699239066496800,1.419496826171875,11.230302162170409,1.2415431983947753,-1.9174562545776366
1763699239076458000,1.4294580078125,10.497077903747558,1.670853483581543,-3.315520386505127
1763699239086418000,1.43941796875,9.241468770599365,2.5043349365234375,-4.7369279846191406
1763699239096377900,1.4493779296875,9.213336901092529,3.1573534393310547,-5.17117631072998
1763699239106339000,1.459339111328125,9.83163947982788,2.6048914062499997,-4.325274936676025
1763699239116299000,1.469299072265625,9.994594830322265,2.184709014892578,-4.6727334526062005
1763699239126259000,1.479259033203125,9.881618439483642,1.71739077835083,-4.671536351776123
1763699239136219100,1.48921923828125,9.904512992858885,1.2805986129760742,-4.268113372039795
1763699239146179800,1.499179931640625,10.037840097808838,1.2921207084655761,-3.969735990142822
1763699239156139800,1.509139892578125,10.320954444122314,1.305588092803955,-4.048894282531738
1763699239166100000,1.519099853515625,10.33621747970581,1.3154641746520996,-4.1654619758605955
1763699239176061000,1.52906103515625,10.21441247024536,1.3798083442687987,-4.276941990661621
1763699239186020900,1.539020751953125,10.064924504089355,1.3766659545898436,-4.371512956237793
1763699239195981000,1.54898095703125,9.87668039855957,1.3208511283874511,-4.612728773498535
1763699239205942000,1.55894189453125,9.683049339294433,1.283890640258789,-4.847659811401367
1763699239215902000,1.56890185546875,9.329455681610106,1.252616381072998,-4.7631145652771
1763699239225862100,1.578862060546875,8.851213899993896,1.193359889984131,-4.3911154823303225
1763699239235822800,1.58882275390625,8.46544815750122,1.0986392868041992,-4.005200102233887
1763699239245782800,1.59878271484375,8.411728257751465,0.9855132583618164,-3.6041713241577145
1763699239255743000,1.608742919921875,8.598775262451172,1.0805331367492674,-2.863465185546875
1763699239265704000,1.618703857421875,10.033350969696045,1.1768997535705565,-2.6210522674560544
1763699239275664000,1.628663818359375,11.065850435638428,0.9856628959655761,-2.97509483795166
1763699239285624000,1.6386240234375,10.143334608459472,1.0239701225280762,-3.8884827713012693
1763699239295584000,1.648583984375,8.672247325897215,1.7248726585388183,-5.474641371154785
1763699239305545000,1.658544921875,8.172906642150878,2.461987494659424,-7.236773793029784
1763699239315505200,1.668505126953125,8.158391794586182,1.6383821235656737,-6.758681649017333
1763699239325465000,1.678465087890625,8.073098360443115,1.2351087814331054,-5.622782598876952
1763699239335425800,1.68842578125,8.14073455734253,0.9917980377197265,-5.273827706909179
1763699239345386000,1.698385986328125,8.242637765502929,0.8876502655029296,-4.26452206954956
1763699239355346000,1.708345947265625,8.437017012786864,1.0527005424499511,-3.987542864990234
1763699239365307000,1.718306884765625,8.219593574523925,0.8678981018066406,-4.790348609161376
1763699239375267000,1.72826708984375,8.346635900115967,0.462829108428955,-4.944475341033935
1763699239385227300,1.738227294921875,8.686762173461913,0.28535891036987304,-5.146336468505859
1763699239395188000,1.74818798828125,8.377910159301758,0.405368268585205,-5.612906517028808
1763699239405148200,1.758148193359375,7.691223195648193,0.8985738105773925,-5.94390489654541
1763699239415108000,1.768108154296875,7.147889056396484,0.9650129066467285,-5.843348426818848
1763699239425068000,1.778068115234375,7.173327449035644,1.55772745513916,-6.306626448059082
1763699239435029200,1.788029296875,7.494000833892822,2.135478243255615,-6.907122151947021
1763699239444989200,1.7979892578125,7.416638192749023,2.1666028648376465,-6.994660150146484
1763699239454949000,1.80794921875,7.174823825073242,2.2117934211730956,-6.812700823974609
1763699239464910300,1.817910400390625,7.2806176109313965,1.5248071823120117,-6.465691220855713
1763699239474870300,1.827870361328125,7.048828962707519,1.2624924629211425,-6.36513475112915
1763699239484830200,1.837830322265625,6.510732139587402,0.898274535369873,-6.620865415954589
1763699239494791200,1.847791259765625,6.331316652679443,0.41973347854614257,-6.931363443756103
1763699239504751000,1.857751220703125,6.666355247497558,1.1189900009155274,-7.499537425231933
1763699239514711000,1.8677109375,6.804470755767822,1.2792518745422363,-7.666682628631591
1763699239524672300,1.87767236328125,7.012616662597656,0.9792284790039062,-7.161206803131103
1763699239534632200,1.887632080078125,7.5923127395629875,1.0037690460205078,-6.679972269439697
1763699239544592100,1.897592041015625,7.709628620910644,0.982520506286621,-6.019771161651611
1763699239554552300,1.90755224609375,8.412925358581543,1.4561235221862792,-5.565172121429443
1763699239564513300,1.91751318359375,8.444199617767334,1.7726070541381835,-5.172074136352538
1763699239574473200,1.92747314453125,8.569446292114257,1.3072341064453123,-4.80710802078247
1763699239584433400,1.937433349609375,8.343044597625733,1.331774673461914,-4.778676876068115
1763699239594394000,1.94739404296875,7.873781072235107,1.5322890624999999,-5.12613539199829
1763699239604354000,1.95735400390625,7.3654621322631835,1.488894157409668,-5.284751251983642
1763699239614314200,1.967314208984375,6.694487117004394,1.1454758567810057,-4.940734400939941
1763699239624275200,1.977275146484375,6.688800888061523,0.812083275604248,-5.380070405578613
1763699239634235100,1.987235107421875,6.185120713806152,1.460762287902832,-6.593481734466552
1763699239644195300,1.9971953125,5.964255610656738,0.5891232460021972,-6.394463721466064
1763699239654156300,2.00715625,6.582558189392089,0.13676876983642577,-5.2444987365722655
1763699239664116200,2.0171162109375,6.468983248138428,-0.09711480484008789,-5.259612134552001
1763699239674076400,2.027076416015625,6.111050099945068,-0.005536591339111328,-6.100725105285644
1763699239684036400,2.037036376953125,6.1170356040954585,0.16130933685302734,-6.328623175811767
1763699239693997000,2.0469970703125,5.858611462402344,0.22999299697875975,-6.358251421356201
1763699239703957200,2.056957275390625,5.491251145172119,-0.14933832855224607,-6.345083312225341
1763699239713917200,2.066917236328125,5.552452925109863,-0.7234978141784667,-6.062417878723144
1763699239723878100,2.076878173828125,5.537638802337646,-1.2574047843933105,-5.776759693145752
1763699239733838300,2.08683837890625,5.9485436622619625,-1.9211971946716306,-5.0754082443237305
1763699239743798300,2.09679833984375,5.903053830718994,-2.6185084281921385,-4.62230558013916
1763699239753759200,2.10675927734375,5.408052637481689,-2.8731916297912594,-4.690091414642334
1763699239763719400,2.116719482421875,5.793668742370605,-2.7373206855773926,-5.178658190917968
1763699239773679400,2.126679443359375,6.010343992614746,-2.4658780723571776,-6.401795964050293
1763699239783639300,2.136639404296875,5.963357785034179,-2.6128221992492673,-7.131877832794189
1763699239793600300,2.146600341796875,5.840954225158691,-2.8139351387023925,-7.353491123962402
1763699239803560200,2.156560302734375,4.921281512451172,-2.835183678436279,-7.204452070617675
1763699239813520100,2.16652001953125,5.453243193817138,-2.928557543182373,-7.532906610870361
1763699239823481300,2.1764814453125,5.5744496528625485,-3.169174810028076,-7.776516629791259
1763699239833441300,2.186441162109375,5.8086325027465815,-3.193416101837158,-7.752724250793457
1763699239843401200,2.196401123046875,5.657049610137939,-3.4386721343994138,-7.738508678436279
1763699239853362400,2.206362548828125,5.319766451263427,-3.77954659576416,-7.949198424530029
1763699239863322400,2.216322265625,5.80309591140747,-3.397072880554199,-8.163030560302733
1763699239873282300,2.2262822265625,5.550208361053467,-3.312976547241211,-8.211962056732178
1763699239883243300,2.2362431640625,5.133617272186279,-3.6008792968749996,-8.107215734100341
1763699239893203200,2.246203125,4.7478515296936035,-4.1569326324462885,-8.115445802307129
1763699239903163100,2.2561630859375,4.563198726654052,-4.050839571380615,-8.492981476593018
1763699239913123000,2.266123046875,4.4008419265747065,-3.84987626953125,-8.972569996643067
1763699239923084300,2.276084228515625,3.9764696823120116,-3.8742671989440916,-9.243264421844481
1763699239933044200,2.286044189453125,4.299537268829345,-3.930680575561523,-9.491064293670654
1763699239943004200,2.296004150390625,4.477755654907226,-4.0255508163452145,-9.341725965118407
1763699239952965400,2.30596533203125,4.18790761642456,-4.162918136596679,-9.006088819885253
1763699239962925300,2.31592529296875,4.4087727195739745,-4.435108937835693,-8.983942454528808
1763699239972885200,2.32588525390625,4.435258575439453,-4.591330596160889,-9.117119921875
1763699239982846200,2.33584619140625,4.191498918914795,-4.59656791229248,-9.268702814483643
1763699239992806100,2.34580615234375,4.247912295532227,-4.436156401062012,-9.563339256286621
1763699240002766000,2.35576611328125,4.2317514343261715,-4.2149920227050774,-9.846603240203857
1763699240012727300,2.365727294921875,4.00310517578125,-4.310311176300049,-9.92172131729126
1763699240022687200,2.375687255859375,4.075380138397216,-4.26482134475708,-9.944316595458984
1763699240032647200,2.385647216796875,3.9311294883728025,-4.354753544616699,-9.950601374816895
1763699240042607400,2.395607421875,4.339789784240723,-4.093486288452148,-10.140491493988037
1763699240052568300,2.405568359375,4.506186799621582,-3.7210382926940917,-10.347739575195313
1763699240062528300,2.4155283203125,4.2119992706298826,-3.659537237548828,-10.316016403198242
1763699240072488200,2.42548828125,3.8673838691711424,-3.8367081604003905,-10.044274514770507
1763699240082449200,2.43544921875,3.591152852630615,-4.071639198303222,-9.769090961456298
1763699240092409000,2.4454091796875,3.464260164642334,-4.255394175720214,-9.661950437164306
1763699240102369300,2.455369384765625,3.151218297576904,-4.1760862457275385,-9.738564890289306
1763699240112330200,2.465330322265625,3.799298759460449,-4.036474361419677,-9.94102456817627
1763699240122290200,2.475290283203125,3.450044592285156,-3.634547757720947,-9.708637369537353
1763699240132250400,2.48525048828125,2.2245126174926755,-4.010287780761718,-9.596558804321289
1763699240142210300,2.495210205078125,2.727294966125488,-4.771344633483887,-9.497947623443602
1763699240152171000,2.5051708984375,4.632780212402343,-4.758924712371826,-10.216507396697997
1763699240162131200,2.515131103515625,4.26467170715332,-5.067327813720703,-10.458621039581299
1763699240172091100,2.525091064453125,4.022857339477539,-5.512350047302246,-10.809670858001708
1763699240182052000,2.535052001953125,4.796932663726806,-5.6681227928161615,-11.110143166351317
1763699240192012300,2.54501220703125,5.081094473266601,-5.597493843841552,-10.903792910766601
1763699240201972200,2.55497216796875,5.283853426361084,-5.466411302947998,-10.752958206176757
1763699240211933200,2.56493310546875,8.068309957122802,-5.181052392578125,-10.14453170928955
1763699240221893400,2.574893310546875,12.290933497619628,-4.831199674987793,-8.894908080291748
1763699240231853300,2.584853271484375,10.530746364593504,-4.387224904632568,-8.001272310638427
1763699240241813200,2.594813232421875,6.2289645317077635,-4.123114533996582,-7.85911658706665
1763699240251774200,2.604774169921875,3.441814524078369,-4.32198290939331,-7.887547731781005
1763699240261734100,2.614734130859375,1.8085200790405271,-4.135684092712402,-8.131457025909423
1763699240271694000,2.624694091796875,1.2261305252075194,-4.283526045227051,-8.008604553222655
1763699240281655300,2.6346552734375,1.4392144729614258,-4.979340902709961,-7.872883246612548
1763699240291615200,2.644615234375,1.9636942741394041,-5.80324554901123,-7.966257111358642
1763699240301575200,2.6545751953125,2.149095265197754,-6.33999563369751,-8.26164174118042
1763699240311536400,2.664536376953125,2.1823148132324217,-6.424840155029297,-8.467543083953856
1763699240321496300,2.674496337890625,1.9334674781799315,-6.298695655059814,-8.67000276184082
1763699240331456300,2.684456298828125,1.34060329208374,-6.23090982055664,-8.87380917816162
1763699240341416200,2.694416259765625,0.3022679595947265,-6.3061775352478024,-9.087491676330567
1763699240351377200,2.704377197265625,-0.5229834251403809,-6.522104597473144,-9.175478587341308
1763699240361337000,2.714337158203125,-1.422455061340332,-6.725911013793945,-9.113079706573485
1763699240371297000,2.724297119140625,-2.134879692840576,-6.798335614013672,-9.119065210723877
1763699240381258200,2.73425830078125,-2.4352023635864257,-6.807912420654296,-8.936058421325683
1763699240391218200,2.74421826171875,-2.081907981109619,-6.808959883880615,-8.765770828247069
1763699240401178000,2.75417822265625,-0.9540893615722655,-6.648249097442626,-8.543409349060058
1763699240411139300,2.764139404296875,0.12419921112060546,-6.138733056640625,-8.258798626708984
1763699240421099300,2.774099365234375,0.6884826148986816,-5.584026459503174,-8.17126062850952
1763699240431059200,2.78405908203125,0.9060556907653808,-4.893598555755615,-8.309226499176026
1763699240441019100,2.79401904296875,0.0326209976196289,-4.340986885070801,-8.783577703094481
1763699240450980000,2.80397998046875,-0.4176385520935058,-3.999214598083496,-8.979602964019774
1763699240460940000,2.81393994140625,-0.5657797798156738,-3.93277550201416,-8.949076892852784
1763699240470900000,2.82389990234375,-0.5903203468322754,-3.8908769729614257,-8.905083437347411
1763699240480861200,2.833861083984375,-0.7863456077575683,-3.723881407165527,-8.883685260009765
1763699240490821000,2.843821044921875,-0.3660135787963867,-3.5556887405395505,-8.59982272567749
1763699240500781000,2.853781005859375,-0.3238157745361328,-3.3143232856750484,-8.578125273132324
1763699240510742300,2.8637421875,-0.9280524185180663,-3.3487399345397946,-8.955810585021972
1763699240520702200,2.8737021484375,-0.9496002334594726,-3.3391631278991696,-8.896853369140624
1763699240530662100,2.883662109375,-0.7854477821350098,-2.9774890396118163,-8.911218579101561
1763699240540622300,2.893622314453125,-1.2038345222473144,-2.7078420776367187,-8.8995468460083
1763699240550583000,2.9035830078125,-0.8441057228088379,-2.522889999389648,-8.749011416625976
1763699240560543000,2.91354296875,-0.3972878379821777,-2.157175695800781,-8.708010713195801
1763699240570503200,2.923503173828125,-0.29014731369018554,-1.9226935707092283,-8.372972118377685
1763699240580464000,2.933464111328125,-0.6156091018676757,-1.886630908203125,-8.311620700836182
1763699240590424000,2.943424072265625,-0.8901941047668457,-1.8631378044128417,-8.533682904815674
1763699240600384300,2.95338427734375,-0.7279869422912597,-1.8787001152038574,-8.001421948242188
1763699240610345200,2.96334521484375,-1.5204676918029785,-1.8032827629089354,-8.036736422729492
1763699240620305200,2.97330517578125,-1.120486376953125,-1.7925088554382322,-8.161384546661376
1763699240630265300,2.983265380859375,-1.8528128097534178,-1.468992356109619,-8.811111022186278
1763699240640226000,2.99322607421875,-3.0934581825256346,-1.2789525993347166,-9.2060046585083
1763699240650186000,3.00318603515625,-2.243516593170166,-1.6133926437377928,-9.431209252166747
1763699240660146200,3.013146240234375,-2.699163096618652,-1.6053122131347655,-9.687388829803465
1763699240670106000,3.023106201171875,-3.229329126739502,-1.455076058959961,-9.472658868408203
1763699240680067000,3.033067138671875,-2.420837153625488,-1.4323311431884764,-9.143755415344238
1763699240690027300,3.04302734375,-1.7386393180847166,-1.6391303115844726,-9.158719175720215
1763699240699987200,3.0529873046875,-1.6953940505981444,-1.5851111366271973,-8.86812294921875
1763699240709948200,3.0629482421875,-1.5574281799316405,-1.3848960227966307,-8.117690366363524
1763699240719908400,3.072908447265625,-1.0600327850341795,-1.2352584190368652,-7.420977683258056
1763699240729868300,3.082868408203125,-0.36706104202270506,-1.133804123687744,-6.572233194732665
1763699240739829000,3.0928291015625,0.32097266006469727,-1.0826280632019043,-5.366902296447754
1763699240749789200,3.1027890625,1.2032359718322754,-1.0116998390197753,-4.179378273010253
1763699240759749000,3.1127490234375,2.4425346061706543,-3.752162914276123,-2.48353530960083
1763699240769709000,3.122708984375,3.9553707801818847,-14.255525597381592,-1.4754267730712889
1763699240779670300,3.132670166015625,2.5903765586853025,1.9847931762695312,-5.922207444000244
1763699240789630200,3.142630126953125,1.3708300880432127,-2.0241478660583496,-5.336825138092041
1763699240799590100,3.152590087890625,3.637690147399902,-6.177938108825683,-8.481160105895995
1763699240809551400,3.16255126953125,3.07729732131958,-8.181435985565185,-11.617115367889404
1763699240819511300,3.17251123046875,0.5989993278503417,-5.819705685424804,-11.042506969451903
1763699240829471200,3.18247119140625,-0.8722375923156738,-6.85684391708374,-13.142970013427734
1763699240839432200,3.19243212890625,-3.041384296417236,-7.210437574768066,-13.772196137237549
1763699240849392000,3.20239208984375,-3.8174049095153806,-7.438784558105469,-12.696900316619873
1763699240859352000,3.21235205078125,-2.9810803421020506,-7.896675625610351,-10.042029950714111
1763699240869312000,3.22231201171875,-1.661127039337158,-7.753771714019775,-7.672967407989502
1763699240879273200,3.232273193359375,-1.1457751319885254,-7.351396197509765,-6.808810246276855
1763699240889233200,3.242233154296875,-0.7574655502319335,-6.749254479980468,-8.392574644470214
1763699240899193000,3.252193115234375,-0.028431144714355466,-6.208913092803955,-11.001805541229247
1763699240909154300,3.262154296875,0.3978863883972168,-5.4501008041381835,-11.700463513183593
1763699240919114200,3.2721142578125,0.7797615531921386,-5.303755227661132,-10.404901139831543
1763699240929074200,3.28207421875,0.6625953094482422,-4.595819724273682,-9.788094937133788
1763699240939035100,3.29203515625,0.19482816009521484,-4.267514821624756,-8.211962056732178
1763699240948995000,3.3019951171875,0.6386532928466796,-3.815908533477783,-6.445041231536865
1763699240958955000,3.311955078125,0.8608651344299316,-3.605368424987793,-5.186140071105957
1763699240968915200,3.321915283203125,1.7751508934020994,-1.834856297302246,-5.295076246643066
1763699240978876200,3.331876220703125,1.631798069000244,-0.01705868682861328,-7.114370233154297
1763699240988836000,3.341836181640625,0.6557119796752929,-0.5804442649841308,-8.378508709716796
1763699240998796300,3.35179638671875,0.08439560852050781,-1.5912462783813475,-8.947430879211426
1763699241008757000,3.361757080078125,-0.042945992279052735,-2.7564742988586426,-9.635614218902587
1763699241018717000,3.371717041015625,-0.09591770401000976,-3.5455133834838866,-10.76418102645874
1763699241028677000,3.381677001953125,-0.303913973236084,-4.142268147277832,-11.794585565948486
1763699241038638000,3.39163818359375,-1.0727519813537596,-5.256619382476806,-10.050110381317138
1763699241048598000,3.401597900390625,-0.45819034271240233,-5.1994578178405755,-9.178172064208983
1763699241058558200,3.41155810546875,-0.4358943397521972,-4.293402127075195,-7.50178198928833
1763699241068518100,3.42151806640625,0.6452373474121094,-3.2894834434509277,-7.007528984069824
1763699241078479000,3.43147900390625,1.9155109657287597,-2.328361114501953,-6.022315000915527
1763699241088439300,3.441439208984375,2.3217770599365233,-1.7542016288757323,-5.4056584358215325
1763699241098399200,3.451399169921875,1.7244237457275389,-2.7551275604248047,-5.487659842681884
1763699241108360000,3.46135986328125,1.7214309936523438,-4.432864373779297,-5.557390966033935
1763699241118320000,3.471320068359375,1.7299603370666503,-5.72648145828247,-4.97335539855957
1763699241128280000,3.481280029296875,1.11734398727417,-6.883329772949218,-3.9297827499389646
1763699241138240000,3.491239990234375,0.1849520782470703,-8.079981690216064,-3.360710942840576
1763699241148201200,3.501201171875,2.0507833595275877,-11.004349380493164,-3.3837551338195797
1763699241158161200,3.5111611328125,2.689586289978027,-12.434735234832763,-2.283020920562744
1763699241168121000,3.52112109375,1.2288240020751953,-12.161048057556151,-2.092083338165283
1763699241178082300,3.531082275390625,0.26964696197509763,-11.759121453857421,-2.842216645812988
1763699241188042200,3.541042236328125,-0.8927379440307617,-12.466458406829833,-4.807706571197509
1763699241198002200,3.551002197265625,-0.14395137481689452,-13.396156838989256,-6.415263348388671
1763699241207963100,3.560963134765625,-0.33309330596923825,-14.26240892715454,-6.7651160659790035
1763699241217923000,3.570923095703125,0.5144540817260742,-14.729427888488768,-7.229441550445556
1763699241227883000,3.580883056640625,0.9475053070068359,-14.315081363677978,-6.37755467224121
1763699241237843200,3.59084326171875,1.006163247680664,-12.94155779876709,-5.841103862762451
1763699241247804200,3.60080419921875,0.7505822204589844,-11.209352897644042,-5.673060833740234
1763699241257764000,3.61076416015625,0.6063315704345703,-9.720758015441893,-5.906944408416748
1763699241267724300,3.620724365234375,0.22475568084716796,-8.689605287933349,-5.760748469543457
1763699241277685200,3.630685302734375,0.17911621170043945,-7.221510757446288,-5.256020832061767
1763699241287645200,3.640645263671875,0.28924948806762696,-6.480954256439208,-5.078251358795166
1763699241297605400,3.65060546875,0.369006330871582,-6.6891001632690426,-5.111321269226074
1763699241307566000,3.660566162109375,0.35359365768432616,-7.274482469177245,-4.890007253265381
1763699241317526000,3.670526123046875,-0.40566754379272457,-8.400804712677001,-4.387524179840088
1763699241327486200,3.680486328125,-0.0526724365234375,-9.383325218963623,-4.413112210083008
1763699241337446100,3.690446044921875,0.6120177993774414,-9.47430488204956,-4.337096307373047
1763699241347407000,3.700406982421875,0.1883937431335449,-8.869170412445067,-4.112190988922119
1763699241357367300,3.7103671875,0.06898293533325195,-8.065167567443847,-4.0726866615295405
1763699241367327200,3.7203271484375,0.709880792236328,-7.923161481475829,-3.895815013885498
1763699241377288200,3.7302880859375,1.0932523330688475,-8.028356716918944,-3.6646249160766597
1763699241387248400,3.740248291015625,1.175852290344238,-8.246229067993164,-3.3999159950256344
1763699241397208300,3.750208251953125,1.1620856307983398,-9.062352558898926,-3.064877400207519
1763699241407168300,3.760168212890625,0.9264064048767089,-9.354445161437988,-2.8719945289611815
1763699241417129200,3.770129150390625,0.42931028518676756,-9.644891750335693,-2.7129297561645505
1763699241427089200,3.780089111328125,0.03456628646850586,-9.603142858886718,-2.6493337745666503
1763699241437049000,3.790049072265625,0.12285247268676758,-9.76220763168335,-2.7862521820068356
1763699241447010300,3.80001025390625,0.18046295013427732,-9.71581997451782,-2.9554923118591305
1763699241456970200,3.80997021484375,-0.08125321884155273,-9.821164847564697,-2.830694550323486
1763699241466930200,3.81993017578125,-0.023343466186523436,-10.50261449508667,-2.6862942626953124
1763699241476891400,3.829891357421875,0.17896657409667968,-10.511892026519774,-2.5130139175415036
1763699241486851300,3.839851318359375,0.24750059661865234,-9.865307940673828,-2.262520568847656
1763699241496811300,3.849811279296875,0.4182371025085449,-9.164106129455567,-2.250549560546875
1763699241506771200,3.859771240234375,0.8429086219787597,-8.169614614868163,-1.0518027168273925
1763699241516732200,3.869732177734375,0.20216040267944335,-8.130559200286864,-0.39220015945434566
1763699241526692000,3.879692138671875,-0.7082347785949706,-7.989151664733886,-2.155380044555664
1763699241536652000,3.889652099609375,0.28745383682250975,-8.707112887573242,-2.207902843475342
1763699241546613200,3.89961328125,0.9127893829345702,-8.977807312774658,-2.2704513618469235
1763699241556573200,3.9095732421875,0.39369653549194333,-7.896077075195312,-2.143259398651123
1763699241566533000,3.919533203125,0.19916765060424804,-1.1851298217773436,-1.959205146026611
1763699241576493300,3.929493408203125,0.18240823898315428,1.7311574378967285,-0.608426496887207
1763699241586454300,3.939454345703125,0.34401685104370117,-5.352836361694336,-0.7472901931762694
1763699241596414200,3.949414306640625,0.6579565437316894,-6.093542500305175,-0.8693944778442382
1763699241606374100,3.9593740234375,0.7065887649536132,-7.314884622192382,-0.5289689292907714
1763699241616335000,3.969335205078125,0.7559691741943358,-9.44856721420288,-0.7477391059875488
1763699241626295000,3.979294921875,0.2555810272216797,-9.521889640045165,-1.1309610092163085
1763699241636255200,3.989255126953125,0.488417138671875,-8.978405863189696,-1.4981716888427734
1763699241646216200,3.99921630859375,0.6388029304504395,-9.571718962097167,-1.6909049224853514
1763699241656176000,4.009176025390625,-0.4134486991882324,-9.590722937774657,-1.2626421005249022
1763699241666136300,4.01913623046875,-0.31274259185791015,-9.315988297271728,-0.8084919731140137
1763699241676096300,4.02909619140625,-0.21592706222534178,-8.21690009765625,-0.9184756118774413
1763699241686057200,4.03905712890625,0.5596446380615234,-6.713790367889404,-0.5047276374816895
1763699241696017200,4.04901708984375,1.286434479522705,-6.588992606353759,0.31797990798950193
1763699241705977000,4.05897705078125,0.6940192062377929,-7.202656419372558,0.9695020347595215
1763699241715938000,4.06893798828125,0.5934627365112304,-7.756016278076172,1.1558008514404297
1763699241725898200,4.078898193359375,0.6640916854858399,-8.371625379943847,1.042674822998047
1763699241735858200,4.088858154296875,1.1742062767028807,-9.157073162078857,0.6298246742248534
1763699241745819100,4.098819091796875,2.2068553802490234,-15.5772745513916,-2.2290017456054687
1763699241755779300,4.108779296875,3.521122454071045,-23.426365419006345,-5.1982607170104975
1763699241765739300,4.1187392578125,1.0568903953552244,-20.278588786315918,-5.475389559173584
1763699241775699200,4.12869921875,-0.4337994132995605,-14.878317304229736,-3.7810429718017575
1763699241785660200,4.13866015625,0.40940848388671874,-12.16852993774414,-1.025316860961914
1763699241795620000,4.1486201171875,0.6040870063781738,-10.416273597717284,1.9500772521972656
1763699241805580000,4.158580078125,0.44981063690185547,-9.643545011901855,4.942829327392578
1763699241815541200,4.168541259765625,0.5939116493225097,-9.377489352416992,5.697152487945556
1763699241825501200,4.178501220703125,1.2044330726623536,-9.766846397399902,5.12658430480957
1763699241835461000,4.188461181640625,0.9479542198181152,-11.05028812484741,3.9941269195556637
1763699241845421000,4.198421142578125,1.5411176811218261,-13.768904109954834,4.6091374710083
1763699241855382300,4.20838232421875,1.6365864723205565,-14.452897596740721,3.577984743499756
1763699241865342200,4.21834228515625,1.6967407890319823,-14.746935488128662,2.173635832214355
1763699241875302100,4.22830224609375,1.2623428253173827,-11.367070932006834,1.7217302688598632
1763699241885263000,4.23826318359375,2.702455123901367,-10.338162768554687,1.454327870941162
1763699241895223000,4.24822314453125,-0.008230068206787108,-15.08646321105957,3.4612674125671385
1763699241905183000,4.258182861328125,-0.2136824981689453,-12.803591928100586,2.8755858314514158
1763699241915144200,4.268144287109375,1.6244658264160154,-11.968763736724853,1.786224076080322
1763699241925104000,4.278104248046875,1.9324200149536133,-11.57446865081787,1.7642273483276367
1763699241935064000,4.28806396484375,1.9749170944213865,-10.634445223999023,2.224811892700195
1763699241945024300,4.298024169921875,1.9143138648986815,-9.522637828063964,3.0343513290405273
1763699241954985200,4.307985107421875,1.9138649520874023,-8.519168057250976,3.837755623626709
1763699241964945200,4.317945068359375,2.3918074584960936,-7.613561279296874,4.208707243347168
1763699241974905300,4.3279052734375,2.9562404998779295,-7.605630486297607,4.275744889831543
1763699241984866000,4.337865966796875,3.344101168823242,-7.9773302940368644,4.030339219665527
1763699241994826000,4.347825927734375,3.668964406585693,-8.351873216247558,3.337068201446533
1763699242004786200,4.3577861328125,4.013430170440674,-8.806921169281006,2.505232762145996
1763699242014746000,4.36774609375,4.256142363739014,-9.139715200042724,1.4622586639404296
1763699242024707000,4.37770703125,4.320037620544434,-9.249249925994873,0.33264439315795896
1763699242034667300,4.387667236328125,4.302230745697021,-9.27603505706787,-0.7918821990966797
1763699242044627200,4.397627197265625,3.8132150566101073,-9.229946675109863,-1.584512586212158
1763699242054588200,4.407588134765625,3.1669302459716797,-9.120411949157715,-1.9027917694091796
1763699242064548400,4.41754833984375,3.3207577026367185,-9.006238457489014,-1.7821838607788085
1763699242074508300,4.42750830078125,3.616740882873535,-8.949076892852784,-0.8930372192382812
1763699242084468200,4.43746826171875,3.626916239929199,-8.98304462890625,0.8081926979064941
1763699242094429200,4.44742919921875,3.3975217933654784,-9.094524643707274,2.818124991607666
1763699242104389000,4.45738916015625,2.483984222412109,-8.89326206665039,4.498106369018554
1763699242114349000,4.46734912109375,1.8704700469970703,-8.334066341400145,5.205742597198486
1763699242124310300,4.477310302734375,2.238877827453613,-7.780257569885253,4.6727334526062005
1763699242134270200,4.487270263671875,2.670432676696777,-7.382520819091797,3.361908043670654
1763699242144230100,4.497230224609375,2.765751830291748,-7.199663667297363,1.8900725730895995
1763699242154191400,4.50719140625,2.724900764465332,-7.167790857696533,0.6153098266601562
1763699242164151300,4.5171513671875,2.7819126914978027,-7.231686114501953,-0.3372831588745117
1763699242174111200,4.527111328125,3.043479222869873,-7.427112825012206,-0.9192237998962401
1763699242184071200,4.5370712890625,3.3527801498413083,-7.656956184387207,-0.8586205703735351
1763699242194032000,4.5470322265625,3.3707366622924804,-7.676109797668457,-0.17193360671997068
1763699242203992000,4.556991943359375,3.2022447204589843,-7.499687062835693,0.8294412376403808
1763699242213952000,4.566951904296875,3.1118636077880857,-7.415141816711425,1.776048719024658
1763699242223913200,4.576913330078125,3.092560356903076,-7.509114231872558,2.479046181488037
1763699242233873200,4.586873046875,3.161393654632568,-7.672967407989502,2.9900585983276367
1763699242243833000,4.5968330078125,3.388244261932373,-7.836072396087646,3.309534882354736
1763699242253793300,4.606793212890625,3.678092300415039,-7.8912886718749995,3.573345977783203
1763699242263754200,4.616754150390625,3.9854479385375976,-7.90999337234497,3.830124105834961
1763699242273714200,4.626714111328125,4.2317514343261715,-7.979275582885742,4.093486288452148
1763699242283674400,4.63667431640625,4.294599227905273,-8.054393659973144,4.214243834686279
1763699242293635000,4.646635009765625,4.205265578460693,-8.142979121398925,4.121767795562744
1763699242303595000,4.656594970703125,4.082113830566406,-8.155997592926026,3.8934208122253415
1763699242313555200,4.66655517578125,3.9987656852722164,-8.135048328399657,3.635295945739746
1763699242323515100,4.67651513671875,4.089146797943115,-8.147468249511718,3.444208725738525
1763699242333476000,4.68647607421875,4.235642012023925,-8.131606663513184,3.3078888687133787
1763699242343436300,4.696436279296875,4.348917678070068,-8.092850524139404,3.211971164703369
1763699242353396200,4.706396240234375,4.473715439605713,-8.03808316116333,3.2620997619628906
1763699242363357200,4.716357177734375,4.592677334594726,-8.013392956542969,3.416974681854248
1763699242373317000,4.726317138671875,4.894346743774414,-8.073846548461914,3.5679590240478514
1763699242383277000,4.736277099609375,5.453392831420898,-8.282441368103028,3.4599206741333006
1763699242393238300,4.74623828125,5.939864681243896,-8.847921872711181,3.1771056030273437
1763699242403198200,4.7561982421875,6.255899300384521,-10.130465774536132,3.0172926422119137
1763699242413158100,4.766158203125,6.449979272460937,-11.764508407592773,2.691681216430664
1763699242423118000,4.7761181640625,6.27580110168457,-12.80074881362915,1.9952678085327147
1763699242433079300,4.786079345703125,5.830479592895507,-12.867187909698485,1.4390648353576658
1763699242443039200,4.796039306640625,5.074510418701172,-11.788300786590575,1.249473991394043
1763699242452999200,4.805999267578125,4.44992306060791,-10.097246226501465,1.1435305679321288
1763699242462960000,4.815960205078125,3.6578912239074706,-8.367884439849853,1.266682315826416
1763699242472920000,4.825920166015625,1.5191209533691405,-6.761524763488769,1.8983026412963866
1763699242482880000,4.8358798828125,-0.8349778289794921,-5.454889207458495,2.61117618560791
1763699242492840200,4.845840087890625,-1.070657054901123,-4.702511335754394,2.6952725189208984
1763699242502801200,4.85580126953125,0.5258265396118164,-5.001936180877685,2.8384757057189938
1763699242512761000,4.865760986328125,2.2062568298339844,-6.120776544189453,3.545214108276367
1763699242522721300,4.87572119140625,3.2721254814147946,-7.728482958984374,3.5797803947448728
1763699242532682200,4.88568212890625,3.51139600982666,-9.569025485229492,3.4862568923950192
1763699242542642200,4.89564208984375,2.480991470336914,-11.097723245239257,4.082712380981445
1763699242552602400,4.905602294921875,1.4704887321472166,-12.062586514282225,4.374655345916747
1763699242562562300,4.915562255859375,1.2388497215270995,-12.26414836654663,3.5728970649719236
1763699242572523000,4.92552294921875,1.1333552108764648,-11.679214973449707,2.0594623405456542
1763699242582483200,4.935483154296875,0.8179191421508789,-10.790816519927978,0.5798457145690917
1763699242592443100,4.945443115234375,0.4730044654846191,-9.897928938293456,-0.613514175415039
1763699242602404000,4.955404052734375,0.13676876983642577,-9.157222799682616,-1.3090297576904295
1763699242612364300,4.9653642578125,0.14918869094848633,-8.79150849609375,-1.392377902984619
1763699242622324200,4.97532421875,0.2973299186706543,-8.709207814025879,-1.0549451065063475
1763699242632284200,4.9852841796875,0.4852747489929199,-8.886229099273681,-0.4601356315612793
1763699242642245400,4.995245361328125,0.6444891593933105,-9.293841931915283,0.3660135787963867
1763699242652205300,5.005205322265625,0.6705261024475098,-9.894487273406982,1.11075993270874
1763699242662165200,5.015165283203125,0.6616974838256836,-10.428094968414307,1.5005658905029295
1763699242672126200,5.025126220703125,0.6302735870361328,-10.78318500213623,1.542464419555664
1763699242682086100,5.035086181640625,0.5497685562133788,-10.989535257720947,1.3359645263671873
1763699242692046000,5.045046142578125,0.49200844116210934,-11.060313844299316,1.0324994659423827
1763699242702006000,5.055006103515625,0.4562450538635254,-10.965293965911865,0.6693290016174316
1763699242711967200,5.06496728515625,0.3842693664550781,-10.660033254241943,0.23732523956298826
1763699242721927200,5.07492724609375,0.13123217849731444,-10.29865844116211,-0.1657984649658203
1763699242731887000,5.08488720703125,-0.17193360671997068,-9.970802451324463,-0.5240308883666992
1763699242741848300,5.094848388671875,-0.369006330871582,-9.76774422302246,-0.8476970252990722
1763699242751808300,5.104808349609375,-0.46627077331542965,-9.727641345214844,-1.0437222862243651
1763699242761768200,5.114768310546875,-0.5086182151794433,-9.801412683868408,-1.0645219131469725
1763699242771729200,5.124729248046875,-0.5162497329711914,-9.874435834503172,-0.9715969612121581
1763699242781689000,5.134689208984375,-0.4695628005981445,-9.896582199859619,-0.8022071937561035
1763699242791649000,5.14464892578125,-0.45070846252441404,-9.848249253845214,-0.5723638343811035
1763699242801609200,5.154609130859375,-0.43783962860107417,-9.766247846984863,-0.2841618095397949
1763699242811570200,5.164570068359375,-0.40013095245361324,-9.657012396240233,0.01945288848876953
1763699242821530000,5.174530029296875,-0.5071218391418457,-9.508122980499268,0.26605565948486326
1763699242831490300,5.184490234375,-0.6132149002075195,-9.368211820983886,0.4691138877868652
1763699242841451300,5.194451171875,-0.6944681190490722,-9.305064752197264,0.6545148788452148
1763699242851411200,5.2044111328125,-0.6777087074279785,-9.235034353637694,0.7625532287597656
1763699242861371400,5.214371337890625,-0.6443395217895508,-9.150489107513428,0.6967126831054687
1763699242871331300,5.224331298828125,-0.7131728195190429,-9.105448188781738,0.5723638343811035
1763699242881292000,5.2342919921875,-0.7776666267395019,-9.108141665649413,0.4269160835266113
1763699242891252200,5.244252197265625,-0.7549217109680175,-9.18700068283081,0.31049802780151364
1763699242901212200,5.254212158203125,-0.5858312187194824,-9.290250629425048,0.17387889556884764
1763699242911173000,5.264173095703125,-0.4616320075988769,-9.388562535095215,-0.1457470260620117
1763699242921133300,5.27413330078125,-0.4779425064086914,-9.560047229003906,-0.493504817199707
1763699242931093200,5.28409326171875,-0.5376479103088379,-9.779864868927001,-0.8656535377502441
1763699242941053200,5.29405322265625,-0.46896425018310545,-10.025420176696777,-1.2505214546203614
1763699242951014400,5.304014404296875,-0.2537853759765625,-10.261697953033446,-1.54500825881958
1763699242960974300,5.313974365234375,0.026186580657958983,-10.418218886566162,-1.8145055831909178
1763699242970934300,5.323934326171875,0.22685060729980466,-10.500070655822753,-2.01741417388916
1763699242980895200,5.333895263671875,0.26381109542846676,-10.537480056762695,-2.080710880279541
1763699242990855200,5.343855224609375,0.31693244476318355,-10.557830770874023,-2.039410901641846
1763699243000815000,5.353815185546875,0.4095581214904785,-10.545710124969482,-1.971475429534912
1763699243010775000,5.363775146484375,0.4875193130493164,-10.429292069244385,-1.7881693649291992
1763699243020736300,5.373736328125,0.6215946060180664,-10.30374611968994,-1.4903905334472656
1763699243030696200,5.3836962890625,0.7164648468017578,-10.243142890167237,-1.126920793914795
1763699243040656100,5.39365625,0.7739256866455078,-10.13196215057373,-0.895730696105957
1763699243050617300,5.403617431640625,0.7423521522521972,-10.031854593658446,-0.6985083343505859
1763699243060577300,5.413577392578125,0.6443395217895508,-9.820865572357176,-0.5687725318908691
1763699243070537200,5.423537109375,0.5313631309509277,-9.62109937133789,-0.5351040710449219
1763699243080497200,5.4334970703125,0.40177696609497066,-9.492111756896971,-0.5955576629638671
1763699243090458000,5.4434580078125,0.2989759323120117,-9.42253027114868,-0.7951742263793945
1763699243100418000,5.45341796875,0.1637035385131836,-9.409062886810302,-1.083376251220703
1763699243110378200,5.463378173828125,-0.05327098693847656,-9.386916521453857,-1.3519757499694824
1763699243120339200,5.473339111328125,-0.20096330184936523,-9.30760859146118,-1.568052449798584
1763699243130299100,5.483299072265625,-0.297479556274414,-9.185205031585692,-1.6277578536987303
1763699243140259300,5.49325927734375,-0.36810850524902344,-9.050231912994384,-1.5873557006835937
1763699243150219300,5.50321923828125,-0.38830958175659175,-8.93755479736328,-1.4502876556396485
1763699243160180000,5.513179931640625,-0.297479556274414,-9.011625411224365,-1.2137106040954588
1763699243170140200,5.52314013671875,-0.1614589744567871,-9.291447730255127,-0.8518868782043456
1763699243180100000,5.53310009765625,-0.04833294601440429,-9.633818567657471,-0.4462193344116211
1763699243190061000,5.54306103515625,0.06584054565429687,-9.861567000579834,-0.1466448516845703
1763699243200021200,5.553021240234375,0.1470937644958496,-10.025719451904296,-0.01750759963989258
1763699243209981200,5.562981201171875,0.17806874847412107,-10.099191515350341,-0.04908113403320312
1763699243219941000,5.572941162109375,0.24435820693969726,-10.162039308929442,-0.28999767608642574
1763699243229902300,5.58290234375,0.2889502128601074,-10.297461340332031,-0.6624456718444823
1763699243239862300,5.5928623046875,0.2840121719360351,-10.493636238861084,-1.133804123687744
1763699243249822200,5.602822265625,0.229843359375,-10.667814409637451,-1.665017617034912
1763699243259783200,5.612783203125,0.1562216583251953,-10.753257481384276,-2.1643583007812497
1763699243269743000,5.6227431640625,0.06763619689941405,-10.792312895965576,-2.5170541328430174
1763699243279703000,5.632703125,-0.02079962692260742,-10.781688626098632,-2.844311572265625
1763699243289663200,5.642663330078125,0.02079962692260742,-10.838700553131103,-3.0343513290405273
1763699243299624200,5.652624267578125,0.2784755805969238,-11.149497856140137,-3.020285394287109
1763699243309584100,5.662584228515625,0.7128735443115234,-11.656021144866942,-2.876782932281494
1763699243319544300,5.67254443359375,1.2101193016052245,-12.208782453155516,-2.705747151184082
1763699243329505300,5.68250537109375,1.6991349906921385,-12.59664312210083,-2.506429862976074
1763699243339465200,5.69246533203125,2.0459949562072755,-12.701539082336424,-2.2801778060913085
1763699243349425400,5.70242529296875,2.249801372528076,-12.550405102539061,-2.0239982284545897
1763699243359385300,5.71238525390625,2.3678654418945313,-12.364255923461913,-1.7277157730102537
1763699243369346000,5.722345947265625,2.3502082046508788,-12.306795083618164,-1.3708300880432127
1763699243379306200,5.73230615234375,2.403030278778076,-12.452392472076415,-0.9032125762939452
1763699243389266200,5.74226611328125,2.3344962562561036,-12.70453183441162,-0.2958335426330566
1763699243399227100,5.75222705078125,2.2403742034912106,-12.874669789886473,0.3917512466430664
1763699243409187000,5.76218701171875,2.0690391471862792,-12.612355070495605,1.191264963531494
1763699243419147000,5.77214697265625,1.8432360031127928,-12.013655017852782,2.161066273498535
1763699243429107200,5.782107177734375,1.936310592651367,-11.354052460479735,3.1242835289001465
1763699243439068200,5.792068115234375,2.1250036109924317,-10.85964981765747,3.88818349609375
1763699243449028000,5.802028076171875,2.2041619033813475,-10.716596268463134,4.349216953277588
1763699243458988300,5.81198828125,1.9384055191040037,-10.827328095245361,4.794089549255371
1763699243468949000,5.821948974609375,0.9593266777038574,-11.136778659820555,5.327697244262695
1763699243478909000,5.831908935546875,-0.5083189399719238,-11.842469599151611,5.996128420257568
1763699243488869000,5.841869140625,-1.4463970779418944,-12.852373786926268,6.356006857299804
1763699243498829000,5.8518291015625,-1.2853870162963867,-13.980940594482421,5.946299098205566
1763699243508790000,5.8617900390625,-0.8162731285095214,-14.733617741394042,5.089773454284668
1763699243518750200,5.871750244140625,0.1545756446838379,-14.526220022583008,3.8003462226867675
1763699243528710100,5.881710205078125,1.9904794052124022,-13.667599452209473,2.318036119842529
1763699243538670000,5.891670166015625,3.615693419647217,-13.129502629089355,1.402702897644043
1763699243548631300,5.90163134765625,4.288912998962402,-12.948740403747557,1.0624269866943359
1763699243558591200,5.91159130859375,3.848379893493652,-12.756456082916259,0.7223007133483886
1763699243568551200,5.92155126953125,2.458545829772949,-12.299462841033934,0.5138555313110351
1763699243578512100,5.93151220703125,0.9558850128173828,-11.525237879180908,0.44068274307250976
1763699243588472000,5.94147216796875,0.031124621582031248,-10.504410146331786,0.3796306007385254
1763699243598432000,5.951431884765625,-0.37289690856933594,-9.438840769958496,0.594959112548828
1763699243608392000,5.961391845703125,-0.23552958831787107,-8.263138117218016,0.9641150810241699
1763699243618353200,5.971353271484375,0.29224224014282224,-7.306504916381836,1.6798317398071287
1763699243628313000,5.98131298828125,0.8714894042968749,-6.4640452072143555,2.522291448974609
1763699243638273000,5.99127294921875,1.0525509048461914,-5.440523997497558,2.9671640449523924
1763699243648234200,6.001234130859375,1.0755950958251952,-4.378994836425781,3.142838591766357
1763699243658194200,6.011194091796875,1.3199533027648924,-3.4497453170776367,3.0609868225097654
1763699243668154000,6.021154052734375,1.5237597190856933,-2.8467057739257813,2.849249613189697
1763699243678115000,6.031114990234375,1.381005445098877,-2.3924060089111325,2.4459762710571287
1763699243688075000,6.041074951171875,1.1534066497802733,-2.231844860076904,1.893514237976074
1763699243698035000,6.051034912109375,0.8708908538818358,-2.2373814514160153,1.119738188934326
1763699243707995100,6.0609951171875,0.4150947128295898,-2.2330419609069825,0.37918168792724605
1763699243717956000,6.0709560546875,0.02977788314819336,-2.1443068618774412,-0.17507599639892577
1763699243727916000,6.080916015625,-0.07197568740844726,-2.150292366027832,-0.32306758651733397
1763699243737876200,6.090876220703125,0.06703764648437499,-2.2836194709777833,-0.021098902130126954
1763699243747837200,6.100837158203125,0.24645313339233396,-2.436698739624023,0.6428431457519531
1763699243757797000,6.110797119140625,0.8315361640930176,-2.680608033752441,1.3721768264770506
1763699243767757000,6.120757080078125,1.9919757812499999,-3.0844799263000486,1.8992004669189453
1763699243777717000,6.130717041015625,3.1907226249694824,-3.770418701934814,2.447023734283447
1763699243787678000,6.140677978515625,5.214870491027832,-4.8397290184021,2.8706477905273435
1763699243797638100,6.15063818359375,7.877671649932861,-6.215646784973144,2.693476867675781
1763699243807598000,6.16059814453125,10.532691653442383,-8.01249513092041,1.5423147819519043
1763699243817558000,6.17055810546875,11.714080535125731,-10.014646269226073,-0.6705261024475098
1763699243827519200,6.180519287109375,11.457751319885253,-11.805209835815429,-3.1796494422912596
1763699243837479200,6.190479248046875,10.716147355651854,-12.810624895477295,-4.893149642944335
1763699243847439000,6.200439208984375,10.650157172393799,-13.059771505737304,-5.393687427520752
1763699243857400000,6.210400146484375,11.544990042877197,-12.702736183166504,-4.714482344055176
1763699243867360000,6.220360107421875,12.320711380767822,-11.783811658477783,-3.491494208526611
1763699243877320000,6.23031982421875,12.110620185089111,-10.599430024719238,-2.1212626708984375
1763699243887279900,6.24027978515625,11.081412746429443,-9.427767587280274,-0.870142665863037
1763699243897241000,6.250240966796875,10.01704047088623,-8.295908752441406,-0.09906009368896483
1763699243907201000,6.260200927734375,8.926331977081299,-7.454945419311523,0.29269115295410153
1763699243917161000,6.270160888671875,7.368005971527099,-7.466467514801025,0.7508814956665039
1763699243927122200,6.2801220703125,6.307973186492919,-8.60595786743164,1.2253823371887207
1763699243937082000,6.29008203125,5.889436808776855,-10.222642538452147,1.3236942428588867
1763699243947042000,6.3000419921875,5.1605520408630365,-11.29374850616455,1.069310316467285
1763699243957002200,6.310002197265625,4.2521021484374995,-11.536909612274169,0.8379705810546875
1763699243966963000,6.319962890625,4.73737689743042,-11.864915239715575,0.9886556480407714
1763699243976923000,6.3299228515625,7.10539197692871,-13.550433208465575,2.369810730743408
1763699243986883000,6.339883056640625,8.369829728698729,-16.50562624511719,4.840028293609619
1763699243996844000,6.349843994140625,4.104409833526611,-18.310854296875,6.902932299041748
1763699244006804000,6.359803955078125,-3.3385645774841306,-17.427244246673585,8.55463216934204
1763699244016764200,6.36976416015625,-6.147412037658691,-13.963582632446288,9.012822512054443
1763699244026724000,6.37972412109375,-4.324975661468506,-8.374917407226562,8.122927682495117
1763699244036685000,6.38968505859375,-2.934094134521484,-3.6209307357788085,8.426542380523681
1763699244046645200,6.399645263671875,-1.6639701538085936,-0.8267477607727051,9.386317971038817
1763699244056605200,6.409605224609375,-1.6771382629394531,0.20051438903808594,8.601468739318847
1763699244066566000,6.41956591796875,-4.380640850067138,-0.7610568527221679,5.49693737411499
1763699244076526000,6.429526123046875,-5.604975724029541,-4.100519255828857,1.9334674781799315
1763699244086486000,6.439486083984375,-4.968417357635498,-8.37611450805664,-0.5538087715148925
1763699244096446000,6.449446044921875,-4.150947128295898,-12.547262712860107,-2.4111107093811035
1763699244106407200,6.4594072265625,-2.865410474395752,-16.984765852355956,-3.468599655151367
1763699244116367000,6.4693671875,-1.195754091644287,-21.08139453048706,-3.5639188087463376
1763699244126327000,6.4793271484375,0.9307458953857422,-23.48771683654785,-2.4850316856384276
1763699244142513200,6.49551318359375,4.286069884490966,-19.15316436843872,-0.2651578338623047
1763699244152473000,6.50547314453125,3.5016695655822754,-13.95625038986206,-0.4355950645446777
1763699244162433000,6.51543310546875,1.9192519058227537,-10.238504124450683,-0.4873696754455566
1763699244172394000,6.52539404296875,0.3456628646850586,-7.71232209777832,-0.3296516410827637
1763699244182354000,6.53535400390625,-1.0645219131469725,-6.261585529327392,-0.044592005920410155
1763699244192314000,6.545314208984375,-1.6952444129943847,-5.816413658142089,0.36810850524902344
1763699244202274000,6.555274169921875,-1.7539023536682128,-6.080673666381836,0.579696076965332
1763699244212235000,6.565235107421875,-1.4685434432983397,-6.625953094482422,0.6012438919067382
1763699244222195200,6.5751953125,-0.9903016616821289,-7.4108023262023925,0.44981063690185547
1763699244232155100,6.585155029296875,-0.5178957466125488,-8.438812664031982,0.32187048568725585
1763699244242115000,6.595114990234375,-0.09083002548217772,-9.513210659027099,0.14903905334472656
1763699244252076000,6.605075927734375,0.3468599655151367,-10.354173992156982,-0.15113397979736326
1763699244262036000,6.615035888671875,0.5802946273803711,-11.162665965270996,-0.2389712532043457
1763699244271996000,6.624995849609375,0.7498340324401855,-11.62594398651123,-0.3504512680053711
1763699244281957000,6.63495703125,0.7784148147583008,-11.526883892822266,-0.5360018966674804
1763699244291917000,6.6449169921875,0.5452794281005859,-11.00030916519165,-0.5984007774353027
1763699244301877000,6.654876953125,0.2962824554443359,-10.176853431701659,-0.716913759613037
1763699244311837200,6.664837158203125,0.20545242996215818,-9.35968247756958,-0.9288006065368651
1763699244321798100,6.674798095703125,0.33354221878051754,-8.81036283416748,-1.241094285583496
1763699244331758000,6.684758056640625,0.6605003829956054,-8.56121622390747,-1.5750854171752928
1763699244341718300,6.69471826171875,0.9325415466308593,-8.576778534698486,-1.825279490661621
1763699244351679000,6.704678955078125,1.0675146652221679,-8.812158485412597,-2.09402862701416
1763699244361639000,6.714638916015625,1.2210428466796874,-9.133131145477295,-2.47710089263916
1763699244371599000,6.72459912109375,1.3881880500793455,-9.55645592651367,-2.7747300865173337
1763699244381559000,6.73455908203125,1.4305354919433593,-10.043077413940429,-3.021632132720947
1763699244391520000,6.74452001953125,1.2173019065856934,-10.383652600097655,-3.163338943481445
1763699244401480200,6.754480224609375,0.7869441581726073,-10.515483329010008,-3.100191874694824
1763699244411440000,6.764440185546875,0.4103063095092773,-10.440365251922607,-2.932897033691406
1763699244421401300,6.7744013671875,0.2929904281616211,-10.174010317230223,-2.8170775283813474
1763699244431361300,6.784361328125,0.32710780181884763,-9.84510686416626,-2.8700492401123046
1763699244441321200,6.7943212890625,0.35523967132568357,-9.593715689849853,-2.9707553474426267
1763699244451281200,6.80428125,0.2537853759765625,-9.656413845825195,-2.601150466156006
1763699244461242000,6.8142421875,-0.040701428222656245,-9.746346045684813,-2.101660144805908
1763699244471202000,6.8242021484375,-0.7291840431213379,-10.121487518310547,-2.214187622833252
1763699244481162000,6.834161865234375,-1.9707272415161132,-10.973823309326171,-2.4838345848083496
1763699244491122200,6.8441220703125,-2.9468133308410644,-11.845462351226805,-2.9728502738952636
1763699244501083100,6.854083251953125,-2.976591213989258,-12.767678903198242,-3.3146225608825683
1763699244511043000,6.86404296875,-2.387168692779541,-13.412018424987792,-2.9768904891967773
1763699244521003300,6.874003173828125,-1.130661734008789,-13.481300635528564,-2.256834339904785
1763699244530964200,6.883964111328125,0.17133505630493162,-12.963255251312255,-1.4140753555297851
1763699244540924200,6.893924072265625,0.732924983215332,-12.184241886138915,-0.4885667762756347
1763699244550884400,6.90388427734375,0.9184756118774413,-11.449970164489745,0.5301660301208496
1763699244560844300,6.91384423828125,1.1845312713623046,-10.828674833679198,1.2556091331481933
1763699244570805000,6.923804931640625,1.6506524070739745,-10.376918907928466,1.5900491775512695
1763699244580765200,6.93376513671875,2.1015105072021485,-9.997587582397461,1.87061968460083
1763699244590725000,6.94372509765625,2.614767488098144,-9.546879119873047,2.4352023635864257
1763699244600686000,6.95368603515625,3.4235587364196776,-9.01386997528076,3.359962754821777
1763699244610646300,6.963646240234375,4.478354205322265,-8.438513388824463,4.496909268188476
1763699244620606200,6.973606201171875,5.615300718688965,-7.837568772125244,5.61829347076416
1763699244630566100,6.983566162109375,6.567295153808593,-7.350348734283447,6.310367388153076
1763699244640527400,6.99352734375,6.6337342498779295,-7.012467024993896,6.135740304565429
1763699244650487300,7.0034873046875,6.10296966934204,-6.765864253997802,5.314678772735595
1763699244660447200,7.013447265625,5.4044613349914545,-6.935852571868896,3.8648400299072265
1763699244670408200,7.023408203125,4.862025021362304,-7.840112611389159,2.0292355445861814
1763699244680368000,7.0333681640625,4.281730393981934,-9.209147048187255,0.4572925170898437
1763699244690328000,7.043328125,3.477428273773193,-10.405350052642822,-0.6883329772949218
1763699244700288000,7.0532880859375,3.1489737335205077,-10.980557001495361,-1.4990695144653319
1763699244710249200,7.063249267578125,3.7865795631408687,-10.715698442840576,-1.6932991241455078
1763699244720209200,7.073209228515625,4.476558554077148,-9.539696514892578,-1.2336124053955078
1763699244730169000,7.083169189453125,5.16474189376831,-8.10781428451538,-0.8620622352600097
1763699244740129300,7.09312939453125,5.755660791015624,-6.683264296722411,-0.7463923675537109
1763699244750090200,7.10309033203125,5.908590422058105,-5.3676504844665525,-0.9623194297790527
1763699244760050200,7.11305029296875,5.284601614379882,-4.148552926635742,-1.3479355346679687
1763699244770010000,7.123010009765625,3.9930794563293457,-3.1352070739746094,-1.7217302688598632
1763699244779971000,7.13297119140625,3.0259716232299803,-2.8574796813964842,-1.6722002220153807
1763699244789931000,7.142930908203125,2.948309706878662,-3.7497687126159667,-0.7255927406311035
1763699244799891200,7.15289111328125,3.0952538337707516,-5.253028079986572,0.7097311546325683
1763699244809851100,7.16285107421875,2.6951228813171384,-6.494272003173828,1.9469348625183105
1763699244819812000,7.17281201171875,1.7337012771606444,-7.332092946624756,2.461239306640625
1763699244829772300,7.182772216796875,0.9656114570617675,-7.720851441192626,2.3419781364440917
1763699244839732200,7.192732177734375,0.5337573326110839,-7.764994534301757,1.9262848731994628
1763699244849693200,7.202693115234375,0.6194996795654296,-7.934384301757812,1.548150648498535
1763699244859653000,7.212653076171875,1.1950059036254883,-8.211662781524657,1.3814543579101561
1763699244869613000,7.222613037109375,1.8553566490173339,-8.528744863891601,1.4827590156555175
1763699244879573000,7.232572998046875,2.4500164863586424,-8.91316386795044,1.8921674995422362
1763699244889534200,7.2425341796875,2.8764836570739742,-9.397241516113281,2.543539988708496
1763699244899494100,7.252494140625,3.101987525939941,-9.970503176116942,3.323151904296875
1763699244909454000,7.2624541015625,3.1604958290100096,-10.493935514068603,4.185663052368164
1763699244919414000,7.2724140625,2.8675054008483887,-10.712256777954101,4.786158756256103
1763699244929375200,7.282375244140625,2.325817275238037,-10.519523544311523,4.959139826202392
1763699244939335200,7.292335205078125,1.8507178833007811,-10.232668257904052,4.875342768096924
1763699244949295000,7.302295166015625,1.3111246841430664,-9.872640183258056,4.473715439605713
1763699244959256000,7.312256103515625,0.7728782234191894,-9.479841473388671,3.7301661865234372
1763699244969216000,7.322216064453125,0.37020343170166015,-9.312845907592774,2.9131448699951172
1763699244979176000,7.332176025390625,0.39115269622802734,-9.482534950256348,2.1933879959106446
1763699244989136100,7.34213623046875,0.6009446166992187,-9.660304423522948,1.3760674041748047
1763699244999097000,7.35209716796875,0.6042366439819336,-9.839270997619629,0.678007982635498
1763699245009057000,7.36205712890625,0.7130231819152831,-10.088716883087157,0.33264439315795896
1763699245019017200,7.372017333984375,1.0268132369995118,-10.466701470184326,0.4605845443725586
1763699245028978200,7.381978271484375,1.30873048248291,-10.92968021621704,1.070657054901123
1763699245038938000,7.391938232421875,1.175852290344238,-11.346271305084228,1.9801544105529785
1763699245048898300,7.401898193359375,0.7333738960266113,-11.394454613494872,2.8007670295715332
1763699245058858200,7.411858154296875,0.48946460189819335,-11.062259133148192,3.3916859268188473
1763699245068819000,7.42181884765625,0.634014527130127,-10.624419504547118,3.8085762908935545
1763699245078779100,7.431779052734375,0.9145850341796874,-10.293570762634277,4.15648371963501
1763699245088739000,7.441739013671875,1.020229182434082,-10.029310754394531,4.311807552337646
1763699245098699000,7.451698974609375,0.5594950004577637,-9.616759880828857,3.921103768920898
1763699245108660200,7.46166015625,-0.0896329246520996,-9.04753843612671,3.035099517059326
1763699245118620200,7.4716201171875,-0.34117373657226563,-8.591592657470702,2.0307319206237793
1763699245128580000,7.481580078125,-0.1862988166809082,-8.213009519958495,1.2409446479797364
1763699245138541300,7.491541259765625,0.07541735229492187,-7.800458646392822,0.6603507453918457
1763699245148501200,7.501501220703125,0.45983635635375975,-7.446715351104736,0.2032078659057617
1763699245158461200,7.511461181640625,0.8233060958862304,-7.304110714721679,-0.14903905334472656
1763699245168421400,7.52142138671875,1.4004583335876464,-7.743895632171631,-0.44532150878906246
1763699245178382000,7.531382080078125,1.9604022468566893,-8.83654941482544,-0.859967308807373
1763699245188342000,7.541342041015625,1.6925509361267088,-10.288034171295166,-1.3724761016845701
1763699245198302200,7.55130224609375,1.1701660614013671,-11.75942072906494,-1.9659388381958007
1763699245208263200,7.56126318359375,1.4547767837524412,-12.863147694396972,-2.3397335723876953
1763699245218223000,7.57122314453125,2.223614791870117,-13.645303449249267,-2.00469497756958
1763699245228183300,7.581183349609375,2.516605220031738,-13.856891020965575,-1.2235866859436035
1763699245238143200,7.591143310546875,2.5589526618957517,-12.771120568084717,-1.0491092399597168
1763699245248104200,7.601104248046875,2.663549346923828,-11.042058056640624,-1.5881038887023924
1763699245258064400,7.611064453125,2.4046762924194334,-9.90795465774536,-2.0223522148132322
1763699245268024300,7.6210244140625,1.7375918548583984,-9.508422255706787,-2.136226431274414
1763699245277984300,7.630984375,1.2113164024353027,-9.88236662750244,-2.01741417388916
1763699245287945200,7.6409453125,0.9840168823242187,-10.703128884124755,-1.8330606460571288
1763699245297905200,7.6509052734375,1.257105509185791,-11.70869358139038,-1.5692495506286621
1763699245307865000,7.660864990234375,1.8474258560180663,-12.830227421569823,-1.0675146652221679
1763699245317826300,7.670826416015625,2.2111948707580567,-13.844620737457275,-0.405368268585205
1763699245327786200,7.6807861328125,2.133832229614258,-14.201207147216795,0.1740285331726074
1763699245337746200,7.69074609375,1.5358803649902344,-13.70126791305542,0.41629181365966794
1763699245347706000,7.7007060546875,0.5886743331909179,-12.394333081817626,0.20260931549072264
1763699245357667300,7.710667236328125,-0.40776247024536133,-11.119570335388183,-0.16654665298461913
1763699245367627300,7.720627197265625,-1.1902175003051758,-10.242245064544678,-0.3758896606445312
1763699245377587200,7.730587158203125,-1.2484265281677245,-9.703100778198241,-0.43454760131835934
1763699245387548200,7.740548095703125,-0.7547720733642578,-9.534758473968505,-0.17971476211547852
1763699245397508400,7.75050830078125,-0.4471171600341797,-9.459939672088623,0.26964696197509763
1763699245407468300,7.76046826171875,-0.148739778137207,-9.408613973999023,0.6630442222595214
1763699245417428500,7.770428466796875,0.004638765716552734,-9.421931720733642,1.1136030471801757
1763699245427389400,7.780389404296875,-0.07646481552124022,-9.343521616363525,1.6180314094543455
1763699245437349400,7.790349365234375,-0.2415150924682617,-9.04005655593872,2.029085906982422
1763699245447309600,7.8003095703125,-0.3381809844970703,-8.693645503234864,2.0757728393554684
1763699245457269500,7.81026953125,-0.4595370811462402,-8.422801440429687,1.8677765701293945
1763699245467230200,7.820230224609375,-0.5966051261901855,-8.260295002746581,1.484405029296875
1763699245477190400,7.8301904296875,-0.6536170532226562,-8.197746484375,0.9660603698730468
1763699245487150300,7.840150390625,-0.6495768379211425,-8.211213868713378,0.35793314819335936
1763699245497111300,7.850111328125,-0.5945101997375488,-8.247276531219482,-0.2931400657653808
1763699245507071500,7.860071533203125,-0.5741594856262207,-8.264185580444336,-0.8661024505615234
1763699245517031400,7.870031494140625,-0.5143044441223145,-8.349479014587402,-1.2642881141662596
1763699245526991400,7.879991455078125,-0.4373907157897949,-8.438214113616944,-1.5019126289367675
1763699245536952600,7.88995263671875,-0.3983353012084961,-8.535029643249512,-1.563563321685791
1763699245546912500,7.89991259765625,-0.32486323776245113,-8.696638255310058,-1.552639776611328
1763699245556872400,7.90987255859375,-0.2488473350524902,-8.922740674591063,-1.4815619148254393
1763699245566832400,7.919832275390625,-0.2367266891479492,-9.300425986480713,-1.3079822944641113
1763699245576793300,7.92979345703125,-0.20679916839599607,-9.789591313171385,-1.049558152770996
1763699245586753300,7.939753173828125,-0.2793734062194824,-10.212467181396484,-0.7977180656433105
1763699245596713200,7.949713134765625,-0.44068274307250976,-10.454131911468505,-0.6226420692443847
1763699245606674400,7.95967431640625,-0.6500257507324219,-10.480767404937744,-0.5008370597839356
1763699245616634400,7.96963427734375,-0.8340800033569336,-10.459967778015136,-0.3651157531738281
1763699245626594300,7.97959423828125,-0.8964788841247558,-10.46415763092041,-0.2109890213012695
1763699245636554500,7.989554443359375,-0.8894459167480468,-10.479719941711425,-0.10579378585815429
1763699245646515500,7.999515380859375,-0.7960720520019531,-10.404302589416503,-0.13602058181762694
1763699245656475400,8.009475341796875,-0.6591536445617675,-10.261548315429687,-0.3128922294616699
1763699245666435600,8.019435546875,-0.5485714553833008,-10.230573331451415,-0.522833787536621
1763699245676396300,8.029396240234375,-0.6168062026977539,-10.348188488006592,-0.6358101783752441
1763699245686356200,8.039356201171875,-0.7181108604431152,-10.488548560333252,-0.6603507453918457
1763699245696316400,8.04931640625,-0.7279869422912597,-10.441861627960204,-0.6868366012573242
1763699245706276400,8.0592763671875,-0.5584475372314452,-10.341305158233641,-0.7917325614929199
1763699245716237300,8.0692373046875,-0.4004302276611328,-10.175057780456543,-0.8952817832946777
1763699245726197500,8.079197509765624,-0.2953846298217773,-10.034548070526123,-0.8976759849548339
1763699245736157400,8.089157470703125,-0.15427636947631834,-10.051756394958495,-0.7366659233093261
1763699245746117400,8.099117431640625,0.15682020874023436,-10.473734437561035,-0.5750573112487792
1763699245756078600,8.10907861328125,0.5518634826660156,-11.543493666839598,-0.6389525680541992
1763699245766038500,8.11903857421875,0.6718728408813476,-12.478728690338134,-1.135150862121582
1763699245775998500,8.12899853515625,0.28311434631347654,-12.6160960105896,-1.6823755790710448
1763699245785959400,8.13895947265625,-0.07915829238891602,-12.503718170166016,-1.6880618080139158
1763699245795919400,8.14891943359375,-0.03007715835571289,-12.449848632812499,-1.028608888244629
1763699245805879300,8.15887939453125,0.18121113815307616,-12.533047140502928,0.1527799934387207
1763699245815839500,8.168839599609376,0.5859808563232421,-12.843694805908202,1.754351266479492
1763699245825800400,8.178800537109375,1.2771569480895995,-13.368473882293701,3.3150714736938474
1763699245835760400,8.188760498046875,2.1779753227233885,-14.017751445007324,4.339191233825684
1763699245845720600,8.198720458984376,3.14747735748291,-14.675857626342772,4.764162028503418
1763699245855681500,8.208681640625,3.919158480072021,-15.362843865203857,4.936993460845947
1763699245865641500,8.218641357421875,4.349216953277588,-15.785869371032714,5.020790518951416
1763699245875601400,8.228601318359376,4.844218146514892,-15.579369477844237,4.886415950775146
1763699245885561300,8.238561279296874,5.626972451782226,-14.815918423461913,4.60958638381958
1763699245895522300,8.248522216796875,6.029946518707275,-14.056507584381103,4.299986181640625
1763699245905482500,8.258482421875,5.221753820800781,-13.455413330078125,4.202123188781738
1763699245915442400,8.2684423828125,2.740762350463867,-12.86449443283081,4.045003704833984
1763699245925402400,8.27840234375,-1.6807295654296874,-12.105682144165039,3.5308488983154294
1763699245935363600,8.288363525390626,-6.209212368011475,-11.097872882843017,2.4233809928894043
1763699245945323500,8.298323486328124,-7.160009702301025,-10.250475132751465,1.0547954689025878
1763699245955283500,8.308283447265625,-4.5964182746887206,-9.718363813781737,-0.17372925796508787
1763699245965244400,8.318244384765626,0.8822633117675781,-9.84465795135498,-1.3670891479492187
1763699245975204400,8.328204345703124,5.415235242462158,-10.544662661743164,-1.6784850013732908
1763699245985164300,8.338164306640625,6.308422099304199,-11.099219621276855,-0.572663109588623
1763699245995124200,8.348124267578125,4.441393717193603,-10.787823767852782,0.35658640975952144
1763699246005085400,8.35808544921875,1.6991349906921385,-9.750535898590087,0.8749310691833495
1763699246015045400,8.36804541015625,-0.32830490264892576,-8.608052793884276,1.3141174362182617
1763699246025005300,8.37800537109375,-1.8177976104736326,-7.166144844055175,1.760187133026123
1763699246034965500,8.387965576171876,-2.354547695159912,-5.608567026519775,2.275987953186035
1763699246044926500,8.397926513671875,-1.690007096862793,-3.9432501342773434,2.5158570320129394
1763699246054886400,8.407886474609375,-0.86191259765625,-2.29843359375,2.4115596221923825
1763699246064846600,8.4178466796875,-0.3321954803466797,-0.9195230751037597,2.081907981109619
1763699246074807300,8.427807373046875,-0.17791911087036133,0.1548749198913574,1.682225941467285
1763699246084767200,8.437767333984375,0.05102642288208008,0.8951321456909179,1.1167454368591307
1763699246094727400,8.4477275390625,0.5765536872863769,1.0281599754333495,0.5541080467224121
1763699246104687400,8.457687255859375,1.300500414276123,0.43499651412963863,0.08005611801147461
1763699246114648300,8.4676484375,1.9446902984619139,-0.5493196434020996,-0.1304839904785156
1763699246124608500,8.4776083984375,2.8860604637145992,-1.8658312812805176,-0.006284779357910156
1763699246134568400,8.487568359375,4.125359098052979,-3.516483688354492,0.6694786392211913
1763699246144529400,8.497529296875,5.533149674224854,-5.397727642822265,1.9897312171936035
1763699246154489600,8.507489501953126,7.199065116882323,-7.4597338226318355,3.7798458709716796
1763699246164449500,8.517449462890625,9.544933831024169,-9.622146834564209,5.339518614959717
1763699246174409500,8.527409423828125,12.199056008911132,-11.61950956954956,5.589862326049804
1763699246184370400,8.537370361328126,13.820977996063231,-12.642881141662597,3.807528827667236
1763699246194330400,8.547330322265625,13.473669117736815,-11.687445041656494,0.2609679809570312
1763699246204290300,8.557290283203125,11.845312713623047,-9.986364762115478,-2.729838805389404
1763699246214250200,8.567250244140626,9.643096099090576,-8.678981018066406,-3.573196340179443
1763699246224211500,8.57721142578125,8.067861044311522,-7.76948366241455,-2.9028198753356933
1763699246234171400,8.58717138671875,7.7407532424926755,-6.879439195251464,-1.8363526733398436
1763699246244131300,8.59713134765625,7.682693852233887,-6.20562106552124,-0.3238157745361328
1763699246254092500,8.607092529296875,7.346757431793212,-5.547514884185791,1.57044665145874
1763699246264052500,8.617052490234375,6.887968538665771,-4.795436287689209,3.1555577880859373
1763699246274012400,8.627012451171876,6.3880293045043945,-4.002207350158691,4.045153342437744
1763699246283972600,8.63697265625,6.448482896423339,-3.3385645774841306,4.092738100433349
1763699246293933300,8.646933349609375,7.888445557403564,-2.85388837890625,3.8016929611206054
1763699246303893200,8.656893310546875,8.961197538757323,-3.4006641830444333,3.4618659629821775
1763699246313853400,8.666853515625,6.494421640777587,-5.035604641723633,3.207482036590576
1763699246323814400,8.676814453125,2.7240029388427733,-6.802375829315185,2.756175023651123
1763699246333774300,8.6867744140625,-0.9442132797241211,-8.849118973541259,3.146878807067871
1763699246343734500,8.696734619140624,-3.863642929077148,-10.653149924468993,4.293252489471436
1763699246353694500,8.706694580078125,-2.5568577354431152,-11.586140383911133,5.3214124649047845
1763699246363655400,8.716655517578126,0.15322890625,-10.690858600616455,6.500407144927978
1763699246373615600,8.72661572265625,2.8100445610046383,-8.934711682891844,7.6614453125
1763699246383575600,8.736575439453125,3.5233670181274412,-6.90098701019287,8.77774183654785
1763699246393536300,8.746536376953125,1.0914566818237303,-4.111143525695801,8.608950619506835
1763699246403496200,8.75649609375,-2.9952959144592284,-1.8549077362060546,6.421997040557861
1763699246413456100,8.7664560546875,-6.209511643218994,-1.9943699829101562,3.957016793823242
1763699246423416000,8.776416015625,-6.4080807434082026,-4.181323561859131,2.5453356399536133
1763699246433377300,8.786377197265624,-4.3728596946716305,-7.333888597869873,2.0355203239440915
1763699246443337200,8.796337158203125,-1.7259201217651365,-10.998214238739013,1.7655740867614744
1763699246453297200,8.806297119140625,0.6109703361511231,-14.718653981018065,1.3675380607604979
1763699246463257000,8.816257080078126,2.1161749923706052,-17.981501930999755,1.118541088104248
1763699246473218300,8.82621826171875,3.3258453811645508,-20.71014363555908,0.6229413444519043
1763699246483178200,8.83617822265625,3.846584242248535,-21.601385203552244,-0.7240963645935058
1763699246494383000,8.847383056640625,3.5124434730529783,-20.04171245956421,-3.219752320098877
1763699246504344300,8.85734423828125,3.1592987281799316,-17.948880933380124,-4.848707274627685
1763699246514304300,8.86730419921875,2.868403226470947,-16.284162591552732,-5.151274509429931
1763699246524264200,8.87726416015625,1.8427870903015136,-14.903157146453857,-4.759972175598144
1763699246534224400,8.887224365234376,0.9006687370300293,-14.239364736175537,-3.9872435897827145
1763699246544185000,8.89718505859375,0.4499602745056152,-14.58143629837036,-2.811391299438476
1763699246554145000,8.90714501953125,1.2687772422790526,-15.661520522308349,-1.6098013412475585
1763699246564105200,8.917105224609376,3.7407904563903807,-17.399112377166748,-0.8671499137878418
1763699246574065200,8.927065185546875,5.8349687210083,-18.843713803863523,-1.0643722755432128
1763699246584026000,8.937026123046875,6.288969210815429,-19.12129155883789,-2.348113278198242
1763699246593986300,8.946986328125,6.6401686668396,-18.48218935317993,-3.9285856491088866
1763699246603946200,8.9569462890625,7.231386839294434,-17.35152761917114,-5.098452435302734
1763699246613907200,8.9669072265625,7.934234664154053,-15.687407827758788,-5.333383473205566
1763699246623867400,8.976867431640626,8.349927927398682,-13.26028589477539,-4.7022120605468745
1763699246633827300,8.986827392578125,7.6665329910278315,-10.433033009338379,-3.5791818443298338
1763699246643787300,8.996787353515625,6.252906548309326,-7.652317418670654,-2.391508183288574
1763699246653748200,9.006748291015626,5.193322676086425,-5.141248789978027,-1.32788409576416
1763699246663708200,9.016708251953125,4.764311666107178,-3.1681273468017577,-0.3616740882873535
1763699246673668000,9.026668212890625,4.67991605758667,-2.035221048736572,0.7820061172485351
1763699246683629300,9.03662939453125,4.899883335113525,-2.029085906982422,1.5318401496887206
1763699246693589200,9.04658935546875,5.130923795318603,-2.3587375480651853,1.4446014266967773
1763699246703549200,9.056549072265625,4.866514149475098,-2.3032219970703123,0.8081926979064941
1763699246713509000,9.066509033203126,4.435557850646973,-1.912667851257324,0.12779051361083985
1763699246723470300,9.07647021484375,4.235342736816406,-1.4507365684509277,-0.469263525390625
1763699246733430300,9.08643017578125,4.629488185119628,-1.1131541343688964,-1.6123451805114746
1763699246743390200,9.09639013671875,4.215440935516357,-1.5174749397277831,-2.3075614875793455
1763699246753350100,9.10635009765625,2.1555296821594236,-1.8818425048828125,-1.7963994331359863
1763699246763311000,9.11631103515625,0.046537294769287106,-1.8816928672790527,-1.5198691413879393
1763699246773271000,9.12627099609375,-0.2654571090698242,-2.443282794189453,-1.8873790962219237
1763699246783231200,9.136231201171874,2.2252608055114744,-4.466682472229004,-2.1561282325744626
1763699246793192200,9.146192138671875,5.75221912612915,-7.893682873535155,-2.558204473876953
1763699246803152100,9.156152099609375,7.5619363059997555,-11.8614735748291,-3.4415152488708496
1763699246813112300,9.1661123046875,6.7922004722595215,-15.598972003936767,-4.289960462188721
1763699246823072300,9.176072265625,4.688146125793457,-19.12817488861084,-3.21152225189209
1763699246833033000,9.186032958984375,2.8235119453430175,-23.02728192977905,-1.276259122467041
1763699246842993200,9.1959931640625,1.0453682998657226,-27.20306890029907,0.639700756072998
1763699246852953000,9.205953125,-0.09786299285888671,-30.79242610168457,1.9825486122131346
1763699246862913000,9.2159130859375,0.7924807495117187,-32.06853558654785,2.030881558227539
1763699246872874200,9.225874267578124,4.689193589019775,-29.764864676666257,0.8174702293395996
1763699246882834200,9.235834228515625,9.09751739578247,-24.660127462005615,0.607827946472168
1763699246892794000,9.245794189453125,10.690110412597656,-20.80665988998413,0.31319150466918944
1763699246902755300,9.25575537109375,10.27232222290039,-18.67432403640747,-0.7193079612731933
1763699246912715300,9.26571533203125,8.938901535797118,-17.23196717376709,-1.2597989860534666
1763699246922675200,9.27567529296875,6.793247935485839,-15.878046134948729,-1.3224971420288085
1763699246932635100,9.28563525390625,4.539855260467529,-14.503924019622803,-0.8578723823547363
1763699246942596000,9.29559619140625,2.917035447692871,-12.936919033050536,-0.5155015449523925
1763699246952556000,9.30555615234375,1.7126023750305175,-10.900051970672607,-0.5813420906066894
1763699246962516000,9.315515869140626,0.3429693878173828,-8.621220903015136,-0.5633855781555176
1763699246972477200,9.325477294921875,-1.077540384674072,-6.535871257019043,0.009427169036865234
1763699246982437000,9.33543701171875,-1.8447323791503905,-4.433014011383056,0.8631096984863281
1763699246992397000,9.34539697265625,-1.974019268798828,-2.171391268157959,1.821538550567627
1763699247002357200,9.355357177734374,-1.8308160820007322,0.16864157943725586,3.22394217300415
1763699247012318200,9.365318115234375,-1.753154165649414,2.6785131072998047,4.724208788299561
1763699247022278100,9.375278076171876,-1.8442834663391112,5.316923336791992,5.86055675125122
1763699247032238300,9.38523828125,-1.369333712005615,7.418134568786621,6.272808349609375
1763699247042198300,9.3951982421875,-1.1846809089660644,8.47173293685913,5.739799205017089
1763699247052159000,9.405158935546876,-1.8825906929016112,8.378957622528075,4.450072698211669
1763699247062119200,9.415119140625,-2.410063246154785,7.517793212890624,3.053056029510498
1763699247072079000,9.4250791015625,-1.4627075767517088,6.069750121307373,2.198326036834717
1763699247082040000,9.4350400390625,0.6462848106384277,3.6349966705322263,1.6846201431274412
1763699247092000300,9.445000244140624,3.0659248634338376,0.41314942398071286,1.5014637161254882
1763699247101960200,9.454960205078125,6.643011781311035,-3.3577181907653806,1.3449427825927733
1763699247111920000,9.464920166015625,10.760290448760985,-7.845050652313232,1.0712556053161622
1763699247121881300,9.47488134765625,12.786682878875732,-12.166135736083984,0.6302735870361328
1763699247131841300,9.48484130859375,11.364227817535399,-15.138836372375488,0.07362170104980469
1763699247141801200,9.49480126953125,6.133645378112792,-15.178789612579346,-1.0794856735229492
1763699247151762200,9.50476220703125,-1.259050798034668,-12.642132953643799,-1.8077718910217284
1763699247161722000,9.51472216796875,-10.628160444641113,-10.998663151550293,-0.7369651985168456
1763699247171682000,9.52468212890625,-11.829151852416992,-13.73299108505249,2.546832015991211
1763699247181642000,9.53464208984375,-5.0203416061401365,-21.374534596252442,9.642347911071777
1763699247191603200,9.544603271484375,-2.4015339027404785,-23.402573040008544,13.267618137359618
1763699247201563100,9.554563232421875,-5.032312614440918,-13.83504393081665,7.756614828491211
1763699247211523000,9.564523193359374,0.7743745994567871,-5.594950004577637,2.9186814613342285
1763699247221483300,9.574483154296875,-1.6766893501281737,-0.8364742050170898,2.2589292663574216
1763699247231444200,9.5844443359375,-5.667075329589843,1.919102268218994,1.5505448501586914
1763699247241404200,9.594404052734374,-4.308066612243652,2.2281039199829102,-0.06329670639038086
1763699247251364400,9.6043642578125,-0.0282815071105957,-2.14490541229248,0.26007015533447264
1763699247261325000,9.614324951171875,3.7503672630310056,-9.485527702331542,0.9757868141174316
1763699247271285000,9.624284912109376,5.940612869262695,-17.938256663513183,0.7633014167785644
1763699247281245200,9.6342451171875,4.7469537040710446,-25.91588623275757,-1.047762501525879
1763699247291205000,9.644205078125,1.15565121383667,-30.84913875350952,-3.4727895080566404
1763699247301166000,9.654166015625,-2.0801123298645017,-30.182353591156005,-6.2210337387084955
1763699247311126300,9.664126220703125,-3.7535096527099605,-28.995428118133542,-8.45991156616211
1763699247321086200,9.674086181640625,-3.4913445709228514,-26.665121714782714,-8.548048114776611
1763699247331047200,9.684047119140626,-0.582239916229248,-22.807763565063475,-6.529287202453613
1763699247341007400,9.69400732421875,4.608838195800781,-19.755754998779295,-4.294599227905273
1763699247350967300,9.70396728515625,10.340257695007324,-16.968156078338623,-2.155828957366943
1763699247360927200,9.71392724609375,14.438981299591063,-14.973486820220947,0.27563246612548825
1763699247370888200,9.72388818359375,15.227122558593749,-13.233051850891112,2.3235727111816407
1763699247380848000,9.73384814453125,12.603227176666259,-11.742362042236328,3.9600095458984375
1763699247390808000,9.74380810546875,9.406219772338867,-10.645668044281006,4.7679029685974115
1763699247400768300,9.753768310546874,6.2201359130859375,-9.060556907653808,4.54524221420288
1763699247410729200,9.763729248046875,4.172943856048584,-7.082946336364746,2.6197055290222164
1763699247420689200,9.773689208984376,2.8420670082092285,-5.1994578178405755,-0.28805238723754883
1763699247430649300,9.7836494140625,1.375917766571045,-3.601477847290039,-3.1794998046874996
1763699247440610000,9.793610107421875,0.7812579292297362,-2.507327688598633,-5.423465310668945
1763699247450570000,9.803570068359376,1.3513771995544432,-1.6416741508483885,-6.9056257759094235
1763699247460530200,9.8135302734375,2.9330466712951657,-0.48228199691772455,-8.196100470733642
1763699247470490000,9.823489990234375,4.33470210571289,0.3688566932678222,-9.235483266448973
1763699247480451000,9.833451171875,4.856488430023193,0.39160160903930663,-9.487173715972899
1763699247490411000,9.843410888671874,4.684405185699463,0.26710312271118164,-8.430133683013915
1763699247500371200,9.85337109375,4.467729935455322,-0.1322796417236328,-5.807285764312744
1763699247510332200,9.863332275390626,5.106083953094482,-1.009305637359619,-2.066644945526123
1763699247520292000,9.8732919921875,4.731989943695068,-0.6732195793151855,-0.3459621398925781
1763699247530252300,9.883252197265625,2.210745957946777,-0.4599859939575195,-0.6037877311706542
1763699247540212200,9.893212158203125,-1.0785878479003905,-1.7169418655395507,-1.153705924987793
1763699247550173000,9.9031728515625,-2.1966800231933594,-4.694430905151367,-1.3798083442687987
1763699247560133000,9.913133056640625,0.3898059577941894,-9.071181177520751,-1.327285545349121
1763699247570093000,9.923093017578125,4.5313259170532225,-14.689624285888671,-1.5904980903625487
1763699247580053000,9.933052978515626,5.5415293800354,-21.093066263580322,-1.9237410339355467
1763699247590014200,9.94301416015625,2.6325743629455567,-26.96738967437744,0.8949825080871582
1763699247599974100,9.95297412109375,-0.23133973541259764,-31.617527848815914,5.799654246520996
1763699247609934000,9.96293408203125,-0.9917980377197265,-34.143260962677,8.164526936340332
1763699247619895300,9.972895263671875,-1.0007762939453124,-34.77248708648681,9.757269590759277
1763699247629855200,9.982855224609375,1.0830769760131835,-32.35688724899292,8.95715732345581
1763699247639815200,9.992815185546876,6.185868901824951,-25.820866354370114,4.3339539176940916
1763699247649775400,10.002775390625,9.06534531097412,-22.105215015411375,0.09053075027465819
1763699247659736000,10.012736083984375,7.900865478515625,-20.209605850982665,-3.072209642791748
1763699247669696000,10.022696044921876,5.9023056427001945,-18.13832213973999,-5.749226374053955
1763699247679656200,10.03265625,5.211428826141357,-16.01750838165283,-7.487267141723632
1763699247689616100,10.0426162109375,4.6432548446655275,-13.845069650268554,-6.912359468078613
1763699247699577000,10.0525771484375,4.106654397583007,-11.555763950347899,-5.722141967773437
1763699247709537300,10.062537353515625,3.1926679138183593,-8.965836304473877,-4.556465034484863
1763699247719497200,10.072497314453125,1.5893009895324706,-6.32084202041626,-2.8411691825866696
1763699247729458200,10.082458251953126,0.27578210372924805,-3.7395933555603027,-0.9714473236083984
1763699247739418400,10.09241845703125,-0.8059481338500976,-1.2994529510498045,0.7466916427612305
1763699247749378300,10.10237841796875,-1.8819921424865722,1.3787608810424803,2.280477081298828
1763699247759338200,10.112338134765626,-1.8656816436767576,4.1572319076538085,2.8733412673950194
1763699247769299200,10.12229931640625,-1.2409446479797364,6.750002667999267,3.0482676261901855
1763699247779259100,10.132259033203125,-0.23642741394042968,8.31281780166626,2.5622446891784665
1763699247789219000,10.142218994140626,-0.6699275520324707,9.016862727355957,1.5483002861022948
1763699247799180300,10.15218017578125,-1.4226046989440917,9.609278000640868,-0.013467384338378905
1763699247809140200,10.16214013671875,-1.9303250885009764,9.535656299591064,-1.336263801574707
1763699247819100200,10.17210009765625,-1.3024457031249999,8.269871809387206,-1.3371616271972655
1763699247829060000,10.18206005859375,0.732326432800293,5.40146858291626,-0.11896189498901366
1763699247839021300,10.192021240234375,2.9842227317810055,1.7624316970825193,0.6245873580932617
1763699247848981200,10.201981201171876,5.365405920410156,-2.2104466827392577,0.9189245246887207
1763699247858941200,10.211941162109374,7.333888597869873,-6.309619200134277,0.840215145111084
1763699247868901400,10.2219013671875,13.099425470733642,-11.544541130065918,-0.1292868896484375
1763699247878862000,10.231862060546876,16.775123569488525,-16.36960566329956,-2.1335329544067383
1763699247888822000,10.241822021484374,8.374618132019043,-18.472612546539306,-3.8328175827026363
1763699247898782200,10.2517822265625,-4.76266565246582,-21.480478019714354,-5.389198299407958
1763699247908743200,10.2617431640625,-11.189600733947753,-25.457246977233886,0.7733271362304687
1763699247918703000,10.271703125,-8.56735136566162,-24.830415055084227,9.303119463348388
1763699247928663300,10.281663330078125,1.4050970993041991,-17.527501441192626,10.573393081665039
1763699247938623200,10.291623291015625,12.421567125701904,-9.906757556915283,11.792939552307129
1763699247948584200,10.301584228515624,-1.2048819854736328,-2.336142269897461,12.161646607971191
1763699247958544100,10.311544189453125,-10.57249525604248,3.1476269950866698,10.039935024261474
1763699247968504000,10.321504150390625,-9.810390940093994,4.965873518371581,7.026084046936035
1763699247978465000,10.331465087890624,-10.755502045440673,4.258686203002929,3.969735990142822
1763699247988425200,10.34142529296875,-5.9850552375793455,-0.4091092086791992,3.108721218109131
1763699247998385200,10.35138525390625,-1.628655679321289,-9.49360813293457,4.585045816802978
1763699248008345000,10.361344970703126,1.4296376663208008,-21.204995191192626,4.733037406921387
1763699248018306300,10.371306396484375,-0.9476549446105956,-30.447661062622068,2.6663924613952634
1763699248028266200,10.381266357421875,-6.090100835418701,-34.508077440643305,-0.412401235961914
1763699248038226200,10.39122607421875,-7.943811470794677,-36.54584232864379,-4.402936853027343
1763699248048186000,10.40118603515625,-5.580734432220459,-36.042910342407225,-8.613888660430908
1763699248058147000,10.41114697265625,-0.201112939453125,-33.681628955078125,-10.620828202056884
1763699248068107000,10.42110693359375,7.159411151885986,-27.896788831329346,-10.307636697387695
1763699248078067000,10.43106689453125,14.8494372467041,-22.190209174346922,-8.870367513275147
1763699248088028200,10.441028076171875,20.604649124908445,-17.342848638153075,-6.078279464721679
1763699248097988000,10.450988037109376,19.81755532913208,-12.990788570404051,-2.525583476257324
1763699248107948000,10.460947998046874,14.095263723754883,-9.917830739593505,0.9419687156677246
1763699248117908200,10.470908203125,7.612663453674316,-7.907449533081055,4.163666324615479
1763699248127869200,10.480869140625,3.731512924957275,-5.652560482025146,5.79711040725708
1763699248137829000,10.4908291015625,2.824409770965576,-3.6789901260375975,4.829104748535156
1763699248147789300,10.500789306640625,2.750488794708252,-2.291250988769531,1.3376105400085447
1763699248157749200,10.510749267578126,2.3738509460449215,-1.709160710144043,-2.766948931121826
1763699248167710000,10.5207099609375,2.250250285339355,-1.6445172653198241,-5.824494088745117
1763699248177670100,10.530670166015625,2.846855411529541,-1.2811971633911132,-7.972242615509033
1763699248187630000,10.540630126953126,4.343231449127197,-0.716913759613037,-9.889698870086669
1763699248197591000,10.550591064453124,6.494421640777587,-0.8028057441711425,-12.286893282318115
1763699248207551200,10.56055126953125,8.30593447189331,-1.203984159851074,-14.430451956176757
1763699248217511200,10.57051123046875,8.778938937377928,-1.5126865364074706,-14.769081853485106
1763699248227471000,10.58047119140625,8.117540728759765,-2.0407576400756833,-11.209502535247802
1763699248237432300,10.590432373046875,7.473949394989013,-2.868403226470947,-5.070919116210937
1763699248247392300,10.600392333984376,5.483170714569091,-2.366668341064453,-1.9125182136535643
1763699248257352200,10.610352294921874,2.6116250984191893,-2.1746832954406736,-0.6220435188293457
1763699248267313200,10.620313232421875,-1.2855366539001465,-4.009838867950439,0.4987421333312988
1763699248277273000,10.630273193359375,-2.046294231414795,-7.921365830230712,1.887828009033203
1763699248287233000,10.64023291015625,2.504484574127197,-13.424438346099853,2.150890916442871
1763699248297193000,10.65019287109375,6.690147626495361,-21.269040085601805,0.5770026000976562
1763699248307154200,10.660154296875,4.602254141235352,-28.489503379821777,0.6605003829956054
1763699248317114000,10.670114013671874,0.5898714340209961,-34.29244965362549,4.228459407043457
1763699248327074000,10.680073974609375,-1.8492215072631835,-38.48065654525757,8.191611342620849
1763699248337034200,10.6900341796875,-2.17707749710083,-38.82631940994263,10.042927776336668
1763699248346995200,10.6999951171875,-0.9484031326293945,-36.46189563293457,10.192415742492676
1763699248356955100,10.709955078125,4.601356315612793,-30.20285394287109,6.6711436508178705
1763699248366915300,10.719915283203125,10.536282955932617,-24.958804119110106,1.281346800994873
1763699248376876000,10.7298759765625,10.8662338722229,-22.903531631469725,-2.6678888374328613
1763699248386836000,10.7398359375,8.033444395446777,-20.266468140411376,-6.865223622894287
1763699248396796200,10.749796142578125,6.4269350814819335,-17.18153930130005,-11.259780770111083
1763699248406755800,10.759755859375,5.586570298767089,-13.52918466873169,-13.08161859588623
1763699248416717000,10.769717041015625,4.555866484069824,-10.099191515350341,-12.160000594329833
1763699248426677000,10.779677001953125,3.2522236801147457,-6.858340293121337,-10.844835694885253
1763699248436637000,10.789636962890626,0.8629600608825683,-3.4666543663024902,-8.518419869232178
1763699248446597000,10.79959716796875,-1.7188871543884277,-0.37229835815429685,-5.767482161712646
1763699248456558000,10.80955810546875,-4.428075970458984,2.3609821121215817,-2.2981343185424805
1763699248466518000,10.81951806640625,-6.670395462799072,4.800374328613281,1.4932336479187012
1763699248476478200,10.829478271484374,-7.342866854095458,6.875548617553711,4.512321941375732
1763699248486439000,10.83943896484375,-7.265803488159179,8.196250108337402,6.835894652557372
1763699248496398800,10.84939892578125,-6.704961749267578,8.604162216186523,7.341370478057861
1763699248506359000,10.859359130859374,-6.4457894195556635,8.91316386795044,6.606500205993652
1763699248516319000,10.869319091796875,-7.321917589569091,9.48702407836914,6.071845047760009
1763699248526280000,10.879280029296876,-7.7784619186401365,9.837624983978271,5.431994654083252
1763699248536240000,10.889240234375,-6.720374422454833,8.89311242904663,4.900930798339844
1763699248546200000,10.899199951171875,-5.213374114990234,6.852504426574707,4.552275181579589
1763699248556161000,10.9091611328125,-3.1688755348205566,4.190152180480957,4.781669628143311
1763699248566121200,10.919121337890624,0.5526116706848144,-0.27877485580444333,5.163095880126953
1763699248576081200,10.9290810546875,7.988553114318847,-6.846818197631835,5.067028538513183
1763699248586041000,10.939041015625,17.53842498626709,-16.266505354309082,3.0098107620239256
1763699248596002000,10.949001953125,23.069629371643064,-25.930999630737304,-1.5719430274963377
1763699248605962000,10.9589619140625,12.552649666595459,-29.24023523788452,-6.0407204261779786
1763699248615922000,10.968921875,2.908805379486084,-22.840983113098144,-7.940220168304443
1763699248625882000,10.978882080078124,-2.8643630111694334,-16.249895580291746,-8.073247998046874
1763699248635843000,10.988843017578125,-9.51261210861206,-13.186963468933104,-2.5357588333129883
1763699248645803000,10.998802978515625,-8.49103618774414,-14.226196627044677,5.183745869445801
1763699248655763200,11.00876318359375,-6.308721374511719,-14.03899998474121,10.669161148071288
1763699248665724200,11.01872412109375,-10.052504582977294,-7.518840676116943,10.312724375915527
1763699248675684000,11.02868408203125,-10.077045149993896,-0.31049802780151364,8.16512548675537
1763699248685644000,11.03864404296875,-8.922740674591063,3.5357869392395016,8.21645118484497
1763699248695604000,11.04860400390625,-5.718550665283203,5.663184751892089,9.500940375518798
1763699248705565000,11.05856494140625,-1.2847884658813475,4.369418029785156,11.431714376831055
1763699248715525000,11.068525146484374,4.2509050476074215,-1.8724153358459472,12.612504708099365
1763699248725485000,11.078485107421875,7.797465894317627,-10.388740278625487,12.763638687896728
1763699248735446000,11.088446044921875,3.773860366821289,-20.408623863983152,10.405200415039062
1763699248745406200,11.09840625,-1.267280866241455,-29.520207194519042,5.352836361694336
1763699248755366100,11.1083662109375,-4.897938046264648,-35.02971412734985,-3.0391397323608396
1763699248765326000,11.118326171875,-9.012822512054443,-38.90502878952026,-11.32607022857666
1763699248775287000,11.128287109375,-12.712013714599609,-42.52925155258178,-17.039533215332032
1763699248785247000,11.1382470703125,-10.073753122711182,-44.79476487350463,-20.517560039520262
1763699248795207000,11.14820703125,1.3561656028747557,-43.1685033958435,-22.865822955322265
1763699248805166800,11.158166748046876,19.17411363296509,-35.45154253234863,-21.364658514404297
1763699248815128000,11.168128173828125,34.02175522842407,-25.33274849090576,-16.274735422515867
1763699248825088000,11.178087890625,32.22146521759033,-13.689446542358398,-9.187299958038329
1763699248835048000,11.1880478515625,16.57969685897827,-7.008127534484863,-0.63206923828125
1763699248845009200,11.198009033203125,2.122310134124756,-3.3349732749938963,6.547991902923584
1763699248854969000,11.207968994140625,-3.8551135856628416,-1.3268366325378418,9.598953005981445
1763699248864929000,11.217928955078126,-1.9110218376159667,-0.16924012985229492,6.9445315528869624
1763699248874889200,11.22788916015625,2.6708815895080567,1.4440028762817383,1.5693991882324219
1763699248884850000,11.237849853515625,5.392490326690673,2.546832015991211,-2.9114988563537594
1763699248894809900,11.247809814453126,6.814346837615966,2.2960393920898436,-6.842029794311523
1763699248904770000,11.25777001953125,6.369923154449462,0.3899555953979492,-10.071658196258545
1763699248914730000,11.26772998046875,4.36687419052124,-1.465849966430664,-11.257835481262207
1763699248924691000,11.27769091796875,3.8199487487792965,-1.5664064361572265,-11.72769755706787
1763699248934651100,11.287651123046874,5.302707764434814,-1.3609540061950682,-11.487080290222167
1763699248944611000,11.297611083984375,7.104943064117431,-2.8440122970581054,-7.440131296539306
1763699248954572000,11.307572021484376,7.032817739105224,-4.173692044067383,-3.3105823455810546
1763699248964532200,11.3175322265625,5.655104321289063,-4.436156401062012,-0.8662520881652832
1763699248974492200,11.3274921875,4.493467603302002,-4.46937594909668,0.2647089210510254
1763699248984452000,11.3374521484375,3.9737762054443357,-4.873397479248046,0.23657705154418943
1763699248994413000,11.3474130859375,2.544288176727295,-6.254402924346923,-0.7306804191589356
1763699249004373000,11.357373046875,1.3084312072753905,-9.216180015563964,-1.6949451377868652
1763699249014333000,11.3673330078125,2.845658310699463,-14.56841782684326,-2.023100402832031
1763699249024292900,11.37729296875,6.300341668701171,-22.654534658813475,-5.017648129272461
1763699249034254000,11.387254150390625,6.533626692962646,-32.043995019531245,-6.748805567169189
1763699249044214000,11.397214111328125,2.749142056274414,-40.556130109405515,-2.9146412460327147
1763699249054174000,11.407174072265626,-2.2055086418151855,-46.525772673797604,1.307533381652832
1763699249064135200,11.41713525390625,-6.152050803375244,-45.88113387680053,4.320486533355712
1763699249074095000,11.42709521484375,-2.318185757446289,-38.18138133773803,6.06511135559082
1763699249084055000,11.437054931640626,7.471405555725097,-29.568091227722167,5.272630606079101
1763699249094015200,11.44701513671875,13.93111127243042,-24.363845006561277,2.129043826293945
1763699249103976000,11.456975830078125,12.17376725387573,-21.073314099884033,-0.8559270935058593
1763699249113936000,11.466935791015626,6.601711802673339,-18.722806620025633,-3.5824738716125486
1763699249123896000,11.47689599609375,3.0898668800354003,-16.084994940948487,-5.265148725891113
1763699249133856000,11.48685595703125,1.0327987411499022,-12.658593090057373,-5.172223773956299
1763699249143817000,11.49681689453125,-0.2651578338623047,-8.149563175964355,-4.817433015441894
1763699249153777200,11.506777099609375,-1.7085621597290037,-3.2128689903259278,-4.635772964477539
1763699249163737000,11.516737060546875,-4.384980340576171,1.012597664642334,-2.073079362487793
1763699249173698000,11.526697998046876,-6.789058082580566,4.386775991821289,1.5755343299865723
1763699249183658200,11.536658203125,-8.841188180541991,6.661417206573486,4.664952297210693
1763699249193618200,11.5466181640625,-10.471190598297119,8.672995513916016,7.410203775787353
1763699249203578000,11.556578125,-10.691157875823974,10.271274759674071,8.726116863250732
1763699249213539000,11.5665390625,-10.368838477325438,11.461492259979247,8.189067503356933
1763699249223499000,11.5764990234375,-10.582371337890624,12.67909344177246,6.842478707122802
1763699249233459000,11.586458984375,-12.5517518409729,12.91567049331665,6.0142345703124995
1763699249243419000,11.5964189453125,-12.76244158706665,11.570428435516357,5.840206037139892
1763699249253380000,11.606380126953125,-9.87638112335205,9.477447271728515,6.0042088508605955
1763699249263340000,11.616340087890626,-5.587318486785889,7.428459563446045,5.954379528808594
1763699249273300000,11.626300048828124,-1.5888520767211913,3.681234690093994,5.692364084625244
1763699249283261200,11.63626123046875,3.2487820152282714,-1.8007389236450195,5.463418550872802
1763699249293221000,11.64622119140625,12.639589114379882,-9.152284758758544,5.048772750854492
1763699249303181000,11.65618115234375,23.796718488311765,-17.688062590026853,3.0359973426818847
1763699249313141000,11.66614111328125,23.59710192489624,-24.51572717437744,-2.0157681602478026
1763699249323102000,11.67610205078125,9.789740950775146,-29.10092262878418,-6.357952146148682
1763699249333062000,11.686061767578124,3.610156828308105,-27.947515979003903,-8.941445375061035
1763699249343022000,11.69602197265625,1.140837091064453,-21.887492301940917,-10.89092407684326
1763699249352983000,11.705983154296876,-7.575403690338134,-15.761927354431151,-9.781510882568359
1763699249362943000,11.71594287109375,-13.466935425567627,-15.72451795349121,-5.971587853240966
1763699249372903200,11.725903076171875,-13.136385958862304,-21.2612589302063,4.1195232315063475
1763699249382863000,11.735863037109375,-12.151770526123046,-19.544765977478026,10.161740033721923
1763699249392823800,11.74582373046875,-8.330624676513672,-6.616525925445556,6.8010290908813475
1763699249402784300,11.7557841796875,2.5583541114807127,0.7160159339904785,5.768230349731445
1763699249412744200,11.765744140625,8.000673760223389,5.033060802459716,8.300697155761718
1763699249422704000,11.7757041015625,3.248931652832031,6.591237170410156,9.779415956115722
1763699249432665300,11.785665283203125,0.859967308807373,4.06041637802124,11.509226655578612
1763699249442625300,11.795625244140625,-0.3504512680053711,-1.7573440185546874,11.84366669998169
1763699249452585200,11.805585205078126,-1.5375263786315918,-10.503961233520506,9.303418738555907
1763699249462546400,11.81554638671875,-2.7009587478637695,-19.98140850524902,4.921131874847412
1763699249472506400,11.82550634765625,-5.434089580535888,-28.189928897094724,-0.5991489654541016
1763699249482466300,11.83546630859375,-9.392453112792968,-34.2551898902893,-7.261164722442627
1763699249492426500,11.845426513671875,-12.137554953765868,-41.42028727111816,-12.5900590675354
1763699249502387200,11.85538720703125,-8.310273962402343,-46.70234504623413,-16.207847413635253
1763699249512347100,11.86534716796875,6.736984196472168,-46.30625430908203,-16.607379815673827
1763699249522307300,11.875307373046875,26.96065598220825,-38.002863676452634,-12.748226014709472
1763699249532267300,11.885267333984375,35.675101112365724,-26.046669498443602,-7.740603604888916
1763699249542228200,11.895228271484376,24.349479796600342,-14.450653032684325,-2.2102970451354977
1763699249552188400,11.9051884765625,7.537545376586913,-7.325209616851806,4.754435584259033
1763699249562148400,11.9151484375,-2.21538472366333,-2.903568063354492,8.809764283752441
1763699249572109300,11.925109375,-3.604021686553955,0.47928924484252927,7.6553101707458495
1763699249582069500,11.935069580078125,0.1906383071899414,3.2137668159484862,2.473210314941406
1763699249592029400,11.945029541015625,5.671564457702637,5.455637395477295,-2.823811220550537
1763699249601989400,11.9549892578125,9.266458250427245,6.024409927368164,-7.280767248535156
1763699249611950300,11.964950439453125,8.828020071411132,4.005649015045166,-10.934917532348631
1763699249621910300,11.97491015625,5.980566109466553,2.009034468078613,-13.148955517578123
1763699249631870200,11.9848701171875,5.4789808616638185,0.854879630279541,-15.512331831359862
1763699249641830100,11.994830078125,7.912836486816405,-0.44098201828002925,-17.649605725860596
1763699249651791400,12.004791259765625,9.528024781799315,-2.21553436126709,-15.82612188644409
1763699249661751300,12.014751220703126,9.12295578842163,-4.6055461685180665,-9.502736026763916
1763699249671711200,12.024711181640624,7.419630944824219,-5.824344451141357,-5.569661249542236
1763699249681672400,12.03467236328125,3.182492556762695,-6.504746635437011,-3.9743747558593747
1763699249691632400,12.04463232421875,-2.523638187408447,-8.412027532958984,-2.5029881980895996
1763699249701592300,12.05459228515625,-2.742707639312744,-12.318017903900145,-1.4459481651306152
1763699249711552300,12.06455224609375,3.2218472465515133,-19.66896518859863,-2.492812841033935
1763699249721513200,12.07451318359375,4.256292001342773,-27.868956237030027,-2.910002480316162
1763699249731473200,12.08447314453125,0.3308487419128418,-34.87693413391113,1.6439187149047851
1763699249741433300,12.094433349609375,-4.1846155891418455,-43.08844727783203,8.262838842010497
1763699249751393300,12.104393310546875,-6.019920799255371,-50.31489607620239,15.32199279937744
1763699249761354200,12.114354248046874,-1.0338462043762207,-49.86942492980957,17.03190169754028
1763699249771314400,12.124314453125,5.682338365173339,-44.08353734283447,14.565275437164306
1763699249781274400,12.1342744140625,10.749067628479004,-35.04363042449951,9.766547122192382
1763699249791234300,12.144234375,9.839270997619629,-29.147160648345945,5.175066888427734
1763699249801195300,12.1541953125,4.07298593673706,-25.392004981994628,0.5205892234802246
1763699249811155200,12.1641552734375,-0.2641103706359863,-20.157980877685546,-6.12855769958496
1763699249821115100,12.174115234375,-1.6192285102844237,-14.790330393218992,-11.970110475158691
1763699249831076400,12.184076416015625,-0.16729484100341796,-8.983942454528808,-15.410727898406982
1763699249841036300,12.194036376953125,-0.11192892761230468,-4.519654183959961,-14.694861602020262
1763699249850996200,12.203996337890626,-2.3407810356140137,-0.9829694190979004,-11.592425163269043
1763699249860956200,12.2139560546875,-5.355529838562012,3.3885435371398924,-8.181136710357665
1763699249870917400,12.22391748046875,-8.977208762359618,7.634360906219482,-3.065027037811279
1763699249880877300,12.233877197265626,-12.034005731964111,10.556932945251464,1.8237831146240233
1763699249890837200,12.243837158203124,-14.366855974578856,12.27701720046997,5.255272644042968
1763699249900798200,12.253798095703125,-15.071948363494872,13.05004506149292,7.439083833312988
1763699249910758100,12.263758056640626,-15.446042372894286,14.30774912109375,8.838195428466797
1763699249920718000,12.273718017578124,-18.064850076293943,15.552584346771239,10.11894367904663
1763699249930678300,12.28367822265625,-17.891420093536375,15.319448960113524,10.413879396057128
1763699249940639200,12.29363916015625,-13.920487002563476,12.483666731262206,10.33606784210205
1763699249950599200,12.30359912109375,-8.800636389923095,8.269273258972168,9.788843125152587
1763699249960559400,12.313559326171875,-3.7119103988647457,3.84314257736206,8.870217875671386
1763699249970519300,12.323519287109375,1.7839795120239257,-1.0538976432800293,7.032967376708984
1763699249980480300,12.333480224609374,12.584522476196287,-7.767837648773193,5.49708701171875
1763699249990440400,12.3434404296875,25.855283003234863,-17.833061428070067,3.481917401885986
1763699250000400400,12.353400390625,26.291326980590817,-27.505187222290036,1.7778443702697753
1763699250010361000,12.363361083984374,18.900576093292234,-32.581493292236324,-2.920776387786865
1763699250020321300,12.3733212890625,11.645696150207518,-29.7003708694458,-6.908468890380859
1763699250030281200,12.38328125,-2.71322903137207,-21.931635395050048,-8.917054445648192
1763699250040241200,12.3932412109375,-15.707309629058837,-18.510770135498046,-11.084555136108397
1763699250050202400,12.403202392578125,-15.605855333709716,-19.096002803802488,-3.097199122619629
1763699250060162300,12.413162353515625,-15.236400090026855,-18.69272946166992,5.593453628540039
1763699250070122200,12.423122314453124,-11.880028637695311,-7.280467973327636,4.6261961578369135
1763699250080082200,12.433082275390625,-6.932410906982422,2.5764602615356442,4.101117806243896
1763699250090043400,12.44304345703125,-5.1201498878479,7.3419690284729,4.4285248832702635
1763699250100003300,12.45300341796875,-1.714248388671875,8.677185366821288,3.01983648147583
1763699250109963300,12.46296337890625,1.9164087913513181,5.420023645782471,2.0031986015319823
1763699250119924200,12.47292431640625,4.004900827026367,-0.819116242980957,1.989431941986084
1763699250129884200,12.48288427734375,2.925265515899658,-10.099341152954102,1.5514426757812498
1763699250139844000,12.492843994140625,-0.6025906303405761,-20.004003783416746,1.70467158203125
1763699250149804300,12.50280419921875,-6.0716954101562495,-29.371467416381833,0.744447078704834
1763699250159765200,12.51276513671875,-11.029937410736084,-37.90934017410278,-2.7814637786865233
1763699250169725200,12.52272509765625,-11.322179650878905,-44.97642492446899,-5.979967559051513
1763699250179685400,12.532685302734375,-2.353350594329834,-48.61845456237793,-9.644293199920654
1763699250189645300,12.542645263671876,14.877120203399658,-43.23883306961059,-9.809642752075195
1763699250199606300,12.552606201171875,31.045014376831052,-32.98192351989746,-7.27807377166748
1763699250209566500,12.56256640625,30.65027037811279,-21.257817265319822,-4.533271205902099
1763699250219526400,12.5725263671875,18.389414038848876,-11.613972978210448,-0.7282862174987793
1763699250229486300,12.582486328125,4.9357963600158685,-5.016899941253662,4.094384114074707
1763699250239447300,12.592447265625,-3.7283705352783203,-0.6138134506225585,6.6908958145141595
1763699250249407200,12.6024072265625,-5.0775031707763665,1.839345425415039,5.114912571716308
1763699250259367200,12.6123671875,0.7565677246093749,3.670460782623291,1.2633902885437012
1763699250269328400,12.622328369140625,7.742249618530273,5.587468124389648,-3.086874127960205
1763699250279288300,12.632288330078126,10.949432379913329,5.037849205780029,-7.9840639862060545
1763699250289248300,12.642248291015624,10.779892974853515,2.4111107093811035,-12.167781749725341
1763699250299208400,12.65220849609375,10.361356597137451,0.4116530479431152,-15.517269872283935
1763699250309169400,12.66216943359375,10.763283200836181,-1.152359186553955,-18.23828005905151
1763699250319129300,12.67212939453125,9.577704466247559,-2.8303952751159667,-17.61533871459961
1763699250329089300,12.68208935546875,6.728305215454101,-4.474912540435791,-12.112864749145507
1763699250339049200,12.69204931640625,3.3870471611022945,-4.631433473968506,-7.4821794631958
1763699250349010200,12.70201025390625,1.805377689361572,-3.923049057769775,-5.4233156730651855
