time,seconds_elapsed,z,y,x
1763699237689484300,0.042484375,-0.07404226809740067,-0.1207306757569313,-0.19751520454883575
1763699237699444200,0.0524443359375,-0.048041295260190964,-0.0016330503858625889,-0.10352612286806107
1763699237709404200,0.062404052734375,-0.008945824578404427,0.049672748893499374,-0.009411078877747059
1763699237719365400,0.072365478515625,0.03398779407143593,0.03684590011835098,0.05829579755663872
1763699237729325300,0.0823251953125,0.062481220811605453,0.0049401638098061085,0.09841898083686829
1763699237739285200,0.09228515625,0.07856059074401855,-0.0538128986954689,0.11049295216798782
1763699237749245400,0.102245361328125,0.07579995691776276,-0.08853918313980103,0.08823132514953613
1763699237759206400,0.112206298828125,0.05240675061941147,-0.0840964987874031,0.04837445542216301
1763699237769166300,0.122166259765625,0.034874625504016876,-0.09413528442382812,0.011128284968435764
1763699237779126500,0.13212646484375,0.02810886688530445,-0.11131853610277176,-0.02437618002295494
1763699237789087200,0.142087158203125,0.018622154369950294,-0.12377813458442688,-0.05405444651842117
1763699237799047200,0.152047119140625,0.016861004754900932,-0.13473384082317352,-0.07746496051549911
1763699237809007400,0.16200732421875,0.019949473440647125,-0.14017973840236664,-0.09431984275579453
1763699237818968300,0.17196826171875,0.026037460193037987,-0.13813789188861847,-0.10372240096330643
1763699237828928300,0.18192822265625,0.03002314642071724,-0.12034185975790024,-0.1033594086766243
1763699237838888400,0.191888427734375,0.03810371086001396,-0.1092391386628151,-0.0924505740404129
1763699237848849400,0.201849365234375,0.04332403838634491,-0.09719126671552658,-0.07757282257080078
1763699237858809300,0.211809326171875,0.03681740164756775,-0.08873306214809418,-0.06166922301054001
1763699237868769300,0.221769287109375,0.02954697236418724,-0.08473965525627136,-0.04267901927232742
1763699237878730200,0.231730224609375,0.015487346798181534,-0.07400019466876984,-0.026396453380584717
1763699237888690200,0.241690185546875,0.007495200727134943,-0.05536072701215744,-0.016641294583678246
1763699237898650400,0.251650390625,-0.00455666845664382,-0.03057761676609516,-0.014111291617155075
1763699237908611300,0.261611328125,-0.022888803854584694,-0.022165223956108093,-0.011336278170347214
1763699237918571300,0.2715712890625,-0.0426127091050148,-0.015141668729484081,-0.00762862479314208
1763699237928531500,0.281531494140625,-0.06496488302946091,-0.02195856161415577,0.005673864856362343
1763699237938492400,0.291492431640625,-0.11906460672616959,-0.0026999127585440874,0.014518755488097668
1763699237948452400,0.301452392578125,-0.17500856518745422,-0.039986297488212585,0.04123638570308685
1763699237958412300,0.311412353515625,-0.2340788096189499,-0.03580699861049652,0.07683353126049042
1763699237968373200,0.321373291015625,-0.28044605255126953,-0.011509116739034653,0.10699143260717392
1763699237978333200,0.331333251953125,-0.3170911371707916,-0.03056137077510357,0.13011299073696136
1763699237988293400,0.34129345703125,-0.2925698161125183,-0.1719840168952942,0.12515631318092346
1763699237998253300,0.35125341796875,-0.3293640613555908,-0.2582312822341919,0.08424856513738632
1763699238008214300,0.36121435546875,-0.3834536373615265,-0.34237757325172424,-0.0007827030494809151
1763699238018174500,0.371174560546875,-0.4312637746334076,-0.42695504426956177,-0.12384205311536789
1763699238028134400,0.381134521484375,-0.46726760268211365,-0.5368301272392273,-0.2267085164785385
1763699238038095400,0.391095458984375,-0.5010074377059937,-0.6858939528465271,-0.28446900844573975
1763699238048055300,0.40105517578125,-0.49391970038414,-0.9799503087997437,-0.2701002061367035
1763699238058015200,0.41101513671875,-0.577115535736084,-1.1505364179611206,-0.25724005699157715
1763699238067976200,0.42097607421875,-0.5654681921005249,-1.2732770442962646,-0.23073281347751617
1763699238077936400,0.430936279296875,-0.4055198132991791,-1.3902803659439087,-0.23056477308273315
1763699238087896300,0.440896240234375,-0.32279297709465027,-1.3478937149047852,-0.24436792731285095
1763699238097857300,0.450857177734375,-0.28866854310035706,-1.2000744342803955,-0.2630563974380493
1763699238107817500,0.4608173828125,-0.27571573853492737,-1.0498257875442505,-0.22765366733074188
1763699238117777400,0.47077734375,-0.2598733901977539,-0.9100351333618164,-0.15301431715488434
1763699238127738000,0.480738037109375,-0.2047715187072754,-0.9712532162666321,-0.13778983056545258
1763699238137698300,0.4906982421875,-0.09357602149248123,-1.0948433876037598,-0.2459716796875
1763699238147658200,0.500658203125,-0.07559675723314285,-1.1864858865737915,-0.43538182973861694
1763699238157619200,0.510619140625,-0.03852581977844238,-1.434649109840393,-0.6060693860054016
1763699238167579400,0.520579345703125,-0.04657682403922081,-1.6681511402130127,-0.6903256773948669
1763699238177539300,0.530539306640625,-0.08025702089071274,-1.9109760522842407,-0.6899802684783936
1763699238187499300,0.540499267578125,-0.10683803260326385,-1.927469253540039,-0.6236095428466797
1763699238197460500,0.55046044921875,-0.07403161376714706,-1.7144004106521606,-0.4781290292739868
1763699238207420400,0.56042041015625,0.06942567974328995,-1.4197921752929688,-0.30675381422042847
1763699238217380400,0.57038037109375,0.20549775660037994,-1.1628732681274414,-0.16243711113929749
1763699238227341300,0.58034130859375,0.2282392978668213,-0.9961450099945068,-0.07883676141500473
1763699238237301200,0.59030126953125,0.21525612473487854,-0.8815031051635742,-0.09150514751672745
1763699238247261200,0.60026123046875,0.20037251710891724,-0.9850937128067017,-0.1358925849199295
1763699238257222400,0.610222412109375,0.340715229511261,-1.4992954730987549,-0.14519208669662476
1763699238267182300,0.620182373046875,0.4030902087688446,-1.1643105745315552,-0.1447124481201172
1763699238277142300,0.630142333984375,0.4886098802089691,-1.2221776247024536,-0.0007555388147011399
1763699238287103500,0.640103515625,0.4832811653614044,-0.9248644113540649,0.16297560930252075
1763699238297063400,0.6500634765625,0.39794445037841797,-0.8817329406738281,0.3397226929664612
1763699238307023400,0.6600234375,0.28527992963790894,-0.9008083939552307,0.4374029040336609
1763699238316984300,0.669984375,0.2629253566265106,-0.8810458779335022,0.46003496646881104
1763699238326944300,0.6799443359375,0.25952452421188354,-0.8989145755767822,0.46154019236564636
1763699238336904200,0.689904296875,0.3009135127067566,-0.8515718579292297,0.45018473267555237
1763699238346865400,0.699865478515625,0.3745112717151642,-0.7407515645027161,0.44434604048728943
1763699238356825300,0.709825439453125,0.40802425146102905,-0.6178099513053894,0.4678793251514435
1763699238366785300,0.719785400390625,0.3966616094112396,-0.47054725885391235,0.5244795083999634
1763699238376745200,0.7297451171875,0.36695775389671326,-0.26388996839523315,0.5986274480819702
1763699238386706400,0.73970654296875,0.29380232095718384,-0.0038978024385869503,0.6791561245918274
1763699238396665900,0.749665771484375,0.1834888756275177,0.25270816683769226,0.7016076445579529
1763699238406626000,0.7596259765625,0.08243788778781891,0.39021968841552734,0.6207687258720398
1763699238416586800,0.769586669921875,-0.06794389337301254,0.2470231056213379,0.5064136385917664
1763699238426546700,0.779546630859375,-0.14239150285720825,0.014750449918210506,0.32958856225013733
1763699238436507000,0.7895068359375,-0.1358174830675125,-0.24129651486873627,0.09929303079843521
1763699238446467800,0.7994677734375,-0.1737382411956787,-0.5495896339416504,-0.09220103174448013
1763699238456427800,0.809427734375,-0.18641382455825806,-0.8445397615432739,-0.20829515159130096
1763699238466388000,0.819387939453125,0.14891517162322998,-1.3575549125671387,-0.025616679340600967
1763699238476349000,0.829348876953125,0.0635070726275444,-0.9299761056900024,-0.19680947065353394
1763699238486308900,0.839308837890625,0.07284437865018845,-0.6837237477302551,-0.20619364082813263
1763699238496269000,0.84926904296875,0.1239272728562355,-0.4697163701057434,-0.14683951437473297
1763699238506229800,0.859229736328125,0.12642239034175873,-0.15782584249973297,-0.10609687119722366
1763699238516189700,0.869189697265625,0.1558910608291626,-0.3973976969718933,0.10460736602544785
1763699238526150000,0.87914990234375,0.18690356612205505,-0.1159156858921051,0.07264890521764755
1763699238536110800,0.88911083984375,0.17084550857543945,0.00749147217720747,0.11171267926692963
1763699238546070800,0.89907080078125,0.16141392290592194,0.13372237980365753,0.1412370204925537
1763699238556031000,0.909031005859375,0.19043172895908356,0.2929959297180176,0.170376256108284
1763699238565991000,0.918990966796875,0.23293471336364746,0.5480287671089172,0.1726018637418747
1763699238575952000,0.928951904296875,0.2756797671318054,0.7742789387702942,0.1825634241104126
1763699238585912000,0.938912109375,0.171122744679451,0.6715298891067505,-0.04212747886776924
1763699238595872000,0.9488720703125,0.14641766250133514,0.4612981081008911,-0.08900577574968338
1763699238605832700,0.958832763671875,0.15859949588775635,0.37093251943588257,-0.059307798743247986
1763699238615793000,0.96879296875,0.09503037482500076,0.5254778861999512,0.022229138761758804
1763699238625752800,0.9787529296875,0.11206049472093582,0.6216291785240173,0.07292453944683075
1763699238635713800,0.9887138671875,0.1241198182106018,0.8224629759788513,0.10098680108785629
1763699238645674000,0.998674072265625,0.10004431009292603,1.046170949935913,0.114457868039608
1763699238655634000,1.008634033203125,0.0974663719534874,1.285441517829895,0.13200277090072632
1763699238665595000,1.018594970703125,0.10008825361728668,1.546141266822815,0.10169733315706253
1763699238675555000,1.02855517578125,0.11662887781858444,1.860095500946045,0.07245555520057678
1763699238685515000,1.038514892578125,0.03789385408163071,2.3704512119293213,-0.09814441204071045
1763699238695475700,1.048475830078125,-0.12963788211345673,2.8844308853149414,-0.2480127364397049
1763699238705436000,1.058435791015625,-0.3438252806663513,3.353121757507324,-0.42174777388572693
1763699238715395800,1.068395751953125,-0.5938937067985535,0.6174980998039246,-1.126816749572754
1763699238725355800,1.078355712890625,-0.4554080069065094,0.3803526759147644,-1.1097549200057983
1763699238735317000,1.08831689453125,-0.3229500949382782,0.5544483065605164,-0.9707568287849426
1763699238745277000,1.09827685546875,-0.4105513095855713,0.2641344368457794,-0.9808347821235657
1763699238755236900,1.10823681640625,-0.6318530440330505,0.8973720669746399,-1.113521933555603
1763699238765198000,1.118197998046875,-0.6826754808425903,2.2150750160217285,-0.9585675597190857
1763699238775158000,1.128157958984375,-0.7421396374702454,1.639528751373291,-0.8508591651916504
1763699238785118000,1.138117919921875,-0.6783702373504639,1.0529001951217651,-0.5897210836410522
1763699238795079000,1.148078857421875,-0.5690216422080994,1.1732425689697266,-0.49431997537612915
1763699238805038800,1.158038818359375,-0.46772298216819763,1.265108346939087,-0.42821019887924194
1763699238814998800,1.167998779296875,-0.4786563217639923,1.5521818399429321,-0.5422177314758301
1763699238824960000,1.1779599609375,-0.4836854338645935,1.6611171960830688,-0.6375812888145447
1763699238834920000,1.187919921875,-0.42992928624153137,1.9455143213272095,-0.6512102484703064
1763699238844880000,1.1978798828125,-0.33594444394111633,2.281489133834839,-0.555001974105835
1763699238854841000,1.207841064453125,-0.2553047239780426,2.2460551261901855,-0.18295757472515106
1763699238864801000,1.217801025390625,-0.3057335615158081,1.8711484670639038,0.18922264873981476
1763699238874761000,1.227760986328125,-0.2995462417602539,1.3476921319961548,0.5316417813301086
1763699238884722000,1.237721923828125,-0.15045101940631866,1.196160078048706,0.6770914196968079
1763699238894681900,1.247681884765625,-0.038710109889507294,1.3099967241287231,0.5567609667778015
1763699238904641800,1.257641845703125,-0.15932494401931763,1.2597529888153076,0.28866589069366455
1763699238914601700,1.267601806640625,-0.38475459814071655,0.8396565914154053,0.11251801997423172
1763699238924563000,1.27756298828125,-0.4700295627117157,0.6236574649810791,0.11970562487840652
1763699238934523000,1.28752294921875,-0.48251205682754517,0.36818814277648926,0.28026682138442993
1763699238944482800,1.29748291015625,-0.4475671350955963,0.298160582780838,0.39614546298980713
1763699238954444000,1.307444091796875,-0.39669114351272583,0.4543896019458771,0.46907028555870056
1763699238964404000,1.317404052734375,-0.3472602367401123,0.7716575860977173,0.48238876461982727
1763699238974364000,1.327364013671875,-0.32581326365470886,1.1293946504592896,0.41029271483421326
1763699238984324900,1.337324951171875,-0.35214418172836304,1.4209517240524292,0.3023340404033661
1763699238994284800,1.347284912109375,-0.4468661844730377,1.6869304180145264,0.18384253978729248
1763699239004244700,1.35724462890625,-0.48806554079055786,2.0233144760131836,0.09026198834180832
1763699239014206000,1.3672060546875,-0.48675286769866943,2.4109694957733154,0.11184903979301453
1763699239024166000,1.377165771484375,-0.4343205690383911,2.7843189239501953,0.24232742190361023
1763699239034125800,1.387125732421875,-0.3452463448047638,2.9434707164764404,0.4353969991207123
1763699239044087000,1.397087158203125,-0.31935828924179077,2.186171531677246,0.340633749961853
1763699239054047000,1.407046875,-0.4511978030204773,1.1075762510299683,-0.03063247725367546
1763699239064007000,1.4170068359375,-0.6435899138450623,0.4508790373802185,-0.38451066613197327
1763699239073967000,1.426967041015625,-0.9571462273597717,0.7575433850288391,-0.7781442403793335
1763699239083927800,1.436927734375,-1.100355625152588,1.0656719207763672,-0.9621074199676514
1763699239093887700,1.4468876953125,-1.0655946731567383,1.2384772300720215,-1.0178269147872925
1763699239103848000,1.456847900390625,-1.0394868850708008,1.1783758401870728,-1.0336109399795532
1763699239113809000,1.466808837890625,-1.0321311950683594,1.079132080078125,-0.9675360321998596
1763699239123768800,1.476768798828125,-0.9836044311523438,1.0651347637176514,-0.862541675567627
1763699239133729000,1.48672900390625,-0.8985896706581116,1.0388336181640625,-0.7730059623718262
1763699239143690000,1.49668994140625,-0.8221505880355835,1.0220248699188232,-0.6971388459205627
1763699239153650000,1.50664990234375,-0.7546674013137817,0.9997277855873108,-0.617689311504364
1763699239163609900,1.51660986328125,-0.6709826588630676,1.0024287700653076,-0.5054829120635986
1763699239173570800,1.52657080078125,-0.5834037661552429,1.0472697019577026,-0.33586055040359497
1763699239183530800,1.53653076171875,-0.5139565467834473,1.0366154909133911,-0.16473542153835297
1763699239193491000,1.546490966796875,-0.46997949481010437,0.9366568922996521,-0.052856557071208954
1763699239203451000,1.556450927734375,-0.43894994258880615,0.8290886282920837,0.02539137750864029
1763699239213411800,1.566411865234375,-0.4039674401283264,0.7372332811355591,0.07986873388290405
1763699239223372000,1.5763720703125,-0.35283955931663513,0.7491951584815979,0.13902926445007324
1763699239233332000,1.58633203125,-0.2796023488044739,0.9071309566497803,0.20370465517044067
1763699239243293000,1.59629296875,-0.2148135006427765,1.1392982006072998,0.24424968659877777
1763699239253252900,1.6062529296875,-0.20589537918567657,1.4006352424621582,0.2818617820739746
1763699239263212800,1.616212890625,-0.2719508111476898,1.1812632083892822,0.21022993326187134
1763699239273173800,1.626173828125,-0.3686786890029907,0.7261888980865479,0.08649121224880219
1763699239283134000,1.636134033203125,-0.46091461181640625,0.5432150959968567,-0.047823715955019
1763699239293094000,1.646093994140625,-0.5156609416007996,0.74029141664505,-0.08430955559015274
1763699239303054800,1.656054931640625,-0.41032999753952026,1.056886911392212,-0.029100360348820686
1763699239313015000,1.66601513671875,-0.1650528758764267,1.3079071044921875,-0.02924097515642643
1763699239322975000,1.67597509765625,0.061818625777959824,1.5516446828842163,-0.08541769534349442
1763699239332936000,1.68593603515625,0.21040916442871094,1.7247403860092163,-0.17048650979995728
1763699239342895900,1.695895751953125,0.27532532811164856,2.081651210784912,-0.17613480985164642
1763699239352855800,1.705855712890625,0.3513825237751007,2.4872641563415527,-0.1261342316865921
1763699239362815700,1.715815673828125,0.4718801975250244,2.9268548488616943,-0.043107256293296814
1763699239372777000,1.72577685546875,0.5811265110969543,3.211819887161255,0.04457226023077965
1763699239382737000,1.73573681640625,0.6579890847206116,3.121039867401123,0.10384970158338547
1763699239392697000,1.745697021484375,0.6274721622467041,2.898805618286133,0.07659437507390976
1763699239402658300,1.755658203125,0.5238317847251892,2.68031907081604,-0.02869822457432747
1763699239412618200,1.7656181640625,0.3727533221244812,2.518693685531616,-0.12608949840068817
1763699239422578200,1.775578125,0.25749918818473816,2.329235792160034,-0.19849976897239685
1763699239432539100,1.7855390625,0.17102181911468506,1.9558804035186768,-0.23324710130691528
1763699239442499000,1.7954990234375,0.07693419605493546,1.4301263093948364,-0.20258240401744843
1763699239452459000,1.805458984375,0.02744174376130104,0.776245653629303,-0.08443126082420349
1763699239462420200,1.815420166015625,-0.023856597021222115,0.01720934733748436,0.04099110886454582
1763699239472380200,1.825380126953125,-0.04313255846500397,-0.5059137940406799,0.1063259094953537
1763699239482340000,1.835340087890625,0.019224826246500015,-0.5122606158256531,0.07393467426300049
1763699239492300300,1.84530029296875,0.09101273119449615,-0.3829534947872162,-0.009473662823438644
1763699239502261200,1.85526123046875,0.20460639894008636,-0.3807140588760376,-0.08599107712507248
1763699239512221200,1.86522119140625,0.320499986410141,-0.3522283434867859,-0.12226013094186783
1763699239522181400,1.875181396484375,0.3797324001789093,-0.23741495609283447,-0.10109865665435791
1763699239532142000,1.88514208984375,0.38263607025146484,-0.17198747396469116,-0.04134983569383621
1763699239542102000,1.89510205078125,0.30411380529403687,-0.09440852701663971,0.01937210001051426
1763699239552062200,1.905062255859375,0.20206335186958313,-0.15627668797969818,0.13151222467422485
1763699239562023200,1.915023193359375,0.12815611064434052,-0.18878962099552155,0.24334074556827545
1763699239571983000,1.924983154296875,-0.05441450700163841,-0.2510756254196167,0.35238999128341675
1763699239581943300,1.934943359375,-0.2594430148601532,-0.25748080015182495,0.4561329185962677
1763699239591904300,1.944904296875,-0.3713091015815735,-0.12352220714092255,0.5097737908363342
1763699239601864200,1.9548642578125,-0.4525216519832611,0.12899179756641388,0.5354623794555664
1763699239611824400,1.964824462890625,-0.6284306645393372,0.5497866868972778,0.4626789689064026
1763699239621784300,1.974784423828125,-0.9742580652236938,0.8790873885154724,0.32977578043937683
1763699239631745000,1.9847451171875,-0.8909536004066467,1.263095736503601,0.17949998378753662
1763699239641705200,1.994705322265625,-0.9406503438949585,1.503821849822998,-0.02250291220843792
1763699239651665200,2.0046650390625,-1.0594350099563599,1.3355627059936523,-0.3245985805988312
1763699239661626000,2.014626220703125,-1.1609458923339844,1.2181309461593628,-0.6304053664207458
1763699239671586300,2.02458642578125,-1.1916841268539429,1.3289128541946411,-0.8451283574104309
1763699239681546200,2.034546142578125,-1.199600338935852,1.4303516149520874,-0.9602312445640564
1763699239691507200,2.044507080078125,-1.1956138610839844,1.5955601930618286,-1.014204978942871
1763699239701467400,2.05446728515625,-1.2203155755996704,1.8422150611877441,-1.0485624074935913
1763699239711427300,2.06442724609375,-1.265275001525879,2.0400917530059814,-1.0918537378311157
1763699239721388000,2.074387939453125,-1.3128633499145508,2.144751787185669,-1.1674150228500366
1763699239731348200,2.08434814453125,-1.3552988767623901,1.9632847309112549,-1.302909255027771
1763699239741308200,2.09430810546875,-1.4302674531936646,1.6788127422332764,-1.52327299118042
1763699239751268000,2.10426806640625,-1.5131503343582153,1.3772883415222168,-1.7827259302139282
1763699239761229300,2.114229248046875,-1.4985647201538086,1.0500924587249756,-1.9616963863372803
1763699239771189200,2.124189208984375,-1.3935080766677856,0.8027121424674988,-2.0289149284362793
1763699239781149200,2.134149169921875,-1.1980712413787842,0.624633252620697,-2.032930374145508
1763699239791110400,2.1441103515625,-0.9981732964515686,0.5010170340538025,-1.9997814893722534
1763699239801070300,2.1540703125,-0.8042629361152649,0.5548906326293945,-1.9755723476409912
1763699239811030300,2.1640302734375,-0.6902106404304504,0.36854422092437744,-2.009430170059204
1763699239820991200,2.1739912109375,-0.6118732690811157,0.1122804656624794,-2.071056365966797
1763699239830951200,2.183951171875,-0.5215718150138855,-0.16884148120880127,-2.1182618141174316
1763699239840911000,2.1939111328125,-0.4637431502342224,-0.32935819029808044,-2.079211950302124
1763699239850871000,2.20387109375,-0.3912058472633362,-0.5452878475189209,-2.051325798034668
1763699239860832300,2.213832275390625,-0.25187885761260986,-0.8907021880149841,-2.049950361251831
1763699239870792200,2.223792236328125,-0.12191418558359146,-1.1633782386779785,-2.0352091789245605
1763699239880752000,2.233752197265625,-0.08144638687372208,-1.307547688484192,-1.9949241876602173
1763699239890713000,2.243713134765625,-0.15632222592830658,-1.3189641237258911,-1.9281033277511597
1763699239900673000,2.253673095703125,-0.21837307512760162,-1.3331067562103271,-1.8785948753356934
1763699239910633000,2.263633056640625,-0.2221079021692276,-1.2702759504318237,-1.8683675527572632
1763699239920594200,2.27359423828125,-0.216605544090271,-1.0707380771636963,-1.876381516456604
1763699239930554000,2.28355419921875,-0.2401691973209381,-0.9259943962097168,-1.8750510215759277
1763699239940514000,2.29351416015625,-0.2868328392505646,-0.7887201905250549,-1.8407111167907715
1763699239950475300,2.303475341796875,-0.3735429644584656,-0.6093807816505432,-1.8041430711746216
1763699239960435200,2.313435302734375,-0.5092065334320068,-0.518086850643158,-1.794482707977295
1763699239970395100,2.32339501953125,-0.6321849226951599,-0.42603838443756104,-1.8028119802474976
1763699239980355300,2.333355224609375,-0.71833336353302,-0.28742724657058716,-1.825495958328247
1763699239990316000,2.34331591796875,-0.7770155668258667,-0.14169268310070038,-1.8303450345993042
1763699240000276000,2.35327587890625,-0.7909039855003357,-0.03699663281440735,-1.8143311738967896
1763699240010236200,2.363236083984375,-0.7793104648590088,0.11661422997713089,-1.7794922590255737
1763699240020197000,2.373197021484375,-0.7466380000114441,0.2202034741640091,-1.7476094961166382
1763699240030157000,2.383156982421875,-0.6897227764129639,0.3579072654247284,-1.6671334505081177
1763699240040117200,2.3931171875,-0.5929751992225647,0.40575894713401794,-1.5687578916549683
1763699240050078200,2.403078125,-0.4673379063606262,0.42650550603866577,-1.484714388847351
1763699240060038100,2.4130380859375,-0.35664838552474976,0.44494497776031494,-1.4296975135803223
1763699240069998300,2.422998291015625,-0.29727721214294434,0.5083093047142029,-1.4111709594726562
1763699240079958300,2.432958251953125,-0.28347378969192505,0.5871441960334778,-1.4345836639404297
1763699240089919000,2.4429189453125,-0.3337007462978363,0.6947598457336426,-1.51121985912323
1763699240099879200,2.452879150390625,-0.42119675874710083,0.8321366310119629,-1.641411304473877
1763699240109839000,2.462839111328125,-0.5046218633651733,0.8391923904418945,-1.8014239072799683
1763699240119800000,2.472800048828125,-0.5456915497779846,0.946302592754364,-2.0088083744049072
1763699240129760300,2.48276025390625,-0.667681097984314,1.2064814567565918,-2.2617335319519043
1763699240139720200,2.49272021484375,-0.8743227124214172,1.359170913696289,-2.511291742324829
1763699240149681200,2.50268115234375,-0.9318874478340149,1.2686899900436401,-2.685225009918213
1763699240159641300,2.512641357421875,-0.8653649091720581,1.3371001482009888,-2.7459499835968018
1763699240169601300,2.522601318359375,-0.7279199361801147,1.4279965162277222,-2.6856343746185303
1763699240179562000,2.53256201171875,-0.4980156421661377,1.355467438697815,-2.5347745418548584
1763699240189522200,2.542522216796875,-0.20010405778884888,1.2110637426376343,-2.3157482147216797
1763699240199482000,2.552482177734375,0.11753009259700775,1.0951035022735596,-1.9669559001922607
1763699240209442000,2.562442138671875,0.41899245977401733,0.9249060153961182,-1.1276767253875732
1763699240219403300,2.5724033203125,0.5987148284912109,0.6966344714164734,0.10097907483577728
1763699240229363200,2.58236328125,0.7359099388122559,0.6630986332893372,1.0971301794052124
1763699240239323100,2.5923232421875,0.705935537815094,0.7219110727310181,1.3977539539337158
1763699240249284400,2.602284423828125,0.6990238428115845,0.8674647808074951,1.1258145570755005
1763699240259244300,2.612244384765625,0.7156451940536499,0.9840838313102722,0.5502764582633972
1763699240269204200,2.622204345703125,0.6971231698989868,1.0460339784622192,-0.06551775336265564
1763699240279165200,2.632165283203125,0.6492211222648621,1.0133007764816284,-0.553436279296875
1763699240289125000,2.642125,0.6148852705955505,0.9108519554138184,-0.8423618674278259
1763699240299085000,2.6520849609375,0.6258601546287537,0.7589526772499084,-0.9818776845932007
1763699240309045200,2.662045166015625,0.6978707313537598,0.5295578837394714,-1.0222911834716797
1763699240319006200,2.672006103515625,0.8053497672080994,0.2707843482494354,-1.0225616693496704
1763699240328966100,2.681966064453125,0.92940753698349,0.04476454108953476,-1.0097486972808838
1763699240338926300,2.69192626953125,1.0524524450302124,-0.047619715332984924,-1.0490583181381226
1763699240348887300,2.70188720703125,1.1273999214172363,-0.04237408936023712,-1.1717690229415894
1763699240358847200,2.71184716796875,1.1323984861373901,0.0907493457198143,-1.3787435293197632
1763699240368807400,2.721807373046875,1.0930774211883545,0.34656113386154175,-1.6570137739181519
1763699240378768100,2.73176806640625,1.0109364986419678,0.632936418056488,-1.9585144519805908
1763699240388728000,2.74172802734375,0.8947994709014893,0.8163099884986877,-2.1835062503814697
1763699240398688000,2.75168798828125,0.7851238250732422,0.8180413246154785,-2.23681378364563
1763699240408648200,2.761648193359375,0.7169767618179321,0.6567179560661316,-2.1504647731781006
1763699240418609200,2.771609130859375,0.6923813819885254,0.41708219051361084,-1.992489218711853
1763699240428569000,2.781569091796875,0.7411425709724426,0.16299425065517426,-1.7980468273162842
1763699240438529300,2.791529296875,0.8597938418388367,0.0387713648378849,-1.719032883644104
1763699240448490200,2.801490234375,0.9735925793647766,-0.06790048629045486,-1.6793129444122314
1763699240458450200,2.8114501953125,1.0477994680404663,-0.12445111572742462,-1.6646658182144165
1763699240468410400,2.821410400390625,1.0910065174102783,-0.1526864767074585,-1.6344695091247559
1763699240478371000,2.83137109375,1.096856713294983,-0.15576322376728058,-1.6365854740142822
1763699240488331000,2.8413310546875,1.0518453121185303,-0.21825270354747772,-1.572940707206726
1763699240498291200,2.851291259765625,0.9975144267082214,-0.21867269277572632,-1.4943490028381348
1763699240508251100,2.861251220703125,0.9519277215003967,-0.11214517802000046,-1.4714303016662598
1763699240518212000,2.871212158203125,0.8781030774116516,-0.025831330567598343,-1.442866325378418
1763699240528172300,2.88117236328125,0.8485273122787476,0.03592630848288536,-1.3660330772399902
1763699240538132200,2.89113232421875,0.8393793702125549,0.13492745161056519,-1.3438105583190918
1763699240548093200,2.90109326171875,0.8498533368110657,0.12309662997722626,-1.2737390995025635
1763699240558053400,2.911053466796875,0.8896728754043579,0.025167139247059822,-1.1587128639221191
1763699240568013300,2.921013427734375,0.9276232123374939,-0.10041874647140503,-1.0382423400878906
1763699240577974000,2.93097412109375,0.9921146035194397,-0.1456621289253235,-0.9668198823928833
1763699240587934200,2.940934326171875,1.0497422218322754,-0.18473894894123077,-0.9527112245559692
1763699240597894100,2.95089404296875,1.0489182472229004,-0.2606222629547119,-0.9016019701957703
1763699240607854000,2.96085400390625,1.0471861362457275,-0.20509003102779388,-0.9428381323814392
1763699240617815300,2.970815185546875,1.024075984954834,-0.31677234172821045,-0.9214457273483276
1763699240627775200,2.980775146484375,1.0979409217834473,-0.2566147446632385,-0.972811222076416
1763699240637735200,2.990735107421875,1.1920974254608154,-0.08238781988620758,-1.121439814567566
1763699240647696400,3.0006962890625,1.2255531549453735,-0.1889858990907669,-1.1788640022277832
1763699240657656300,3.01065625,1.3083295822143555,-0.17532707750797272,-1.2604725360870361
1763699240667616300,3.0206162109375,1.352005958557129,-0.024594025686383247,-1.354178786277771
1763699240677577200,3.0305771484375,1.341871738433838,-0.13127146661281586,-1.3541353940963745
1763699240687537200,3.040537109375,1.3231244087219238,-0.2131466269493103,-1.2597500085830688
1763699240697497000,3.0504970703125,1.2810633182525635,-0.20636169612407684,-1.1038669347763062
1763699240707457000,3.06045703125,1.17874276638031,-0.15846741199493408,-0.9076929092407227
1763699240717418200,3.070418212890625,1.011455774307251,-0.16789819300174713,-0.7007141709327698
1763699240727378200,3.080378173828125,0.7904925346374512,-0.23965813219547272,-0.5025472640991211
1763699240737338000,3.090338134765625,0.5203813910484314,-0.3734031319618225,-0.3005017638206482
1763699240747299000,3.100299072265625,0.18565614521503448,-0.6183838844299316,-0.10055164247751236
1763699240757259000,3.110259033203125,-0.39084285497665405,-1.0513358116149902,0.11683793365955353
1763699240767219000,3.120218994140625,-1.0913090705871582,-1.4719072580337524,0.6803463101387024
1763699240777180200,3.13018017578125,-1.1129100322723389,-1.915152668952942,0.8210445642471313
1763699240787140000,3.14014013671875,-1.378613829612732,-2.373906135559082,0.5395700335502625
1763699240797100000,3.15010009765625,-1.3040910959243774,-2.4261255264282227,0.5829465389251709
1763699240807060200,3.160060302734375,-1.1964669227600098,-2.2353503704071045,0.9637250304222107
1763699240817021200,3.170021240234375,-1.310099482536316,-1.9790115356445312,1.1423519849777222
1763699240826981000,3.179981201171875,-1.3279786109924316,-1.5012481212615967,1.065932035446167
1763699240836941300,3.18994140625,-1.3400371074676514,-0.903923749923706,0.7291362285614014
1763699240846902000,3.199902099609375,-1.5312271118164062,-0.37136051058769226,0.396263986825943
1763699240856862000,3.209862060546875,-2.024677276611328,0.12969620525836945,0.2895444631576538
1763699240866822100,3.219822265625,-2.7038798332214355,0.5130185484886169,0.3391655385494232
1763699240876783000,3.229783203125,-3.3221373558044434,0.720496654510498,0.377774715423584
1763699240886743000,3.239742919921875,-3.510883331298828,0.7467479705810547,0.38335564732551575
1763699240896703200,3.249703125,-3.192042112350464,0.6437592506408691,0.41681480407714844
1763699240906663200,3.2596630859375,-2.728986978530884,0.49875974655151367,0.4684351086616516
1763699240916624100,3.2696240234375,-2.396827220916748,0.44086819887161255,0.4987852871417999
1763699240926584300,3.279584228515625,-2.1495258808135986,0.46330347657203674,0.4123114049434662
1763699240936544300,3.289544189453125,-2.159268379211426,0.5618487000465393,0.2485714703798294
1763699240946505000,3.2995048828125,-2.383366823196411,0.5942971706390381,0.08364669233560562
1763699240956465200,3.309465087890625,-2.741213321685791,0.4037725031375885,-0.11449382454156876
1763699240966425000,3.319425048828125,-2.880113124847412,-0.32221531867980957,-0.33770987391471863
1763699240976386000,3.329385986328125,-2.718562602996826,-1.18589448928833,-0.6617388129234314
1763699240986346200,3.33934619140625,-2.3969664573669434,-1.605398178100586,-0.8678227066993713
1763699240996306200,3.34930615234375,-2.185330390930176,-1.7530633211135864,-0.8850467205047607
1763699241006266000,3.35926611328125,-2.128702163696289,-1.6693745851516724,-0.8206448554992676
1763699241016227300,3.369227294921875,-2.0976502895355225,-1.369886875152588,-0.6280415654182434
1763699241026187300,3.379187255859375,-2.044161796569824,-0.8550765514373779,-0.35751286149024963
1763699241036147200,3.389147216796875,-2.2272002696990967,-0.23135891556739807,-0.1114458367228508
1763699241046108200,3.399108154296875,-2.4417057037353516,0.24649393558502197,0.09867224842309952
1763699241056068000,3.409068115234375,-2.711777687072754,0.6913022994995117,0.2840554118156433
1763699241066028000,3.419028076171875,-2.9087204933166504,0.9099635481834412,0.45904508233070374
1763699241075989200,3.4289892578125,-3.0868239402770996,0.8972301483154297,0.6007359027862549
1763699241085949200,3.43894921875,-3.227137327194214,0.978422999382019,0.7562724947929382
1763699241095909000,3.4489091796875,-3.3032991886138916,1.0867282152175903,0.8665260076522827
1763699241105869000,3.458869140625,-3.258254289627075,0.9546343088150024,0.9927819967269897
1763699241115830300,3.468830322265625,-3.107281446456909,0.5268219709396362,1.0015137195587158
1763699241125790200,3.478790283203125,-2.8786869049072266,0.08736180514097214,0.843484103679657
1763699241135750100,3.488750244140625,-2.346234083175659,-0.25877615809440613,0.49070659279823303
1763699241145711000,3.498711181640625,-1.7370822429656982,-1.3184596300125122,0.13173352181911469
1763699241155671000,3.508671142578125,-1.2200028896331787,-2.0664255619049072,0.007198257837444544
1763699241165631000,3.518630859375,-0.6920229196548462,-2.626148223876953,-0.009893643669784069
1763699241175592200,3.52859228515625,-0.06349269300699234,-2.6170194149017334,-0.2202913612127304
1763699241185552100,3.53855224609375,0.44292524456977844,-1.2860304117202759,-0.8401104211807251
1763699241195512000,3.548511962890625,0.6520190834999084,-0.45065799355506897,-1.2985581159591675
1763699241205472300,3.55847216796875,0.5970575213432312,0.36428287625312805,-1.4263077974319458
1763699241215433200,3.56843310546875,0.320652574300766,0.9334853887557983,-1.314670205116272
1763699241225393200,3.57839306640625,-0.08692637830972672,1.3135170936584473,-1.0706549882888794
1763699241235353300,3.588353271484375,-0.4146677553653717,1.5671560764312744,-0.8030511736869812
1763699241245314000,3.59831396484375,-0.5977704524993896,1.7125955820083618,-0.5349614024162292
1763699241255274000,3.60827392578125,-0.7861728668212891,1.3409042358398438,-0.34509241580963135
1763699241265234200,3.618234130859375,-0.8913501501083374,0.7422109842300415,-0.23274216055870056
1763699241275194000,3.628194091796875,-0.7944456934928894,0.046186402440071106,-0.1511189490556717
1763699241285155000,3.638155029296875,-0.6472890377044678,-0.4492965638637543,-0.10671499371528625
1763699241295115300,3.648115234375,-0.6334661245346069,-0.9291590452194214,-0.06527168303728104
1763699241305075200,3.6580751953125,-0.9578050971031189,-1.3819224834442139,0.08100270479917526
1763699241315036200,3.6680361328125,-1.2815879583358765,-1.1728838682174683,0.29527291655540466
1763699241324996400,3.677996337890625,-1.4969903230667114,-0.7673664093017578,0.39143672585487366
1763699241334956300,3.687956298828125,-1.6273605823516846,-0.5039832592010498,0.28755080699920654
1763699241344917000,3.6979169921875,-1.6127400398254395,-0.10904419422149658,0.13414795696735382
1763699241354877200,3.707877197265625,-1.4948618412017822,0.31419920921325684,0.048224519938230515
1763699241364837000,3.717837158203125,-1.3721513748168945,0.44964972138404846,0.004466653801500797
1763699241374797000,3.727797119140625,-1.2559611797332764,0.34658297896385193,-0.03062262386083603
1763699241384758300,3.73775830078125,-1.1198933124542236,0.16286322474479675,-0.08946037292480469
1763699241394718200,3.74771826171875,-1.0850162506103516,-0.02930915355682373,-0.1899033635854721
1763699241404678100,3.75767822265625,-1.0434318780899048,-0.19609200954437256,-0.25780144333839417
1763699241414639400,3.767639404296875,-0.9584879279136658,-0.22178752720355988,-0.22078244388103485
1763699241424599300,3.777599365234375,-0.7870354652404785,-0.15505295991897583,-0.08777805417776108
1763699241434559200,3.787559326171875,-0.5810679197311401,-0.1921076625585556,0.021822741255164146
1763699241444520200,3.797520263671875,-0.3437342047691345,-0.27425524592399597,0.06804163753986359
1763699241454480100,3.807480224609375,-0.11777830123901367,-0.23170486092567444,0.06746000051498413
1763699241464440000,3.817440185546875,-0.001612011343240738,-0.23220926523208618,-0.04445934295654297
1763699241474400000,3.82739990234375,0.04927434027194977,-0.20965655148029327,-0.16454952955245972
1763699241484361200,3.837361328125,0.1015508621931076,-0.13541215658187866,-0.19095024466514587
1763699241494321200,3.847321044921875,0.17450442910194397,-0.12003319710493088,-0.17812925577163696
1763699241504281000,3.857281005859375,0.0778212919831276,-0.31055840849876404,0.10076256096363068
1763699241514242000,3.867241943359375,-0.14652445912361145,-0.32225847244262695,0.3832390010356903
1763699241524202000,3.877201904296875,-0.2431788295507431,0.04320499300956726,0.21846522390842438
1763699241534162000,3.887161865234375,-0.28606265783309937,0.14918415248394012,0.1955290138721466
1763699241544122000,3.8971220703125,-0.3508163392543793,-0.05121951177716255,0.2666657865047455
1763699241554083000,3.9070830078125,-0.587506115436554,-0.0826709121465683,0.22696790099143982
1763699241564043000,3.91704296875,-1.250097632408142,-0.17685893177986145,0.39788612723350525
1763699241574003200,3.927003173828125,-1.2671935558319092,-0.37028831243515015,0.33164477348327637
1763699241583964200,3.936964111328125,-1.2762371301651,-0.34814706444740295,-0.027117105200886726
1763699241593924000,3.946924072265625,-1.4328075647354126,-0.272304505109787,-0.10234474390745163
1763699241603884300,3.95688427734375,-1.3917986154556274,-0.2566469609737396,-0.07854939997196198
1763699241613845000,3.966844970703125,-1.3297024965286255,-0.23500452935695648,0.17602749168872833
1763699241623805000,3.976804931640625,-1.3170289993286133,-0.17088279128074646,0.30539000034332275
1763699241633765000,3.98676513671875,-1.1756319999694824,-0.11841079592704773,0.31536832451820374
1763699241643725000,3.99672509765625,-1.1978802680969238,0.030759243294596672,0.34290170669555664
1763699241653686000,4.00668603515625,-1.3009350299835205,0.2841733992099762,0.3114689290523529
1763699241663646200,4.016646240234375,-1.4932844638824463,0.5455567836761475,0.3816882371902466
1763699241673606100,4.026606201171875,-1.4475619792938232,0.6418948173522949,0.4625311493873596
1763699241683567000,4.036567138671875,-1.5699737071990967,0.6093424558639526,0.5588861703872681
1763699241693527300,4.04652734375,-1.8737643957138062,0.46238040924072266,0.3459824323654175
1763699241703487200,4.0564873046875,-1.8945578336715698,0.5044205784797668,0.08728643506765366
1763699241713447200,4.066447265625,-1.936161756515503,0.6369138956069946,0.07233971357345581
1763699241723408100,4.076408203125,-1.9974757432937622,0.654680073261261,0.1348627358675003
1763699241733368000,4.0863681640625,-2.1922173500061035,0.5554853081703186,0.1728721708059311
1763699241743328000,4.096327880859375,-2.208380699157715,0.45951804518699646,0.2840335965156555
1763699241753289200,4.106289306640625,-2.4577817916870117,0.6015399098396301,0.9722258448600769
1763699241763249200,4.116249267578125,-2.562865972518921,0.9364798069000244,1.3508175611495972
1763699241773209000,4.126208984375,-1.9387564659118652,1.1088571548461914,1.1423176527023315
1763699241783170300,4.13617041015625,-1.056058645248413,0.8092103004455566,0.8864176869392395
1763699241793130200,4.146130126953125,0.25331827998161316,0.0805843248963356,0.35425102710723877
1763699241803090200,4.156090087890625,0.14981931447982788,-0.7661797404289246,-0.15514697134494781
1763699241813050400,4.16605029296875,-0.5388568043708801,-1.3350964784622192,-0.4981519877910614
1763699241823011000,4.176010986328125,-1.259432077407837,-1.7576953172683716,-0.6081682443618774
1763699241832971000,4.185970947265625,-1.5739606618881226,-1.539114236831665,-0.5073782801628113
1763699241842931200,4.19593115234375,-1.3058764934539795,-1.4385077953338623,-0.43828094005584717
1763699241852892200,4.20589208984375,-1.0361896753311157,-1.1613107919692993,-0.1387924998998642
1763699241862852000,4.21585205078125,-0.6062206625938416,-0.8303555250167847,0.15112054347991943
1763699241872812300,4.225812255859375,-0.3977055549621582,-0.4757976830005646,0.5510863065719604
1763699241882772200,4.235772216796875,0.09143031388521194,-1.0929673910140991,0.8816964626312256
1763699241892733200,4.245733154296875,0.2699185609817505,-0.4123039245605469,0.6945990324020386
1763699241902693400,4.255693359375,0.4382484555244446,0.43136683106422424,0.6250172853469849
1763699241912653300,4.2656533203125,0.659685492515564,0.8390326499938965,0.6029077172279358
1763699241922614000,4.275614013671875,0.7745580077171326,0.9488155841827393,0.6006128787994385
1763699241932574200,4.28557421875,0.7403830289840698,0.9371746182441711,0.597149670124054
1763699241942534100,4.2955341796875,0.5788614749908447,0.9121267795562744,0.6465465426445007
1763699241952494000,4.305494140625,0.2667427361011505,0.9424719214439392,0.7779428958892822
1763699241962455300,4.315455322265625,0.09187426418066025,0.903400719165802,0.9500094652175903
1763699241972415200,4.325415283203125,-0.02485448308289051,0.8069564700126648,1.1037521362304688
1763699241982375200,4.335375244140625,-0.13235138356685638,0.688736081123352,1.219476580619812
1763699241992336400,4.34533642578125,-0.22969284653663635,0.5562288761138916,1.293046474456787
1763699242002296300,4.35529638671875,-0.3191569447517395,0.500985860824585,1.346182942390442
1763699242012256300,4.36525634765625,-0.38650643825531006,0.5607200264930725,1.415586233139038
1763699242022217200,4.37521728515625,-0.3954695761203766,0.693759024143219,1.501313328742981
1763699242032177200,4.38517724609375,-0.3184458911418915,0.7759116888046265,1.552101969718933
1763699242042137000,4.39513720703125,-0.23210807144641876,0.8379846811294556,1.488739013671875
1763699242052097000,4.405096923828125,-0.15101854503154755,0.9766908884048462,1.332740068435669
1763699242062058200,4.415058349609375,-0.05509920418262482,1.1160727739334106,1.1412273645401
1763699242072018200,4.42501806640625,0.025019332766532898,1.0565457344055176,0.9424828290939331
1763699242081978000,4.43497802734375,-0.001038366463035345,0.6293502449989319,0.806047260761261
1763699242091939300,4.444939208984375,-0.2050468921661377,-0.03841050714254379,0.7351506948471069
1763699242101899300,4.454899169921875,-0.5440212488174438,-0.597520112991333,0.6998494267463684
1763699242111859200,4.464859130859375,-0.863065242767334,-0.7757964134216309,0.6594389081001282
1763699242121819100,4.474819091796875,-1.0492351055145264,-0.6516880393028259,0.5934534668922424
1763699242131780000,4.484780029296875,-1.0706921815872192,-0.34276533126831055,0.49266722798347473
1763699242141740000,4.494739990234375,-0.9614163041114807,0.031265512108802795,0.3403109610080719
1763699242151700200,4.5047001953125,-0.7665451169013977,0.37244918942451477,0.14189881086349487
1763699242161661200,4.5146611328125,-0.5387396216392517,0.6314395070075989,-0.07139401882886887
1763699242171621000,4.52462109375,-0.3225748538970947,0.7470284104347229,-0.23549827933311462
1763699242181581300,4.534581298828125,-0.1666925847530365,0.7256879806518555,-0.3153984248638153
1763699242191542300,4.544542236328125,-0.07014020532369614,0.6525277495384216,-0.35224539041519165
1763699242201502200,4.554502197265625,-0.024117587134242058,0.5779173970222473,-0.4004131853580475
1763699242211462100,4.564462158203125,-0.03710928559303284,0.4996662735939026,-0.4727979004383087
1763699242221422000,4.574422119140625,-0.08380142599344254,0.4117811620235443,-0.5422696471214294
1763699242231383000,4.584383056640625,-0.14422854781150818,0.31420186161994934,-0.5951922535896301
1763699242241343200,4.59434326171875,-0.21126005053520203,0.19669309258460999,-0.618287980556488
1763699242251303200,4.60430322265625,-0.27630776166915894,0.09795133024454117,-0.6244561672210693
1763699242261264100,4.61426416015625,-0.34999874234199524,0.047812797129154205,-0.6136764883995056
1763699242271224300,4.624224365234375,-0.4309564530849457,0.0485592782497406,-0.5899208188056946
1763699242281184300,4.634184326171875,-0.508901834487915,0.08453166484832764,-0.5625115633010864
1763699242291144200,4.644144287109375,-0.5738683342933655,0.12215413898229599,-0.5491467714309692
1763699242301105200,4.654105224609375,-0.6155052781105042,0.1691030114889145,-0.5486740469932556
1763699242311065000,4.664065185546875,-0.6314964890480042,0.2466300129890442,-0.5551934242248535
1763699242321025000,4.67402490234375,-0.6259584426879883,0.3544454276561737,-0.55298912525177
1763699242330986200,4.683986328125,-0.5924830436706543,0.4738011360168457,-0.536391019821167
1763699242340946200,4.6939462890625,-0.536243200302124,0.5978562235832214,-0.5156870484352112
1763699242350906000,4.703906005859375,-0.46911928057670593,0.7253667712211609,-0.5069859623908997
1763699242360867300,4.713867431640625,-0.396931916475296,0.8527103662490845,-0.5082864165306091
1763699242370827300,4.7238271484375,-0.3244939148426056,0.9718543291091919,-0.49711763858795166
1763699242380787200,4.733787109375,-0.23723438382148743,1.0302635431289673,-0.48317810893058777
1763699242390747100,4.7437470703125,-0.1485053151845932,1.0213356018066406,-0.4744008779525757
1763699242400708000,4.7537080078125,-0.11750639230012894,0.9358938932418823,-0.4394727051258087
1763699242410668000,4.76366796875,-0.1331026554107666,0.7291979789733887,-0.32703936100006104
1763699242420628200,4.773628173828125,-0.10499405860900879,0.4652259945869446,-0.08022719621658325
1763699242430589200,4.783589111328125,0.007656055502593517,0.2486598789691925,0.2823845446109772
1763699242440549000,4.793549072265625,0.18946473300457,0.2487722635269165,0.6522496938705444
1763699242450509300,4.80350927734375,0.38108742237091064,0.3957231044769287,0.8681849241256714
1763699242460469200,4.81346923828125,0.5301437377929688,0.5626398921012878,0.7948084473609924
1763699242470430200,4.82343017578125,0.5877359509468079,0.7640979290008545,0.33689066767692566
1763699242480390400,4.833390380859375,0.5545979738235474,0.8814724683761597,-0.3219476640224457
1763699242490350300,4.843350341796875,0.5084754824638367,0.6750484704971313,-0.8309973478317261
1763699242500311000,4.85331103515625,0.426037073135376,0.28595930337905884,-0.9634315371513367
1763699242510271200,4.863271240234375,0.3079620897769928,0.14709171652793884,-0.753523588180542
1763699242520231200,4.873231201171875,0.26218873262405396,0.3078334629535675,-0.47058162093162537
1763699242530191000,4.883191162109375,0.2397438883781433,0.42036452889442444,-0.4104090929031372
1763699242540152300,4.89315234375,0.18849241733551025,0.48955079913139343,-0.5780713558197021
1763699242550112300,4.9031123046875,0.13495568931102753,0.5721982717514038,-0.779159426689148
1763699242560072200,4.913072265625,0.11576734483242035,0.6560625433921814,-0.8513723611831665
1763699242570033400,4.923033447265625,0.14908935129642487,0.8072296977043152,-0.7726240158081055
1763699242579993300,4.932993408203125,0.2118544578552246,0.9753020405769348,-0.6374046802520752
1763699242589953300,4.942953369140625,0.281461238861084,1.0575844049453735,-0.5597231984138489
1763699242599913200,4.952913330078125,0.3576715886592865,1.0807688236236572,-0.551572859287262
1763699242609874200,4.962874267578125,0.42230677604675293,1.0942867994308472,-0.5818575620651245
1763699242619834000,4.972834228515625,0.4822790324687958,1.105523705482483,-0.6327409744262695
1763699242629794000,4.9827939453125,0.5230565667152405,1.1181098222732544,-0.6835828423500061
1763699242639755300,4.99275537109375,0.5236003398895264,1.1833924055099487,-0.7108464241027832
1763699242649715200,5.002715087890625,0.48332566022872925,1.3336708545684814,-0.715948760509491
1763699242659675100,5.012675048828125,0.42331662774086,1.5199291706085205,-0.7031200528144836
1763699242669635300,5.02263525390625,0.3704640865325928,1.691239356994629,-0.695090651512146
1763699242679596300,5.03259619140625,0.33322402834892273,1.8310396671295166,-0.7020395994186401
1763699242689556200,5.04255615234375,0.3052675127983093,1.9449461698532104,-0.7255598306655884
1763699242699516400,5.052516357421875,0.2727265954017639,2.039328098297119,-0.7429425716400146
1763699242709477000,5.06247705078125,0.24272769689559937,2.087888240814209,-0.7730727791786194
1763699242719437000,5.07243701171875,0.21911397576332092,2.104848623275757,-0.8151094317436218
1763699242729397200,5.082397216796875,0.21030743420124054,2.104203701019287,-0.8632324934005737
1763699242739357200,5.092357177734375,0.210142582654953,2.0714073181152344,-0.9159740209579468
1763699242749318100,5.102318115234375,0.2118118554353714,2.0163683891296387,-0.9592770338058472
1763699242759278300,5.1122783203125,0.20756463706493378,1.9560792446136475,-0.9971133470535278
1763699242769238300,5.12223828125,0.20313261449337006,1.8911654949188232,-1.0237619876861572
1763699242779199200,5.13219921875,0.19268183410167694,1.8342643976211548,-1.0457628965377808
1763699242789159400,5.142159423828125,0.17460110783576965,1.7860924005508423,-1.0703593492507935
1763699242799119400,5.152119384765625,0.14914287626743317,1.729255199432373,-1.0989891290664673
1763699242809080000,5.162080078125,0.11349061131477356,1.6712273359298706,-1.1205170154571533
1763699242819040300,5.172040283203125,0.07676775008440018,1.6352664232254028,-1.1286119222640991
1763699242829000200,5.182000244140625,0.035304196178913116,1.6062812805175781,-1.1232951879501343
1763699242838960000,5.191960205078125,-0.019086075946688652,1.607161521911621,-1.10820734500885
1763699242848921300,5.20192138671875,-0.07572512328624725,1.6378512382507324,-1.0873275995254517
1763699242858881300,5.21188134765625,-0.12431209534406662,1.6640032529830933,-1.0849180221557617
1763699242868841200,5.22184130859375,-0.16112470626831055,1.6757360696792603,-1.0926462411880493
1763699242878802200,5.23180224609375,-0.18291176855564117,1.6662077903747559,-1.1032423973083496
1763699242888762000,5.24176220703125,-0.20332568883895874,1.6900981664657593,-1.0862722396850586
1763699242898722000,5.25172216796875,-0.2283860296010971,1.7038036584854126,-1.0476717948913574
1763699242908682000,5.261681884765625,-0.24239932000637054,1.663215160369873,-1.0092562437057495
1763699242918643200,5.271643310546875,-0.2398834377527237,1.5996553897857666,-0.9793087840080261
1763699242928603100,5.28160302734375,-0.2263101041316986,1.5410277843475342,-0.9596815705299377
1763699242938563000,5.29156298828125,-0.21232104301452637,1.5161099433898926,-0.9291614294052124
1763699242948524300,5.301524169921875,-0.2020665407180786,1.5026332139968872,-0.8820797204971313
1763699242958484200,5.311484130859375,-0.18794727325439453,1.478895664215088,-0.826072096824646
1763699242968444200,5.321444091796875,-0.16758233308792114,1.4561944007873535,-0.7631431818008423
1763699242978404400,5.331404296875,-0.1438210904598236,1.468804121017456,-0.7059651017189026
1763699242988365000,5.341364990234375,-0.1079871878027916,1.4686307907104492,-0.6536592841148376
1763699242998325000,5.351324951171875,-0.054610248655080795,1.4323759078979492,-0.6128434538841248
1763699243008285200,5.36128515625,-0.008082959800958633,1.3551026582717896,-0.5899295806884766
1763699243018246100,5.37124609375,0.021471736952662468,1.3054066896438599,-0.5629206299781799
1763699243028206000,5.3812060546875,0.02959384396672249,1.3210724592208862,-0.5187792778015137
1763699243038166300,5.391166259765625,0.02828170545399189,1.3398702144622803,-0.4595643877983093
1763699243048126200,5.401126220703125,0.012882242910563946,1.347905158996582,-0.39350736141204834
1763699243058087200,5.411087158203125,-0.023250993341207504,1.321824550628662,-0.3390648663043976
1763699243068047400,5.42104736328125,-0.07308033853769302,1.2785385847091675,-0.2898336946964264
1763699243078007300,5.43100732421875,-0.12591691315174103,1.2233730554580688,-0.24374501407146454
1763699243087968000,5.440968017578125,-0.17605997622013092,1.1545029878616333,-0.2103005051612854
1763699243097928200,5.45092822265625,-0.211338073015213,1.0805467367172241,-0.19931016862392426
1763699243107888000,5.46088818359375,-0.21736374497413635,1.0225545167922974,-0.22421951591968536
1763699243117848000,5.47084814453125,-0.2025619000196457,0.9722439646720886,-0.27305150032043457
1763699243127809300,5.480809326171875,-0.173529714345932,0.9349597096443176,-0.3289019763469696
1763699243137769200,5.490769287109375,-0.1469534933567047,0.910950779914856,-0.37439438700675964
1763699243147729200,5.500729248046875,-0.12251712381839752,0.8984530568122864,-0.41184961795806885
1763699243157690400,5.5106904296875,-0.10966923832893372,0.8726617097854614,-0.4427467882633209
1763699243167650300,5.520650390625,-0.11338567733764648,0.8617954850196838,-0.4600594639778137
1763699243177610200,5.5306103515625,-0.1485162377357483,0.86073899269104,-0.46787959337234497
1763699243187570200,5.540570068359375,-0.1932845115661621,0.8588412404060364,-0.4578211009502411
1763699243197531100,5.55053125,-0.24681058526039124,0.8505739569664001,-0.43124595284461975
1763699243207491000,5.560490966796875,-0.29904210567474365,0.832796573638916,-0.3937864601612091
1763699243217451000,5.570450927734375,-0.3403509259223938,0.797170102596283,-0.3508962392807007
1763699243227412200,5.580412109375,-0.3710792660713196,0.757484495639801,-0.303796648979187
1763699243237372200,5.5903720703125,-0.3779555559158325,0.7300371527671814,-0.24344994127750397
1763699243247332000,5.60033203125,-0.37650707364082336,0.7121449708938599,-0.18264465034008026
1763699243257292300,5.610292236328125,-0.36225250363349915,0.6962722539901733,-0.12803572416305542
1763699243267253200,5.620253173828125,-0.3339180648326874,0.6803708076477051,-0.07113516330718994
1763699243277213200,5.630213134765625,-0.28008970618247986,0.6769697070121765,-0.0007669904152862728
1763699243287173400,5.64017333984375,-0.19428639113903046,0.6549554467201233,0.0608508326113224
1763699243297134000,5.650134033203125,-0.10482548177242279,0.5942681431770325,0.1029796451330185
1763699243307094000,5.660093994140625,-0.033674873411655426,0.49156972765922546,0.1526758223772049
1763699243317054200,5.67005419921875,0.009093896485865116,0.3342197835445404,0.23024332523345947
1763699243327014100,5.68001416015625,0.02431652508676052,0.15224438905715942,0.3370440602302551
1763699243336975000,5.68997509765625,0.02558285742998123,0.0211859792470932,0.4578455984592438
1763699243346935300,5.699935302734375,0.02714506722986698,-0.03284023702144623,0.5890608429908752
1763699243356895200,5.709895263671875,0.046064697206020355,-0.04968739673495293,0.7410330772399902
1763699243366856200,5.719856201171875,0.06592442095279694,-0.06598913669586182,0.9151065945625305
1763699243376816400,5.72981640625,0.07993344962596893,-0.10226192325353622,1.1349157094955444
1763699243386776300,5.7397763671875,0.09231341630220413,-0.1201905906200409,1.4303566217422485
1763699243396736300,5.749736328125,0.11662541329860687,-0.09239544719457626,1.7621779441833496
1763699243406697000,5.759697021484375,0.17948053777217865,-0.039739422500133514,2.0330467224121094
1763699243416657000,5.769656982421875,0.27771976590156555,0.08834850788116455,2.301922559738159
1763699243426617000,5.7796171875,0.3661265969276428,0.26389262080192566,2.6065704822540283
1763699243436578000,5.789578125,0.41497403383255005,0.40838295221328735,2.9591119289398193
1763699243446538000,5.7995380859375,0.44152387976646423,0.44631463289260864,3.2824671268463135
1763699243456498200,5.809498291015625,0.4865856170654297,0.3835151791572571,3.475766658782959
1763699243466458000,5.8194580078125,0.5379385352134705,0.3644421398639679,3.4583003520965576
1763699243476419000,5.829419189453125,0.5314545631408691,0.6314905881881714,3.253469467163086
1763699243486379300,5.839379150390625,0.42993566393852234,1.0945395231246948,2.919950485229492
1763699243496339200,5.849339111328125,0.2598739266395569,1.3616172075271606,2.5464112758636475
1763699243506300000,5.8592998046875,0.06448924541473389,1.395786166191101,2.213874578475952
1763699243516260000,5.869260009765625,-0.08400329202413559,1.250766396522522,1.9842097759246826
1763699243526220000,5.879219970703125,-0.1420290470123291,0.9780717492103577,1.9261763095855713
1763699243536180000,5.889179931640625,-0.17320320010185242,0.6778836846351624,2.001615285873413
1763699243546141200,5.89914111328125,-0.18140867352485657,0.45561864972114563,2.099921703338623
1763699243556101000,5.90910107421875,-0.15799789130687714,0.3175753057003021,2.1084742546081543
1763699243566061000,5.91906103515625,-0.11236755549907684,0.29902878403663635,2.0124993324279785
1763699243576021200,5.929021240234375,-0.041073136031627655,0.36050891876220703,1.8715566396713257
1763699243585982200,5.938982177734375,0.03621073439717293,0.3946352005004883,1.7178555727005005
1763699243595942100,5.948942138671875,0.10552483052015305,0.38143789768218994,1.5741820335388184
1763699243605902000,5.958902099609375,0.1619308441877365,0.3787241280078888,1.4620869159698486
1763699243615863000,5.968863037109375,0.16719165444374084,0.43579062819480896,1.3959262371063232
1763699243625823000,5.978822998046875,0.12334749847650528,0.5447967052459717,1.3439762592315674
1763699243635783200,5.988783203125,0.060023121535778046,0.6271438002586365,1.2238223552703857
1763699243645744000,5.998744140625,0.008460862562060356,0.7115891575813293,1.0467581748962402
1763699243655704000,6.0087041015625,-0.020807277411222458,0.793429434299469,0.8684922456741333
1763699243665664300,6.018664306640625,-0.06087267026305199,0.8385764360427856,0.7156060338020325
1763699243675624200,6.028624267578125,-0.11892399191856384,0.8834379315376282,0.5961765646934509
1763699243685585000,6.0385849609375,-0.21378818154335022,0.9006451368331909,0.5035624504089355
1763699243695545000,6.048545166015625,-0.3099360167980194,0.8317342400550842,0.40868711471557617
1763699243705505000,6.058505126953125,-0.3643007278442383,0.7214213013648987,0.2807547152042389
1763699243715466000,6.068466064453125,-0.3484905958175659,0.6029694676399231,0.11297741532325745
1763699243725426200,6.07842626953125,-0.2815755009651184,0.48639601469039917,-0.08510930091142654
1763699243735386000,6.08838623046875,-0.20797264575958252,0.40852463245391846,-0.3007606267929077
1763699243745346000,6.098345947265625,-0.15383297204971313,0.4595116674900055,-0.528931200504303
1763699243755307300,6.108307373046875,-0.12818220257759094,0.5870693325996399,-0.7547017931938171
1763699243765267200,6.11826708984375,-0.12072508782148361,0.7008126974105835,-0.9600740671157837
1763699243775227100,6.12822705078125,-0.17014776170253754,0.8340439796447754,-1.1251453161239624
1763699243785188000,6.13818798828125,-0.29780399799346924,0.9240868091583252,-1.1929677724838257
1763699243795148000,6.14814794921875,-0.4842393696308136,0.9035442471504211,-1.1171238422393799
1763699243805108000,6.15810791015625,-0.671933650970459,0.8195414543151855,-0.9161580204963684
1763699243815068000,6.16806787109375,-0.7665469646453857,0.9612032771110535,-0.705695629119873
1763699243825029000,6.178029052734375,-0.7373379468917847,1.3444195985794067,-0.5922329425811768
1763699243834989000,6.187989013671875,-0.5815363526344299,1.7861064672470093,-0.5872323513031006
1763699243844949000,6.197948974609375,-0.3591541647911072,2.03194260597229,-0.5747601985931396
1763699243854910200,6.20791015625,-0.15977288782596588,1.947006106376648,-0.4230508506298065
1763699243864870100,6.2178701171875,-0.009916546754539013,1.5918949842453003,-0.12817661464214325
1763699243874830000,6.227830078125,0.06016480177640915,1.0999281406402588,0.185112863779068
1763699243884790300,6.237790283203125,0.027154656127095222,0.46572640538215637,0.429964154958725
1763699243894751000,6.2477509765625,-0.040035832673311234,-0.31106865406036377,0.6022070050239563
1763699243904711000,6.2577109375,-0.053709834814071655,-0.9290708899497986,0.6994486451148987
1763699243914671000,6.267671142578125,-0.023024359717965126,-1.147963285446167,0.6701517105102539
1763699243924631000,6.277631103515625,-0.00962493009865284,-1.0338563919067383,0.5578904151916504
1763699243934592000,6.287592041015625,0.014945127069950104,-0.8095559477806091,0.3948945999145508
1763699243944552200,6.29755224609375,0.12285587936639786,-0.4487666189670563,0.1073719933629036
1763699243954512100,6.30751220703125,0.36824700236320496,0.1753326654434204,-0.2926102876663208
1763699243964473000,6.31747314453125,0.69293212890625,0.9514757990837097,-0.5036602020263672
1763699243974433300,6.327433349609375,0.8968972563743591,1.5528074502944946,-0.22670026123523712
1763699243984393200,6.337393310546875,0.8142420649528503,1.6414867639541626,0.29015353322029114
1763699243994353200,6.347353271484375,0.4931740164756775,1.2988580465316772,0.46739035844802856
1763699244004314000,6.357314208984375,0.02395087294280529,0.9992244243621826,0.2379121631383896
1763699244014274000,6.367274169921875,-0.3759467303752899,0.5850639939308167,-0.02582573890686035
1763699244024234000,6.37723388671875,-0.6028909087181091,-0.12803733348846436,-0.20533931255340576
1763699244034195200,6.3871953125,-0.8670141696929932,-0.471917986869812,-0.38077664375305176
1763699244044155100,6.397155029296875,-1.2620488405227661,-0.2112283557653427,-0.47160160541534424
1763699244054115000,6.407114990234375,-1.697737455368042,0.3563205599784851,-0.5525281429290771
1763699244064075000,6.417074951171875,-1.966785192489624,1.1681050062179565,-0.856487512588501
1763699244074036200,6.4270361328125,-2.0273427963256836,1.9316551685333252,-1.1548960208892822
1763699244083996200,6.43699609375,-1.8617578744888306,2.5441534519195557,-1.3020058870315552
1763699244093956000,6.4469560546875,-1.478869080543518,2.999037027359009,-1.3634867668151855
1763699244103917000,6.4569169921875,-0.9347066879272461,3.2490904331207275,-1.4607568979263306
1763699244113877000,6.466876953125,-0.33821800351142883,3.304184913635254,-1.6594971418380737
1763699244123837000,6.4768369140625,0.0854315459728241,3.3261101245880127,-1.8078956604003906
1763699244133797000,6.486797119140625,0.13884976506233215,3.2741916179656982,-1.764217734336853
1763699244143758000,6.496758056640625,0.09857477992773056,3.3522000312805176,-1.5403156280517578
1763699244153718000,6.506718017578125,0.08015023171901703,3.546067237854004,-1.2962486743927002
1763699244163678200,6.51667822265625,0.028208734467625618,3.5939102172851562,-1.1432833671569824
1763699244173639200,6.52663916015625,-0.07814619690179825,3.461522102355957,-1.1007041931152344
1763699244183599000,6.53659912109375,-0.24386538565158844,3.2677204608917236,-1.1139757633209229
1763699244193559300,6.546559326171875,-0.4396900236606598,3.0324459075927734,-1.1444878578186035
1763699244203519200,6.556519287109375,-0.6226798295974731,2.819108247756958,-1.18516206741333
1763699244213480000,6.56647998046875,-0.7578522562980652,2.6990509033203125,-1.2023346424102783
1763699244223440100,6.576440185546875,-0.8427687883377075,2.695077896118164,-1.1876065731048584
1763699244233400000,6.586400146484375,-0.8920819759368896,2.815589189529419,-1.1327159404754639
1763699244243360000,6.596360107421875,-0.8900715708732605,2.989821195602417,-1.0486005544662476
1763699244253321200,6.6063212890625,-0.861257791519165,3.145426034927368,-0.9627990126609802
1763699244263281200,6.61628125,-0.8423522710800171,3.2654740810394287,-0.8738483786582947
1763699244273241000,6.626240966796875,-0.8235753774642944,3.285385847091675,-0.769059956073761
1763699244283202000,6.6362021484375,-0.8232520818710327,3.2558321952819824,-0.637857973575592
1763699244293162000,6.646161865234375,-0.8631563186645508,3.28511905670166,-0.4919891655445099
1763699244303122000,6.656121826171875,-0.8999351263046265,3.383927345275879,-0.3509942293167114
1763699244313081900,6.666081787109375,-0.9239861369132996,3.5103323459625244,-0.2104959785938263
1763699244323043000,6.67604296875,-0.939635157585144,3.585014581680298,-0.07735630869865417
1763699244333003000,6.6860029296875,-0.9481796026229858,3.5855181217193604,0.04885702207684517
1763699244342963000,6.695962890625,-0.9553083777427673,3.554154396057129,0.16391117870807648
1763699244352924200,6.705924072265625,-0.9492829442024231,3.475611448287964,0.2529582381248474
1763699244362884000,6.715884033203125,-0.9048089981079102,3.39438796043396,0.3386739194393158
1763699244372844000,6.725843994140625,-0.823164165019989,3.389643669128418,0.45059487223625183
1763699244382804200,6.73580419921875,-0.7300909757614136,3.4922866821289062,0.5715508460998535
1763699244392765000,6.745764892578125,-0.6736947894096375,3.6021170616149902,0.6812299489974976
1763699244402725000,6.75572509765625,-0.6743088960647583,3.6339173316955566,0.7813674807548523
1763699244412685000,6.76568505859375,-0.7001370787620544,3.5612471103668213,0.8830767869949341
1763699244422646000,6.77564599609375,-0.7236953973770142,3.4203178882598877,0.979091465473175
1763699244432606200,6.785606201171875,-0.7188055515289307,3.208350896835327,1.0627288818359375
1763699244442566100,6.795566162109375,-0.7252647876739502,2.9318008422851562,1.1410348415374756
1763699244452526000,6.805526123046875,-0.8271176218986511,2.6637063026428223,1.20952308177948
1763699244462487300,6.8154873046875,-0.9749257564544678,2.322073221206665,1.2262260913848877
1763699244472447200,6.825447265625,-1.1304285526275635,1.9897712469100952,1.2011325359344482
1763699244482407200,6.8354072265625,-1.2463200092315674,1.8617128133773804,1.1389397382736206
1763699244492367400,6.845367431640625,-1.248986840248108,1.8128784894943237,1.018485188484192
1763699244502328000,6.855328125,-1.1860345602035522,1.760025143623352,0.866645097732544
1763699244512288000,6.8652880859375,-1.126600980758667,1.6886640787124634,0.7097603678703308
1763699244522248200,6.875248291015625,-1.1179628372192383,1.4863048791885376,0.6076483726501465
1763699244532209200,6.885209228515625,-1.1653883457183838,1.1531516313552856,0.5395782589912415
1763699244542169000,6.895169189453125,-1.2818247079849243,0.8296484351158142,0.47045859694480896
1763699244552129300,6.90512939453125,-1.4575778245925903,0.6137512922286987,0.388264924287796
1763699244562089200,6.915089111328125,-1.6392425298690796,0.5028333067893982,0.2845747470855713
1763699244572050200,6.92505029296875,-1.7666630744934082,0.4566647410392761,0.15733715891838074
1763699244582010400,6.93501025390625,-1.7654722929000854,0.5882560610771179,-0.016463128849864006
1763699244591970300,6.94497021484375,-1.6406587362289429,0.9043290615081787,-0.2339903861284256
1763699244601931000,6.954930908203125,-1.457823395729065,1.3464913368225098,-0.4380737543106079
1763699244611891200,6.96489111328125,-1.2880157232284546,1.781799077987671,-0.5511773824691772
1763699244621851100,6.97485107421875,-1.2181607484817505,2.086588144302368,-0.5085841417312622
1763699244631811000,6.98481103515625,-1.3018977642059326,2.2374305725097656,-0.3028240501880646
1763699244641772300,6.994772216796875,-1.4513710737228394,2.3468151092529297,-0.0012724583502858877
1763699244651732200,7.004732177734375,-1.5535845756530762,2.4161808490753174,0.3059000074863434
1763699244661692200,7.014692138671875,-1.577512502670288,2.296468734741211,0.5440241694450378
1763699244671653400,7.0246533203125,-1.5359506607055664,1.9966224431991577,0.6684324145317078
1763699244681613300,7.03461328125,-1.4317731857299805,1.7407786846160889,0.6669031977653503
1763699244691573200,7.0445732421875,-1.2303996086120605,1.6824376583099365,0.5607813000679016
1763699244701533200,7.054533203125,-0.9523051381111145,1.7483093738555908,0.4377685487270355
1763699244711494100,7.064494140625,-0.7058449983596802,1.795529842376709,0.3416023254394531
1763699244721454000,7.0744541015625,-0.5372826457023621,1.7912813425064087,0.2807363271713257
1763699244731414000,7.0844140625,-0.46077293157577515,1.6866366863250732,0.28039199113845825
1763699244741374200,7.094374267578125,-0.4479391574859619,1.5198711156845093,0.3377101421356201
1763699244751335200,7.104335205078125,-0.43991586565971375,1.3451703786849976,0.41937223076820374
1763699244761295000,7.114295166015625,-0.38136839866638184,1.293122410774231,0.43712088465690613
1763699244771255300,7.12425537109375,-0.23163509368896484,1.3641678094863892,0.3321382701396942
1763699244781216300,7.13421630859375,-0.03449246287345886,1.3919743299484253,0.13115428388118744
1763699244791176200,7.14417626953125,0.0982876867055893,1.206460952758789,-0.14794711768627167
1763699244801136000,7.15413623046875,0.13587288558483124,0.8276755809783936,-0.4900874197483063
1763699244811096000,7.164095947265625,0.11250683665275574,0.434965580701828,-0.8886995315551758
1763699244821057000,7.17405712890625,0.058694738894701004,0.14126871526241302,-1.3016809225082397
1763699244831017200,7.184017333984375,0.0005094627267681062,0.02262275479733944,-1.6181625127792358
1763699244840977200,7.19397705078125,-0.05414978787302971,0.08806753903627396,-1.8205089569091797
1763699244850938000,7.203938232421875,-0.08895517140626907,0.23046596348285675,-1.941917896270752
1763699244860898300,7.213898193359375,-0.06742537766695023,0.4086388945579529,-2.0007598400115967
1763699244870858200,7.223858154296875,0.019781161099672318,0.6418375372886658,-2.015854835510254
1763699244880818200,7.233818115234375,0.14423413574695587,0.896917998790741,-2.0199642181396484
1763699244890779100,7.243779052734375,0.2556283175945282,1.0943903923034668,-2.031205654144287
1763699244900739000,7.253739013671875,0.2997837960720062,1.2025601863861084,-2.032402276992798
1763699244910699000,7.263698974609375,0.24781139194965363,1.252178430557251,-1.9947220087051392
1763699244920659000,7.273658935546875,0.15249446034431458,1.2377225160598755,-1.936888337135315
1763699244930620200,7.2836201171875,0.03991119563579559,1.1469569206237793,-1.8623437881469727
1763699244940580000,7.293580078125,-0.08198461681604385,0.9759872555732727,-1.7931300401687622
1763699244950540000,7.3035400390625,-0.18709105253219604,0.7117897272109985,-1.7488901615142822
1763699244960501200,7.313501220703125,-0.2379624992609024,0.47586533427238464,-1.7276487350463867
1763699244970461200,7.323461181640625,-0.238088458776474,0.5020024180412292,-1.6745946407318115
1763699244980421000,7.333421142578125,-0.24343635141849518,0.7589207291603088,-1.601719617843628
1763699244990381300,7.34338134765625,-0.24242807924747467,1.1016067266464233,-1.5735340118408203
1763699245000342000,7.353342041015625,-0.21187150478363037,1.3916600942611694,-1.5885766744613647
1763699245010302000,7.363302001953125,-0.15766499936580658,1.5233041048049927,-1.576924204826355
1763699245020262100,7.37326220703125,-0.08767365664243698,1.4508696794509888,-1.5000488758087158
1763699245030223000,7.38322314453125,-0.05287360027432442,1.269307017326355,-1.3692845106124878
1763699245040183000,7.39318310546875,-0.05913788825273514,1.1388603448867798,-1.221925139427185
1763699245050143200,7.403143310546875,-0.09261702001094818,1.080092430114746,-1.1013723611831665
1763699245060103200,7.413103271484375,-0.13428084552288055,1.0204650163650513,-1.0202127695083618
1763699245070064000,7.423064208984375,-0.18264012038707733,0.9438413381576538,-0.9420918822288513
1763699245080024300,7.4330244140625,-0.2544940710067749,0.8739495873451233,-0.8381918668746948
1763699245089984300,7.442984375,-0.3182259202003479,0.8641188144683838,-0.7365725636482239
1763699245099944200,7.452944091796875,-0.3257535994052887,0.9483482241630554,-0.6794693470001221
1763699245109905200,7.4629052734375,-0.26128166913986206,1.0324846506118774,-0.6655575037002563
1763699245119865000,7.472864990234375,-0.1613049954175949,1.0485682487487793,-0.6224797964096069
1763699245129825000,7.482824951171875,-0.06417366117238998,0.969377338886261,-0.5179738998413086
1763699245139786200,7.4927861328125,0.015275092795491219,0.7629951238632202,-0.3823377788066864
1763699245149746200,7.50274609375,0.08369410037994385,0.4576248228549957,-0.27871978282928467
1763699245159706000,7.5127060546875,0.14635534584522247,0.1645980030298233,-0.2598129212856293
1763699245169666000,7.522666015625,0.1866401880979538,-0.07028641551733017,-0.31356245279312134
1763699245179627300,7.532627197265625,0.2235739678144455,-0.18848203122615814,-0.4378007650375366
1763699245189587200,7.542587158203125,0.27173110842704773,-0.22070015966892242,-0.5900140404701233
1763699245199547100,7.552547119140625,0.3540526032447815,-0.2173728048801422,-0.7079134583473206
1763699245209508000,7.562508056640625,0.4379938542842865,-0.1924424171447754,-0.7879894375801086
1763699245219468000,7.572468017578125,0.4395664632320404,-0.10653523355722427,-0.849003791809082
1763699245229428000,7.582427978515625,0.3314493000507355,0.036007270216941833,-0.8848086595535278
1763699245239388200,7.59238818359375,0.2089494913816452,0.029804235324263573,-0.8543769717216492
1763699245249349000,7.60234912109375,0.1205650269985199,-0.17375501990318298,-0.7720674276351929
1763699245259309000,7.61230908203125,0.06302956491708755,-0.491228312253952,-0.7299524545669556
1763699245269269200,7.622269287109375,0.02082591876387596,-0.8031443953514099,-0.7364029288291931
1763699245279229200,7.632229248046875,-0.0009158611064776778,-1.0280851125717163,-0.7483285665512085
1763699245289190100,7.642190185546875,-0.0010090717114508152,-1.1389375925064087,-0.735744297504425
1763699245299150300,7.652150390625,0.004132959526032209,-1.1358057260513306,-0.6885815858840942
1763699245309110300,7.6621103515625,0.0030716899782419205,-1.0023642778396606,-0.6024118065834045
1763699245319071000,7.672071044921875,-0.009108277037739754,-0.7971184849739075,-0.4662630558013916
1763699245329031200,7.68203125,-0.019116170704364777,-0.5775792002677917,-0.29509130120277405
1763699245338991000,7.6919912109375,-0.021585186943411827,-0.4004307687282562,-0.15043210983276367
1763699245348951000,7.701950927734375,-0.02431892231106758,-0.317361980676651,-0.09183058887720108
1763699245358912300,7.711912353515625,-0.0406920351088047,-0.32102301716804504,-0.10588142275810242
1763699245368872200,7.7218720703125,-0.04471553862094879,-0.3838110566139221,-0.13447950780391693
1763699245378832100,7.73183203125,-0.04393842816352844,-0.47912612557411194,-0.10462228208780289
1763699245388793300,7.74179345703125,-0.05573330447077751,-0.529975950717926,-0.048588842153549194
1763699245398753300,7.751753173828125,-0.07702846825122833,-0.5416499376296997,-0.012490757741034031
1763699245408713200,7.761713134765625,-0.09792336821556091,-0.5381143093109131,0.019044265151023865
1763699245418673400,7.77167333984375,-0.13100382685661316,-0.5103969573974609,0.05041790008544922
1763699245428634400,7.78163427734375,-0.18175008893013,-0.4599931538105011,0.07907351106405258
1763699245438594300,7.79159423828125,-0.2530732750892639,-0.43986818194389343,0.09321356564760208
1763699245448554500,7.801554443359375,-0.3436380624771118,-0.45850899815559387,0.10878001153469086
1763699245458514400,7.811514404296875,-0.4291878342628479,-0.4610408544540405,0.1266825795173645
1763699245468475400,7.821475341796875,-0.4897976517677307,-0.43000251054763794,0.1279640942811966
1763699245478435600,7.831435546875,-0.5214067101478577,-0.3941608965396881,0.11574257910251617
1763699245488395500,7.8413955078125,-0.5318529605865479,-0.3811734616756439,0.08907874673604965
1763699245498356200,7.851356201171875,-0.5230618715286255,-0.39241039752960205,0.05823960527777672
1763699245508316400,7.86131640625,-0.49603530764579773,-0.41591891646385193,0.016214655712246895
1763699245518276400,7.8712763671875,-0.4635583460330963,-0.4605891704559326,-0.023136744275689125
1763699245528236300,7.881236328125,-0.4352766275405884,-0.5214991569519043,-0.06319095194339752
1763699245538197500,7.891197509765625,-0.4203850328922272,-0.5949219465255737,-0.09547432512044907
1763699245548157400,7.901157470703125,-0.4160313010215759,-0.6868076920509338,-0.11283520609140396
1763699245558117400,7.911117431640625,-0.4206191301345825,-0.7794204354286194,-0.11668214201927185
1763699245568077300,7.921077392578125,-0.43008267879486084,-0.8661705255508423,-0.11367649585008621
1763699245578038500,7.93103857421875,-0.44795992970466614,-0.9350225329399109,-0.10382573306560516
1763699245587998500,7.94099853515625,-0.47155049443244934,-0.9751774072647095,-0.09316536039113998
1763699245597958400,7.95095849609375,-0.48563486337661743,-0.9888628721237183,-0.07648305594921112
1763699245607919400,7.96091943359375,-0.4896727502346039,-0.9804174304008484,-0.0573895238339901
1763699245617879300,7.97087939453125,-0.4913606643676758,-0.9742208123207092,-0.038552187383174896
1763699245627839200,7.980839111328125,-0.5022727251052856,-0.981706976890564,-0.018096977844834328
1763699245637799400,7.99079931640625,-0.527807891368866,-0.9945058226585388,0.003641073824837804
1763699245647760400,8.000760498046875,-0.5588600635528564,-1.0148528814315796,0.04047978296875954
1763699245657720300,8.01072021484375,-0.5898494124412537,-1.053207516670227,0.08967582136392593
1763699245667680500,8.020680419921876,-0.6180943846702576,-1.1116540431976318,0.13473810255527496
1763699245677641500,8.030641357421874,-0.6468037962913513,-1.1620697975158691,0.1681583821773529
1763699245687601400,8.040601318359375,-0.6599891185760498,-1.1828094720840454,0.176613911986351
1763699245697561600,8.0505615234375,-0.6457667350769043,-1.1809031963348389,0.17962434887886047
1763699245707521500,8.060521484375,-0.6124745607376099,-1.1919786930084229,0.2069193571805954
1763699245717482200,8.070482177734375,-0.5267159938812256,-1.2218742370605469,0.26353204250335693
1763699245727442400,8.0804423828125,-0.40950682759284973,-1.2697123289108276,0.3260529339313507
1763699245737402400,8.09040234375,-0.30880603194236755,-1.3312466144561768,0.3744409680366516
1763699245747362300,8.1003623046875,-0.2965081036090851,-1.4187854528427124,0.42382290959358215
1763699245757323500,8.110323486328125,-0.3992917239665985,-1.572051763534546,0.5068607926368713
1763699245767283500,8.120283447265624,-0.48610812425613403,-1.7126847505569458,0.6063631772994995
1763699245777243400,8.130243408203125,-0.48393896222114563,-1.7053349018096924,0.6976594924926758
1763699245787204600,8.14020458984375,-0.4032084345817566,-1.5689043998718262,0.8177140355110168
1763699245797164500,8.15016455078125,-0.2377193570137024,-1.392068862915039,0.9639537930488586
1763699245807124500,8.16012451171875,-0.020010992884635925,-1.1562070846557617,1.1172442436218262
1763699245817084400,8.17008447265625,0.16952991485595703,-0.8477858901023865,1.2929996252059937
1763699245827045400,8.18004541015625,0.2689116299152374,-0.5539204478263855,1.5230932235717773
1763699245837005300,8.19000537109375,0.31485673785209656,-0.38739246129989624,1.80814790725708
1763699245846965200,8.19996533203125,0.35473358631134033,-0.3263908922672272,2.1537821292877197
1763699245856926500,8.209926513671874,0.365970253944397,-0.32732540369033813,2.54577898979187
1763699245866886400,8.219886474609375,0.32455065846443176,-0.39415448904037476,2.917513608932495
1763699245876846300,8.229846435546875,0.2326422929763794,-0.5511305332183838,3.2218353748321533
1763699245886806500,8.239806640625,0.14181731641292572,-0.7273801565170288,3.4223499298095703
1763699245896767500,8.249767578125,0.06405647844076157,-0.7844431400299072,3.5248968601226807
1763699245906727400,8.2597275390625,-0.011627094820141792,-0.7452986836433411,3.6105024814605713
1763699245916687600,8.2696875,-0.12554620206356049,-0.7407694458961487,3.5957984924316406
1763699245926647600,8.2796474609375,-0.2597820460796356,-0.766079843044281,3.3015902042388916
1763699245936608300,8.289608154296875,-0.3101213872432709,-0.9429140090942383,2.781440496444702
1763699245946568400,8.299568359375,-0.2878972887992859,-1.4051668643951416,2.1533701419830322
1763699245956528400,8.3095283203125,-0.2111298143863678,-1.9320045709609985,1.6731607913970947
1763699245966489300,8.3194892578125,-0.025435052812099457,-2.224151134490967,1.6162407398223877
1763699245976449500,8.329449462890626,0.20827224850654602,-2.014737606048584,1.9344232082366943
1763699245986409500,8.339409423828124,0.41492581367492676,-1.4387147426605225,2.2945399284362793
1763699245996369400,8.349369384765625,0.597586452960968,-0.8179624676704407,2.416893720626831
1763699246006330400,8.359330322265626,0.7034252882003784,-0.4497562348842621,2.291010618209839
1763699246016290300,8.369290283203124,0.7420914173126221,-0.41302698850631714,2.038008213043213
1763699246026250200,8.379250244140625,0.760921061038971,-0.572181761264801,1.7830300331115723
1763699246036210200,8.389210205078125,0.7649639844894409,-0.8150337934494019,1.6432771682739258
1763699246046171400,8.39917138671875,0.7495282888412476,-1.1026620864868164,1.655969262123108
1763699246056131300,8.40913134765625,0.725273847579956,-1.3760825395584106,1.7637289762496948
1763699246066091300,8.41909130859375,0.6787763833999634,-1.570787787437439,1.8914917707443237
1763699246076052500,8.429052490234374,0.6204749941825867,-1.61478590965271,2.0025200843811035
1763699246086012400,8.439012451171875,0.6132354736328125,-1.5201376676559448,2.0345988273620605
1763699246095972400,8.448972412109375,0.6622330546379089,-1.3613687753677368,1.9575234651565552
1763699246105932500,8.4589326171875,0.7507384419441223,-1.1894105672836304,1.7646135091781616
1763699246115893200,8.468893310546875,0.8676786422729492,-0.9801409840583801,1.5060080289840698
1763699246125853200,8.478853271484375,0.9893867373466492,-0.776981770992279,1.239425539970398
1763699246135813400,8.4888134765625,1.0940654277801514,-0.5623176693916321,1.0037486553192139
1763699246145774300,8.4987744140625,1.1349891424179077,-0.32942476868629456,0.8145256638526917
1763699246155734300,8.508734375,1.0388168096542358,-0.14249935746192932,0.7211448550224304
1763699246165694500,8.518694580078124,0.7754022479057312,-0.01164387259632349,0.7611569762229919
1763699246175654400,8.528654296875,0.35028398036956787,0.07304012030363083,0.8632820248603821
1763699246185615400,8.538615478515625,-0.008510397747159004,0.02726411074399948,0.8753322958946228
1763699246195575600,8.548575439453124,-0.07825858891010284,-0.33245784044265747,0.7278096675872803
1763699246205535500,8.558535400390625,0.10543454438447952,-0.8254350423812866,0.4695131778717041
1763699246215495400,8.568495361328125,0.41854479908943176,-1.0743305683135986,0.23649908602237701
1763699246225456400,8.578456298828126,0.7442296743392944,-1.249263048171997,0.10770755261182785
1763699246235416300,8.588416259765625,0.9845288395881653,-1.5828274488449097,0.09253126382827759
1763699246245376300,8.598376220703125,1.0836764574050903,-1.8859853744506836,0.12413419783115387
1763699246255337500,8.60833740234375,1.0948747396469116,-1.940779209136963,0.12355629354715347
1763699246265297400,8.61829736328125,1.0824862718582153,-1.7454581260681152,0.03555932641029358
1763699246275257300,8.62825732421875,1.0943506956100464,-1.4649295806884766,-0.11619637906551361
1763699246285217500,8.638217529296876,1.1030408143997192,-1.1518230438232422,-0.17199040949344635
1763699246295178500,8.648178466796875,1.1156277656555176,-0.6955686807632446,-0.08618974685668945
1763699246305138400,8.658138427734375,1.009442925453186,0.19945238530635834,0.09121832996606827
1763699246315098600,8.6680986328125,0.8031667470932007,1.5093740224838257,0.1289862096309662
1763699246325059300,8.678059326171875,0.5262491703033447,2.4300429821014404,-0.19461847841739655
1763699246335019300,8.688019287109375,0.22660411894321442,2.5264134407043457,-0.872626006603241
1763699246344979500,8.6979794921875,-0.029558157548308372,2.0054476261138916,-1.17919921875
1763699246354939400,8.707939453125,-0.20451079308986664,1.0478582382202148,-0.9466480612754822
1763699246364900400,8.717900390625,-0.29891639947891235,-0.14631353318691254,-0.4262130856513977
1763699246374860500,8.727860595703126,-0.44321686029434204,-1.021256446838379,0.1554444432258606
1763699246384820500,8.737820556640624,-0.6465010046958923,-1.0881001949310303,0.4569281339645386
1763699246394781400,8.747781494140625,-0.7563345432281494,-0.22802011668682098,0.2026796042919159
1763699246404741000,8.7577412109375,-0.8423072695732117,1.0022166967391968,-0.5578707456588745
1763699246414701300,8.767701416015624,-0.997177004814148,2.042510509490967,-1.444422960281372
1763699246424661200,8.7776611328125,-1.1856552362442017,2.756695032119751,-2.0525636672973633
1763699246434622000,8.7876220703125,-1.3282843828201294,3.153301239013672,-2.3024532794952393
1763699246444582100,8.79758203125,-1.3589473962783813,3.0915043354034424,-2.2948930263519287
1763699246454542000,8.8075419921875,-1.220274806022644,2.547800064086914,-2.2592310905456543
1763699246464502000,8.817501953125,-1.0462439060211182,1.7416783571243286,-2.36891770362854
1763699246474463200,8.827463134765624,-0.9890798926353455,0.9963170289993286,-2.613449811935425
1763699246484423200,8.837423095703125,-1.0260249376296997,0.6084851622581482,-2.8640248775482178
1763699246494383000,8.847383056640625,-1.0300105810165405,0.5554152727127075,-2.9741122722625732
1763699246504344300,8.85734423828125,-0.984022319316864,0.4999808073043823,-2.962977170944214
1763699246514304300,8.86730419921875,-0.9294096827507019,0.30021655559539795,-2.9764695167541504
1763699246524264200,8.87726416015625,-0.8136234283447266,-0.010634002275764942,-3.1543333530426025
1763699246534224400,8.887224365234376,-0.6848909854888916,-0.29910147190093994,-3.474324941635132
1763699246544185000,8.89718505859375,-0.5972407460212708,-0.3928372859954834,-3.786109447479248
1763699246554145000,8.90714501953125,-0.5969851016998291,-0.27183231711387634,-3.892490863800049
1763699246564105200,8.917105224609376,-0.6621749997138977,-0.10791288316249847,-3.7230613231658936
1763699246574065200,8.927065185546875,-0.7171629071235657,0.0023126890882849693,-3.380821466445923
1763699246584026000,8.937026123046875,-0.683813214302063,0.012465192005038261,-2.9664175510406494
1763699246593986300,8.946986328125,-0.5791988968849182,-0.13566675782203674,-2.50742506980896
1763699246603946200,8.9569462890625,-0.508300244808197,-0.4234015941619873,-2.0416955947875977
1763699246613907200,8.9669072265625,-0.5216237902641296,-0.7599465847015381,-1.5715686082839966
1763699246623867400,8.976867431640626,-0.5454249978065491,-1.049195408821106,-1.161638855934143
1763699246633827300,8.986827392578125,-0.5055603981018066,-1.1928303241729736,-0.8615506887435913
1763699246643787300,8.996787353515625,-0.384983092546463,-1.0733164548873901,-0.6316413283348083
1763699246653748200,9.006748291015626,-0.16178730130195618,-0.7730309963226318,-0.4677959680557251
1763699246663708200,9.016708251953125,0.08837779611349106,-0.4205493628978729,-0.3377913534641266
1763699246673668000,9.026668212890625,0.24338921904563904,-0.10567529499530792,-0.13843724131584167
1763699246683629300,9.03662939453125,0.20819048583507538,0.07076418399810791,0.2223616987466812
1763699246693589200,9.04658935546875,0.03838999941945076,0.038963910192251205,0.6799479126930237
1763699246703549200,9.056549072265625,-0.14096830785274506,-0.21622337400913239,1.0834836959838867
1763699246713509000,9.066509033203126,-0.23329824209213257,-0.7075486183166504,1.3927490711212158
1763699246723470300,9.07647021484375,-0.19567789137363434,-1.2622549533843994,1.7156901359558105
1763699246733430300,9.08643017578125,-0.043530967086553574,-1.6430997848510742,2.1329920291900635
1763699246743390200,9.09639013671875,0.11122479289770126,-1.6919403076171875,2.5262229442596436
1763699246753350100,9.10635009765625,0.22084449231624603,-1.5581034421920776,2.7808055877685547
1763699246763311000,9.11631103515625,0.35884684324264526,-1.2720040082931519,2.8236756324768066
1763699246773271000,9.12627099609375,0.6723302006721497,-0.8750473260879517,2.8750765323638916
1763699246783231200,9.136231201171874,1.0862733125686646,-0.6976267695426941,3.067220449447632
1763699246793192200,9.146192138671875,1.4062970876693726,-0.9374606609344482,3.324500322341919
1763699246803152100,9.156152099609375,1.630852460861206,-1.0958694219589233,3.5636684894561768
1763699246813112300,9.1661123046875,1.7958848476409912,-1.0495682954788208,3.6326169967651367
1763699246823072300,9.176072265625,1.8604127168655396,-0.8376246094703674,3.4956161975860596
1763699246833033000,9.186032958984375,1.7707525491714478,-0.6507226228713989,3.260876178741455
1763699246842993200,9.1959931640625,1.4817169904708862,-0.7100474834442139,2.9830524921417236
1763699246852953000,9.205953125,1.058078646659851,-0.9943860173225403,2.736464500427246
1763699246862913000,9.2159130859375,0.7862128019332886,-0.8068097233772278,2.664762496948242
1763699246872874200,9.225874267578124,0.891000509262085,-0.2988277077674866,2.791653871536255
1763699246882834200,9.235834228515625,1.0690900087356567,0.12952497601509094,2.955810308456421
1763699246892794000,9.245794189453125,1.261150598526001,0.27669283747673035,2.926276683807373
1763699246902755300,9.25575537109375,1.348713755607605,-0.029929403215646744,2.7119481563568115
1763699246912715300,9.26571533203125,1.2892484664916992,-0.6307052373886108,2.408318281173706
1763699246922675200,9.27567529296875,1.180166482925415,-1.2373735904693604,2.045013666152954
1763699246932635100,9.28563525390625,1.0878586769104004,-1.7128673791885376,1.7055948972702026
1763699246942596000,9.29559619140625,1.0357043743133545,-2.1961209774017334,1.38151216506958
1763699246952556000,9.30555615234375,1.0520250797271729,-2.736593008041382,1.1098814010620117
1763699246962516000,9.315515869140626,1.1231322288513184,-3.223550796508789,0.8486999273300171
1763699246972477200,9.325477294921875,1.172154426574707,-3.4653003215789795,0.5385489463806152
1763699246982437000,9.33543701171875,1.1472280025482178,-3.5679874420166016,0.14394038915634155
1763699246992397000,9.34539697265625,1.0598102807998657,-3.4339582920074463,-0.2586304843425751
1763699247002357200,9.355357177734374,0.8429927229881287,-3.049910306930542,-0.6320698261260986
1763699247012318200,9.365318115234375,0.5217121839523315,-2.419241428375244,-1.0025893449783325
1763699247022278100,9.375278076171876,0.1476224809885025,-1.6618587970733643,-1.3677774667739868
1763699247032238300,9.38523828125,-0.23783919215202332,-0.995302677154541,-1.657976508140564
1763699247042198300,9.3951982421875,-0.5383758544921875,-0.444044828414917,-1.8640787601470947
1763699247052159000,9.405158935546876,-0.6748631000518799,0.07821278274059296,-2.068150281906128
1763699247062119200,9.415119140625,-0.6496219635009766,0.6954571008682251,-2.228245496749878
1763699247072079000,9.4250791015625,-0.4944496750831604,1.332817554473877,-2.2130486965179443
1763699247082040000,9.4350400390625,-0.24349601566791534,1.980597734451294,-1.9685649871826172
1763699247092000300,9.445000244140624,0.05059446766972542,2.7641801834106445,-1.4468603134155273
1763699247101960200,9.454960205078125,0.2723183333873749,3.332181215286255,-0.6555778384208679
1763699247111920000,9.464920166015625,0.3552800714969635,3.333134412765503,0.32727986574172974
1763699247121881300,9.47488134765625,0.4041583836078644,2.995375156402588,1.315263032913208
1763699247131841300,9.48484130859375,0.5619509816169739,3.177854061126709,2.042088508605957
1763699247141801200,9.49480126953125,0.8430164456367493,3.6974053382873535,2.061798095703125
1763699247151762200,9.50476220703125,1.146539568901062,3.8699593544006348,1.106392741203308
1763699247161722000,9.51472216796875,1.3364157676696777,2.3685686588287354,-0.20759287476539612
1763699247171682000,9.52468212890625,1.2381086349487305,0.5471081137657166,-0.24508298933506012
1763699247181642000,9.53464208984375,0.5462140440940857,-0.39494919776916504,0.17530123889446259
1763699247191603200,9.544603271484375,-0.17579738795757294,0.009808954782783985,0.33935996890068054
1763699247201563100,9.554563232421875,-0.2414054274559021,1.0062711238861084,0.2918584942817688
1763699247211523000,9.564523193359374,0.007333280518651009,1.8566235303878784,-0.0980546623468399
1763699247221483300,9.574483154296875,0.0003057308786083013,2.7610886096954346,-0.8509470820426941
1763699247231444200,9.5844443359375,-0.3420015573501587,3.044952630996704,-1.9929299354553223
1763699247241404200,9.594404052734374,-1.1078484058380127,2.1065680980682373,-3.1908557415008545
1763699247251364400,9.6043642578125,-2.1456379890441895,0.7439969182014465,-3.843982458114624
1763699247261325000,9.614324951171875,-3.1055283546447754,-0.6178480386734009,-3.8607945442199707
1763699247271285000,9.624284912109376,-3.5701372623443604,-1.7152392864227295,-3.3699326515197754
1763699247281245200,9.6342451171875,-3.357286214828491,-2.4801368713378906,-2.839996576309204
1763699247291205000,9.644205078125,-2.6229758262634277,-2.766277313232422,-2.6668474674224854
1763699247301166000,9.654166015625,-1.6498475074768066,-2.89614200592041,-3.0454092025756836
1763699247311126300,9.664126220703125,-0.7097175121307373,-2.3864638805389404,-3.906242847442627
1763699247321086200,9.674086181640625,-0.036557745188474655,-1.0435338020324707,-4.583372592926025
1763699247331047200,9.684047119140626,0.3286873400211334,0.472849577665329,-4.705118656158447
1763699247341007400,9.69400732421875,0.5085886716842651,1.4055732488632202,-4.258880138397217
1763699247350967300,9.70396728515625,0.5422861576080322,1.6043915748596191,-3.3645217418670654
1763699247360927200,9.71392724609375,0.4004667103290558,1.2357251644134521,-2.329430341720581
1763699247370888200,9.72388818359375,0.07700290530920029,0.5939626693725586,-1.6595724821090698
1763699247380848000,9.73384814453125,-0.4106850028038025,0.09691455960273743,-1.279685616493225
1763699247390808000,9.74380810546875,-0.993004322052002,-0.17256352305412292,-1.0123960971832275
1763699247400768300,9.753768310546874,-1.5443364381790161,-0.15105102956295013,-0.7753180861473083
1763699247410729200,9.763729248046875,-1.8629873991012573,-0.10879385471343994,-0.6016123294830322
1763699247420689200,9.773689208984376,-1.9107717275619507,-0.1106783077120781,-0.49224376678466797
1763699247430649300,9.7836494140625,-1.7174975872039795,-0.15652169287204742,-0.40277862548828125
1763699247440610000,9.793610107421875,-1.361952543258667,-0.29306355118751526,-0.26978087425231934
1763699247450570000,9.803570068359376,-0.8875740766525269,-0.39841875433921814,-0.09801098704338074
1763699247460530200,9.8135302734375,-0.32447394728660583,-0.34675660729408264,0.16721375286579132
1763699247470490000,9.823489990234375,0.30678391456604004,-0.27118808031082153,0.619918942451477
1763699247480451000,9.833451171875,0.9243384599685669,-0.35673123598098755,1.2051315307617188
1763699247490411000,9.843410888671874,1.3445637226104736,-0.5895469188690186,1.7718045711517334
1763699247500371200,9.85337109375,1.3214037418365479,-0.966329038143158,2.3580989837646484
1763699247510332200,9.863332275390626,0.9069520235061646,-1.5975693464279175,2.892336130142212
1763699247520292000,9.8732919921875,0.5282369256019592,-2.2711966037750244,3.260634422302246
1763699247530252300,9.883252197265625,0.45272940397262573,-2.622039318084717,3.565596103668213
1763699247540212200,9.893212158203125,0.6490246057510376,-2.6444504261016846,3.8039729595184326
1763699247550173000,9.9031728515625,1.0628678798675537,-2.4186813831329346,4.047761917114258
1763699247560133000,9.913133056640625,1.5631970167160034,-2.1167960166931152,4.364681720733643
1763699247570093000,9.923093017578125,2.0302600860595703,-1.7306959629058838,4.567066669464111
1763699247580053000,9.933052978515626,2.4512321949005127,-1.4366958141326904,4.1212334632873535
1763699247590014200,9.94301416015625,2.6036949157714844,-0.6286375522613525,3.571709394454956
1763699247599974100,9.95297412109375,2.2821450233459473,0.7458224892616272,3.159802198410034
1763699247609934000,9.96293408203125,1.6961902379989624,2.076150894165039,2.8720285892486572
1763699247619895300,9.972895263671875,1.0721503496170044,2.9445066452026367,2.5753931999206543
1763699247629855200,9.982855224609375,0.7742655873298645,3.0019428730010986,2.5428547859191895
1763699247639815200,9.992815185546876,0.8491379618644714,2.05055570602417,2.739436149597168
1763699247649775400,10.002775390625,0.946449875831604,0.9657370448112488,2.8588554859161377
1763699247659736000,10.012736083984375,0.9267147779464722,0.2578051686286926,2.7847280502319336
1763699247669696000,10.022696044921876,0.8420789837837219,-0.19163493812084198,2.58516001701355
1763699247679656200,10.03265625,0.7036625742912292,-0.6961590647697449,2.3355932235717773
1763699247689616100,10.0426162109375,0.5401319265365601,-1.2313774824142456,2.040501832962036
1763699247699577000,10.0525771484375,0.42594438791275024,-1.9346312284469604,1.7369685173034668
1763699247709537300,10.062537353515625,0.39040130376815796,-2.638500928878784,1.3653895854949951
1763699247719497200,10.072497314453125,0.3148748576641083,-3.1853315830230713,0.8702563047409058
1763699247729458200,10.082458251953126,0.13241823017597198,-3.6275904178619385,0.3297017514705658
1763699247739418400,10.09241845703125,-0.07992812246084213,-3.7400765419006348,-0.1956816166639328
1763699247749378300,10.10237841796875,-0.2911793887615204,-3.5156760215759277,-0.7303919196128845
1763699247759338200,10.112338134765626,-0.4822111129760742,-3.127502679824829,-1.2362902164459229
1763699247769299200,10.12229931640625,-0.7240700721740723,-2.6675353050231934,-1.5866514444351196
1763699247779259100,10.132259033203125,-1.0432121753692627,-2.232499361038208,-1.7490736246109009
1763699247789219000,10.142218994140626,-1.1678587198257446,-1.5926334857940674,-1.8821738958358765
1763699247799180300,10.15218017578125,-1.0471853017807007,-0.9689043164253235,-1.98755943775177
1763699247809140200,10.16214013671875,-0.7281631231307983,-0.2932015061378479,-2.052616596221924
1763699247819100200,10.17210009765625,-0.3951646387577057,0.40130189061164856,-1.9322285652160645
1763699247829060000,10.18206005859375,-0.10940399020910263,1.0428187847137451,-1.6155240535736084
1763699247839021300,10.192021240234375,0.3032863736152649,1.8488588333129883,-1.053148865699768
1763699247848981200,10.201981201171876,0.8887122869491577,2.9061036109924316,-0.2988460958003998
1763699247858941200,10.211941162109374,1.4961204528808594,3.6462185382843018,0.36904168128967285
1763699247868901400,10.2219013671875,1.993094563484192,3.94749116897583,1.2039927244186401
1763699247878862000,10.231862060546876,2.5200350284576416,5.32323694229126,1.7608469724655151
1763699247888822000,10.241822021484374,3.207871198654175,7.170897960662842,1.1078143119812012
1763699247898782200,10.2517822265625,3.4218006134033203,4.259088039398193,-0.7618550062179565
1763699247908743200,10.2617431640625,2.6088504791259766,0.4465351402759552,-1.7515724897384644
1763699247918703000,10.271703125,1.501828908920288,-1.0050764083862305,-1.5235563516616821
1763699247928663300,10.281663330078125,0.4632970690727234,-1.92410409450531,-0.38991579413414
1763699247938623200,10.291623291015625,-0.5883436799049377,-2.5124449729919434,0.48369157314300537
1763699247948584200,10.301584228515624,-1.3544951677322388,-0.7976007461547852,0.018488196656107903
1763699247958544100,10.311544189453125,-2.100656747817993,0.7811557650566101,-0.7723236083984375
1763699247968504000,10.321504150390625,-2.7102410793304443,1.3736313581466675,-2.128392219543457
1763699247978465000,10.331465087890624,-3.125490188598633,1.261580467224121,-3.3027353286743164
1763699247988425200,10.34142529296875,-3.439058303833008,0.563973605632782,-3.9383387565612793
1763699247998385200,10.35138525390625,-3.7034685611724854,-0.6372182965278625,-4.206310272216797
1763699248008345000,10.361344970703126,-3.6696481704711914,-2.1565463542938232,-4.475597381591797
1763699248018306300,10.371306396484375,-3.099400281906128,-3.2070653438568115,-4.791261196136475
1763699248028266200,10.381266357421875,-2.36934757232666,-2.8390934467315674,-4.824877738952637
1763699248038226200,10.39122607421875,-1.4778152704238892,-1.4256292581558228,-4.879180431365967
1763699248048186000,10.40118603515625,-0.44713035225868225,0.48862773180007935,-5.176055908203125
1763699248058147000,10.41114697265625,0.23407401144504547,2.404827356338501,-5.045594215393066
1763699248068107000,10.42110693359375,0.5452356338500977,3.5811586380004883,-4.296926021575928
1763699248078067000,10.43106689453125,0.5796583294868469,3.553494453430176,-3.246838092803955
1763699248088028200,10.441028076171875,0.4640129506587982,2.1175694465637207,-2.312652111053467
1763699248097988000,10.450988037109376,0.2949797213077545,0.5328245162963867,-1.6756367683410645
1763699248107948000,10.460947998046874,-0.06966269761323929,-0.25217074155807495,-1.2531731128692627
1763699248117908200,10.470908203125,-0.5865889191627502,-0.03687759116292,-0.9986012578010559
1763699248127869200,10.480869140625,-1.1475201845169067,0.4527277946472168,-0.8789994716644287
1763699248137829000,10.4908291015625,-1.607401728630066,0.6063298583030701,-0.7697749733924866
1763699248147789300,10.500789306640625,-1.7902655601501465,0.3817726671695709,-0.5866616368293762
1763699248157749200,10.510749267578126,-1.7131614685058594,0.026022545993328094,-0.3284734785556793
1763699248167710000,10.5207099609375,-1.4306786060333252,-0.3419581353664398,-0.15536801517009735
1763699248177670100,10.530670166015625,-1.0112241506576538,-0.4892149567604065,-0.14536331593990326
1763699248187630000,10.540630126953126,-0.43566039204597473,-0.25779879093170166,-0.02815653756260872
1763699248197591000,10.550591064453124,0.3160562217235565,0.014946458861231804,0.46949559450149536
1763699248207551200,10.56055126953125,1.130479097366333,-0.08668749034404755,1.2987288236618042
1763699248217511200,10.57051123046875,1.734119176864624,-0.5960490107536316,2.1693718433380127
1763699248227471000,10.58047119140625,1.8268944025039673,-1.4041396379470825,2.865107536315918
1763699248237432300,10.590432373046875,1.5111939907073975,-2.100433111190796,3.418905258178711
1763699248247392300,10.600392333984376,1.184950828552246,-2.4912962913513184,3.8580479621887207
1763699248257352200,10.610352294921874,1.0567196607589722,-2.5140392780303955,4.253199100494385
1763699248267313200,10.620313232421875,1.2378013134002686,-2.171058177947998,4.5628342628479
1763699248277273000,10.630273193359375,1.6953630447387695,-1.6279759407043457,4.779476642608643
1763699248287233000,10.64023291015625,2.195101499557495,-1.4485551118850708,5.052191734313965
1763699248297193000,10.65019287109375,2.5365536212921143,-1.6567317247390747,4.917459964752197
1763699248307154200,10.660154296875,2.5092878341674805,-1.5098387002944946,4.629673480987549
1763699248317114000,10.670114013671874,2.061535596847534,-0.2631669044494629,4.3496198654174805
1763699248327074000,10.680073974609375,1.3640916347503662,1.4360930919647217,3.9477837085723877
1763699248337034200,10.6900341796875,0.9050933718681335,3.292715549468994,3.5097577571868896
1763699248346995200,10.6999951171875,0.7935543656349182,4.680498123168945,3.2122390270233154
1763699248356955100,10.709955078125,1.1606879234313965,4.597561836242676,3.060795307159424
1763699248366915300,10.719915283203125,1.5437053442001343,3.3057267665863037,3.0747733116149902
1763699248376876000,10.7298759765625,1.6922942399978638,2.0911359786987305,3.094156503677368
1763699248386836000,10.7398359375,1.7055245637893677,0.9012411236763,2.900644302368164
1763699248396796200,10.749796142578125,1.5994971990585327,-0.6579717397689819,2.62078595161438
1763699248406755800,10.759755859375,1.3438947200775146,-2.3040103912353516,2.3664510250091553
1763699248416717000,10.769717041015625,0.9335833787918091,-3.877689838409424,2.1629936695098877
1763699248426677000,10.779677001953125,0.5106039047241211,-5.1491379737854,1.8944883346557617
1763699248436637000,10.789636962890626,0.24837572872638702,-5.899824142456055,1.4154855012893677
1763699248446597000,10.79959716796875,0.14470019936561584,-6.279261589050293,0.7218343615531921
1763699248456558000,10.80955810546875,0.08487467467784882,-6.010894775390625,-0.1158677488565445
1763699248466518000,10.81951806640625,-0.006551109720021486,-5.321570873260498,-0.9815173149108887
1763699248476478200,10.829478271484374,-0.19958634674549103,-4.444553852081299,-1.6980208158493042
1763699248486439000,10.83943896484375,-0.5242736339569092,-3.374706268310547,-2.1734001636505127
1763699248496398800,10.84939892578125,-0.8533939719200134,-2.3131062984466553,-2.430086374282837
1763699248506359000,10.859359130859374,-0.9946901202201843,-1.1068302392959595,-2.571711778640747
1763699248516319000,10.869319091796875,-0.9189913868904114,0.26042279601097107,-2.7346954345703125
1763699248526280000,10.879280029296876,-0.6841269135475159,1.40095055103302,-2.8603389263153076
1763699248536240000,10.889240234375,-0.3219183683395386,2.129976272583008,-2.7317311763763428
1763699248546200000,10.899199951171875,0.19227063655853271,2.7342655658721924,-2.292156457901001
1763699248556161000,10.9091611328125,0.6479454636573792,3.5564215183258057,-1.6291416883468628
1763699248566121200,10.919121337890624,0.8553114533424377,4.616032600402832,-0.8677758574485779
1763699248576081200,10.9290810546875,0.8540368676185608,5.090366363525391,-0.021197430789470673
1763699248586041000,10.939041015625,0.903781533241272,4.2827348709106445,0.6449728608131409
1763699248596002000,10.949001953125,1.3021494150161743,3.9029197692871094,0.8784378170967102
1763699248605962000,10.9589619140625,1.6242129802703857,5.345149517059326,0.5307030081748962
1763699248615922000,10.968921875,1.761677861213684,6.461341857910156,0.3544670045375824
1763699248625882000,10.978882080078124,1.4670296907424927,3.829470634460449,0.07834859937429428
1763699248635843000,10.988843017578125,0.7224668860435486,-0.060377322137355804,0.058932825922966
1763699248645803000,10.998802978515625,-0.055338889360427856,-1.6935983896255493,0.1601467877626419
1763699248655763200,11.00876318359375,-0.6156221628189087,-1.9439997673034668,-0.03758945316076279
1763699248665724200,11.01872412109375,-0.3475678265094757,-0.9385839700698853,-0.3331303000450134
1763699248675684000,11.02868408203125,0.19369277358055115,0.5465884804725647,-1.0094512701034546
1763699248685644000,11.03864404296875,0.44328048825263977,1.855830430984497,-2.029240846633911
1763699248695604000,11.04860400390625,0.010975419543683529,2.835731267929077,-3.2914154529571533
1763699248705565000,11.05856494140625,-1.2236859798431396,3.3725924491882324,-4.409461498260498
1763699248715525000,11.068525146484374,-2.9425408840179443,2.8405909538269043,-5.059521198272705
1763699248725485000,11.078485107421875,-4.776577472686768,2.109396457672119,-5.092835426330566
1763699248735446000,11.088446044921875,-6.203638553619385,1.3600713014602661,-4.519931793212891
1763699248745406200,11.09840625,-6.692128658294678,0.13141848146915436,-3.705915927886963
1763699248755366100,11.1083662109375,-6.016895294189453,-1.5824718475341797,-3.492269992828369
1763699248765326000,11.118326171875,-4.538098335266113,-2.7123935222625732,-4.424813747406006
1763699248775287000,11.128287109375,-2.590308666229248,-1.3335515260696411,-6.144411087036133
1763699248785247000,11.1382470703125,-0.7226831316947937,1.9807835817337036,-6.991694927215576
1763699248795207000,11.14820703125,0.4147745668888092,5.6064605712890625,-5.607607364654541
1763699248805166800,11.158166748046876,0.17080315947532654,6.377035140991211,-3.1256496906280518
1763699248815128000,11.168128173828125,-0.426301509141922,2.9206886291503906,-1.4739720821380615
1763699248825088000,11.178087890625,-0.5019784569740295,-0.7209523320198059,-0.7866432070732117
1763699248835048000,11.1880478515625,-0.5775467157363892,-1.7130173444747925,-0.7181533575057983
1763699248845009200,11.198009033203125,-0.8698773384094238,-0.6124855279922485,-0.7463862895965576
1763699248854969000,11.207968994140625,-1.3395649194717407,0.5455762147903442,-0.5728510022163391
1763699248864929000,11.217928955078126,-1.7367712259292603,0.057187121361494064,-0.3008980453014374
1763699248874889200,11.22788916015625,-1.9413254261016846,-1.295815110206604,-0.03212997317314148
1763699248884850000,11.237849853515625,-1.88618803024292,-1.8576768636703491,0.37923839688301086
1763699248894809900,11.247809814453126,-1.473509430885315,-1.2303458452224731,1.0541092157363892
1763699248904770000,11.25777001953125,-0.8052930235862732,-0.4860149025917053,1.6723157167434692
1763699248914730000,11.26772998046875,-0.06706398725509644,-0.3524930775165558,2.0051496028900146
1763699248924691000,11.27769091796875,0.7816761136054993,-0.36889761686325073,2.2268481254577637
1763699248934651100,11.287651123046874,1.4982467889785767,-0.5776260495185852,2.595496654510498
1763699248944611000,11.297611083984375,1.7111728191375732,-1.430831789970398,3.0959298610687256
1763699248954572000,11.307572021484376,1.6534693241119385,-2.102813959121704,3.7177207469940186
1763699248964532200,11.3175322265625,1.496275782585144,-2.3662948608398438,4.217625141143799
1763699248974492200,11.3274921875,1.3617461919784546,-2.1823911666870117,4.578126430511475
1763699248984452000,11.3374521484375,1.328607439994812,-1.683445930480957,4.981014728546143
1763699248994413000,11.3474130859375,1.5498788356781006,-1.212435245513916,5.422201156616211
1763699249004373000,11.357373046875,2.1279170513153076,-0.8548637628555298,5.749881744384766
1763699249014333000,11.3673330078125,2.696462631225586,-0.5318090319633484,6.071854591369629
1763699249024292900,11.37729296875,3.0468125343322754,-1.4321467876434326,5.91619348526001
1763699249034254000,11.387254150390625,2.8107354640960693,-2.7189574241638184,5.447537899017334
1763699249044214000,11.397214111328125,1.9573850631713867,-3.0771257877349854,4.908085346221924
1763699249054174000,11.407174072265626,1.0459187030792236,-2.159830093383789,4.057650089263916
1763699249064135200,11.41713525390625,0.8254384994506836,0.219387486577034,3.3291661739349365
1763699249074095000,11.42709521484375,1.0448031425476074,2.41337513923645,3.390362024307251
1763699249084055000,11.437054931640626,1.4951997995376587,2.4705660343170166,3.701356887817383
1763699249094015200,11.44701513671875,2.1360690593719482,0.8381205201148987,3.842641592025757
1763699249103976000,11.456975830078125,2.506744861602783,-0.7134331464767456,3.6571204662323
1763699249113936000,11.466935791015626,2.565541982650757,-1.8842991590499878,3.112044334411621
1763699249123896000,11.47689599609375,2.312659740447998,-2.7229440212249756,2.4711458683013916
1763699249133856000,11.48685595703125,2.004662275314331,-3.39892840385437,1.8913650512695312
1763699249143817000,11.49681689453125,1.9123294353485107,-4.2388153076171875,1.3320602178573608
1763699249153777200,11.506777099609375,1.988612174987793,-5.004323482513428,0.6873115301132202
1763699249163737000,11.516737060546875,1.9624359607696533,-5.054409027099609,-0.07104967534542084
1763699249173698000,11.526697998046876,1.6780122518539429,-4.684585094451904,-0.9003694653511047
1763699249183658200,11.536658203125,1.1224638223648071,-3.812283754348755,-1.7044206857681274
1763699249193618200,11.5466181640625,0.5054336190223694,-2.431337594985962,-2.3722903728485107
1763699249203578000,11.556578125,-0.06788663566112518,-0.8597075343132019,-2.803264617919922
1763699249213539000,11.5665390625,-0.48428332805633545,0.44922733306884766,-3.129024028778076
1763699249223499000,11.5764990234375,-0.6923198699951172,1.4376739263534546,-3.4420580863952637
1763699249233459000,11.586458984375,-0.7311484813690186,2.4176230430603027,-3.740579843521118
1763699249243419000,11.5964189453125,-0.6112359166145325,3.4295778274536133,-3.688866138458252
1763699249253380000,11.606380126953125,-0.28679659962654114,4.281871795654297,-3.2343251705169678
1763699249263340000,11.616340087890626,0.046723827719688416,4.537227630615234,-2.7484049797058105
1763699249273300000,11.626300048828124,0.13665318489074707,4.726648807525635,-2.4690308570861816
1763699249283261200,11.63626123046875,-0.029699305072426796,5.022302150726318,-2.159580945968628
1763699249293221000,11.64622119140625,-0.3061889410018921,5.304001808166504,-1.161036491394043
1763699249303181000,11.65618115234375,-0.4081867039203644,4.27509069442749,0.09750791639089584
1763699249313141000,11.66614111328125,-0.01968102715909481,3.166085958480835,0.38505446910858154
1763699249323102000,11.67610205078125,0.376722514629364,2.8520302772521973,0.018580608069896698
1763699249333062000,11.686061767578124,0.7181602716445923,2.9906020164489746,0.12621119618415833
1763699249343022000,11.69602197265625,1.03178870677948,3.625246286392212,0.3524046540260315
1763699249352983000,11.705983154296876,1.4313756227493286,2.9493870735168457,0.2180423140525818
1763699249362943000,11.71594287109375,1.448463797569275,0.18440739810466766,0.4878160059452057
1763699249372903200,11.725903076171875,0.7009817957878113,0.2601807117462158,0.8380909562110901
1763699249382863000,11.735863037109375,0.06699500977993011,1.3022282123565674,0.4965847432613373
1763699249392823800,11.74582373046875,0.2864501476287842,1.632515549659729,-0.6159111261367798
1763699249402784300,11.7557841796875,0.6471867561340332,2.013180732727051,-1.7441632747650146
1763699249412744200,11.765744140625,0.4564615488052368,2.4188296794891357,-2.8829452991485596
1763699249422704000,11.7757041015625,-0.6532585024833679,2.0098986625671387,-4.074914932250977
1763699249432665300,11.785665283203125,-2.5029220581054688,0.8281016945838928,-5.037575721740723
1763699249442625300,11.795625244140625,-4.426828861236572,-0.3229048252105713,-5.355678558349609
1763699249452585200,11.805585205078126,-5.9283061027526855,-1.484696865081787,-4.8428239822387695
1763699249462546400,11.81554638671875,-6.737261772155762,-2.955836772918701,-3.784942626953125
1763699249472506400,11.82550634765625,-6.426574230194092,-4.355383396148682,-3.0720672607421875
1763699249482466300,11.83546630859375,-4.75117826461792,-4.352146148681641,-3.608638286590576
1763699249492426500,11.845426513671875,-2.280153751373291,-1.956033706665039,-5.773342132568359
1763699249502387200,11.85538720703125,0.03347327187657356,2.3290905952453613,-7.226632118225098
1763699249512347100,11.86534716796875,1.0217111110687256,5.6328816413879395,-6.0085248947143555
1763699249522307300,11.875307373046875,0.5933474898338318,5.481588363647461,-2.9242966175079346
1763699249532267300,11.885267333984375,-0.21482574939727783,2.0824527740478516,-1.033640742301941
1763699249542228200,11.895228271484376,-0.7134630084037781,-0.6427379250526428,-0.9354608654975891
1763699249552188400,11.9051884765625,-1.2392410039901733,-0.8496751189231873,-1.2988606691360474
1763699249562148400,11.9151484375,-1.868175745010376,-0.010359164327383041,-1.5094420909881592
1763699249572109300,11.925109375,-2.463670253753662,0.1336749792098999,-1.458021879196167
1763699249582069500,11.935069580078125,-2.744940996170044,-0.669757604598999,-1.1663609743118286
1763699249592029400,11.945029541015625,-2.6653177738189697,-1.32465660572052,-0.5792987942695618
1763699249601989400,11.9549892578125,-2.2218387126922607,-1.1783581972122192,0.2489541620016098
1763699249611950300,11.964950439453125,-1.4967966079711914,-0.8272380232810974,0.9143798351287842
1763699249621910300,11.97491015625,-0.54498690366745,-0.7207437753677368,1.2335072755813599
1763699249631870200,11.9848701171875,0.6182632446289062,-0.5693244338035583,1.6273205280303955
1763699249641830100,11.994830078125,1.6760751008987427,-0.6531796455383301,2.4322354793548584
1763699249651791400,12.004791259765625,2.122976064682007,-1.862094521522522,3.2124836444854736
1763699249661751300,12.014751220703126,2.001293420791626,-3.1009998321533203,3.970419406890869
1763699249671711200,12.024711181640624,1.9006175994873047,-3.8469371795654297,4.735332489013672
1763699249681672400,12.03467236328125,1.9168123006820679,-3.9161581993103027,5.359151840209961
1763699249691632400,12.04463232421875,2.1005172729492188,-3.3551597595214844,5.706695079803467
1763699249701592300,12.05459228515625,2.667194366455078,-2.6234257221221924,5.8602519035339355
1763699249711552300,12.06455224609375,3.4720804691314697,-2.9347267150878906,5.69813871383667
1763699249721513200,12.07451318359375,4.009566307067871,-3.2176637649536133,5.489422798156738
1763699249731473200,12.08447314453125,3.9703638553619385,-2.2110133171081543,5.297842979431152
1763699249741433300,12.094433349609375,2.9574434757232666,0.16875439882278442,4.661194324493408
1763699249751393300,12.104393310546875,1.4309478998184204,2.839634418487549,3.937314748764038
1763699249761354200,12.114354248046874,0.5014455318450928,4.512764930725098,3.8903520107269287
1763699249771314400,12.124314453125,0.6506944298744202,4.150737762451172,4.182285308837891
1763699249781274400,12.1342744140625,1.5179948806762695,2.367919683456421,4.6706390380859375
1763699249791234300,12.144234375,1.7494478225708008,1.1421935558319092,4.936793804168701
1763699249801195300,12.1541953125,1.4580029249191284,0.24041074514389038,4.654209613800049
1763699249811155200,12.1641552734375,1.2006827592849731,-1.0727391242980957,3.970200300216675
1763699249821115100,12.174115234375,1.209302544593811,-2.555124282836914,3.409543991088867
1763699249831076400,12.184076416015625,1.3744553327560425,-4.067646503448486,2.996029853820801
1763699249841036300,12.194036376953125,1.3064160346984863,-5.23653507232666,2.5451622009277344
1763699249850996200,12.203996337890626,1.12851881980896,-6.106159687042236,1.8430339097976685
1763699249860956200,12.2139560546875,0.9394108653068542,-6.459899425506592,0.9354081749916077
1763699249870917400,12.22391748046875,0.6061594486236572,-5.9337158203125,-0.022118885070085526
1763699249880877300,12.233877197265626,0.22653727233409882,-4.927804470062256,-1.0161552429199219
1763699249890837200,12.243837158203124,-0.04002944007515907,-3.294673442840576,-1.9553767442703247
1763699249900798200,12.253798095703125,-0.19140325486660004,-1.547093152999878,-2.645505428314209
1763699249910758100,12.263758056640626,-0.27076706290245056,0.2707095146179199,-3.2234444618225098
1763699249920718000,12.273718017578124,-0.24898399412631989,1.9742553234100342,-3.8523850440979004
1763699249930678300,12.28367822265625,-0.08930404484272003,3.149902820587158,-4.080191135406494
1763699249940639200,12.29363916015625,0.048049286007881165,4.036721229553223,-3.5513999462127686
1763699249950599200,12.30359912109375,-0.1261209100484848,4.3441996574401855,-2.6879072189331055
1763699249960559400,12.313559326171875,-0.4403323829174042,4.440957069396973,-1.8851697444915771
1763699249970519300,12.323519287109375,-0.6209503412246704,4.752926349639893,-1.1792799234390259
1763699249980480300,12.333480224609374,-0.5184285044670105,5.426365375518799,0.023089872673153877
1763699249990440400,12.3434404296875,-0.1804419457912445,4.938817501068115,0.5650601983070374
1763699250000400400,12.353400390625,0.16680389642715454,3.378849983215332,-0.09667593985795975
1763699250010361000,12.363361083984374,0.5037441253662109,2.821413993835449,-0.20911140739917755
1763699250020321300,12.3733212890625,0.835639476776123,5.206441402435303,0.36104661226272583
1763699250030281200,12.38328125,1.447201132774353,7.820583820343018,0.8599411249160767
1763699250040241200,12.3932412109375,1.511297583580017,3.312201738357544,0.9400295615196228
1763699250050202400,12.403202392578125,0.5827521085739136,-0.2508165240287781,1.3512053489685059
1763699250060162300,12.413162353515625,-0.46386513113975525,-1.0266482830047607,0.9323833584785461
1763699250070122200,12.423122314453124,-0.6401669383049011,-0.6973546147346497,-0.4595249891281128
1763699250080082200,12.433082275390625,-0.6101560592651367,1.0351570844650269,-2.339162826538086
1763699250090043400,12.44304345703125,-1.1097818613052368,3.0868444442749023,-3.763533115386963
1763699250100003300,12.45300341796875,-2.2274672985076904,3.086019992828369,-4.875136852264404
1763699250109963300,12.46296337890625,-3.555508613586426,0.8548741936683655,-5.6233625411987305
