time,seconds_elapsed,z,y,x
1763701325826020600,0.0510205078125,9.523313535368443,2.228153750474006,0.7156931317768991
1763701325836041700,0.061041748046875,9.509341124117373,2.2969768190704283,0.6831655845943838
1763701325846062600,0.0710625,9.493993332859873,2.3666629342369734,0.6583173398680985
1763701325856083700,0.081083740234375,9.478521038439869,2.4317022465109823,0.6440900040078907
1763701325866104600,0.0911044921875,9.463787579688429,2.4893337667465207,0.6405662137959152
1763701325876125700,0.101125732421875,9.44938963650167,2.5419576879531145,0.6464316717632115
1763701325886146800,0.111146728515625,9.434283837306499,2.5941139916479585,0.6597330518849194
1763701325896167700,0.121167724609375,9.419186221417783,2.6451570734038947,0.6726502549946308
1763701325906188800,0.131188720703125,9.407624378439783,2.6870500494986773,0.6683894557449966
1763701325916209700,0.141209716796875,9.398381918320059,2.7240692820772527,0.6482672166272998
1763701325926230800,0.151230712890625,9.390783718276023,2.7549709085583687,0.6274525382660329
1763701325936251600,0.161251708984375,9.384083343854545,2.781419355022907,0.61079183777906
1763701325946272500,0.1712724609375,9.377947033056616,2.8055943035975095,0.5942526082472875
1763701325956293600,0.181293701171875,9.373141678601502,2.825239207527041,0.5767348890721797
1763701325966314800,0.191314697265625,9.369950189083815,2.84028275514096,0.5542656849695369
1763701325976336000,0.2013359375,9.367519162544607,2.8533716615557667,0.5274859607240184
1763701325986356700,0.211356689453125,9.365776118269562,2.866724187342822,0.48426783697269854
1763701325996377600,0.221377685546875,9.364800551235675,2.8807135497286915,0.4151918530611321
1763701326006398700,0.231398681640625,9.36404593347609,2.8945050514549013,0.32690212317891415
1763701326016419600,0.241419677734375,9.362270155975223,2.909215129330754,0.23399600380873306
1763701326026440700,0.251440673828125,9.359354560789466,2.924238218678534,0.14728568860506638
1763701326036461600,0.261461669921875,9.354537515896558,2.941870029219985,0.09173021659175865
1763701326046482700,0.271482666015625,9.346917688542604,2.966182048177719,0.08533785780668258
1763701326056504800,0.2815048828125,9.337890332478285,2.992898790189624,0.12941634298069402
1763701326066525700,0.291525634765625,9.327366600376367,3.0194957052141427,0.23079620312042534
1763701326076546600,0.301546630859375,9.3144539273113,3.0439415796846148,0.3817757230084389
1763701326086567700,0.311567626953125,9.29953517512083,3.0596736940845846,0.5722147447666153
1763701326096588500,0.321588623046875,9.283453224369882,3.06415814602226,0.7738282906856387
1763701326106609700,0.331609619140625,9.268219414880871,3.0582322631046175,0.9579702946588396
1763701326116630800,0.341630859375,9.256574569794536,3.044989042910933,1.1019328484568744
1763701326126651600,0.351651611328125,9.248008986023068,3.0290950159475205,1.2121483962800352
1763701326136672800,0.3616728515625,9.240499633306264,3.0130408299863336,1.305807873034477
1763701326146693600,0.371693603515625,9.23579072496295,2.9956200318470594,1.3772507687404751
1763701326156714800,0.38171484375,9.234959534835815,2.9762372859850523,1.4240484680116177
1763701326166735600,0.391735595703125,9.232294699540734,2.9623648279771206,1.469528801073879
1763701326176756700,0.4017568359375,9.222889157813787,2.957850565423071,1.5361711646303533
1763701326186777900,0.41177783203125,9.209051186597346,2.9592008109882473,1.61458726034984
1763701326196798700,0.421798828125,9.197765237951279,2.9622201588094232,1.6723473754011093
1763701326206819800,0.43181982421875,9.191350694733858,2.9591125481829046,1.7126314549945294
1763701326216841000,0.441841064453125,9.194072813174127,2.9434406395375725,1.724982840915024
1763701326226862000,0.451862060546875,9.20527634423375,2.919120729534328,1.7064600728832184
1763701326236883000,0.461883056640625,9.217301713070272,2.8920599963903424,1.687518787178397
1763701326246903800,0.47190380859375,9.228528040483594,2.8642294479176402,1.673572094890475
1763701326256925000,0.481925048828125,9.238390093806386,2.8379075504422184,1.6639771680712698
1763701326266945800,0.49194580078125,9.243262668278813,2.81693285921365,1.6725342762753366
1763701326276967000,0.501966796875,9.241719530490041,2.8015459049895406,1.7065607567787169
1763701326286989000,0.511989013671875,9.235108003395796,2.788646383666992,1.7625607302896678
1763701326297010000,0.522010009765625,9.226331407222151,2.7741809282019734,1.8300581032402812
1763701326307031000,0.532031005859375,9.216852215737104,2.7503414951920506,1.9119737315133214
1763701326317052000,0.542052001953125,9.203993318685889,2.7160461346194147,2.0198954693108795
1763701326327072800,0.55207275390625,9.186397456240654,2.6853616580203172,2.1375962583228945
1763701326337094000,0.562093994140625,9.168827312758564,2.6680264923378822,2.232627681017667
1763701326347114800,0.57211474609375,9.157418614515661,2.661576001024246,2.286498971936852
1763701326357136000,0.582135986328125,9.159331754660606,2.651260066454112,2.2908185887016357
1763701326367157000,0.592156982421875,9.175308491471409,2.6247972992032764,2.257107311627269
1763701326377177900,0.602177734375,9.197745364207028,2.583162097261846,2.2133993950650095
1763701326387199000,0.612198974609375,9.222257874172925,2.536656658935547,2.1646527536831797
1763701326397219800,0.6222197265625,9.246509102854132,2.497354868377745,2.1061036802113056
1763701326407241000,0.632240966796875,9.269067556142806,2.473352646021545,2.03403636899665
1763701326417261800,0.64226171875,9.288560192120075,2.466820906165242,1.9513653923116623
1763701326427282700,0.65228271484375,9.303708661413193,2.4747516991645098,1.867350161410868
1763701326437303800,0.6623037109375,9.314128933140635,2.495942955753207,1.7854004847377538
1763701326447324700,0.67232470703125,9.319795288339257,2.5274811265721917,1.7098665203258394
1763701326457346000,0.682345947265625,9.319728652843832,2.5631629730671643,1.6562730234347283
1763701326467367000,0.692366943359375,9.314974736315012,2.588098969142139,1.6441946092367172
1763701326477388000,0.702387939453125,9.310969007804989,2.5901936033338306,1.6634727256804704
1763701326487409000,0.712408935546875,9.309142376899718,2.576643801409006,1.6944488787025211
1763701326497429800,0.7224296875,9.305701881057024,2.5667189119830724,1.7280784688428044
1763701326507451000,0.732450927734375,9.295362857872247,2.571442141112685,1.7760352750211954
1763701326517473000,0.74247314453125,9.285711232429742,2.584387547403574,1.8074540572442113
1763701326527494000,0.752493896484375,9.2799893476516,2.59957576418519,1.8150446585036812
1763701326537515000,0.762514892578125,9.2720264059484,2.6148323700278997,1.833728608446568
1763701326547536000,0.772535888671875,9.25617300325632,2.62119079914391,1.9034191075272857
1763701326557557000,0.782556884765625,9.236337252929806,2.6039459420934317,2.0198815869159996
1763701326567577900,0.792577880859375,9.21057386611998,2.56967980761528,2.1754227156311274
1763701326577598700,0.8025986328125,9.17664938468635,2.5339085292711854,2.353464722228795
1763701326587619800,0.812619873046875,9.136170074781775,2.503227559803426,2.536656658935547
1763701326597640700,0.822640625,9.092479401615261,2.4729934573203325,2.7168933990985153
1763701326607662000,0.832662109375,9.048477762803435,2.4393898784041403,2.8887387430131435
1763701326617683000,0.842682861328125,8.998870559069514,2.41096326373443,3.062347589468956
1763701326627703800,0.852703857421875,8.953401770314574,2.39181447275877,3.207211402955651
1763701326637725000,0.862724853515625,8.921752248075604,2.377553015433252,3.3045360511541366
1763701326647745800,0.872745849609375,8.89527457551658,2.3743669327430426,3.3774037189662454
1763701326657767000,0.882766845703125,8.873627976375818,2.3865808098889887,3.425397057762742
1763701326667787800,0.892787841796875,8.86215498072505,2.413501550040394,3.436219480550289
1763701326677808600,0.90280859375,8.866284043353795,2.453767071063816,3.396825043272972
1763701326687830000,0.912830078125,8.883457880994676,2.505213472923636,3.3133763602137565
1763701326697851000,0.922850830078125,8.91151843883097,2.562543964385986,3.191958011983335
1763701326707872000,0.9328720703125,8.952710865440965,2.6183017997041342,3.02718509067297
1763701326717892900,0.942892822265625,9.00240107128322,2.668551685255766,2.829486343577504
1763701326727914000,0.9529140625,9.05499576639533,2.7083123254969714,2.6158131977587935
1763701326737936000,0.962935791015625,9.106906570896506,2.7336387821942565,2.400386632401496
1763701326747956700,0.972956787109375,9.155888920730352,2.743528308045864,2.193884839516878
1763701326757977900,0.982977783203125,9.200128459951282,2.733934550270438,2.0133612452365455
1763701326767999000,0.9929990234375,9.23821473723948,2.706000541423261,1.8717197547972202
1763701326778019800,1.003019775390625,9.269649155423044,2.664623405896127,1.7730689725615083
1763701326788041000,1.013041015625,9.294628113856911,2.614727740609646,1.7156546022079884
1763701326798061800,1.023061767578125,9.312951706054806,2.5621798072487114,1.6954507492214441
1763701326808083000,1.0330830078125,9.325260568007826,2.5112930850982664,1.7039073196604846
1763701326818103800,1.043103759765625,9.333520446830988,2.465103288592398,1.7259924563489852
1763701326828124700,1.053124755859375,9.339574924564362,2.4255533684924244,1.7491189187839626
1763701326838146000,1.06314599609375,9.345328373524547,2.3950325580224394,1.7604080823004244
1763701326848167000,1.0731669921875,9.351614321926236,2.3767912372805178,1.751730124195665
1763701326858188000,1.08318798828125,9.358889281365276,2.3686294120043514,1.7237082909345627
1763701326868209000,1.093208984375,9.367297044226527,2.3656727541558444,1.6815845748238265
1763701326878229800,1.103229736328125,9.37505131161511,2.364003213508427,1.6402091928623617
1763701326888251000,1.1132509765625,9.380640509924293,2.361095509368181,1.6122016803875565
1763701326898271700,1.123271728515625,9.383048740109801,2.3596926568329333,1.600195600773394
1763701326908292900,1.13329296875,9.382378293502331,2.363717674565315,1.5981857222557068
1763701326918314000,1.14331396484375,9.380090474826098,2.373941839198768,1.5964602136373518
1763701326928334800,1.1533349609375,9.378602282094954,2.385544014187157,1.5878849852547048
1763701326938356000,1.16335595703125,9.380273430177569,2.3907157177366316,1.5701393390752374
1763701326948376800,1.173376953125,9.385489118999242,2.38677399437353,1.5447605676688252
1763701326958398700,1.183398681640625,9.392177218461036,2.376396977265924,1.5199107885725796
1763701326968419800,1.193419921875,9.398787576511502,2.361868101175874,1.5015850044175982
1763701326978440700,1.203440673828125,9.404374436733127,2.344814528913796,1.4933080283291638
1763701326988462000,1.213462158203125,9.408976377570628,2.3259921934135255,1.4937567950099706
1763701326998483000,1.22348291015625,9.412020567572116,2.3081265741162,1.5022665569409728
1763701327008503800,1.23350390625,9.413519281697273,2.2912600488588213,1.5186059895843267
1763701327018525000,1.24352490234375,9.417428564095497,2.2673433128289875,1.5302217547066508
1763701327028545800,1.2535458984375,9.423674180486797,2.237932363297045,1.535058527213335
1763701327038567000,1.26356689453125,9.428936631059646,2.210385746332258,1.5426365612521766
1763701327048587800,1.273587890625,9.432380634033679,2.1869386736407876,1.5549534603811799
1763701327058609000,1.28360888671875,9.434569083988666,2.168522726984322,1.5674178051568566
1763701327068630000,1.293630126953125,9.43562531504333,2.156918506169319,1.5770409351572394
1763701327078651000,1.30365087890625,9.436038572019338,2.151421223927289,1.582071622800827
1763701327088672000,1.313672119140625,9.436458843258023,2.148340501307696,1.5837481777109206
1763701327098692900,1.32369287109375,9.43689372754395,2.1441015485636887,1.5868983123049138
1763701327108714000,1.3337138671875,9.437963402602076,2.1346552364349365,1.5932598101608455
1763701327118734800,1.34373486328125,9.439601232936978,2.12033415787667,1.602652054014802
1763701327128755700,1.353755615234375,9.440728775662183,2.1051599696204066,1.6159607406601308
1763701327138776800,1.36377685546875,9.440604857021569,2.092125569871813,1.6335168556168675
1763701327148797700,1.373797607421875,9.438556692320107,2.081457460863143,1.6587860291689633
1763701327158819000,1.383819091796875,9.434317155054211,2.0711134692423046,1.695445196263492
1763701327168840000,1.39383984375,9.428211239394544,2.057758313106745,1.744949378014356
1763701327178862000,1.403862060546875,9.420078786343336,2.039388543679565,1.8092514620549975
1763701327188883200,1.41388330078125,9.41123029397726,2.0161220882520077,1.8799952695809303
1763701327198904300,1.423904296875,9.40394072149098,1.9902337598882613,1.9430019069835542
1763701327208925200,1.43392529296875,9.399290265336631,1.967574768834561,1.9880583155453204
1763701327218946300,1.4439462890625,9.396820075830817,1.9557593894869088,2.011259012260288
1763701327228967200,1.45396728515625,9.395865551584958,1.9477198754161595,2.023481511104107
1763701327238988300,1.46398828125,9.397762909638882,1.9289884330697356,2.0325955225385726
1763701327249009200,1.474009033203125,9.401228539922833,1.8975545994080603,2.046110691541433
1763701327259030000,1.484030029296875,9.404189727815986,1.8617057257831096,2.065346284017712
1763701327269051400,1.494051513671875,9.407362512633204,1.8259236337840556,2.082767374417931
1763701327279072300,1.504072265625,9.413284888419508,1.7909147181145846,2.0864039773546157
1763701327289093400,1.51409326171875,9.423154540526866,1.7585165694653986,2.069338276263326
1763701327299114200,1.5241142578125,9.437093634030223,1.7327745177045464,2.0271020396888253
1763701327309135000,1.534135009765625,9.455189262691139,1.71435068000257,1.957238229867816
1763701327319156200,1.54415625,9.476871517667174,1.7026415375083683,1.8601884530879556
1763701327329177000,1.554177001953125,9.501607314994931,1.6946004160024224,1.7372893647804855
1763701327339198200,1.5641982421875,9.528342761707306,1.6867825818583368,1.5924292045556008
1763701327349219000,1.574218994140625,9.554863688886165,1.6785149581201373,1.4344168634213506
1763701327359240200,1.584240234375,9.580006313449143,1.6686065814375877,1.2687082686960696
1763701327369261300,1.59426123046875,9.603608722832798,1.6544325101345776,1.0972402336612344
1763701327379282200,1.6042822265625,9.62564753616154,1.635550699532032,0.9177523391041904
1763701327389304000,1.614303955078125,9.645670918014645,1.6129953149832785,0.7277809713903814
1763701327399325200,1.6243251953125,9.662585812458396,1.5884871889315544,0.5305943385355174
1763701327409346000,1.634345947265625,9.67548270343244,1.5638837858118115,0.331184659336321
1763701327419367400,1.644367431640625,9.681547702559827,1.553397024719417,0.15803687278730794
1763701327429388300,1.65438818359375,9.68243968296349,1.5557894728139041,0.016243921538250286
1763701327439409200,1.6644091796875,9.684254623430967,1.5390693702898919,-0.12985198531844652
1763701327449430300,1.67443017578125,9.684999888840316,1.5191447726361453,-0.2517083687731065
1763701327459451100,1.684451171875,9.685264092734455,1.4967602146096526,-0.3546217220904305
1763701327469472300,1.69447216796875,9.685234866639972,1.4729188819035888,-0.4439847802925855
1763701327479493000,1.7044931640625,9.685466921830177,1.4466684422291813,-0.5189118648525327
1763701327489514200,1.71451416015625,9.686405079463123,1.4178664183758198,-0.5775822266165167
1763701327499535000,1.72453515625,9.6881633213073,1.387779907669872,-0.6196316353820264
1763701327509556200,1.73455615234375,9.69113152346313,1.3548252941817045,-0.6456057423330843
1763701327519577300,1.744577392578125,9.694556821736693,1.3233715867757796,-0.659270622004941
1763701327529598200,1.75459814453125,9.697632575920224,1.299343937717378,-0.6618215485967696
1763701327539619300,1.764619384765625,9.699835638922453,1.282918141964823,-0.6615845249705016
1763701327549640200,1.77464013671875,9.701604986682534,1.265037909620255,-0.6700189566429704
1763701327559661000,1.7846611328125,9.703253922933339,1.240537674614042,-0.6916025004848837
1763701327569682200,1.79468212890625,9.704962480416894,1.2094313193410635,-0.7220530221976339
1763701327579703000,1.804703125,9.706642396327853,1.1714467488616704,-0.7610451622843742
1763701327589725200,1.81472509765625,9.707610364577173,1.1291554210990666,-0.8109840091254562
1763701327599746300,1.824746337890625,9.707553665953874,1.0895323626976459,-0.8641223095949738
1763701327609767200,1.83476708984375,9.706713123476504,1.0584623208470643,-0.9109132137991487
1763701327619788300,1.844788330078125,9.704859604564309,1.039427146313712,-0.9516671759266405
1763701327629809200,1.85480908203125,9.702001292523741,1.034751555718109,-0.9853158360935748
1763701327639830000,1.864830078125,9.6982913320899,1.0476819836355744,-1.0079128678269684
1763701327649851100,1.87485107421875,9.693900403654574,1.074575397388637,-1.0217461628682911
1763701327659872300,1.884872314453125,9.690249479931593,1.1028753169387577,-1.0262115447793154
1763701327669893400,1.894893310546875,9.68866717917621,1.1255223252937196,-1.0165198065221308
1763701327679914200,1.904914306640625,9.690224345490336,1.139558230235055,-0.9855665959842502
1763701327689935000,1.91493505859375,9.69517699946165,1.137514157186821,-0.93807930701375
1763701327699956200,1.924956298828125,9.703796359246969,1.1080570304255932,-0.8825728161081671
1763701327709977000,1.93497705078125,9.71537398431599,1.0473347045678645,-0.827637037762627
1763701327719998200,1.944998291015625,9.72386182667613,0.9742730485536157,-0.8171207583148032
1763701327730019000,1.95501904296875,9.72956851388514,0.9070415599975734,-0.8265306108906865
1763701327740040200,1.965040283203125,9.73223627178967,0.8598401022311299,-0.845364856024459
1763701327750061300,1.975061279296875,9.730856215608119,0.8355377278845757,-0.8847004757866263
1763701327760082200,1.985082275390625,9.728827924650908,0.8278620786901563,-0.9137497523993253
1763701327770103300,1.995103271484375,9.727744221067429,0.8307419449754059,-0.9226261556856333
1763701327780124200,2.005124267578125,9.727007138964533,0.8390397446561604,-0.9228894827969372
1763701327790145300,2.015145263671875,9.727494630220532,0.8383492781739681,-0.9183693019587547
1763701327800167200,2.025167236328125,9.730820559772848,0.8279266683589667,-0.8922195461798459
1763701327810188300,2.035188232421875,9.737758250081539,0.8100213746383785,-0.8308487663507461
1763701327820209200,2.045209228515625,9.748674780893325,0.7821126463629305,-0.7225160365995019
1763701327830230300,2.055230224609375,9.761492761412262,0.7379130007609724,-0.5823461530826985
1763701327840251100,2.065251220703125,9.77311831727624,0.6896431831106543,-0.42535818656012414
1763701327850272300,2.075272216796875,9.781196994313596,0.6544714050296694,-0.2650180052665062
1763701327860293000,2.085293212890625,9.783545018744467,0.635505496340245,-0.22081408534822985
1763701327870314200,2.095314208984375,9.785217920392752,0.61771776458472,-0.19574215140128506
1763701327880335000,2.105335205078125,9.78782956419587,0.583835186064057,-0.16707875056732446
1763701327890356200,2.115356201171875,9.790126735222339,0.533707794380933,-0.19738401859048751
1763701327900377300,2.12537744140625,9.79113269739449,0.4828311552330851,-0.2664116698483005
1763701327910398200,2.135398193359375,9.789232416731119,0.4591176866903901,-0.36128435831740496
1763701327920419300,2.14541943359375,9.782745977321266,0.4669953247303143,-0.5001807512996718
1763701327930440200,2.155440185546875,9.769959560984372,0.49967199805993584,-0.6845464444935322
1763701327940461000,2.1654609375,9.751859256148338,0.5573126149173826,-0.8723696211975067
1763701327950482200,2.175482177734375,9.732163206553459,0.6389772641040384,-1.02327761021927
1763701327960503000,2.1855029296875,9.721124510666728,0.7258733842033892,-1.069222199792415
1763701327970524400,2.1955244140625,9.724190912500024,0.7909641344036906,-0.9924068903330713
1763701327980545300,2.205545166015625,9.732069683051108,0.7950111447721719,-0.9083843529086559
1763701327990566100,2.215566162109375,9.738155724966525,0.7556324165206402,-0.876202112032473
1763701328000587300,2.225587158203125,9.743571320274471,0.682889105740562,-0.875710309927538
1763701328010609200,2.235609130859375,9.748317638018726,0.611295038060844,-0.8757902432959527
1763701328020630000,2.245630126953125,9.753726219063998,0.5488898736827075,-0.8566991007916629
1763701328030651100,2.255651123046875,9.757751236796379,0.49417760189473625,-0.8440734279744326
1763701328040672300,2.26567236328125,9.758450324976444,0.438506714207679,-0.8664511909339576
1763701328050693400,2.275693359375,9.755085232457517,0.37021428188923744,-0.9336156056031584
1763701328060714200,2.28571435546875,9.747721425691246,0.2858830803744495,-1.0346894502673298
1763701328070735000,2.295735107421875,9.735475692102312,0.18997350487196818,-1.1639597541071474
1763701328080756200,2.305756103515625,9.712496967574953,0.0953931138803251,-1.352290661137551
1763701328090777000,2.315777099609375,9.673454996997117,0.022159350418893154,-1.6106402762897312
1763701328100798200,2.325798095703125,9.62568611460626,-0.03831442348826676,-1.874855860865861
1763701328110819000,2.335819091796875,9.580864976105094,-0.062373362734075635,-2.0912954026579857
1763701328120840200,2.345840087890625,9.550404371389746,-0.048466975057078525,-2.2266142659470436
1763701328130861300,2.355861328125,9.53223275488317,-0.003986441285540059,-2.303672078925371
1763701328140882200,2.365882080078125,9.512399342644214,0.05231405610640067,-2.383675589966774
1763701328150903300,2.3759033203125,9.480456390416622,0.10518797458526678,-2.506046124355495
1763701328160924200,2.385924072265625,9.43256709651649,0.15008881812598554,-2.678533273304999
1763701328170945300,2.3959453125,9.372098891550301,0.18925257018627598,-2.8806819855466483
1763701328180966000,2.4059658203125,9.30486835284233,0.22741998641928657,-3.088378979565203
1763701328190986800,2.41598681640625,9.235721166858076,0.26784067973811176,-3.2863501138612627
1763701328201007900,2.4260078125,9.173728528803586,0.31135807869695126,-3.45197643713057
1763701328211028700,2.43602880859375,9.121869746750592,0.36124841022118925,-3.5820913020357485
1763701328221051000,2.44605078125,9.073804511761665,0.42104978530909865,-3.695831662984192
1763701328231072000,2.456072021484375,9.018593496671318,0.49401861194074154,-3.8198555175378917
1763701328241092900,2.4660927734375,8.947062045899033,0.585165996276401,-3.9721582488536833
1763701328251114000,2.476114013671875,8.858252128067612,0.7133654925469308,-4.146427605044842
1763701328261134800,2.486134765625,8.746608447137474,0.8694860285852104,-4.348702866275608
1763701328271155700,2.49615576171875,8.610503109645842,1.036275769610703,-4.577745430661738
1763701328281176800,2.5061767578125,8.452586337840557,1.193897430926934,-4.826880642744898
1763701328291197700,2.51619775390625,8.273747774037718,1.3174043489344418,-5.097050751811266
1763701328301219000,2.526218994140625,8.075679024586082,1.3847596830658613,-5.388527268278598
1763701328311240000,2.536239990234375,7.867931177163124,1.3975219878748057,-5.684449658238887
1763701328321261000,2.546260986328125,7.654136450791358,1.3527666080862284,-5.979515723630786
1763701328331282000,2.556281982421875,7.444108967998623,1.2491231321297585,-6.260616392034292
1763701328341302800,2.566302734375,7.236843351134658,1.0942515732392668,-6.526952037504315
1763701328351324000,2.576323974609375,7.0383549149662255,0.9184268773648887,-6.766715902391076
1763701328361344800,2.5863447265625,6.859210061693191,0.7737264377463609,-6.965843805506825
1763701328371366000,2.596365966796875,6.7113406366497275,0.7098399487692862,-7.115083349859714
1763701328381386800,2.60638671875,6.613917788773775,0.7993446439318358,-7.196354688879847
1763701328391407900,2.616407958984375,6.590500088307261,1.0020873765438794,-7.192462942138314
1763701328401429000,2.626428955078125,6.625810471141338,1.149732125985995,-7.137726558822393
1763701328411449900,2.636449951171875,6.599683511716127,1.297926472134888,-7.136522443729639
1763701328421471000,2.646470947265625,6.548743013551831,1.4912019959606229,-7.145674302956461
1763701328431492900,2.656492919921875,6.5420116594702,1.684877186628431,-7.108703293433785
1763701328441513700,2.666513671875,6.569476004979014,1.8535716652967034,-7.041068265578151
1763701328451535000,2.67653515625,6.607894875222444,1.9822214260853825,-6.9697133404165506
1763701328461556000,2.686555908203125,6.645974722769856,2.0595289760410784,-6.910842633774876
1763701328471576800,2.696576904296875,6.690534579986333,2.0840350562661887,-6.860315392586588
1763701328481598000,2.706597900390625,6.742739983519911,2.06455264942199,-6.814944803509116
1763701328491618800,2.716618896484375,6.80669252347052,2.0114884371019897,-6.7670707071781155
1763701328501640000,2.726639892578125,6.891428323730826,1.9328357561476528,-6.703935913351177
1763701328511660800,2.736660888671875,6.992879111948609,1.8325106109589337,-6.626607758998871
1763701328521681700,2.746681640625,7.091030858621001,1.714369676963985,-6.553517972868681
1763701328531702800,2.756702880859375,7.1726184239834545,1.5835460792675613,-6.497408547633886
1763701328541724000,2.766723876953125,7.240149406942725,1.4475062082275747,-6.45409547560811
1763701328551745000,2.7767451171875,7.295690676900744,1.3104105445243417,-6.420756100586057
1763701328561766000,2.786765869140625,7.337142631229757,1.1728072966251522,-6.400097343438864
1763701328571787000,2.796787109375,7.361367556425929,1.0315798668794334,-6.396600148972868
1763701328581807900,2.806807861328125,7.367904264718294,0.8879840275019407,-6.410605293449759
1763701328591828700,2.816828857421875,7.360258718401194,0.7434591636460274,-6.43772067939043
1763701328601849900,2.826849853515625,7.3408695427984,0.5948605840777978,-6.475195546782016
1763701328611870700,2.83687060546875,7.309103700703382,0.4411175542932003,-6.523251429420709
1763701328621892000,2.84689208984375,7.267533088430762,0.2866284919142723,-6.5780842588484285
1763701328631913000,2.856912841796875,7.218490532842278,0.13821292249644174,-6.6366159427940845
1763701328641934800,2.866934814453125,7.159577156102657,0.0000577904187866352,-6.701555155694484
1763701328651956000,2.8769560546875,7.0942480671018355,-0.13330144991888665,-6.769361448463798
1763701328661976800,2.886976806640625,7.032237893390655,-0.26787467333925885,-6.829805688032508
1763701328671997700,2.896997802734375,6.968225732207298,-0.40184159229639915,-6.888595146131515
1763701328682018800,2.907018798828125,6.905195567798614,-0.5342716022761538,-6.942853390541672
1763701328692040000,2.9170400390625,6.85165920792222,-0.6638604340132326,-6.984585915377735
1763701328702061000,2.92706103515625,6.805795282369852,-0.7851407620124519,-7.016772613233328
1763701328712082000,2.93708203125,6.7643532649129625,-0.8906565346468239,-7.044192535078525
1763701328722102800,2.947102783203125,6.727754595834017,-0.9724300510354339,-7.068386480614542
1763701328732124000,2.9571240234375,6.693657095921039,-1.027115580946952,-7.092980823644996
1763701328742144800,2.967144775390625,6.658151482775807,-1.0569138492960481,-7.121961418935656
1763701328752166000,2.977165771484375,6.61845893933475,-1.0659624673441053,-7.157521392616629
1763701328762186800,2.987186767578125,6.572735299035906,-1.0604475763801484,-7.200346973386407
1763701328772207900,2.997207763671875,6.519286617442965,-1.048894501230493,-7.250455696901678
1763701328782229000,3.00722900390625,6.4551218960464,-1.0397332896534353,-7.308949386924505
1763701328792249900,3.017249755859375,6.378754111158847,-1.0373840961787848,-7.3760226892441505
1763701328802271000,3.02727099609375,6.295507672673463,-1.0429308435857296,-7.446426012769341
1763701328812291800,3.037291748046875,6.210812788945436,-1.0542771441169083,-7.515629312855005
1763701328822312700,3.047312744140625,6.132931092363596,-1.0660749147426336,-7.577665790051221
1763701328832333800,3.057333740234375,6.074813249915838,-1.073277831858769,-7.623325717464089
1763701328842354700,3.067354736328125,6.035206046670675,-1.0759503390036522,-7.654345125105976
1763701328852376800,3.077376953125,6.012465222552418,-1.076559483877942,-7.672136217862367
1763701328862398000,3.08739794921875,6.008756431162357,-1.0734019696950912,-7.6754837747246025
1763701328872418800,3.097418701171875,6.0251961093097925,-1.0610318060088901,-7.6643083007156845
1763701328882440000,3.10743994140625,6.0562359752178185,-1.0406520849987864,-7.64260675651729
1763701328892460800,3.117460693359375,6.08618629232347,-1.0196557664602994,-7.621615406414866
1763701328902482000,3.12748193359375,6.106967799067497,-1.005182127688825,-7.606900067842006
1763701328912502800,3.137502685546875,6.117317343646287,-1.0040759200125933,-7.598726698258519
1763701328922524000,3.14752392578125,6.122352415204047,-1.017314244835451,-7.592908367368579
1763701328932545000,3.157544921875,6.126465111219883,-1.037926167166233,-7.586798944577574
1763701328942566000,3.16756591796875,6.1284875569581985,-1.0571119291514157,-7.5825161526918405
1763701328952587000,3.1775869140625,6.130045892316103,-1.0705668923996388,-7.579367333272099
1763701328962607900,3.18760791015625,6.13657792443335,-1.0753411941293627,-7.573404040953516
1763701328972628700,3.197628662109375,6.148031046339869,-1.072666129701212,-7.5644894976139065
1763701328982649900,3.20764990234375,6.160042386651039,-1.0705001107737422,-7.555017904913425
1763701328992670700,3.217670654296875,6.164357911762595,-1.0747365062344818,-7.550895856547355
1763701329002692000,3.227692138671875,6.153896723502874,-1.0832284402478485,-7.558211732518672
1763701329012713000,3.237712890625,6.133576404529809,-1.090747437575832,-7.573632004490494
1763701329022733800,3.24773388671875,6.112741706293821,-1.0910532886546105,-7.590413627943396
1763701329032755000,3.2577548828125,6.089696346271038,-1.0831151160664856,-7.6100488872617476
1763701329042775800,3.26777587890625,6.0566995010763405,-1.0706069321490823,-7.638100092747807
1763701329052797700,3.277797607421875,6.013461832374334,-1.0554597780302166,-7.674285504850745
1763701329062818800,3.28781884765625,5.9607239293992516,-1.035853671741113,-7.717976178017258
1763701329072840000,3.29783984375,5.899569495734572,-1.0076908225741237,-7.768527384603023
1763701329082861000,3.307861083984375,5.829511624646186,-0.9686003366794437,-7.826172933363914
1763701329092882000,3.3178818359375,5.74675501550436,-0.9203069920230657,-7.892921826034784
1763701329102902800,3.32790283203125,5.651477947485446,-0.8646426071420311,-7.967657625806331
1763701329112924000,3.337923828125,5.552600809147954,-0.80533065953888,-8.043036984178423
1763701329122944800,3.34794482421875,5.451591919478774,-0.7461641117557882,-8.117498643183708
1763701329132966000,3.3579658203125,5.351608281204104,-0.6903936361517756,-8.188652492815256
1763701329142986800,3.36798681640625,5.250484825244546,-0.6382564755488187,-8.258051607733965
1763701329153007900,3.3780078125,5.147934551352262,-0.5885994413238018,-8.326026242807506
1763701329163029000,3.388029052734375,5.0462061152368785,-0.5398896613536402,-8.391347148501872
1763701329173049900,3.3980498046875,4.945775902238488,-0.4923444681834429,-8.453833123031258
1763701329183070700,3.40807080078125,4.847185764148831,-0.4453916514158249,-8.513330437138675
1763701329193091600,3.418091552734375,4.747645485727489,-0.3978844521684572,-8.571576874402165
1763701329203112700,3.42811279296875,4.647506949152052,-0.3492303479082882,-8.628388894948364
1763701329213133600,3.438133544921875,4.541281201617419,-0.28950890618879344,-8.686962664470077
1763701329223154400,3.448154541015625,4.438672475536167,-0.20780337700247764,-8.742161989122629
1763701329233175600,3.458175537109375,4.361413294766843,-0.10966136627281084,-8.782734238007665
1763701329243196400,3.468196533203125,4.305231096556782,-0.004889602668219595,-8.81109173296392
1763701329253217500,3.478217529296875,4.267570643465221,0.10317725581736303,-8.828792809349299
1763701329263239700,3.48823974609375,4.244995239041746,0.21597535834647713,-8.837633702930807
1763701329273260500,3.498260498046875,4.234847939036786,0.33309849360100924,-8.838862952464819
1763701329283281700,3.50828173828125,4.241827130399644,0.45280251219421624,-8.83018981666565
1763701329293302500,3.518302490234375,4.268675389836728,0.5614427369920536,-8.810992364242672
1763701329303323400,3.528323486328125,4.313226771485805,0.6498047283928841,-8.783177890121936
1763701329313344500,3.538344482421875,4.359204094284773,0.7070411118309945,-8.75601574243009
1763701329323365600,3.54836572265625,4.384045397813618,0.7270816640146076,-8.741961498114467
1763701329333386800,3.55838671875,4.3848058607921,0.7156818066652864,-8.742520885562897
1763701329343407600,3.56840771484375,4.3739834380045535,0.6816171130433678,-8.750660352876782
1763701329353428500,3.578428466796875,4.35518024559617,0.6385935254834592,-8.763274919778109
1763701329363449600,3.58844970703125,4.333007869015634,0.6013686142649501,-8.776888434588908
1763701329373470500,3.598470458984375,4.322258511464297,0.5817080743748694,-8.783512236642837
1763701329383491600,3.60849169921875,4.331523767937719,0.582713342427276,-8.778879900667071
1763701329393512400,3.618512451171875,4.361797033387422,0.5979136515054851,-8.762854064017533
1763701329403533600,3.628533447265625,4.409811122711003,0.6205507960535586,-8.737211673238873
1763701329413554700,3.6385546875,4.464583454123139,0.6460363888353109,-8.707497502976656
1763701329423575600,3.648575439453125,4.516717545986175,0.6680193072583526,-8.678905614742636
1763701329433596700,3.6585966796875,4.553038859428465,0.6684867786396295,-8.659870074883102
1763701329443617500,3.668617431640625,4.564544296044111,0.6377721260979772,-8.656129134789108
1763701329453638700,3.678638671875,4.552010100902617,0.5771895009718835,-8.666974938452244
1763701329463659500,3.688659423828125,4.526413887353241,0.4981802251322195,-8.685261705771088
1763701329473680400,3.698680419921875,4.499812296153605,0.4152847920415923,-8.7034257234931
1763701329483702800,3.708702880859375,4.482823167429864,0.3398229795504361,-8.715456937548518
1763701329493723600,3.7187236328125,4.476880917899311,0.2751769043777138,-8.720790699791907
1763701329503744500,3.72874462890625,4.473712224735319,0.21477703367369247,-8.724112537690997
1763701329513765600,3.738765625,4.470547038702667,0.14745349205317906,-8.727133931338786
1763701329523786500,3.748786376953125,4.466947260645032,0.064070649904944,-8.729986982682346
1763701329533807600,3.7588076171875,4.458166572818159,-0.03711190898084314,-8.734631009095907
1763701329543828500,3.768828369140625,4.446986714895069,-0.1560815009358339,-8.739011416137219
1763701329553849300,3.778849365234375,4.4297810208112,-0.2927699172787368,-8.744238795396685
1763701329563870700,3.78887060546875,4.404424168975651,-0.4414693634055555,-8.750802976217866
1763701329573891600,3.7988916015625,4.373665165835619,-0.5909608001602813,-8.757408073571323
1763701329583912700,3.80891259765625,4.340951521496475,-0.7361901224911213,-8.762678707450627
1763701329593933600,3.81893359375,4.304045393903554,-0.8757297452803701,-8.7680475410074
1763701329603954400,3.828954345703125,4.263169778157771,-1.0072177982348949,-8.773897436079382
1763701329613975600,3.8389755859375,4.2215819224894044,-1.1294194788627325,-8.779125399860739
1763701329623996400,3.848996337890625,4.1806858484774825,-1.2439682335846125,-8.78321062334776
1763701329634017500,3.859017578125,4.140152762559056,-1.3544243121653794,-8.786071857997774
1763701329644038700,3.86903857421875,4.103811575372517,-1.4660792451418936,-8.785198582294584
1763701329654059800,3.879059814453125,4.07223044219464,-1.5833073020756243,-8.779547424665093
1763701329664080600,3.88908056640625,4.036775682453811,-1.7086206119179725,-8.772425025439262
1763701329674101500,3.8991015625,3.9927530008539556,-1.8416079635195433,-8.76565918456614
1763701329684123400,3.909123291015625,3.9435853575810786,-1.9778727293565868,-8.758228157782554
1763701329694144500,3.91914453125,3.8923002837628125,-2.113602511534095,-8.749460329437255
1763701329704165400,3.929165283203125,3.8431642046719787,-2.2447430662252006,-8.738512818965315
1763701329714186800,3.939186767578125,3.7997672537550327,-2.3668013197943565,-8.725274567207693
1763701329724207600,3.94920751953125,3.759337335950136,-2.4732579534754158,-8.71325212098062
1763701329734228700,3.959228759765625,3.720404963226616,-2.561565182481706,-8.704445714190602
1763701329744249600,3.96924951171875,3.6853695979416368,-2.632511526842415,-8.698177885967493
1763701329754270500,3.9792705078125,3.6554870853751895,-2.6947961335808035,-8.691712489345669
1763701329764291600,3.98929150390625,3.6261318115532397,-2.7575284840866923,-8.684329393357038
1763701329774312400,3.9993125,3.59324164160341,-2.8233769207864996,-8.676838745340705
1763701329784333600,4.00933349609375,3.5562785231262444,-2.889878852958977,-8.67017110414505
1763701329794354700,4.019354736328125,3.5201869267866015,-2.9523683346197007,-8.663843654689192
1763701329804375600,4.02937548828125,3.4912606920316813,-3.0067665720224377,-8.656838159841298
1763701329814396700,4.039396728515625,3.468264431847632,-3.0540915100380777,-8.649511762475967
1763701329824417500,4.04941748046875,3.4450454688236114,-3.097522947746515,-8.643343887495995
1763701329834438700,4.059438720703125,3.4140777913689613,-3.1392762231096625,-8.640567408519983
1763701329844459500,4.06945947265625,3.3748563725709912,-3.1787986706808207,-8.641526024419068
1763701329854480400,4.07948046875,3.3368738479182123,-3.2143244498312473,-8.643135213181376
1763701329864501500,4.08950146484375,3.3091815388724206,-3.2417633686378595,-8.643533272588252
1763701329874522600,4.099522705078125,3.291621916784346,-3.258076205535233,-8.644104350474477
1763701329884543700,4.109543701171875,3.275249458654225,-3.2666534797444937,-8.647085996633768
1763701329894564600,4.119564697265625,3.248083219309151,-3.276278217180073,-8.653689340421558
1763701329904586500,4.12958642578125,3.2074417045801877,-3.291183817628026,-8.663187236607074
1763701329914607600,4.139607666015625,3.15545958840847,-3.3090120275244117,-8.675476809337734
1763701329924628500,4.14962841796875,3.10056275383383,-3.3231223859414456,-8.68986423113048
1763701329934649300,4.1596494140625,3.0553920712426303,-3.320605434684455,-8.706810105234384
1763701329944670700,4.169670654296875,3.0305665498048064,-3.2903821458563205,-8.726936947461962
1763701329954691600,4.179691650390625,3.0299428649485107,-3.2302620236754414,-8.749584248077868
1763701329964712700,4.189712646484375,3.0473759380474683,-3.150744542585313,-8.772496337109803
1763701329974733600,4.199733642578125,3.070516282877326,-3.071177961656451,-8.792620256727933
1763701329984754700,4.209754638671875,3.0887048505187034,-3.012243542128801,-8.806625985726713
1763701329994775600,4.219775634765625,3.090256756135821,-2.9895196691453454,-8.813823203754424
1763701330004796400,4.22979638671875,3.0703353733524676,-3.0079461371958254,-8.814515862193703
1763701330014817500,4.239817626953125,3.031497985436022,-3.064963324925303,-8.80831408494413
1763701330024838700,4.249838623046875,2.9718828901678322,-3.154254012010991,-8.79710003249049
1763701330034859800,4.25985986328125,2.8854510996446012,-3.277345554150641,-8.780863767960668
1763701330044880600,4.269880615234375,2.7680335114881394,-3.4427550197988745,-8.755330682775378
1763701330054901500,4.279901611328125,2.6175740699514747,-3.6552445087909695,-8.715382703268528
1763701330064922600,4.289922607421875,2.4545015228182074,-3.9019747055590153,-8.655658010146022
1763701330074943500,4.299943603515625,2.3143029246635733,-4.152532351660728,-8.577345520931482
1763701330084964600,4.309964599609375,2.2350077080219983,-4.379581696403027,-8.484951314872502
1763701330094985500,4.3199853515625,2.225657111352682,-4.572575919069349,-8.385008593130111
1763701330105006600,4.330006591796875,2.264323380485922,-4.7390953917860985,-8.281556986483931
1763701330115027700,4.34002783203125,2.3259010079987346,-4.894570615658163,-8.173354970440268
1763701330125049600,4.350049560546875,2.3861557163447142,-5.0550236279428,-8.057504485470057
1763701330135070500,4.360070556640625,2.4209525966987013,-5.235069813969731,-7.931167677798867
1763701330145091600,4.370091552734375,2.419530893332511,-5.4412645867317915,-7.791590280282497
1763701330155112400,4.380112548828125,2.3846206157319245,-5.655056975015998,-7.648811456376314
1763701330165133600,4.390133544921875,2.330312686961144,-5.84216827712357,-7.523902051159739
1763701330175154700,4.40015478515625,2.255572795536369,-5.99776625059247,-7.423583481842279
1763701330185175800,4.41017578125,2.1552773148335516,-6.13279197615385,-7.342617847770452
1763701330195197200,4.420197265625,2.03720199342072,-6.267173558592796,-7.262419690939784
1763701330205218000,4.430218017578125,1.9251022392861543,-6.41569531006515,-7.162625437757373
1763701330215239200,4.4402392578125,1.8298093891762195,-6.581812923982739,-7.035760222297906
1763701330225260000,4.450260009765625,1.757339050118625,-6.756283940225839,-6.887290493273735
1763701330235281000,4.460281005859375,1.6933146139755844,-6.934460825249553,-6.724307085728645
1763701330245302000,4.470302001953125,1.6399416279673575,-7.115886482936143,-6.545620497617125
1763701330255323000,4.480322998046875,1.6249936496824025,-7.284568394383788,-6.3612009188115595
1763701330265344000,4.490343994140625,1.6629428565874695,-7.424899825137853,-6.186751529878378
1763701330275364900,4.50036474609375,1.7312511075295507,-7.541097516110539,-6.025361529004574
1763701330285386000,4.510385986328125,1.7711993792973457,-7.659885808098315,-5.861686632063985
1763701330295407000,4.520406982421875,1.76697679316625,-7.785778379133343,-5.69472146140635
1763701330305428000,4.530427978515625,1.7357132015049457,-7.924827368861436,-5.509519207790493
1763701330315449000,4.540448974609375,1.6812769701793788,-8.076776756694912,-5.3018257209032775
1763701330325470000,4.550469970703125,1.636895392139256,-8.224450366905332,-5.084228679639101
1763701330335490800,4.56049072265625,1.6273482499845324,-8.35383019553423,-4.871925653129816
1763701330345512000,4.570511962890625,1.6656250814087687,-8.455047759518028,-4.680625667160749
1763701330355534000,4.5805341796875,1.7521577019579708,-8.528760061460734,-4.512272257015109
1763701330365555000,4.590554931640625,1.8891108884505927,-8.574494223153591,-4.3680321283847094
1763701330375576000,4.600576171875,2.070675223955512,-8.591009304624796,-4.251737406778335
1763701330385597000,4.610596923828125,2.291325223049521,-8.579116622257231,-4.161608515302837
1763701330395618000,4.6206181640625,2.5132529869943854,-8.554639768126606,-4.083148142050207
1763701330405639000,4.630638916015625,2.6933883126094935,-8.553114750516414,-3.969920406799018
1763701330415660000,4.640659912109375,2.82606279886961,-8.589566704601049,-3.795143393346667
1763701330425681000,4.650680908203125,2.9095214188009497,-8.655889480814338,-3.5750025128185747
1763701330435702000,4.660701904296875,2.9462516053050756,-8.731198112037777,-3.355017407374084
1763701330445723100,4.67072314453125,2.9550036515593527,-8.794588341930508,-3.177033999095857
1763701330455744000,4.680743896484375,2.9318317425474523,-8.845957879161833,-3.053488575708866
1763701330465765000,4.69076513671875,2.8659336214870215,-8.89359758221507,-2.976700811843574
1763701330475786000,4.700785888671875,2.7926123646885155,-8.93338014202714,-2.9268469398722052
1763701330485806800,4.710806884765625,2.722134806883335,-8.963881078752875,-2.899863948139548
1763701330495828000,4.720827880859375,2.650688696306944,-8.98787453328073,-2.891771242576837
1763701330505848800,4.730848876953125,2.5753169367194175,-9.005851503998041,-2.9039231604024764
1763701330515870200,4.7408701171875,2.496051092302799,-9.021527796557546,-2.924407437765598
1763701330525891000,4.75089111328125,2.415212299481034,-9.038796911266445,-2.9389257924616334
1763701330535912000,4.760911865234375,2.345464809516072,-9.055486180260777,-2.9440339292556046
1763701330545933000,4.77093310546875,2.297699288126081,-9.076165395674108,-2.917906677569449
1763701330555954000,4.780953857421875,2.2616100298739967,-9.10811127051115,-2.8456679553106428
1763701330565975000,4.79097509765625,2.235911817254871,-9.14296689531505,-2.7526789982289075
1763701330575996000,4.800995849609375,2.2155688480585813,-9.17407456576228,-2.6642066417887804
1763701330586018000,4.81101806640625,2.1851247560866174,-9.20180896038413,-2.5927447491213678
1763701330596039200,4.8210390625,2.131656200749427,-9.22937267461419,-2.5387203134670853
1763701330606060000,4.83106005859375,2.0554117499805984,-9.257547214218974,-2.4986972228974103
1763701330616081000,4.841080810546875,1.9569525447942315,-9.285268749359249,-2.4747759568229317
1763701330626102000,4.85110205078125,1.866266019435972,-9.307392902883887,-2.4616820819720626
1763701330636123000,4.861122802734375,1.822856209037453,-9.325278103664516,-2.4262676542416215
1763701330646144000,4.87114404296875,1.8333152053400874,-9.34554464662373,-2.3388337009385225
1763701330656164900,4.881164794921875,1.8817133255451917,-9.36716085062623,-2.2103908608987926
1763701330666186000,4.89118603515625,1.9325813429951666,-9.382764077949524,-2.09744165032804
1763701330676207000,4.90120703125,1.970783647878468,-9.389346963471173,-2.0313950607076285
1763701330686228000,4.91122802734375,1.9924784700751303,-9.388818555682898,-2.012585438558459
1763701330696249000,4.9212490234375,1.9945253196023403,-9.38616541082561,-2.022908971913159
1763701330706270000,4.93127001953125,1.9765102088317275,-9.388324050164222,-2.030559340535849
1763701330716291000,4.941291015625,1.9474403278224168,-9.395741048422455,-2.024335205323994
1763701330726312000,4.95131201171875,1.9185776598230002,-9.40374958283305,-2.014684602794796
1763701330736332800,4.961332763671875,1.8958488184034823,-9.40936391558349,-2.009979493843764
1763701330746354200,4.971354248046875,1.8813382086224852,-9.412433240026235,-2.009241096566617
1763701330756375000,4.981375,1.8714672413408755,-9.4146795576483,-2.007933667229861
1763701330766396200,4.991396240234375,1.861777329714596,-9.41740342965424,-2.004163647171855
1763701330776417000,5.0014169921875,1.8541027034334838,-9.41962519735694,-2.0008384482719004
1763701330786438000,5.01143798828125,1.856568362894654,-9.418606375703215,-2.003345462656766
1763701330796459000,5.021458984375,1.8740682176195085,-9.413575395798683,-2.0106863269388673
1763701330806480000,5.03147998046875,1.9070073412775992,-9.406167165368794,-2.014380359151214
1763701330816502000,5.041501953125,1.9367001764908431,-9.4066599173218,-1.983516434331983
1763701330826523100,5.051523193359375,1.9375870423279702,-9.419878879857063,-1.9188582303300499
1763701330836544000,5.0615439453125,1.9081594339221715,-9.442317506158352,-1.836282092321664
1763701330846565000,5.071565185546875,1.8624942458122968,-9.467801491504908,-1.7499309658192097
1763701330856586000,5.0815859375,1.817456688081473,-9.493044069311022,-1.6581259578250347
1763701330866606800,5.09160693359375,1.7774920497007667,-9.518383093228936,-1.5528348607920108
1763701330876628000,5.1016279296875,1.7367895985648034,-9.545535304048657,-1.427133136153966
1763701330886648800,5.11164892578125,1.6950212717629969,-9.5732416416198,-1.2846557794123887
1763701330896670200,5.121670166015625,1.6560057508006691,-9.597765842023492,-1.1449572397343815
1763701330906691000,5.131691162109375,1.6253132370255887,-9.617123453444242,-1.0196418110001833
1763701330916712000,5.1417119140625,1.6038396563641726,-9.632142743399738,-0.9054960110560059
1763701330926733000,5.151733154296875,1.58902217259109,-9.64256710678041,-0.81627817001082
1763701330936754000,5.16175390625,1.5828122120350598,-9.647687518534063,-0.7663092933576554
1763701330946775000,5.171775146484375,1.5809228911571205,-9.649804656818509,-0.7431918910119683
1763701330956796000,5.1817958984375,1.5692293846234677,-9.650178750827909,-0.7628454166393727
1763701330966817000,5.191817138671875,1.5501314470522105,-9.648487144479155,-0.8210805287912487
1763701330976838100,5.201838134765625,1.5300130803920329,-9.64846142551601,-0.8582762139152735
1763701330986859000,5.21185888671875,1.5070307026028633,-9.65273135792017,-0.8508921680785715
1763701330996880100,5.221880126953125,1.4786697005152702,-9.659963647261261,-0.8179377737861127
1763701331006901000,5.23190087890625,1.4507853760287164,-9.66765127915442,-0.7759810117401182
1763701331016922000,5.241922119140625,1.4382498657129703,-9.674113168644904,-0.7164953150052576
1763701331026944000,5.251944091796875,1.455166952113807,-9.67934580860138,-0.6026141938792541
1763701331036964900,5.26196484375,1.5003871729351579,-9.682537298119067,-0.4095158167187124
1763701331046986000,5.271986083984375,1.5581825054302811,-9.680590255704521,-0.1692402577164583
1763701331057007000,5.282007080078125,1.593458985994756,-9.676147889342904,0.05870690808182116
1763701331067028000,5.292028076171875,1.582658775039017,-9.675106271335482,0.24062424457576123
1763701331077049000,5.302049072265625,1.5401551196999848,-9.67695686763823,0.39348676519878206
1763701331087070000,5.312070068359375,1.4877671992063521,-9.67930781467855,0.5176162355514243
1763701331097091000,5.322091064453125,1.4241785241320728,-9.681391050693392,0.6424750430919229
1763701331107112000,5.33211181640625,1.361038761869073,-9.683854225936532,0.7354634156517684
1763701331117132800,5.3421328125,1.2920552420139313,-9.688283732816576,0.7988328950174153
1763701331127154200,5.352154296875,1.2234363176874816,-9.69633318375945,0.8091296864956616
1763701331137175000,5.362175048828125,1.1421000967375934,-9.706283499887585,0.8087365955248474
1763701331147196200,5.372196044921875,1.036379741441831,-9.712046885719895,0.8789019455756991
1763701331157217000,5.382217041015625,0.9487538457632064,-9.713948335427045,0.953653162112087
1763701331167238000,5.39223779296875,0.8990714579012244,-9.711730659377574,1.021935401830077
1763701331177259000,5.402259033203125,0.8830098923511802,-9.704988783901928,1.0972069159135223
1763701331187279400,5.412279296875,0.8949240558981895,-9.69357073330879,1.1849865408491342
1763701331197300500,5.422300537109375,0.9327364116158335,-9.67220236658752,1.3224563716270028
1763701331207321300,5.4323212890625,1.1242900800850242,-9.62747884324193,1.4892999617315827
1763701331217342500,5.442342529296875,1.3557840562112629,-9.580123802348972,1.5979481141075491
1763701331227363600,5.452363525390625,1.4520195939987897,-9.54592050397396,1.7138832086212932
1763701331237384400,5.462384521484375,1.4384155776686967,-9.530448794075847,1.8088406892970204
1763701331247405600,5.472405517578125,1.3794976708844304,-9.527543135762214,1.8690379683673382
1763701331257427500,5.482427490234375,1.3187725685477256,-9.530239535239339,1.8988814640976488
1763701331267448300,5.4924482421875,1.2831010973162948,-9.53419090321362,1.9034817974999545
1763701331277469400,5.502469482421875,1.2817132962197064,-9.536687980726361,1.8918783073373138
1763701331287490600,5.512490478515625,1.310388771083951,-9.537943533745407,1.8657246060356496
1763701331297511700,5.52251171875,1.3647465303458273,-9.537804417535662,1.827060528859496
1763701331307532500,5.532532470703125,1.4447845281787215,-9.535092235967516,1.779040009795129
1763701331317553400,5.542553466796875,1.54693864236027,-9.529151155480742,1.7241346996530889
1763701331327574500,5.552574462890625,1.663498883035034,-9.52033130468726,1.6632584984079002
1763701331337595400,5.562595458984375,1.7852094922102986,-9.50959246852994,1.5972019719153643
1763701331347616500,5.572616455078125,1.9055162259370086,-9.497631397101282,1.5278677389264106
1763701331357637400,5.582637451171875,2.021757025399059,-9.484709371685982,1.457104934439063
1763701331367658500,5.592658447265625,2.134535847838968,-9.47089010517001,1.384327721389383
1763701331377679600,5.6026796875,2.2469832463674244,-9.456112807276844,1.3051336270347236
1763701331387700500,5.612700439453125,2.363890693044662,-9.43963513520658,1.214787439546734
1763701331397721600,5.6227216796875,2.478891575448215,-9.42189898750782,1.1195092024840414
1763701331407742500,5.632742431640625,2.5871321699365972,-9.403167399030924,1.0283851624913514
1763701331417763600,5.642763671875,2.6893735240101813,-9.382774014821647,0.9493240468665957
1763701331427784400,5.652784423828125,2.801286669531464,-9.357301719912886,0.874119898930937
1763701331437805300,5.662805419921875,2.9452891900137064,-9.319635129341483,0.8000397865891457
1763701331447826400,5.672826416015625,3.1154312371417876,-9.269721636137366,0.7326194243974983
1763701331457847600,5.68284765625,3.299632204760611,-9.210398509553075,0.6718376965027302
1763701331467868700,5.69286865234375,3.49125338550806,-9.143498225712776,0.6148007080942391
1763701331477889500,5.7028896484375,3.6848622329413887,-9.070781949070096,0.5595427485896274
1763701331487910400,5.712910400390625,3.87874580566287,-8.992714959049223,0.5067495352307334
1763701331497932500,5.7229326171875,4.075520715911686,-8.907889142417908,0.45829135540146376
1763701331507953400,5.732953369140625,4.254793579478561,-8.8247403190881,0.43713045741841194
1763701331517974300,5.742974365234375,4.409410432955623,-8.748506974235177,0.437160633360967
1763701331527995600,5.75299560546875,4.540447673402727,-8.680618848401307,0.4489539835399016
1763701331538016500,5.7630166015625,4.65438297240138,-8.61940596254766,0.46146947398092597
1763701331548037600,5.77303759765625,4.7515629514321684,-8.56554285493493,0.47383561907913535
1763701331558058500,5.78305859375,4.829063832002878,-8.520841543421149,0.495773127457872
1763701331568079400,5.793079345703125,4.887746907117963,-8.485287414959073,0.5293604493590072
1763701331578100500,5.8031005859375,4.933038585740327,-8.456800740665196,0.5639475594198331
1763701331588121300,5.813121337890625,4.971779527544975,-8.43227069504261,0.5904374704059213
1763701331598142500,5.823142578125,5.0070074927926065,-8.41020791631639,0.6071836206866428
1763701331608163600,5.83316357421875,5.0395244455158705,-8.390190379682183,0.6150527831591666
1763701331618184400,5.843184326171875,5.069155029147863,-8.372363046568632,0.6144863814480602
1763701331628205600,5.85320556640625,5.093505626550317,-8.358159749171138,0.6064367843747138
1763701331638226400,5.863226318359375,5.108316242191195,-8.350305528539419,0.5898178772028535
1763701331648247600,5.87324755859375,5.107296836015582,-8.352533725982903,0.566631026350148
1763701331658268400,5.883268310546875,5.084563026160001,-8.368288928997517,0.5379216492163017
1763701331668289500,5.89328955078125,5.036021990352869,-8.399549744179845,0.5063960456179455
1763701331678310400,5.903310302734375,4.960909758484363,-8.445894146725536,0.47606567968614394
1763701331688331500,5.91333154296875,4.861375909803807,-8.50492793497443,0.45122349937446415
1763701331698352600,5.9233525390625,4.7431698016181585,-8.57237065512836,0.4326338401189074
1763701331708373500,5.93337353515625,4.612743678806722,-8.64387463337183,0.42003436118885873
1763701331718394600,5.94339453125,4.475958834618329,-8.715929231235384,0.4108077562253922
1763701331728416500,5.95341650390625,4.334315152221918,-8.787578170907496,0.4031991443851962
1763701331738437400,5.963437255859375,4.190560761281848,-8.857424445071816,0.3944665334837511
1763701331748458500,5.97345849609375,4.044686017186939,-8.92530380307734,0.387104626413621
1763701331758479600,5.983479736328125,3.893910349307954,-8.992171353691816,0.3856246535215527
1763701331768500500,5.99350048828125,3.7329201614066956,-9.059882953915,0.39269729532152414
1763701331778521600,6.003521484375,3.563028581908345,-9.127109985491632,0.4136155071225017
1763701331788542500,6.01354248046875,3.3929052394807337,-9.189913939929008,0.45173791517000644
1763701331798563600,6.0235634765625,3.2266306814357635,-9.247213451731204,0.4982977140320465
1763701331808584400,6.03358447265625,3.0658342625409363,-9.298687618380784,0.5526788907021284
1763701331818605300,6.043605224609375,2.906992777106166,-9.345951473858952,0.6107264078600332
1763701331828626400,6.05362646484375,2.7477146538197994,-9.389998705378174,0.6696221393451094
1763701331838647600,6.0636474609375,2.5888085787162183,-9.431069551435112,0.7234541211672126
1763701331848668700,6.073668701171875,2.4359498209528625,-9.468550848567485,0.7636071947921067
1763701331858689500,6.083689453125,2.2967110077410937,-9.501715451544523,0.7828875762581825
1763701331868710400,6.09371044921875,2.175677421044558,-9.530506077221036,0.7786288959003984
1763701331878731500,6.1037314453125,2.0723940105721352,-9.555074701288342,0.7590197208713739
1763701331888752400,6.11375244140625,1.9846075905695557,-9.575556932824849,0.735121543411538
1763701331898773500,6.1237734375,1.9104665418207645,-9.592221651899814,0.7140076629079878
1763701331908794400,6.13379443359375,1.8496328645430504,-9.60519043906629,0.6996886301763355
1763701331918815500,6.1438154296875,1.8029148063793778,-9.61477776710093,0.6898914587832987
1763701331928836600,6.153836669921875,1.769983281505853,-9.621496846222877,0.6814244400154799
1763701331938857500,6.163857421875,1.749636805178225,-9.625822308206558,0.6728131174061447
1763701331948879400,6.17387939453125,1.740863423874974,-9.628012511727214,0.6641993836440145
1763701331958900500,6.183900390625,1.7418007047250865,-9.628137599411605,0.6599177608020603
1763701331968921300,6.19392138671875,1.7534832514733074,-9.625451136806607,0.668106108758971
1763701331978942500,6.2039423828125,1.7773726611047982,-9.619772506648301,0.6865289235476404
1763701331988963600,6.213963623046875,1.8088896430052817,-9.613204818695783,0.696135394674167
1763701331998984400,6.223984375,1.8427783224731682,-9.60821183271408,0.6758811266746372
1763701332009005600,6.234005615234375,1.8701627346135674,-9.60646118965447,0.6235184136874974
1763701332019026400,6.2440263671875,1.8774543529264627,-9.609193244966864,0.5558346878519281
1763701332029047600,6.254047607421875,1.858828709042072,-9.616155485194922,0.49466480088979004
1763701332039068400,6.264068359375,1.8227442730955778,-9.625401452445983,0.44679852253906427
1763701332049089500,6.274089599609375,1.7881753562785685,-9.633570730376244,0.40880196936093266
1763701332059110400,6.2841103515625,1.7857947447523475,-9.634968906736374,0.38561446092110124
1763701332069131300,6.29413134765625,1.833558366446197,-9.626007601645588,0.3852583409598097
1763701332079152600,6.304152587890625,1.9143429448626934,-9.609494858261943,0.40406938788108526
1763701332089173500,6.314173583984375,1.9904725370801983,-9.592871640241146,0.43037331130839884
1763701332099194600,6.324194580078125,2.036487415410578,-9.581918284550309,0.4581809172969311
1763701332109215500,6.334215576171875,2.0397176295034587,-9.580136661830544,0.48055002202596514
1763701332119236400,6.344236328125,1.9936692872948942,-9.589169278591871,0.4934573978614062
1763701332129257500,6.354257568359375,1.9087918866068123,-9.606131519308686,0.4991450515763834
1763701332139278300,6.3642783203125,1.7994290100902317,-9.62712111584544,0.5009632434468716
1763701332149299500,6.374299560546875,1.674234650452435,-9.649601827722787,0.5024994400382041
1763701332159320600,6.384320556640625,1.5375474214196205,-9.671848146322368,0.5115624884704127
1763701332169341400,6.394341552734375,1.4018769682139158,-9.691115156850218,0.5361325738424435
1763701332179363600,6.404363525390625,1.282957304931432,-9.705331313729285,0.5752962345711886
1763701332189385200,6.41438525390625,1.1915203265320509,-9.71421838454008,0.6201810859583318
1763701332199406000,6.424406005859375,1.1290743917521089,-9.718860657387971,0.6628071255680174
1763701332209427200,6.43442724609375,1.0919511873424053,-9.72071066916883,0.6969949341129511
1763701332219448000,6.444447998046875,1.0753986234050243,-9.720968443322182,0.7187982581853866
1763701332229469200,6.45446923828125,1.0773009498950092,-9.720084061703085,0.7278443920154124
1763701332239490000,6.464489990234375,1.0953352768227458,-9.718049925526977,0.7281022392340004
1763701332249511000,6.474510986328125,1.1273009523387998,-9.714635733169317,0.7248706369016319
1763701332259532000,6.484531982421875,1.1711334451287985,-9.709603584221005,0.7227834553640335
1763701332269553200,6.49455322265625,1.2270604995340109,-9.70248878377974,0.7255446637056767
1763701332279574300,6.50457421875,1.2952676281891762,-9.692891518872976,0.7351969467353076
1763701332289595100,6.51459521484375,1.3775789777815342,-9.680338911291956,0.750788995077461
1763701332299616000,6.524615966796875,1.4696027430929244,-9.665359368824959,0.769087306703627
1763701332309637000,6.53463720703125,1.5628930212087928,-9.649161098217963,0.7883272100288421
1763701332319658000,6.544657958984375,1.6535018051557242,-9.63227367630303,0.8097096783407032
1763701332329679000,6.55467919921875,1.7411767276078463,-9.614674891248345,0.8347046380612999
1763701332339700000,6.564699951171875,1.833157092168927,-9.5951015912503,0.8625264917708932
1763701332349721000,6.57472119140625,1.9328509537167846,-9.573051672005652,0.8894655712965875
1763701332359742200,6.5847421875,2.0409991937465963,-9.548471357500553,0.9118171769015491
1763701332369763000,6.59476318359375,2.164001011776179,-9.520206217002869,0.9236785142827778
1763701332379784200,6.6047841796875,2.319400247802585,-9.484631045752764,0.9124474376291036
1763701332389805000,6.61480517578125,2.5222967096716165,-9.436627770084142,0.8709066359728574
1763701332399826200,6.624826171875,2.778407898247242,-9.369691245886683,0.8122455534938723
1763701332409848000,6.63484814453125,3.0823516820997,-9.278826733613014,0.7568797862332314
1763701332419869200,6.644869140625,3.42834713973999,-9.159666101181507,0.7192641221314668
1763701332429890000,6.65489013671875,3.8114953932106492,-9.008273178187013,0.7027808240380138
1763701332439911200,6.6649111328125,4.215805092653632,-8.825987104278802,0.7066292430944741
1763701332449932000,6.67493212890625,4.620147525322437,-8.61961288329661,0.7258722151596099
1763701332459953200,6.684953125,5.009081376457214,-8.396995968043804,0.7549483797792345
1763701332469974000,6.69497412109375,5.36330982491374,-8.172366543924808,0.7859530282434075
1763701332479995100,6.7049951171875,5.665507641881704,-7.963316966253519,0.8111736134134232
1763701332490016000,6.71501611328125,5.913493391668796,-7.780036620610952,0.8197589247986674
1763701332500037000,6.725037109375,6.12085603916645,-7.620807597163319,0.7929725516166537
1763701332510058200,6.735058349609375,6.2989686267822975,-7.480977101668715,0.7268870912905782
1763701332520079000,6.7450791015625,6.444088460856675,-7.363839499497413,0.6465157698500901
1763701332530100200,6.755100341796875,6.551026156052947,-7.27499626391828,0.5734801250599324
1763701332540121000,6.76512109375,6.6158706764072175,-7.22128396295309,0.5036823662124574
1763701332550142000,6.775141845703125,6.636648676019907,-7.20772597772181,0.4170740135459229
1763701332560163000,6.7851630859375,6.6203633116513485,-7.227976738590002,0.31228030810840424
1763701332570184000,6.795183837890625,6.574999152314662,-7.2730802011638875,0.20511095958072692
1763701332580205000,6.805205078125,6.507533051285147,-7.335488434281944,0.11407266164273024
1763701332590226200,6.81522607421875,6.420548010793328,-7.4124986087262625,0.042538667286909186
1763701332600247000,6.8252470703125,6.312711905452609,-7.504647900113463,-0.017588472581579116
1763701332610269200,6.835269287109375,6.180918001419306,-7.61325206721723,-0.07086059317286125
1763701332620290000,6.8452900390625,6.021759120598435,-7.739275571155548,-0.11142992858160286
1763701332630311000,6.855310791015625,5.831573817873001,-7.883243312585353,-0.13272438068329356
1763701332640332000,6.86533203125,5.6058191891163585,-8.045396114525198,-0.1295471297535114
1763701332650353200,6.875353271484375,5.344194790077209,-8.222019340366124,-0.0915301274423953
1763701332660374300,6.885374267578125,5.052314953505992,-8.405014439326525,-0.015652968766132834
1763701332670395100,6.89539501953125,4.741214283636212,-8.583890997052192,0.08985278708101249
1763701332680416000,6.905416015625,4.419743318660557,-8.751497388222813,0.21800613352172074
1763701332690437000,6.91543701171875,4.098188767054677,-8.902287084627151,0.35289219488408413
1763701332700458000,6.9254580078125,3.792042212460935,-9.031279959765076,0.4762313916418701
1763701332710479000,6.93547900390625,3.519762563894689,-9.134982326301932,0.5777236078485846
1763701332720500000,6.9455,3.2964696490764616,-9.213251560896634,0.6478239298392087
1763701332730521000,6.95552099609375,3.121905986113846,-9.271781491276622,0.6768759829308837
1763701332740542200,6.965542236328125,2.977738045936823,-9.320381563794612,0.6587436024561524
1763701332750563000,6.97556298828125,2.8389263720959423,-9.367176632717252,0.6057009809134528
1763701332760584200,6.985584228515625,2.68873259575814,-9.414988185206056,0.5468993574526161
1763701332770605000,6.99560498046875,2.53597978258729,-9.459680728891492,0.5036235852299258
1763701332780626200,7.005626220703125,2.401004910430312,-9.49642202131152,0.47278059360086916
1763701332790647000,7.01564697265625,2.301456010311097,-9.522173717683554,0.44932636051625013
1763701332800668000,7.02566796875,2.2488955097295342,-9.535005726727842,0.4433047256065532
1763701332810689000,7.03568896484375,2.2452729353182015,-9.534127774849534,0.4791017229137942
1763701332820710100,7.045710205078125,2.2902429807707665,-9.518650219732523,0.5661077331284061
1763701332830732000,7.05573193359375,2.348113278198242,-9.498876428726314,0.6542966329846531
1763701332840753200,7.065753173828125,2.3620079480379816,-9.49321825683415,0.6856382583182304
1763701332850774000,7.07577392578125,2.310806168588996,-9.507970420286059,0.6550085075810551
1763701332860795100,7.085795166015625,2.212978393173963,-9.536396888825298,0.5746696636380627
1763701332870816000,7.09581591796875,2.1243724734820426,-9.563449146401881,0.4448097598746419
1763701332880836900,7.1058369140625,2.106001681141555,-9.57348772533536,0.2888890389910899
1763701332890858200,7.115858154296875,2.1692628778271374,-9.562048631954193,0.17862033620858564
1763701332900879000,7.125879150390625,2.289629671178013,-9.534082766664028,0.17099851782694458
1763701332910900200,7.135900146484375,2.434144525096565,-9.497014726507663,0.2280814642690122
1763701332920921000,7.145921142578125,2.5783400839328765,-9.456962702104448,0.29731676692813636
1763701332930942000,7.15594189453125,2.7008389208763837,-9.420074110168217,0.37153362085949626
1763701332940963000,7.165963134765625,2.7830452026590704,-9.392671723979712,0.45029663032051176
1763701332950984000,7.17598388671875,2.8140041122853754,-9.379759635436534,0.5214140934644267
1763701332961005000,7.186005126953125,2.792154684048891,-9.38347777917683,0.569735275975801
1763701332971026200,7.196026123046875,2.7268463455751535,-9.401651149249076,0.5862040340872481
1763701332981047000,7.206047119140625,2.630302326360345,-9.42945159484446,0.5807935898784548
1763701332991068200,7.216068115234375,2.5189617200300094,-9.460779630044103,0.5646812805218622
1763701333001089000,7.226089111328125,2.4183020821899173,-9.487928333732485,0.5490191260855645
1763701333011110100,7.236110107421875,2.3532278447329995,-9.504682484656572,0.5419577363319694
1763701333021131000,7.246131103515625,2.334313154774159,-9.509335863420366,0.5421213659284636
1763701333031153000,7.25615283203125,2.342106438998878,-9.506596793845295,0.5563559717796742
1763701333041174300,7.26617431640625,2.362646392071992,-9.499567333599925,0.5886522309569642
1763701333051195100,7.276195068359375,2.4131946760483083,-9.48500806237161,0.6176645000275224
1763701333061216000,7.286216064453125,2.506592067800462,-9.461047925591469,0.6131652889121324
1763701333071237000,7.296237060546875,2.63231629653126,-9.428449724325537,0.5879228937691078
1763701333081258000,7.306258056640625,2.7757579682603475,-9.388653720510005,0.5645554256524891
1763701333091279000,7.316279052734375,2.933769432611763,-9.341438380348682,0.5485400738643482
1763701333101300000,7.326300048828125,3.1089789922624824,-9.28551015689969,0.5328471589636057
1763701333111321000,7.336321044921875,3.3045942110821604,-9.219113730928301,0.5079188712710514
1763701333121342200,7.34634228515625,3.5212910886362194,-9.14069368968606,0.46758258656635876
1763701333131363000,7.356363037109375,3.762479725629091,-9.046666913989185,0.41465650407541543
1763701333141384200,7.36638427734375,4.029107632043957,-8.933663050621748,0.3554340979192406
1763701333151405000,7.376405029296875,4.319704735328257,-8.79900674289465,0.2966736649853177
1763701333161426200,7.38642626953125,4.632269048009813,-8.640304958191514,0.24000549162290988
1763701333171447000,7.396447021484375,4.957947401547432,-8.45899562036097,0.18584206762304528
1763701333181467600,7.406467529296875,5.282649895790219,-8.261040268155933,0.13861186781930737
1763701333191488800,7.41648876953125,5.589819071429967,-8.056893660095334,0.10383413969036191
1763701333201509600,7.426509521484375,5.861636947703361,-7.861639968064427,0.07875527367913164
1763701333211530800,7.43653076171875,6.0829141387850045,-7.691898902952671,0.05694924162637908
1763701333221552600,7.446552734375,6.2540650706946845,-7.553444956508279,0.050236464381054974
1763701333231573800,7.45657373046875,6.394171460521221,-7.435071675062179,0.06830409992334899
1763701333241595000,7.466594970703125,6.522716007369756,-7.322230308780074,0.09750384069029241
1763701333251615700,7.47661572265625,6.640341100797057,-7.2152961207151405,0.12553859736504963
1763701333261636600,7.48663671875,6.7357368267595765,-7.125691837635636,0.15735024223001673
1763701333271657700,7.49665771484375,6.799518101796507,-7.064258587029576,0.18218672345327214
1763701333281678600,7.5066787109375,6.830352215999365,-7.034587671387195,0.1767804074303247
1763701333291699700,7.51669970703125,6.8271636490911245,-7.038743037500977,0.1277466562028043
1763701333301720600,7.526720458984375,6.786397923460602,-7.079105443027615,0.038072239629691466
1763701333311741700,7.53674169921875,6.701388566955924,-7.1593035998582835,-0.07835968022397719
1763701333321762800,7.5467626953125,6.56558542728126,-7.281700729992985,-0.20076929538091642
1763701333331783700,7.55678369140625,6.3806041229397055,-7.44062814014554,-0.3087491748401895
1763701333341804800,7.5668046875,6.155909816890954,-7.623324548420309,-0.4000974155101925
1763701333351825700,7.57682568359375,5.900215392422676,-7.818447892069816,-0.47928727208115157
1763701333361846800,7.5868466796875,5.617433639064431,-8.019851338902116,-0.5447980377918109
1763701333371867600,7.59686767578125,5.31176025494039,-8.222417399773,-0.5894380475724116
1763701333381888500,7.606888427734375,4.9908770267248155,-8.420172845491766,-0.6018570553690195
1763701333391909600,7.61690966796875,4.666096791070699,-8.606417301636935,-0.5722860929697752
1763701333401931800,7.626931884765625,4.35136653252691,-8.774355701240896,-0.49667135493922976
1763701333411952600,7.63695263671875,4.057286847823858,-8.919950751611589,-0.3785316630532965
1763701333421973800,7.646973876953125,3.7885634304344653,-9.042528499010205,-0.2232856082946062
1763701333431994600,7.65699462890625,3.5433208418756723,-9.14404942985475,-0.04038681844868697
1763701333442015700,7.667015625,3.3152728414848447,-9.228053408709167,0.14954955101697706
1763701333452036600,7.67703662109375,3.1003911966592073,-9.298459654843807,0.3107988739116117
1763701333462057500,7.687057373046875,2.8978496857076883,-9.360138404643536,0.40081893471777436
1763701333472078800,7.697078857421875,2.7149258984178304,-9.414351640868187,0.41174368536863476
1763701333482099700,7.707099609375,2.5722233546182514,-9.45608533474803,0.36945897000990807
1763701333492120800,7.717120849609375,2.493481826336682,-9.479493098342418,0.3035554055893794
1763701333502141700,7.7271416015625,2.482522333166003,-9.484321249151229,0.23475723397219553
1763701333512162600,7.73716259765625,2.521894850872457,-9.475019167798758,0.18557349808104334
1763701333522183700,7.74718359375,2.580541101108491,-9.459529337722062,0.16883295555720104
1763701333532204500,7.75720458984375,2.621894563499093,-9.447863449847697,0.18425174795798957
1763701333542225700,7.7672255859375,2.6254721297249195,-9.446400976079701,0.20684255087999626
1763701333552246800,7.777246826171875,2.597902278015017,-9.454176286256313,0.19962582443421706
1763701333562268000,7.787267822265625,2.5651053393065926,-9.46382382004559,0.16329134098310022
1763701333572288800,7.797288818359375,2.533267308758199,-9.473012504151463,0.12246275184997357
1763701333582309600,7.8073095703125,2.4828157631546257,-9.486714281767606,0.09098866837630047
1763701333592331500,7.81733154296875,2.4387689700268207,-9.498358542332053,0.06317668304017279
1763701333602352600,7.8273525390625,2.4481295035682615,-9.495905303961038,0.06962470840208698
1763701333612373500,7.83737353515625,2.5239526601850986,-9.475234856376051,0.1413483709779568
1763701333622395000,7.847394775390625,2.631132055182755,-9.443631511366366,0.2556434066670947
1763701333632415700,7.857415771484375,2.734466465190053,-9.410718252801894,0.3625891938382759
1763701333642436900,7.867436767578125,2.820377738970518,-9.381673360103369,0.4472855754036456
1763701333652457700,7.877457763671875,2.8763953942686316,-9.360973686423897,0.5185552334345876
1763701333662478600,7.887478515625,2.8904391171902417,-9.352831296500563,0.5833380867294967
1763701333672499700,7.897499755859375,2.86309196832031,-9.357709131669997,0.6374632062792778
1763701333682520600,7.9075205078125,2.8047511307716366,-9.372992040997744,0.6714020815644413
1763701333692541700,7.917541748046875,2.7279268342882395,-9.395103335040806,0.6788565622888505
1763701333702562800,7.927562744140625,2.64182763672024,-9.420064757817983,0.6734438895903527
1763701333712583700,7.937583740234375,2.5606650187715885,-9.442256131359935,0.6761636699430644
1763701333722604800,7.947604736328125,2.5083026711106298,-9.455425994056462,0.6882801511291414
1763701333732625700,7.957625732421875,2.4938588429555297,-9.458464923360943,0.6989253176536411
1763701333742646800,7.967646728515625,2.5157863048642874,-9.452610936635732,0.6995353393107653
1763701333752667600,7.977667724609375,2.574404205788672,-9.43754663849473,0.6895923297062516
1763701333762689500,7.987689453125,2.664299580769241,-9.414043597832322,0.6690949736658484
1763701333772711000,7.9977109375,2.7775471897646784,-9.383175581359863,0.6415943147346377
1763701333782731800,8.007731689453125,2.9084757091403004,-9.345366367447376,0.612592968916893
1763701333792752600,8.017752685546874,3.0558225716143843,-9.29972046855986,0.58951096667815
1763701333802773800,8.027773681640625,3.222221632821858,-9.24442235970795,0.5730164896035567
1763701333812794600,8.037794677734375,3.4100761545121667,-9.177558316224813,0.560524124309793
1763701333822815700,8.047815673828126,3.6194364055678245,-9.097737176012993,0.5488670773290097
1763701333832836600,8.057836669921874,3.8562493116945027,-9.0005715177685,0.537986896472238
1763701333842857500,8.067857421875,4.129148845724761,-8.879642122098803,0.52197322518453
1763701333852878800,8.07787890625,4.435548498296737,-8.732405734261869,0.49132330844216043
1763701333862899700,8.087899658203124,4.755862986713647,-8.56431068279147,0.4524984146811068
1763701333872920800,8.0979208984375,5.070243408906459,-8.383615092945098,0.42191710619553924
1763701333882941700,8.107941650390625,5.363129207649827,-8.200366311484574,0.4015339876519516
1763701333892962800,8.117962890625,5.620769505488872,-8.027074860414862,0.3786916759205982
1763701333902983700,8.127983642578124,5.829149221074581,-7.878219346943498,0.3536506485685706
1763701333913004500,8.138004638671875,5.9859390346765515,-7.760194440543651,0.3439477313302457
1763701333923026700,8.148026611328126,6.108644792369008,-7.663080804747342,0.36337044387646017
1763701333933047800,8.1580478515625,6.218591021731496,-7.5720754226982585,0.40396804639846084
1763701333943068700,8.168068603515625,6.3241124203890555,-7.481474529796838,0.4511463424850255
1763701333953089800,8.17808984375,6.417228510981798,-7.398178406950831,0.5064778056172654
1763701333963110700,8.188110595703124,6.483185376492142,-7.336549926033616,0.560120000488311
1763701333973131800,8.1981318359375,6.511745116022229,-7.308148591935634,0.5987670169318094
1763701333983152600,8.208152587890625,6.49967590804398,-7.317772744849324,0.6122049925126135
1763701333993173500,8.218173583984376,6.443268376645445,-7.369709852835536,0.5848597798714414
1763701334003195000,8.22819482421875,6.337370545890927,-7.465771933752298,0.5199753658981994
1763701334013215700,8.2382158203125,6.18126345385611,-7.600140072187781,0.44747419331092386
1763701334023236900,8.24823681640625,5.980562017813325,-7.7622320838510985,0.3886072129962966
1763701334033257700,8.2582578125,5.747970821034908,-7.938039901655912,0.3445882211908698
1763701334043278600,8.268278564453125,5.494844785749912,-8.116704862457514,0.310119696008414
1763701334053299700,8.2782998046875,5.2242386233538385,-8.29444394058585,0.2827092543776147
1763701334063320600,8.288320556640626,4.934821377503872,-8.47052122298181,0.2611226052631624
1763701334073341700,8.298341796875,4.630347432297468,-8.641175895807146,0.24566501522194592
1763701334083363800,8.30836376953125,4.324279203636944,-8.79838890325725,0.24362996573038398
1763701334093384700,8.318384765625,4.033617218422889,-8.934801699262858,0.26388764952970667
1763701334103405800,8.32840576171875,3.77086498439759,-9.047340283206104,0.3108016138579696
1763701334113426700,8.3384267578125,3.5414065326869486,-9.136819478601216,0.38389041360747067
1763701334123447600,8.348447509765625,3.3457980358690023,-9.205912304049729,0.47664256625864654
1763701334133468700,8.35846875,3.181282304190099,-9.258768864968419,0.5701101006375625
1763701334143489500,8.368489501953125,3.039621962919831,-9.301658743146062,0.6404900798197836
1763701334153511000,8.378510986328125,2.9117323728486895,-9.340078197911382,0.6746347068101167
1763701334163531800,8.38853173828125,2.7958035619452595,-9.375569782531262,0.6727208360128104
1763701334173552600,8.398552734375,2.700122004778683,-9.405481521192192,0.6454900800641625
1763701334183574000,8.408573974609375,2.6429513800531623,-9.424705861622094,0.6001159838553518
1763701334193595000,8.418594970703126,2.6348969606742263,-9.430326039591431,0.5446504825472831
1763701334203616000,8.428615966796874,2.66965380127877,-9.423331650659442,0.4941325206439942
1763701334213636900,8.438636962890625,2.738076764641702,-9.405190429291128,0.4644448365299031
1763701334223657700,8.44865771484375,2.8246625766828655,-9.380265246871113,0.44977881699148564
1763701334233680100,8.45868017578125,2.904082734878361,-9.35669615523517,0.4346596103254705
1763701334243701000,8.468700927734375,2.940747162669897,-9.346033891445398,0.4171973841972649
1763701334253721900,8.478721923828125,2.917404281005263,-9.354169267106055,0.39831827700845895
1763701334263743000,8.488742919921876,2.8460061012238262,-9.37696854341328,0.3782981465583667
1763701334273763800,8.498763916015625,2.7427368654072284,-9.408408222293852,0.36006449766624715
1763701334283785000,8.508784912109375,2.5873271079868077,-9.452758820673823,0.3485144912565127
1763701334293805800,8.518805908203126,2.365779721661657,-9.511272384440899,0.33038422967363146
1763701334303827000,8.528826904296874,2.134188641836494,-9.567223988765477,0.28956861875308676
1763701334313848000,8.53884814453125,1.9991443577051162,-9.597408699148893,0.2520809649451636
1763701334323869000,8.548868896484375,2.0116012498266995,-9.594155834832787,0.2756868266612291
1763701334333890000,8.55889013671875,2.0930916384249922,-9.573931961971521,0.3594117693785578
1763701334343911000,8.568910888671875,2.1374555346779522,-9.56087841913104,0.4373326289270073
1763701334353931800,8.578931884765625,2.1004520841903984,-9.56682709840238,0.48405185613445934
1763701334363953000,8.588952880859376,1.990451932683587,-9.589045944473147,0.5086214300498366
1763701334373973800,8.598973876953124,1.8404405271753668,-9.61817033214867,0.5234260178087279
1763701334383996000,8.608995849609375,1.6756735972143708,-9.647634911563992,0.5344751985568553
1763701334394017000,8.61901708984375,1.5090068249814212,-9.674072836634517,0.5528241078590974
1763701334404038000,8.629037841796874,1.346605893499404,-9.696155489104985,0.5844779774796217
1763701334414059000,8.63905908203125,1.1917530393093825,-9.713258599597214,0.6345950304318219
1763701334424080000,8.649079833984375,1.0383352594237774,-9.72621160467267,0.7021727020770311
1763701334434101000,8.65910107421875,0.8798589540395885,-9.735604871439934,0.7837247577346861
1763701334444121900,8.669121826171875,0.7223574850369244,-9.74086966010034,0.8740873849008232
1763701334454143000,8.67914306640625,0.5831692329686134,-9.741080087980627,0.9703881699442863
1763701334464164000,8.6891640625,0.4777171366875991,-9.73652549341619,1.0687501253012568
1763701334474185000,8.69918505859375,0.41077177159655837,-9.728909173193573,1.1618862357687205
1763701334484206000,8.7092060546875,0.3765130897725001,-9.719895845654607,1.245888387992233
1763701334494227000,8.71922705078125,0.3636110476993024,-9.711167180275917,1.3158293547026811
1763701334504247800,8.729247802734376,0.3643483489979058,-9.703499422127008,1.371038031705469
1763701334514269000,8.73926904296875,0.38028124666698276,-9.696402157342433,1.4161780268974602
1763701334524291000,8.749291015625,0.4162954669214785,-9.688505266612768,1.4594348386913538
1763701334534312000,8.75931201171875,0.47221484947688874,-9.678887543439865,1.5055088998630641
1763701334544333000,8.7693330078125,0.5390227423259988,-9.668540336948633,1.5489229480452835
1763701334554354000,8.77935400390625,0.6085326606754213,-9.65860521838963,1.5847428878366947
1763701334564375000,8.789375,0.6811884393025189,-9.648405895936488,1.616976639704406
1763701334574396000,8.79939599609375,0.7633777699504047,-9.636828855389355,1.6489944107338785
1763701334584416800,8.809416748046875,0.8644851515579968,-9.622588733112812,1.6819130761258303
1763701334594438000,8.81943798828125,0.9950144424829631,-9.604083354607225,1.7152002825692294
1763701334604459000,8.829458984375,1.1604156517595052,-9.580303250569104,1.7440234953410922
1763701334614480100,8.839480224609375,1.360182437300682,-9.552455458700656,1.7524005708031356
1763701334624501000,8.8495009765625,1.5945220851816235,-9.523084987309575,1.7142784915491938
1763701334634521900,8.85952197265625,1.8617643241025505,-9.492219893446563,1.6130698415242135
1763701334644543000,8.86954296875,2.1559182430855928,-9.455377478739619,1.4554177120044827
1763701334654563800,8.879563720703125,2.4681720285132527,-9.407638991487026,1.2549306493647396
1763701334664586000,8.8895859375,2.7821964768752454,-9.346858067309856,1.0324841222427785
1763701334674607000,8.899607177734374,3.0866891267821193,-9.271949833580852,0.8207727780163288
1763701334684628000,8.9096279296875,3.3728120072618126,-9.18629165777862,0.6376288451697677
1763701334694649000,8.919649169921875,3.6336344422683116,-9.09630392833948,0.4736557324675843
1763701334704670000,8.929669921875,3.8684804322361943,-9.005523587217926,0.3252677999753505
1763701334714690800,8.93969091796875,4.072774339812994,-8.918741375821828,0.19738569909092038
1763701334724712000,8.9497119140625,4.232945028024911,-8.845539361488818,0.09480387014974839
1763701334734732800,8.95973291015625,4.341057904480397,-8.793476581296325,0.018770681803202023
1763701334744754000,8.96975390625,4.422327782195806,-8.752745342457294,-0.05333071320250164
1763701334754775000,8.979775146484375,4.50284245762974,-8.710705359107255,-0.1356996062349528
1763701334764796000,8.9897958984375,4.60110029502511,-8.657114054173231,-0.23372445685835555
1763701334774817000,8.999817138671874,4.7154415444761515,-8.591455294826627,-0.34911958101019264
1763701334784838000,9.009837890625,4.8392102552250025,-8.516721833142638,-0.466768566769734
1763701334794859000,9.01985888671875,4.967638189956546,-8.437171911087631,-0.5541481595370918
1763701334804881000,9.029880859375,5.092889540478587,-8.358408170974254,-0.6081740930287167
1763701334814902000,9.039902099609375,5.216227750855684,-8.280279806154965,-0.6311240663856268
1763701334824923100,9.049923095703125,5.337379264843464,-8.203474798893929,-0.6210965203028171
1763701334834944000,9.059944091796876,5.453412705165148,-8.129585386818647,-0.5835351071389392
1763701334844964900,9.06996484375,5.563045630794763,-8.058938902187347,-0.5257517938751727
1763701334854986000,9.079986083984375,5.664681127929687,-7.992312759113311,-0.45245497739817947
1763701334865006800,9.0900068359375,5.756046575462817,-7.931269969129562,-0.36505532822348175
1763701334875028000,9.100028076171874,5.833886770990491,-7.878300010964274,-0.2617966868661344
1763701334885048800,9.110048828125,5.894571249055862,-7.836078825828433,-0.14240214521405287
1763701334895070000,9.120070068359375,5.93422579857409,-7.807383477219939,-0.010665898785274476
1763701334905091000,9.130091064453126,5.948665827336907,-7.795366291689873,0.12659928539912216
1763701334915112000,9.14011181640625,5.934927224841713,-7.802527853882312,0.259980869615823
1763701334925133000,9.150133056640625,5.889401152941584,-7.831603726240992,0.389001071152091
1763701334935154000,9.16015380859375,5.811441714948415,-7.8830878297626965,0.5044394681900739
1763701334945175800,9.17017578125,5.70102494546473,-7.95665517027676,0.600280344104208
1763701334955197000,9.180197021484375,5.561929193985462,-8.049108413046598,0.6687151075027883
1763701334965218000,9.190218017578125,5.406070523753762,-8.152374141731858,0.6954035002030432
1763701334975239000,9.200239013671874,5.2482350004911416,-8.256651093286276,0.6738957250110804
1763701334985260000,9.210260009765625,5.09720974176526,-8.355013267838954,0.6185511466689407
1763701334995281000,9.220281005859375,4.957022103396058,-8.443605743527412,0.5512116311611608
1763701335005302000,9.230302001953126,4.826381168790161,-8.522881524816155,0.48674087602272625
1763701335015323000,9.240322998046874,4.697233979873359,-8.597315126770734,0.43879323953147975
1763701335025344000,9.250343994140625,4.5604707629948855,-8.67140152272284,0.4234316389443353
1763701335035364900,9.26036474609375,4.413494487398863,-8.745551047039031,0.4547235068520531
1763701335045385700,9.2703857421875,4.264518854679167,-8.814194959676264,0.5424155631020665
1763701335055407000,9.280406982421875,4.130739914308488,-8.867662345969677,0.6869861657958477
1763701335065428000,9.290427978515625,4.03133992114067,-8.896939293858408,0.873588933859393
1763701335075449900,9.300449951171874,3.9747628783941265,-8.90282893641889,1.0541754373081027
1763701335085471000,9.310470947265625,3.959013520598411,-8.89548091174364,1.1691896175846457
1763701335095491800,9.320491943359375,3.9795723245024677,-8.884588930851221,1.1821461297914384
1763701335105513000,9.330512939453126,4.031093837425113,-8.871446540683507,1.1036789614718407
1763701335115534000,9.3405341796875,4.099787726683914,-8.854982897138594,0.9753930655594915
1763701335125555000,9.350554931640625,4.154721678398549,-8.842686894667148,0.8458987437054515
1763701335135576000,9.360576171875,4.181382890830934,-8.839460918357968,0.7418473445352166
1763701335145597000,9.370596923828124,4.185414630565047,-8.841260661256312,0.6962699808392673
1763701335155618000,9.3806181640625,4.177868745230138,-8.843548479932545,0.7123476207412779
1763701335165639000,9.390638916015625,4.174772532780469,-8.84262610439062,0.7413722013041376
1763701335175659800,9.40065966796875,4.178634761166572,-8.838664215022325,0.7664260516051202
1763701335185681200,9.41068115234375,4.177404927110672,-8.836557013610005,0.7968239663477986
1763701335195702300,9.420702392578125,4.152399665191769,-8.843658954569698,0.8471482323098928
1763701335205723400,9.430723388671876,4.088545617179572,-8.865750374868512,0.9233889567516743
1763701335215745300,9.440745361328124,3.983660470598936,-8.902192976602912,1.0255675477873534
1763701335225766100,9.45076611328125,3.8442327106863257,-8.948736701112985,1.1455854546353221
1763701335235787300,9.460787353515625,3.680258830799162,-9.001790245908499,1.2624769730910659
1763701335245808000,9.47080810546875,3.50390740763694,-9.057591628107428,1.3612621953614055
1763701335255829000,9.4808291015625,3.329443697917461,-9.11249460016191,1.43095371735543
1763701335265850400,9.490850341796875,3.1684520487114787,-9.16471461674273,1.462629981470853
1763701335275871200,9.500871337890626,3.0223364815980194,-9.215812351295352,1.4507462130621074
1763701335285892400,9.510892333984375,2.8891157596319914,-9.265020326578616,1.408118492951989
1763701335295913200,9.520913330078125,2.766976988172531,-9.310066506007313,1.355319361308962
1763701335305934000,9.53093408203125,2.6576024212181566,-9.349058792224525,1.3048431196555494
1763701335315955200,9.540955078125,2.5609689701542258,-9.382070834988355,1.2603870150744914
1763701335325976000,9.55097607421875,2.4712147572100163,-9.411217434495686,1.2216614169694482
1763701335335997200,9.5609970703125,2.3820729770757256,-9.438480119952558,1.187942687240988
1763701335346019300,9.571019287109374,2.2873054660141467,-9.464932073548436,1.1634724089816213
1763701335356040200,9.581040283203125,2.18508807733804,-9.490932191723585,1.1480337976355104
1763701335366061300,9.591061279296875,2.0769287313923237,-9.51615664935112,1.1399687837973236
1763701335376082200,9.601082275390626,1.9677412114426494,-9.539757305169106,1.1364015197698025
1763701335386103000,9.61110302734375,1.861718293003738,-9.561264788100123,1.1342881078124045
1763701335396124200,9.621124267578125,1.7599755361020564,-9.580658055356144,1.1330758094131945
1763701335406145000,9.63114501953125,1.6610642032340168,-9.598278467720746,1.1332662904839963
1763701335416166400,9.64116650390625,1.5629041271246968,-9.614382045781612,1.1363950169637798
1763701335426187300,9.651187255859375,1.467202257822454,-9.628643210846185,1.1432125149589032
1763701335436208000,9.6612080078125,1.3753848287381232,-9.640848027902841,1.1544536746151746
1763701335446229200,9.671229248046876,1.2852680660918354,-9.651208093875645,1.1716090267512946
1763701335456250000,9.68125,1.195287643176317,-9.659969492480158,1.194436360109225
1763701335466271200,9.691271240234375,1.1057184314101933,-9.667180739033222,1.222049101112783
1763701335476293000,9.701293212890626,1.0176709493186324,-9.67277870517075,1.253822834253311
1763701335486314200,9.711314208984374,0.9321006709955633,-9.676832364475727,1.2885994024716316
1763701335496335400,9.72133544921875,0.8490949824634939,-9.679681908687948,1.3240757895223796
1763701335506356200,9.731356201171875,0.7692674125108867,-9.681574590566754,1.3585828931495547
1763701335516377000,9.741377197265624,0.6931156084615737,-9.682448450791835,1.3929020729891954
1763701335526398200,9.751398193359375,0.62168111525774,-9.68238473790586,1.4266488597683609
1763701335536419000,9.761419189453125,0.5570709516486153,-9.681813075497747,1.4569019592128694
1763701335546440200,9.771440185546876,0.5002689410397783,-9.681122755146026,1.4818760953411458
1763701335556461000,9.7814609375,0.4479030131822452,-9.680623573452234,1.5017587535493075
1763701335566482400,9.791482421875,0.3964505834404379,-9.680632925802469,1.5160925454586744
1763701335576503300,9.80150341796875,0.3452858845988288,-9.680978378239274,1.526366832844168
1763701335586524200,9.811524169921874,0.29659402387784795,-9.681101127836108,1.535800139360875
1763701335596545300,9.821545166015625,0.2546896496062167,-9.680096334707736,1.5495917872175573
1763701335606567200,9.831567138671875,0.22322923846486956,-9.677260819020868,1.5720004567719994
1763701335616588000,9.841588134765624,0.20402128291418775,-9.67240402663946,1.6041640660129486
1763701335626609200,9.851609130859375,0.19439641761444507,-9.666073070052265,1.6430569835089146
1763701335636630300,9.86163037109375,0.1913203894362785,-9.659207860457897,1.6832981007434427
1763701335646651400,9.8716513671875,0.1935357456644997,-9.653436291319132,1.7158292281225322
1763701335656672300,9.88167236328125,0.20144302992401644,-9.650192194831371,1.7330824146099388
1763701335666693000,9.891693115234375,0.22034712542360646,-9.65069780626595,1.7279630257695913
1763701335676714200,9.90171435546875,0.25476421267976984,-9.655661566153167,1.6951986741565166
1763701335686735000,9.911735107421874,0.30469014524035154,-9.664769586238265,1.6339453101620076
1763701335696756200,9.921756103515625,0.37174284316338596,-9.676738256451486,1.5469035710468888
1763701335706777000,9.931777099609375,0.4640207293663174,-9.688083241808414,1.4477968617372214
1763701335716798200,9.941798095703126,0.5895360645867884,-9.695418991523981,1.349694799425453
1763701335726819300,9.9518193359375,0.750084061678499,-9.696665192192793,1.2579489742726087
1763701335736841200,9.96184130859375,0.9414758175842464,-9.690537649223208,1.1736631828021258
1763701335746862000,9.971862060546876,1.1596141991835087,-9.676025724267959,1.0955420514412224
1763701335756883200,9.98188330078125,1.398529557482153,-9.652609192845224,1.0206062721181661
1763701335766904000,9.991904052734375,1.6544332407869398,-9.619918637120723,0.9436055230893194
1763701335776925200,10.00192529296875,1.9242603816345334,-9.577630231967568,0.8582539290182292
1763701335786946300,10.0119462890625,2.2009259902000426,-9.525940376740694,0.763397278368473
1763701335796967200,10.02196728515625,2.4730428494200107,-9.466341940346359,0.6654485069222748
1763701335806988300,10.03198828125,2.7313185225531456,-9.401286992111801,0.5710547976091503
1763701335817009200,10.042009033203126,2.9734970473662017,-9.332650093737245,0.47995472301393743
1763701335827030300,10.0520302734375,3.2006901844933626,-9.2614506513983,0.3892365969410166
1763701335837051100,10.062051025390625,3.410764136776328,-9.189513542434572,0.2998477284441702
1763701335847072000,10.072072021484376,3.598387480059266,-9.119977649393677,0.21905458312872797
1763701335857093000,10.082093017578124,3.7617537494421005,-9.055090458941459,0.15788604787345975
1763701335867114200,10.0921142578125,3.90845529974997,-8.993398849660158,0.11456053649121894
1763701335877136100,10.10213623046875,4.051040646910667,-8.93052416807413,0.07214318489588331
1763701335887157200,10.1121572265625,4.193761310888827,-8.864664917719363,0.02141415807477897
1763701335897178000,10.12217822265625,4.333722154764831,-8.797001832813024,-0.044589827663055616
1763701335907199200,10.13219921875,4.465873201672733,-8.729808703505993,-0.12954860932454465
1763701335917220000,10.14222021484375,4.593452118359506,-8.661485108864307,-0.22193572805561124
1763701335927241000,10.152240966796874,4.721928568407893,-8.589185011807084,-0.31573475941121576
1763701335937262300,10.162262451171875,4.852880176398158,-8.511873224067687,-0.409839020791091
1763701335947283200,10.172283203125,4.986431153231859,-8.429519935029745,-0.4990787814071402
1763701335957304300,10.18230419921875,5.119957580146194,-8.344236437758802,-0.5745689432099461
1763701335967325200,10.1923251953125,5.250105470538139,-8.258996779629587,-0.6290799202721565
1763701335977346300,10.20234619140625,5.373506809279323,-8.176492099422216,-0.6639176440931857
1763701335987367200,10.2123671875,5.485109573677182,-8.10016815367639,-0.6864631648350507
1763701335997388000,10.222387939453125,5.579142779114842,-8.034310072365402,-0.7024291610561311
1763701336007410200,10.23241015625,5.651787159565091,-7.982310420536995,-0.7144195316445082
1763701336017431300,10.242431396484376,5.702064809906482,-7.945888861590624,-0.7209016602054238
1763701336027452200,10.2524521484375,5.730546223503351,-7.9256813553422685,-0.7175027384821325
1763701336037473300,10.262473388671875,5.739322819676995,-7.9205048294872045,-0.7043891360174864
1763701336047494100,10.272494140625,5.729752442777157,-7.929172120067477,-0.6845095465492457
1763701336057515300,10.282515380859374,5.702909444037079,-7.9505375641793,-0.660430897955969
1763701336067536100,10.2925361328125,5.659264363577962,-7.984008456626534,-0.6314451880987734
1763701336077557000,10.302556884765625,5.598230341422558,-8.029618115156888,-0.5961770735038444
1763701336087578400,10.312578369140626,5.518007050150633,-8.08785987624526,-0.5554275683557615
1763701336097599200,10.32259912109375,5.417485067215561,-8.15840991476476,-0.5114547172470018
1763701336107620400,10.332620361328125,5.2976604179173705,-8.239530447137355,-0.46402449222598224
1763701336117641200,10.34264111328125,5.161724591773748,-8.328132859697938,-0.41132337759733195
1763701336127663000,10.3526630859375,5.014412800613045,-8.420423605382442,-0.35001086729411035
1763701336137684200,10.362684326171875,4.860463763394952,-8.512903736159204,-0.27704207719508556
1763701336147705300,10.372705322265626,4.70317184548974,-8.603172036105393,-0.18972274498129263
1763701336157726200,10.382726318359374,4.542664180408418,-8.690652166637777,-0.08457393336263484
1763701336167747300,10.392747314453125,4.3803129332870245,-8.773924324086307,0.03891735781747847
1763701336177768200,10.402768310546875,4.221640666939318,-8.849678360989689,0.17705898690968752
1763701336187788300,10.412788330078126,4.060282230247557,-8.92066211475134,0.3259977216850966
1763701336197809200,10.42280908203125,3.878031519913673,-8.994797610542177,0.4742121973065659
1763701336207830500,10.43283056640625,3.677670275610685,-9.070030253919958,0.6161763803616166
1763701336217851400,10.442851318359375,3.491016361881792,-9.135370448836683,0.7267659491289407
1763701336227872300,10.452872314453124,3.343369931939244,-9.185705966845154,0.7842620064165443
1763701336237893400,10.462893310546875,3.2499417066574097,-9.217386468744277,0.8049999662797898
1763701336247914200,10.472914306640625,3.205727009616792,-9.23323577978313,0.8006687321424484
1763701336257936100,10.48293603515625,3.1967069600760936,-9.23916283174455,0.7676832120593636
1763701336267957200,10.492957275390625,3.212489927880466,-9.237552473938464,0.7196615239512175
1763701336277978400,10.502978271484375,3.2511817698463794,-9.226694979837536,0.684327687176317
1763701336287999500,10.51299951171875,3.3108021258115765,-9.206815390369295,0.6659671239688992
1763701336298020400,10.523020263671874,3.3587072018027304,-9.191174753645061,0.6416958754129708
1763701336308041200,10.533041259765625,3.3552047466397283,-9.195217891556023,0.6007921660838649
1763701336318062300,10.543062255859375,3.3063448541417717,-9.216837018167972,0.5370020136207342
1763701336328083200,10.553083251953124,3.2262691546469924,-9.249729233944416,0.4517409108446911
1763701336338104300,10.563104248046875,3.1423642522528765,-9.283754253143071,0.328407230512239
1763701336348125200,10.573125244140625,3.130285107402503,-9.292685163095593,0.13302166486312633
1763701336358146300,10.583146240234376,3.247921306745708,-9.253042888537049,-0.05098005385654978
1763701336368167400,10.59316748046875,3.450594919644296,-9.178957661628722,-0.10256012856601737
1763701336378188300,10.603188232421875,3.67785703035444,-9.090703039592505,-0.0535510140228318
1763701336388209400,10.61320947265625,3.8940366060361264,-9.000319588834047,0.03338696104042465
1763701336398231300,10.623231201171874,4.068480149750411,-8.921980796134472,0.12687847679983824
1763701336408252200,10.633252197265625,4.178255406460166,-8.86972570824027,0.20133511257013303
1763701336418273300,10.643273193359375,4.216549189019203,-8.850418950223922,0.24732083787126466
1763701336428294400,10.65329443359375,4.181601794278621,-8.86661137561202,0.26039646467939015
1763701336438315300,10.663315185546875,4.0879073192760345,-8.910837470829486,0.2374472767737694
1763701336448336400,10.67333642578125,3.9619054426476357,-8.968561930045485,0.1964879830662161
1763701336458357200,10.683357177734376,3.8295854689136144,-9.026471682700514,0.1657770751179196
1763701336468378400,10.69337841796875,3.7137329381167885,-9.074957188928126,0.15401826652940362
1763701336478399200,10.703399169921875,3.6236607452645897,-9.111399206140637,0.14789487001197413
1763701336488420400,10.71342041015625,3.5438968881979585,-9.142696261680126,0.1493256152011454
1763701336498441200,10.723441162109374,3.472818734151125,-9.169750857344269,0.15991980045707896
1763701336508462300,10.73346240234375,3.419044473865628,-9.189841459214687,0.16531924834782258
1763701336518483500,10.7434833984375,3.379342285813391,-9.204485486117004,0.1669550693887286
1763701336528505300,10.75350537109375,3.3477965162098404,-9.215821119123698,0.17685075098648667
1763701336538526200,10.763526123046875,3.323843393692374,-9.22390914851129,0.20477960873451082
1763701336548547300,10.77354736328125,3.3107264302268624,-9.227644827908277,0.2450835986047983
1763701336558568200,10.783568115234376,3.3099314804568887,-9.22659210398495,0.29109518899954856
1763701336568589300,10.79358935546875,3.316217136597633,-9.222742442819476,0.337802068182081
1763701336578610400,10.8036103515625,3.3270725848719476,-9.217369517609477,0.37560003004819154
1763701336588631300,10.81363134765625,3.3473584170535204,-9.208936035785078,0.401336930709891
1763701336598652400,10.82365234375,3.3862831909924744,-9.193959415927528,0.4178298003492877
1763701336608673300,10.83367333984375,3.4500597898542877,-9.169803464314342,0.42681894329506903
1763701336618694400,10.8436943359375,3.5443940240651366,-9.133929017856717,0.4230650706542656
1763701336628715300,10.85371533203125,3.6729622440502045,-9.083889852446317,0.40334034295417365
1763701336638736100,10.863736083984374,3.8329409168213604,-9.019180356648564,0.3651564505103975
1763701336648757200,10.87375732421875,4.01790380872339,-8.940677313297986,0.301887581975013
1763701336658778400,10.8837783203125,4.226804333312809,-8.846510836869477,0.20915037116464227
1763701336668800300,10.89380029296875,4.463942525871098,-8.731284621277451,0.09087459527626633
1763701336678821400,10.9038212890625,4.726715802684426,-8.592204651889205,-0.050538525200705044
1763701336688842200,10.91384228515625,4.999058579614759,-8.434110769951342,-0.21346448977040125
1763701336698863400,10.92386328125,5.264731961783767,-8.264734446498752,-0.38359183251969514
1763701336708884200,10.93388427734375,5.512265876150131,-8.092637173649669,-0.5427142172550782
1763701336718905000,10.943905029296875,5.738446036842465,-7.924128865203261,-0.6699218529440463
1763701336728926500,10.953926513671876,5.948013500908017,-7.760766687473654,-0.7496812530312686
1763701336738947300,10.963947265625,6.143688048699498,-7.60374131155014,-0.7801257833946496
1763701336748968400,10.973968505859375,6.327632411208748,-7.452478152415156,-0.7694321746185422
1763701336758989300,10.9839892578125,6.500684792825579,-7.305584878927469,-0.7347874891515821
1763701336769010400,10.994010498046874,6.656070000326633,-7.168489945876598,-0.6927340617980807
1763701336779031300,11.00403125,6.779939541101455,-7.054854798868298,-0.6571325139977038
1763701336789052200,11.01405224609375,6.862529561504721,-6.976344741255044,-0.6377192268669605
1763701336799074300,11.02407421875,6.900109058314562,-6.939047568517923,-0.6391293859258294
1763701336809095400,11.034095458984375,6.89785631095171,-6.93991090734899,-0.6539104832112789
1763701336819116300,11.0441162109375,6.8663049883902065,-6.970010862058401,-0.6657241820584983
1763701336829137400,11.054137451171876,6.811697784411907,-7.022943995344638,-0.6703845750849694
1763701336839158300,11.064158203125,6.737474610337615,-7.093923657453059,-0.6731049399595708
1763701336849179400,11.074179443359375,6.645154054036736,-7.179902151250839,-0.6792047912046313
1763701336859200300,11.0842001953125,6.532329638889432,-7.281743984612822,-0.6893948343727737
1763701336869221000,11.09422119140625,6.393898488798738,-7.4022232984274625,-0.7039443879246712
1763701336879242500,11.104242431640625,6.2264534256696695,-7.542213368397951,-0.718801180794835
1763701336889263400,11.114263427734375,6.03152355876565,-7.698281297466158,-0.7263513769786805
1763701336899284500,11.124284423828126,5.814277230635285,-7.864054043468832,-0.7219500002145767
1763701336909305300,11.134305419921875,5.5815667913913725,-8.03263775523901,-0.7022974975004792
1763701336919326200,11.144326171875,5.34105999918282,-8.197658221569657,-0.6647153703421353
1763701336929347300,11.154347412109376,5.099588161334395,-8.354155774226784,-0.6104756114367396
1763701336939369500,11.164369384765624,4.860620123000443,-8.499844348099828,-0.5453650970900431
1763701336949390300,11.174390380859375,4.625617773427069,-8.633861773401499,-0.4800752806536853
1763701336959411500,11.184411376953125,4.39643521604836,-8.75564515555203,-0.4247632894068956
1763701336969432300,11.194432373046874,4.172134585492313,-8.866430173826217,-0.387441493685171
1763701336979453400,11.204453369140625,3.952844476574659,-8.967243248662353,-0.36601814537364985
1763701336989474300,11.214474365234375,3.738056062990427,-9.059428780406712,-0.3522349365517497
1763701336999495200,11.2244951171875,3.530090773424506,-9.142903182429075,-0.3408101639568806
1763701337009516300,11.234516357421874,3.3297660617396234,-9.218094909274578,-0.3313132906846702
1763701337019537200,11.244537109375,3.1326801858454942,-9.287267229700088,-0.3215077898547053
1763701337029558500,11.25455859375,2.950823151004314,-9.347266063588856,-0.3027606750151142
1763701337039579400,11.264579345703124,2.8039959284901617,-9.393241048300265,-0.2739067383114248
1763701337049600300,11.274600341796875,2.7050126994296906,-9.42312823704183,-0.24075079356487838
1763701337059621400,11.284621337890625,2.651927882713079,-9.438974625471234,-0.208389561126288
1763701337069642200,11.294642333984376,2.6333672668889165,-9.444815752714872,-0.17671751652825624
1763701337079664000,11.3046640625,2.639329097902775,-9.443833755940199,-0.13537558931182136
1763701337089685500,11.314685546875,2.6627389073237775,-9.43795580381751,-0.07207544885533862
1763701337099706400,11.324706298828126,2.6831378444910046,-9.432449607616663,0.006693506860095658
1763701337109727500,11.3347275390625,2.6613842778444288,-9.438338081133365,0.07206427900735289
1763701337119748400,11.344748291015625,2.587202897085249,-9.45884310902357,0.0839142182117328
1763701337129769200,11.354769287109375,2.4692124774768947,-9.490590830940008,0.04545990676216315
1763701337139790300,11.364790283203124,2.309771126452833,-9.530725272929669,-0.024481466373661533
1763701337149811200,11.374811279296875,2.1384224800139666,-9.569573766762018,-0.14417872643251903
1763701337159832300,11.384832275390625,2.0252008822426197,-9.589493688240648,-0.3325385216306895
1763701337169853200,11.394853271484376,2.024653039101511,-9.58036696345508,-0.5363936359314248
1763701337179874300,11.404874267578125,2.1551266543164846,-9.544871871703863,-0.6490303830195218
1763701337189895700,11.414895751953125,2.373974718555063,-9.495345916512608,-0.6107609677167609
1763701337199916500,11.42491650390625,2.632603004518151,-9.434248181471228,-0.48452020429857073
1763701337209937700,11.434937744140624,2.8851331197366115,-9.366965035793184,-0.3261247455982491
1763701337219959600,11.44495947265625,3.093250384993851,-9.304729236632586,-0.155548161244113
1763701337229980400,11.45498046875,3.237119049963355,-9.256966199460624,0.005660576765917358
1763701337240001800,11.465001708984374,3.3096573396906255,-9.230345319038628,0.13142773760203272
1763701337250022700,11.475022705078125,3.3074829182609915,-9.22987711700499,0.20076639103777705
1763701337260043500,11.48504345703125,3.2346582128077745,-9.255403187927604,0.21185404063276944
1763701337270064600,11.495064697265626,3.11496069702059,-9.296949250280857,0.18476314981253816
1763701337280085500,11.50508544921875,2.9902737023830412,-9.338427508094906,0.14980231106849387
1763701337290106600,11.515106689453125,2.909899896724522,-9.36411958323419,0.1270305712221656
1763701337300127500,11.52512744140625,2.8832816466510294,-9.372522085398435,0.11348557333662174
1763701337310148400,11.5351484375,2.8753906011402606,-9.375151849380135,0.09503741404414176
1763701337320169700,11.545169677734375,2.8645629176557064,-9.378671840199827,0.07182842899144161
1763701337330190600,11.555190673828125,2.863116225978732,-9.379327673760056,0.03435094038450624
1763701337340211700,11.565211669921876,2.899432863245904,-9.368182010367512,-0.029041855924646368
1763701337350232600,11.575232666015625,2.979301934252679,-9.342602747952938,-0.09956806147741153
1763701337360254500,11.58525439453125,3.078861794157326,-9.309557387441396,-0.15208587369471788
1763701337370275600,11.595275634765626,3.1787279435321687,-9.275380977073311,-0.18266139176031573
1763701337380296400,11.60529638671875,3.278208016198873,-9.2402482888937,-0.20381465442618354
1763701337390317600,11.615317626953125,3.385957320038974,-9.200720580625534,-0.22897534436881542
1763701337400338700,11.625338623046876,3.514404251731932,-9.151455906718969,-0.26494167036097493
1763701337410359600,11.635359619140624,3.673164780884981,-9.08720409156084,-0.31774916797354813
1763701337420380700,11.645380615234375,3.8676699926361437,-9.003351503875852,-0.388793127489835
1763701337430401500,11.655401611328125,4.10532694837153,-8.893137563487887,-0.4783127644931897
1763701337440422700,11.665422607421876,4.387659204396606,-8.750916373464465,-0.5833403882844374
1763701337450443500,11.675443603515625,4.704613860991597,-8.576019240763783,-0.6991934670705348
1763701337460464400,11.68546435546875,5.038858090561628,-8.373284253066778,-0.8175603918410838
1763701337470485800,11.69548583984375,5.3555567265689366,-8.163218776351213,-0.9220919026784599
1763701337480506600,11.705506591796874,5.632251853489875,-7.966203919866681,-0.9938380191147327
1763701337490527700,11.71552783203125,5.881258178496361,-7.780452800196409,-1.0226136664178223
1763701337500549600,11.725549560546876,6.123750007042289,-7.59488171326816,-0.9939058967191725
1763701337510570500,11.735570556640624,6.369160353383421,-7.400812847107648,-0.912226123028621
1763701337520591600,11.745591552734375,6.6125546837270255,-7.195269231730699,-0.8201219128921627
1763701337530612500,11.755612548828125,6.820732739260793,-7.005576680958271,-0.7549032985284924
1763701337540633600,11.765633544921876,6.960687737917899,-6.870637464636564,-0.7166247866038232
1763701337550654700,11.77565478515625,7.031195106339454,-6.7996998881042,-0.7048106493651867
1763701337560675600,11.785675537109375,7.0523179738670585,-6.776987705558538,-0.712479722688347
1763701337570696700,11.79569677734375,7.045728658604621,-6.782166569501161,-0.7282233083304017
1763701337580717600,11.805717529296874,7.0249202638536685,-6.801531195184588,-0.7483637406919151
1763701337590738400,11.815738525390625,6.992308618584275,-6.831160025250911,-0.7831041416183113
1763701337600759600,11.825759521484375,6.9451453008711335,-6.8726300997585055,-0.838033490223065
1763701337610780400,11.835780517578126,6.879369637146592,-6.9297852346539495,-0.9070517160654068
1763701337620801800,11.8458017578125,6.790593621584772,-7.006909390866756,-0.9805364197973161
1763701337630822700,11.85582275390625,6.676102150008082,-7.1055796084553,-1.0539373177032918
1763701337640843500,11.865843505859376,6.536496110919118,-7.22361445172727,-1.1242727636240422
1763701337650865700,11.87586572265625,6.376272231215238,-7.356084063065052,-1.183872222931683
1763701337660886500,11.885886474609375,6.2007175113886595,-7.497932912644743,-1.225765418222174
1763701337670907400,11.895907470703126,6.013738311228156,-7.645577881282567,-1.2451819932885466
1763701337680928500,11.905928466796874,5.817578025746345,-7.797737112474441,-1.233480741839856
1763701337690949600,11.91594970703125,5.614373666971922,-7.953069713005423,-1.1823208287712186
1763701337700970800,11.925970703125,5.406908728143573,-8.108181948783994,-1.0922954707354307
1763701337710991600,11.93599169921875,5.199271355357766,-8.257685112509131,-0.9739606946688145
1763701337721012500,11.946012451171875,4.991218972030282,-8.399318858033418,-0.8423640667732805
1763701337731033600,11.95603369140625,4.77801402824521,-8.534045892909168,-0.7148624531064182
1763701337741054500,11.966054443359376,4.555272902090847,-8.66354964017868,-0.6023071737566963
1763701337751075600,11.97607568359375,4.322489105349779,-8.788061570510267,-0.5064043385222554
1763701337761096400,11.986096435546875,4.085652526086569,-8.904919186696409,-0.42455351911373435
1763701337771117600,11.99611767578125,3.8519969149470326,-9.011564620947837,-0.35242717118822037
1763701337781138700,12.006138671875,3.6272514632329345,-9.10656170298159,-0.28979495658855886
1763701337791160600,12.01616064453125,3.42253728441745,-9.186967365083097,-0.23716827716929836
1763701337801181400,12.026181396484375,3.238691121585667,-9.254260447633266,-0.19980344602344557
1763701337811202600,12.03620263671875,3.0691935098409653,-9.31242271374464,-0.1709595375234261
1763701337821223400,12.046223388671875,2.9074110025182365,-9.364677801638841,-0.14197003740710207
1763701337831244500,12.05624462890625,2.748515156547725,-9.412866955268383,-0.1183223093106877
1763701337841265700,12.066265625,2.5935192406252026,-9.456908341568708,-0.1044381791312713
1763701337851286500,12.07628662109375,2.4510496287986636,-9.494844981253147,-0.10324200988295487
1763701337861307600,12.0863076171875,2.3324885696955024,-9.52452934089899,-0.11505203720205463
1763701337871328500,12.09632861328125,2.245212291172147,-9.545209140834212,-0.13565060686091893
1763701337881349600,12.106349609375,2.185574691811204,-9.558740238058567,-0.1553737362589687
1763701337891370500,12.11637060546875,2.1564709085322917,-9.565366962721944,-0.15414719013869763
1763701337901391600,12.1263916015625,2.17399575156793,-9.561882043215633,-0.12057241719188168
1763701337911412500,12.13641259765625,2.235651558883488,-9.548001986423134,-0.08902387110935524
1763701337921433600,12.14643359375,2.314704491201788,-9.529119591298699,-0.09160880043548532
1763701337931454700,12.156454833984375,2.350825752027333,-9.519854919347166,-0.12790760978502222
1763701337941476600,12.1664765625,2.312013644682616,-9.52805517693758,-0.20281143220039083
1763701337951497500,12.17649755859375,2.2519985903114077,-9.539873040503263,-0.2995182042288594
1763701337961518600,12.1865185546875,2.214652902257442,-9.546204581612349,-0.36836185895558443
1763701337971539500,12.19653955078125,2.2306794695593415,-9.541392212894559,-0.3953184376053512
1763701337981560600,12.206560546875,2.3214751543805003,-9.520560437268019,-0.37423524450100953
1763701337991581700,12.216581787109375,2.453614803111553,-9.489900510588289,-0.3032418095955625
1763701338001602600,12.2266025390625,2.571334589084983,-9.461030389934777,-0.2179968907693401
1763701338011623700,12.236623779296876,2.6386916767820714,-9.443806283411384,-0.14899967118240892
1763701338021644500,12.24664453125,2.644268892392516,-9.442785708191991,-0.1097092514019925
1763701338031665700,12.256665771484375,2.601087922313809,-9.45494493254125,-0.09362629600404761
1763701338041686500,12.2666865234375,2.524109896573424,-9.475757418945431,-0.0963449347124435
1763701338051707400,12.276707275390624,2.4229766498722136,-9.502029339799284,-0.10487696327418088
1763701338061728500,12.286728515625,2.3057718276835977,-9.531135022774338,-0.10601873545413837
1763701338071749600,12.29674951171875,2.188680402741581,-9.558807458075881,-0.09635987655324861
1763701338081770800,12.306770751953126,2.085876592479646,-9.581967384389042,-0.07366549452575855
1763701338091792600,12.316792724609375,2.001468124477565,-9.600158290117978,-0.03823126611630432
1763701338101813500,12.3268134765625,1.93451011910066,-9.613950084105133,0.0036449748998638822
1763701338111834600,12.336834716796876,1.8819915579646824,-9.624273325198889,0.04322200534199364
1763701338121855500,12.34685546875,1.8468169303394852,-9.630904726037382,0.07303168100109324
1763701338131876400,12.35687646484375,1.8364783455461262,-9.632707391545177,0.09308827100405469
1763701338141897700,12.366897705078125,1.8509457007072865,-9.629754971480368,0.11044213225380517
1763701338151918600,12.376918701171874,1.8834812120005486,-9.623215340578556,0.12891116080437787
1763701338161939700,12.386939697265625,1.9256208563327788,-9.614563247567414,0.15013730604336595
1763701338171960600,12.396960693359375,1.9667983776345848,-9.605721769464015,0.17945419321684167
1763701338181981400,12.4069814453125,2.0018873728029427,-9.59771206600964,0.21622038261611012
1763701338192002600,12.41700244140625,2.034365308690071,-9.589984686627984,0.2528495381648652
1763701338202023400,12.4270234375,2.0692894686855374,-9.581589783248305,0.28559485628390685
1763701338212044500,12.43704443359375,2.107760799768567,-9.572306406596303,0.314123634420149
1763701338222065700,12.447065673828124,2.1499407761111855,-9.56214683163166,0.3368727149100974
1763701338232086800,12.457086669921875,2.1960108917601406,-9.551158404627442,0.35114659332577136
1763701338242108700,12.467108642578125,2.243673245036602,-9.539850244149566,0.3571755347590893
1763701338252129500,12.477129638671874,2.291848808532208,-9.528326395094394,0.3588830327967182
1763701338262150400,12.487150390625,2.3407832275711,-9.516313301217556,0.3618085648545995
1763701338272171500,12.497171630859375,2.3915628360852597,-9.503433361378312,0.36818562560584395
1763701338282192400,12.5071923828125,2.448060383854806,-9.48872152993679,0.3762276238946244
1763701338292213800,12.5172138671875,2.5149609599560496,-9.470962585884331,0.3823946220917627
1763701338302234600,12.527234619140625,2.5940526168495417,-9.449617015516758,0.3821144534435123
1763701338312255700,12.537255859375,2.682891468514502,-9.425166464871168,0.3724402873756364
1763701338322276600,12.547276611328124,2.7836864231720564,-9.396752271291613,0.3500092963915318
1763701338332297500,12.55729736328125,2.9050445656478403,-9.36120866422355,0.3144083331130445
1763701338342318600,12.567318603515625,3.0591257048130034,-9.313433352091907,0.268523839696683
1763701338352339500,12.57733935546875,3.2583822027444835,-9.247095962831377,0.21106499088061972
1763701338362360600,12.587360595703124,3.5102351493537425,-9.155848004198074,0.1381289340074174
1763701338372381700,12.597381591796875,3.814679283943772,-9.034127165889739,0.05606595141924917
1763701338382402600,12.607402587890626,4.162695726017653,-8.879284979224204,-0.02564852597521385
1763701338392423700,12.617423583984374,4.520264132551849,-8.702086583843826,-0.10628330467445775
1763701338402445600,12.627445556640625,4.841757309359312,-8.525943834996223,-0.1898531116290018
1763701338412466400,12.637466552734375,5.118328517639637,-8.361089957404136,-0.25547135630212725
1763701338422487600,12.647487548828124,5.374045738461613,-8.19789495293498,-0.2907467956869863
1763701338432508400,12.65750830078125,5.628638339167833,-8.024955384042858,-0.2981544781276025
1763701338442529800,12.66752978515625,5.878315110781789,-7.844507046955823,-0.2819894704693928
1763701338452550700,12.677550537109376,6.108329735070467,-7.667815432053804,-0.2515989353155717
1763701338462571500,12.687571533203124,6.300189108487963,-7.511753932726383,-0.2270871925346553
1763701338472592600,12.697592529296875,6.440913922473788,-7.391523040714859,-0.22449408903522416
1763701338482613500,12.707613525390625,6.521659776315093,-7.319585347229242,-0.24902020740136502
1763701338492634600,12.717634521484374,6.54531303910315,-7.297046183162927,-0.28703252440420907
1763701338502655500,12.727655517578125,6.525707590401172,-7.3131474231362334,-0.3215509348766878
1763701338512676400,12.73767626953125,6.478761714830994,-7.353677586445212,-0.34560949053000656
1763701338522697700,12.74769775390625,6.413989675191044,-7.409494750735163,-0.36126930687874553
1763701338532718600,12.757718505859375,6.332545902213454,-7.47822575713396,-0.3813082881597802
1763701338542739700,12.76773974609375,6.235226514711976,-7.558482366153598,-0.40208040602095424
1763701338552761600,12.77776171875,6.123730133298039,-7.64818367986679,-0.4190369476493448
1763701338562782500,12.787782470703124,5.996593699681759,-7.748119387346506,-0.42177181597333396
1763701338572803600,12.797803466796875,5.852390395930409,-7.858403470361233,-0.40670499708168206
1763701338582824400,12.807824462890625,5.689989172187447,-7.977605603846907,-0.390155501884222
1763701338592845600,12.817845458984374,5.50739973141849,-8.105192119318247,-0.38051739351041614
1763701338602866700,12.82786669921875,5.303710219475627,-8.240445808416604,-0.3688929701576009
1763701338612887600,12.837887451171875,5.080544438168406,-8.380915770858525,-0.3445199051950127
1763701338622908700,12.84790869140625,4.842840136159956,-8.522047412079573,-0.3032846623566001
1763701338632929500,12.857929443359374,4.5963361493632195,-8.659198459231852,-0.24972150580482555
