time,seconds_elapsed,z,y,x
1763701325826020600,0.0510205078125,0.20110034942626953,0.3957294821739197,0.7021299004554749
1763701325836041700,0.061041748046875,0.37074264883995056,0.40619969367980957,0.7627636790275574
1763701325846062600,0.0710625,0.4707872271537781,0.32382041215896606,0.7454326152801514
1763701325856083700,0.081083740234375,0.513608992099762,0.2265617698431015,0.6776115298271179
1763701325866104600,0.0911044921875,0.4809149503707886,0.10934646427631378,0.6008629202842712
1763701325876125700,0.101125732421875,0.361664742231369,-0.006215019151568413,0.5653635263442993
1763701325886146800,0.111146728515625,0.19869844615459442,-0.11277182400226593,0.5751314759254456
1763701325896167700,0.121167724609375,0.07357408851385117,-0.04694567248225212,0.4861978590488434
1763701325906188800,0.131188720703125,-0.024635838344693184,0.1510624885559082,0.41344723105430603
1763701325916209700,0.141209716796875,-0.10765375941991806,0.2122454196214676,0.3531697690486908
1763701325926230800,0.151230712890625,-0.2191683053970337,0.13134577870368958,0.2782500088214874
1763701325936251600,0.161251708984375,-0.38479241728782654,0.056238770484924316,0.2411084920167923
1763701325946272500,0.1712724609375,-0.5726017355918884,0.0024642229545861483,0.19875091314315796
1763701325956293600,0.181293701171875,-0.746279239654541,-0.011469968594610691,0.12812282145023346
1763701325966314800,0.191314697265625,-0.9770416021347046,-0.03855458274483681,0.08439184725284576
1763701325976336000,0.2013359375,-1.232698678970337,-0.03906271234154701,0.06395847350358963
1763701325986356700,0.211356689453125,-1.454094409942627,0.15906661748886108,0.0683998316526413
1763701325996377600,0.221377685546875,-1.5307953357696533,0.3905690908432007,0.0769328624010086
1763701326006398700,0.231398681640625,-1.4490832090377808,0.5553109049797058,0.0930551066994667
1763701326016419600,0.241419677734375,-1.2227771282196045,0.5905367732048035,0.13163445889949799
1763701326026440700,0.251440673828125,-0.6835639476776123,0.6282591223716736,0.14525732398033142
1763701326036461600,0.261461669921875,-0.017594439908862114,0.3163800835609436,0.22046898305416107
1763701326046482700,0.271482666015625,0.5047076344490051,-0.019583022221922874,0.2893165051937103
1763701326056504800,0.2815048828125,0.7230391502380371,-0.5289181470870972,0.2806958556175232
1763701326066525700,0.291525634765625,0.7715148329734802,-1.1163105964660645,0.30720096826553345
1763701326076546600,0.301546630859375,0.818383514881134,-1.6206493377685547,0.2520812451839447
1763701326086567700,0.311567626953125,0.884811282157898,-1.8644667863845825,0.1622256636619568
1763701326096588500,0.321588623046875,0.9202347993850708,-1.8283079862594604,0.06064310669898987
1763701326106609700,0.331609619140625,0.892571747303009,-1.49679696559906,-0.022759640589356422
1763701326116630800,0.341630859375,0.8030999302864075,-1.0561671257019043,-0.07324198633432388
1763701326126651600,0.351651611328125,0.7003794312477112,-0.8521915674209595,-0.08471808582544327
1763701326136672800,0.3616728515625,0.5861234068870544,-0.7356764078140259,-0.09495740383863449
1763701326146693600,0.371693603515625,0.37631264328956604,-0.47967180609703064,-0.15563566982746124
1763701326156714800,0.38171484375,0.23690229654312134,-0.37281912565231323,-0.1641409993171692
1763701326166735600,0.391735595703125,0.2081955522298813,-0.4910184442996979,-0.06828877329826355
1763701326176756700,0.4017568359375,0.16125653684139252,-0.8052365779876709,0.016559002920985222
1763701326186777900,0.41177783203125,-0.020858677104115486,-0.7901372313499451,0.02400413528084755
1763701326196798700,0.421798828125,-0.21983622014522552,-0.5543396472930908,-0.021499432623386383
1763701326206819800,0.43181982421875,-0.2934936583042145,-0.43398526310920715,-0.15759629011154175
1763701326216841000,0.441841064453125,-0.32305288314819336,-0.016952086240053177,-0.2990652620792389
1763701326226862000,0.451862060546875,-0.3470567464828491,0.14004898071289062,-0.35363397002220154
1763701326236883000,0.461883056640625,-0.35897892713546753,0.044614873826503754,-0.36677268147468567
1763701326246903800,0.47190380859375,-0.34739792346954346,0.049127064645290375,-0.36841610074043274
1763701326256925000,0.481925048828125,-0.31520774960517883,-0.07029333710670471,-0.3178333640098572
1763701326266945800,0.49194580078125,-0.3216131925582886,-0.3185734450817108,-0.2542314827442169
1763701326276967000,0.501966796875,-0.3842208981513977,-0.6178536415100098,-0.22075821459293365
1763701326286989000,0.511989013671875,-0.4611732065677643,-0.8146287202835083,-0.22890375554561615
1763701326297010000,0.522010009765625,-0.48605990409851074,-0.926195502281189,-0.2858189642429352
1763701326307031000,0.532031005859375,-0.3963201642036438,-1.147439956665039,-0.4242175817489624
1763701326317052000,0.542052001953125,-0.28867894411087036,-1.3696006536483765,-0.44963693618774414
1763701326327072800,0.55207275390625,-0.29774752259254456,-1.3058791160583496,-0.3399066925048828
1763701326337094000,0.562093994140625,-0.4474765658378601,-0.9561829566955566,-0.22405466437339783
1763701326347114800,0.57211474609375,-0.6669596433639526,-0.5230645537376404,-0.2210191935300827
1763701326357136000,0.582135986328125,-0.7826479077339172,-0.008737032301723957,-0.3902558982372284
1763701326367157000,0.592156982421875,-0.6663833260536194,0.26844584941864014,-0.5523073673248291
1763701326377177900,0.602177734375,-0.45973750948905945,0.3564140498638153,-0.6185029149055481
1763701326387199000,0.612198974609375,-0.32683271169662476,0.49579429626464844,-0.5656617879867554
1763701326397219800,0.6222197265625,-0.2511017322540283,0.6295297145843506,-0.41355881094932556
1763701326407241000,0.632240966796875,-0.17853619158267975,0.8036248087882996,-0.20474542677402496
1763701326417261800,0.64226171875,-0.0842088833451271,0.8848264813423157,-0.008766593411564827
1763701326427282700,0.65228271484375,0.05628591030836105,0.9166078567504883,0.16573570668697357
1763701326437303800,0.6623037109375,0.16285017132759094,0.8887175917625427,0.31765973567962646
1763701326447324700,0.67232470703125,0.2106991857290268,0.8166490197181702,0.4145849347114563
1763701326457346000,0.682345947265625,0.16869686543941498,0.40479275584220886,0.38834720849990845
1763701326467367000,0.692366943359375,0.10749796032905579,-0.04388570040464401,0.16827848553657532
1763701326477388000,0.702387939453125,0.0732550397515297,-0.29281190037727356,-0.08518573641777039
1763701326487409000,0.712408935546875,0.031029287725687027,-0.30769577622413635,-0.16463342308998108
1763701326497429800,0.7224296875,0.1464855819940567,-0.43836644291877747,0.0038011297583580017
1763701326507451000,0.732450927734375,0.15595710277557373,-0.4389965236186981,0.1346781849861145
1763701326517473000,0.74247314453125,-0.04174371808767319,-0.19883745908737183,0.15059617161750793
1763701326527494000,0.752493896484375,-0.32133781909942627,-0.11332709342241287,0.09852337837219238
1763701326537515000,0.762514892578125,-0.3132215738296509,-0.535274088382721,0.08832400292158127
1763701326547536000,0.772535888671875,-0.19605232775211334,-1.0835044384002686,-0.08776633441448212
1763701326557557000,0.782556884765625,-0.18106885254383087,-1.5306565761566162,-0.35739967226982117
1763701326567577900,0.792577880859375,-0.2186465859413147,-1.9280686378479004,-0.45908981561660767
1763701326577598700,0.8025986328125,-0.23566791415214539,-2.044546604156494,-0.42711323499679565
1763701326587619800,0.812619873046875,-0.2479701191186905,-2.076479196548462,-0.3883184492588043
1763701326597640700,0.822640625,-0.2516189217567444,-1.987625002861023,-0.4310739040374756
1763701326607662000,0.832662109375,-0.1625143438577652,-1.9561519622802734,-0.42788422107696533
1763701326617683000,0.842682861328125,-0.20290064811706543,-1.9196858406066895,-0.3254318833351135
1763701326627703800,0.852703857421875,-0.4947652518749237,-1.4447619915008545,-0.3675583004951477
1763701326637725000,0.862724853515625,-0.6222593188285828,-1.0804260969161987,-0.351024866104126
1763701326647745800,0.872745849609375,-0.6763257384300232,-0.8832511901855469,-0.20526207983493805
1763701326657767000,0.882766845703125,-0.845209538936615,-0.5883979797363281,-0.10986445099115372
1763701326667787800,0.892787841796875,-1.0373486280441284,-0.13317163288593292,-0.022222481667995453
1763701326677808600,0.90280859375,-1.1278681755065918,0.41387414932250977,0.0850810706615448
1763701326687830000,0.912830078125,-1.1190030574798584,0.813829779624939,0.21043552458286285
1763701326697851000,0.922850830078125,-1.0025986433029175,1.3227550983428955,0.28145191073417664
1763701326707872000,0.9328720703125,-0.899452269077301,1.7937233448028564,0.29240548610687256
1763701326717892900,0.942892822265625,-0.8401319980621338,2.0686728954315186,0.24405448138713837
1763701326727914000,0.9529140625,-0.8002663254737854,2.1475110054016113,0.12849032878875732
1763701326737936000,0.962935791015625,-0.7607804536819458,2.111525774002075,-0.0073449984192848206
1763701326747956700,0.972956787109375,-0.6926434636116028,1.9393389225006104,-0.15874303877353668
1763701326757977900,0.982977783203125,-0.5852978229522705,1.5922411680221558,-0.345866858959198
1763701326767999000,0.9929990234375,-0.442099392414093,1.1696467399597168,-0.47554656863212585
1763701326778019800,1.003019775390625,-0.33717697858810425,0.7377517819404602,-0.5714749693870544
1763701326788041000,1.013041015625,-0.2807230055332184,0.3277602791786194,-0.6163497567176819
1763701326798061800,1.023061767578125,-0.2865247130393982,-0.04032398760318756,-0.6176288723945618
1763701326808083000,1.0330830078125,-0.3506895899772644,-0.2883705496788025,-0.5926403999328613
1763701326818103800,1.043103759765625,-0.417219877243042,-0.3721219003200531,-0.5420267581939697
1763701326828124700,1.053124755859375,-0.4749270975589752,-0.33582034707069397,-0.4742272198200226
1763701326838146000,1.06314599609375,-0.5160422921180725,-0.14808480441570282,-0.3631555736064911
1763701326848167000,1.0731669921875,-0.5221510529518127,0.06832419335842133,-0.23225454986095428
1763701326858188000,1.08318798828125,-0.5186684727668762,0.263525128364563,-0.1507519632577896
1763701326868209000,1.093208984375,-0.5192157626152039,0.35148000717163086,-0.11413323134183884
1763701326878229800,1.103229736328125,-0.5287125706672668,0.2517334222793579,-0.1198238730430603
1763701326888251000,1.1132509765625,-0.5678754448890686,0.06718409806489944,-0.13457991182804108
1763701326898271700,1.123271728515625,-0.6272423267364502,-0.09982353448867798,-0.10141796618700027
1763701326908292900,1.13329296875,-0.6998896598815918,-0.17681285738945007,-0.04452698677778244
1763701326918314000,1.14331396484375,-0.7652270793914795,-0.14089426398277283,-0.002386192325502634
1763701326928334800,1.1533349609375,-0.7685118317604065,-0.06133472919464111,-0.029589850455522537
1763701326938356000,1.16335595703125,-0.7305362224578857,0.05801030620932579,-0.12343565374612808
1763701326948376800,1.173376953125,-0.6837578415870667,0.11028043180704117,-0.1978030949831009
1763701326958398700,1.183398681640625,-0.6142657995223999,0.08305973559617996,-0.24022085964679718
1763701326968419800,1.193419921875,-0.544988751411438,0.01101510040462017,-0.26080042123794556
1763701326978440700,1.203440673828125,-0.4785034656524658,-0.08664807677268982,-0.2714006006717682
1763701326988462000,1.213462158203125,-0.40760985016822815,-0.1394689530134201,-0.27174922823905945
1763701326998483000,1.22348291015625,-0.30253830552101135,-0.21776029467582703,-0.2235766351222992
1763701327008503800,1.23350390625,-0.20740565657615662,-0.22727470099925995,-0.24111008644104004
1763701327018525000,1.24352490234375,-0.18473762273788452,-0.11169350892305374,-0.33220669627189636
1763701327028545800,1.2535458984375,-0.17072993516921997,-0.08951497077941895,-0.34316080808639526
1763701327038567000,1.26356689453125,-0.14656732976436615,-0.14624854922294617,-0.298454612493515
1763701327048587800,1.273587890625,-0.11240643262863159,-0.1655476838350296,-0.2459794133901596
1763701327058609000,1.28360888671875,-0.08265785872936249,-0.1377892941236496,-0.17901742458343506
1763701327068630000,1.293630126953125,-0.06967654824256897,-0.09581947326660156,-0.10005922615528107
1763701327078651000,1.30365087890625,-0.07860053330659866,-0.04307742789387703,-0.05423687398433685
1763701327088672000,1.313672119140625,-0.10003818571567535,-0.03921185061335564,-0.05132763460278511
1763701327098692900,1.32369287109375,-0.09646102786064148,-0.07259297370910645,-0.08556656539440155
1763701327108714000,1.3337138671875,-0.06638248264789581,-0.09634304791688919,-0.14784511923789978
1763701327118734800,1.34373486328125,-0.028867067769169807,-0.12655608355998993,-0.17341066896915436
1763701327128755700,1.353755615234375,-0.013495569117367268,-0.16297507286071777,-0.15831799805164337
1763701327138776800,1.36377685546875,-0.03345223143696785,-0.2231113761663437,-0.1333087831735611
1763701327148797700,1.373797607421875,-0.08842520415782928,-0.34267160296440125,-0.12465111911296844
1763701327158819000,1.383819091796875,-0.17601683735847473,-0.48820722103118896,-0.15293335914611816
1763701327168840000,1.39383984375,-0.30005010962486267,-0.6703850030899048,-0.22584298253059387
1763701327178862000,1.403862060546875,-0.45791029930114746,-0.8409940600395203,-0.31460562348365784
1763701327188883200,1.41388330078125,-0.5956103801727295,-0.8617722988128662,-0.3909033238887787
1763701327198904300,1.423904296875,-0.6737371683120728,-0.7319719791412354,-0.4164648652076721
1763701327208925200,1.43392529296875,-0.7105287313461304,-0.5020087957382202,-0.34745118021965027
1763701327218946300,1.4439462890625,-0.6581358313560486,-0.3001267910003662,-0.21554480493068695
1763701327228967200,1.45396728515625,-0.61417156457901,-0.22698122262954712,-0.258816123008728
1763701327238988300,1.46398828125,-0.5787110328674316,-0.22432871162891388,-0.4065626859664917
1763701327249009200,1.474009033203125,-0.4612587094306946,-0.2662985324859619,-0.4765292704105377
1763701327259030000,1.484030029296875,-0.3493529260158539,-0.28906670212745667,-0.4646747410297394
1763701327269051400,1.494051513671875,-0.28871703147888184,-0.1825421154499054,-0.4403768479824066
1763701327279072300,1.504072265625,-0.278288334608078,0.006716758478432894,-0.4320549964904785
1763701327289093400,1.51409326171875,-0.3082886040210724,0.25007933378219604,-0.3855245113372803
1763701327299114200,1.5241142578125,-0.33815568685531616,0.5301762223243713,-0.3074864447116852
1763701327309135000,1.534135009765625,-0.38147786259651184,0.8137288689613342,-0.23969754576683044
1763701327319156200,1.54415625,-0.44581928849220276,1.0831600427627563,-0.18522684276103973
1763701327329177000,1.554177001953125,-0.5005592107772827,1.3314114809036255,-0.17451640963554382
1763701327339198200,1.5641982421875,-0.5560075640678406,1.5073400735855103,-0.18071864545345306
1763701327349219000,1.574218994140625,-0.6110867857933044,1.5903310775756836,-0.18691448867321014
1763701327359240200,1.584240234375,-0.6457952260971069,1.6460977792739868,-0.2092008888721466
1763701327369261300,1.59426123046875,-0.652504563331604,1.7053546905517578,-0.25089481472969055
1763701327379282200,1.6042822265625,-0.6356371641159058,1.8075593709945679,-0.28019091486930847
1763701327389304000,1.614303955078125,-0.6007627844810486,1.9154757261276245,-0.2965549826622009
1763701327399325200,1.6243251953125,-0.5780454874038696,1.959227204322815,-0.2902595102787018
1763701327409346000,1.634345947265625,-0.5946412682533264,1.9669228792190552,-0.2783637046813965
1763701327419367400,1.644367431640625,-0.5065457224845886,0.9568095803260803,0.2773059010505676
1763701327429388300,1.65438818359375,-0.6088572144508362,1.6647299528121948,-0.21601112186908722
1763701327439409200,1.6644091796875,-0.6133632659912109,1.282242774963379,-0.18756164610385895
1763701327449430300,1.67443017578125,-0.5739287734031677,1.0531235933303833,-0.20852258801460266
1763701327459451100,1.684451171875,-0.5582537055015564,0.9055293798446655,-0.22228766977787018
1763701327469472300,1.69447216796875,-0.5682849884033203,0.7624672651290894,-0.2324601411819458
1763701327479493000,1.7044931640625,-0.5905157327651978,0.6053903102874756,-0.25676974654197693
1763701327489514200,1.71451416015625,-0.6434378027915955,0.42192167043685913,-0.27338919043540955
1763701327499535000,1.72453515625,-0.7085462808609009,0.26068004965782166,-0.2660362124443054
1763701327509556200,1.73455615234375,-0.780123770236969,0.09518510848283768,-0.2938438653945923
1763701327519577300,1.744577392578125,-0.8144412636756897,-0.03811036795377731,-0.24757704138755798
1763701327529598200,1.75459814453125,-0.809108555316925,-0.1162126287817955,-0.14277926087379456
1763701327539619300,1.764619384765625,-0.753674328327179,-0.07833501696586609,-0.1119568943977356
1763701327549640200,1.77464013671875,-0.7200444340705872,0.06735214591026306,-0.16877597570419312
1763701327559661000,1.7846611328125,-0.6941100358963013,0.18657360970973969,-0.2396022081375122
1763701327569682200,1.79468212890625,-0.6587661504745483,0.2714940905570984,-0.3094603717327118
1763701327579703000,1.804703125,-0.6299752593040466,0.3814392387866974,-0.3777065575122833
1763701327589725200,1.81472509765625,-0.6482613682746887,0.4850156903266907,-0.3858848512172699
1763701327599746300,1.824746337890625,-0.6895232796669006,0.4421752989292145,-0.31313633918762207
1763701327609767200,1.83476708984375,-0.7107364535331726,0.37066489458084106,-0.19845449924468994
1763701327619788300,1.844788330078125,-0.7297261357307434,0.3138958811759949,-0.06084710359573364
1763701327629809200,1.85480908203125,-0.7545180320739746,0.21517862379550934,0.11302695423364639
1763701327639830000,1.864830078125,-0.7927159667015076,0.09583678096532822,0.3004242777824402
1763701327649851100,1.87485107421875,-0.8036445379257202,0.0009512811084277928,0.39287832379341125
1763701327659872300,1.884872314453125,-0.7919692397117615,-0.07118123769760132,0.3415887653827667
1763701327669893400,1.894893310546875,-0.7837749719619751,-0.30793890357017517,0.27817782759666443
1763701327679914200,1.904914306640625,-0.7217568755149841,-0.5002985000610352,0.14693404734134674
1763701327689935000,1.91493505859375,-0.6103581786155701,-0.606407642364502,-0.07804393768310547
1763701327699956200,1.924956298828125,-0.5169467329978943,-0.6882316470146179,-0.4402407705783844
1763701327709977000,1.93497705078125,-0.5119280219078064,-0.41556844115257263,-0.6843019127845764
1763701327719998200,1.944998291015625,-0.49679404497146606,0.02635038085281849,-0.7153999209403992
1763701327730019000,1.95501904296875,-0.5819947123527527,0.058405786752700806,-0.5582126975059509
1763701327740040200,1.965040283203125,-0.657137930393219,0.2576286196708679,-0.3110034167766571
1763701327750061300,1.975061279296875,-0.6801119446754456,0.35246750712394714,-0.08710028231143951
1763701327760082200,1.985082275390625,-0.7960745096206665,0.11452151834964752,0.050100184977054596
1763701327770103300,1.995103271484375,-0.9516260027885437,-0.06636331230401993,0.16498681902885437
1763701327780124200,2.005124267578125,-1.0125234127044678,-0.07546652853488922,0.14539287984371185
1763701327790145300,2.015145263671875,-0.9981898069381714,-0.20856891572475433,0.026864370331168175
1763701327800167200,2.025167236328125,-0.9689890146255493,-0.4903603792190552,-0.06250225752592087
1763701327810188300,2.035188232421875,-0.8724164366722107,-0.9515889883041382,-0.15414269268512726
1763701327820209200,2.045209228515625,-0.8585823774337769,-1.3557859659194946,-0.2913370430469513
1763701327830230300,2.055230224609375,-0.8837769031524658,-1.6152511835098267,-0.4573907256126404
1763701327840251100,2.065251220703125,-0.8218784332275391,-1.6298338174819946,-0.4052196741104126
1763701327850272300,2.075272216796875,-0.6592183709144592,-1.728566288948059,-0.260688841342926
1763701327860293000,2.085293212890625,-0.6286320090293884,-0.0561402328312397,-0.10262837260961533
1763701327870314200,2.095314208984375,-0.5997534394264221,-0.4654659628868103,-0.23403167724609375
1763701327880335000,2.105335205078125,-0.42258453369140625,-0.04716138541698456,-0.43912065029144287
1763701327890356200,2.115356201171875,-0.22565868496894836,0.5647909641265869,-0.5566515326499939
1763701327900377300,2.12537744140625,-0.043899279087781906,0.822702944278717,-0.4421164393424988
1763701327910398200,2.135398193359375,0.31164658069610596,1.1656073331832886,-0.07247686386108398
1763701327920419300,2.14541943359375,0.5499395728111267,1.7115552425384521,0.1802680343389511
1763701327930440200,2.155440185546875,0.7269995808601379,2.0651464462280273,0.38564276695251465
1763701327940461000,2.1654609375,0.9127063155174255,1.8399646282196045,0.6623662114143372
1763701327950482200,2.175482177734375,0.8990339040756226,1.126894474029541,0.7245625257492065
1763701327960503000,2.1855029296875,0.9093043804168701,-0.17551083862781525,0.9249062538146973
1763701327970524400,2.1955244140625,0.7841200828552246,-0.9125502705574036,0.12581971287727356
1763701327980545300,2.205545166015625,0.6185321807861328,-0.49792003631591797,-0.1626797318458557
1763701327990566100,2.215566162109375,0.49537965655326843,-0.11931414157152176,-0.7305556535720825
1763701328000587300,2.225587158203125,0.18171386420726776,0.13495275378227234,-0.7633751630783081
1763701328010609200,2.235609130859375,-0.10890810936689377,-0.12017673999071121,-0.6802070140838623
1763701328020630000,2.245630126953125,-0.18521353602409363,-0.23892976343631744,-0.5769293904304504
1763701328030651100,2.255651123046875,-0.12774091958999634,0.002784334821626544,-0.5359835624694824
1763701328040672300,2.26567236328125,0.002743055811151862,0.46599939465522766,-0.6188251376152039
1763701328050693400,2.275693359375,0.19541476666927338,0.8952745795249939,-0.806418240070343
1763701328060714200,2.28571435546875,0.34631478786468506,1.1739139556884766,-0.9793580174446106
1763701328070735000,2.295735107421875,0.37377437949180603,1.559639811515808,-1.0501991510391235
1763701328080756200,2.305756103515625,0.3604644536972046,2.3428914546966553,-0.9640675187110901
1763701328090777000,2.315777099609375,0.08832799643278122,2.7792141437530518,-0.7941461205482483
1763701328100798200,2.325798095703125,-0.09369853138923645,2.5921647548675537,-0.4314430058002472
1763701328110819000,2.335819091796875,-0.18061664700508118,1.8507877588272095,-0.012945892289280891
1763701328120840200,2.345840087890625,-0.16797755658626556,0.9933593273162842,0.37166091799736023
1763701328130861300,2.355861328125,-0.09179330617189407,0.7169368267059326,0.5849500298500061
1763701328140882200,2.365882080078125,0.025176992639899254,1.0151972770690918,0.5819539427757263
1763701328150903300,2.3759033203125,0.07862397283315659,1.5739563703536987,0.49068769812583923
1763701328160924200,2.385924072265625,0.12154720723628998,2.0457000732421875,0.39829543232917786
1763701328170945300,2.3959453125,0.10140252113342285,2.214486837387085,0.3671063780784607
1763701328180966000,2.4059658203125,-0.02207467518746853,2.2211761474609375,0.4243238568305969
1763701328190986800,2.41598681640625,-0.2978660464286804,1.9954333305358887,0.5476838946342468
1763701328201007900,2.4260078125,-0.6171122193336487,1.5688629150390625,0.7289705872535706
1763701328211028700,2.43602880859375,-0.8232371211051941,1.2506569623947144,0.9099459648132324
1763701328221051000,2.44605078125,-0.8441261649131775,1.2155314683914185,1.065975546836853
1763701328231072000,2.456072021484375,-0.7654950022697449,1.469749093055725,1.222455620765686
1763701328241092900,2.4660927734375,-0.659303605556488,1.8104443550109863,1.46907639503479
1763701328251114000,2.476114013671875,-0.6176584362983704,2.0844967365264893,1.9017624855041504
1763701328261134800,2.486134765625,-0.705188512802124,2.407752513885498,2.2201035022735596
1763701328271155700,2.49615576171875,-0.8394595384597778,2.6900107860565186,2.3745615482330322
1763701328281176800,2.5061767578125,-1.181601643562317,2.8904237747192383,2.395002841949463
1763701328291197700,2.51619775390625,-1.7145713567733765,3.1400625705718994,2.2426400184631348
1763701328301219000,2.526218994140625,-2.060000419616699,3.2678942680358887,1.8560421466827393
1763701328311240000,2.536239990234375,-2.3070731163024902,3.378000259399414,1.4723930358886719
1763701328321261000,2.546260986328125,-2.533928632736206,3.3277082443237305,1.0107923746109009
1763701328331282000,2.556281982421875,-2.7383294105529785,3.2119131088256836,0.5202661156654358
1763701328341302800,2.566302734375,-2.7899351119995117,3.140354871749878,0.1139926165342331
1763701328351324000,2.576323974609375,-2.4917664527893066,2.794159412384033,-0.021506357938051224
1763701328361344800,2.5863447265625,-1.678227186203003,2.400256395339966,0.04791559278964996
1763701328371366000,2.596365966796875,-0.24040727317333221,1.7395129203796387,0.16724678874015808
1763701328381386800,2.60638671875,1.733884334564209,0.8740843534469604,0.7665190100669861
1763701328391407900,2.616407958984375,1.589022159576416,-0.49527978897094727,1.2189711332321167
1763701328401429000,2.626428955078125,0.22289593517780304,-0.5107330679893494,1.5777934789657593
1763701328411449900,2.636449951171875,0.7834473848342896,0.5134678483009338,1.8362482786178589
1763701328421471000,2.646470947265625,1.0628931522369385,0.04581276327371597,1.910081386566162
1763701328431492900,2.656492919921875,0.8978168368339539,-0.6504778861999512,1.8126970529556274
1763701328441513700,2.666513671875,0.782131016254425,-0.9090298414230347,1.4635318517684937
1763701328451535000,2.67653515625,0.6665370464324951,-0.7859377264976501,0.864698588848114
1763701328461556000,2.686555908203125,0.5477451086044312,-0.6302863359451294,0.17800354957580566
1763701328471576800,2.696576904296875,0.4158853590488434,-0.5793581604957581,-0.42576223611831665
1763701328481598000,2.706597900390625,0.3479510545730591,-0.5467999577522278,-0.9169023633003235
1763701328491618800,2.716618896484375,0.2989211976528168,-0.6935646533966064,-1.28482985496521
1763701328501640000,2.726639892578125,0.26057833433151245,-0.9867677688598633,-1.5681501626968384
1763701328511660800,2.736660888671875,0.2297050952911377,-1.0631248950958252,-1.7850817441940308
1763701328521681700,2.746681640625,0.14261546730995178,-0.8783429861068726,-1.9121438264846802
1763701328531702800,2.756702880859375,-0.028678782284259796,-0.6854017972946167,-1.8505382537841797
1763701328541724000,2.766723876953125,-0.2911871075630188,-0.5806820392608643,-1.6329361200332642
1763701328551745000,2.7767451171875,-0.6316173672676086,-0.5015528798103333,-1.3229705095291138
1763701328561766000,2.786765869140625,-1.022736668586731,-0.32238736748695374,-1.0033994913101196
1763701328571787000,2.796787109375,-1.3615045547485352,-0.12130378931760788,-0.760179340839386
1763701328581807900,2.806807861328125,-1.5792508125305176,0.10882634669542313,-0.5782479047775269
1763701328591828700,2.816828857421875,-1.7611491680145264,0.2545073926448822,-0.4413321316242218
1763701328601849900,2.826849853515625,-1.94400155544281,0.4337935149669647,-0.3496469557285309
1763701328611870700,2.83687060546875,-2.066910743713379,0.5867311358451843,-0.2813270092010498
1763701328621892000,2.84689208984375,-2.089402675628662,0.7077025771141052,-0.2087303102016449
1763701328631913000,2.856912841796875,-2.0145628452301025,0.7767788171768188,-0.13153378665447235
1763701328641934800,2.866934814453125,-1.8904649019241333,1.0170564651489258,-0.10776428133249283
1763701328651956000,2.8769560546875,-1.8258105516433716,0.9171388745307922,-0.13868118822574615
1763701328661976800,2.886976806640625,-1.7491103410720825,0.9135785102844238,-0.22179657220840454
1763701328671997700,2.896997802734375,-1.6732814311981201,0.930915117263794,-0.25302958488464355
1763701328682018800,2.907018798828125,-1.6207574605941772,0.8294958472251892,-0.27776503562927246
1763701328692040000,2.9170400390625,-1.5668106079101562,0.6761015057563782,-0.2515712380409241
1763701328702061000,2.92706103515625,-1.487864375114441,0.6027609705924988,-0.15915051102638245
1763701328712082000,2.93708203125,-1.3369449377059937,0.5526612997055054,-0.011063037440180779
1763701328722102800,2.947102783203125,-1.1268070936203003,0.5125999450683594,0.168843075633049
1763701328732124000,2.9571240234375,-0.9023540616035461,0.5324370265007019,0.3329278826713562
1763701328742144800,2.967144775390625,-0.6881173849105835,0.5922558903694153,0.4556194543838501
1763701328752166000,2.977165771484375,-0.49023228883743286,0.6710177659988403,0.5222416520118713
1763701328762186800,2.987186767578125,-0.337085098028183,0.7687840461730957,0.5189608931541443
1763701328772207900,2.997207763671875,-0.2691449224948883,0.8605853319168091,0.4747004806995392
1763701328782229000,3.00722900390625,-0.24274472892284393,1.02383553981781,0.36669063568115234
1763701328792249900,3.017249755859375,-0.197701096534729,1.1218174695968628,0.19835223257541656
1763701328802271000,3.02727099609375,-0.12877236306667328,1.1457515954971313,0.005696235224604607
1763701328812291800,3.037291748046875,-0.02630510739982128,1.077797532081604,-0.17830289900302887
1763701328822312700,3.047312744140625,0.14235155284404755,0.8993697166442871,-0.3401373326778412
1763701328832333800,3.057333740234375,0.44708189368247986,0.5240890383720398,-0.6448463797569275
1763701328842354700,3.067354736328125,0.6973857283592224,0.29370591044425964,-0.9087339639663696
1763701328852376800,3.077376953125,0.8517409563064575,0.01642344892024994,-1.085192322731018
1763701328862398000,3.08739794921875,1.0156949758529663,-0.24357298016548157,-1.1845085620880127
1763701328872418800,3.097418701171875,1.214832067489624,-0.5123335719108582,-1.2575569152832031
1763701328882440000,3.10743994140625,1.3327451944351196,-0.6159947514533997,-1.3210655450820923
1763701328892460800,3.117460693359375,1.3348556756973267,-0.5148340463638306,-1.365539312362671
1763701328902482000,3.12748193359375,1.2471972703933716,-0.3903230130672455,-1.4151731729507446
1763701328912502800,3.137502685546875,1.0642398595809937,-0.2670293152332306,-1.4359204769134521
1763701328922524000,3.14752392578125,0.8703333139419556,-0.24476900696754456,-1.3891007900238037
1763701328932545000,3.157544921875,0.7333863377571106,-0.21534773707389832,-1.2578495740890503
1763701328942566000,3.16756591796875,0.6221227049827576,-0.16009646654129028,-1.0483754873275757
1763701328952587000,3.1775869140625,0.5325800180435181,-0.15419170260429382,-0.8193175196647644
1763701328962607900,3.18760791015625,0.4814015030860901,-0.20933032035827637,-0.6023495197296143
1763701328972628700,3.197628662109375,0.41352394223213196,-0.2330676019191742,-0.4420170783996582
1763701328982649900,3.20764990234375,0.28289589285850525,-0.17810475826263428,-0.36520567536354065
1763701328992670700,3.217670654296875,0.18558238446712494,-0.005762547720223665,-0.3489244282245636
1763701329002692000,3.227692138671875,0.14820677042007446,0.18213199079036713,-0.3355897068977356
1763701329012713000,3.237712890625,0.17241065204143524,0.2433631271123886,-0.29617148637771606
1763701329022733800,3.24773388671875,0.1928006112575531,0.24285046756267548,-0.17562322318553925
1763701329032755000,3.2577548828125,0.18174982070922852,0.3544462323188782,-0.050280481576919556
1763701329042775800,3.26777587890625,0.14094753563404083,0.5066706538200378,0.04364867880940437
1763701329052797700,3.277797607421875,0.13099822402000427,0.6438016295433044,0.1062697172164917
1763701329062818800,3.28781884765625,0.1751161515712738,0.7600680589675903,0.15412326157093048
1763701329072840000,3.29783984375,0.26138579845428467,0.868582546710968,0.21784338355064392
1763701329082861000,3.307861083984375,0.3053860068321228,1.0092517137527466,0.3436061143875122
1763701329092882000,3.3178818359375,0.2913740575313568,1.2033275365829468,0.49775439500808716
1763701329102902800,3.32790283203125,0.26150190830230713,1.2980414628982544,0.6550388336181641
1763701329112924000,3.337923828125,0.18795739114284515,1.3248555660247803,0.7943386435508728
1763701329122944800,3.34794482421875,0.13737782835960388,1.323391079902649,0.8535894751548767
1763701329132966000,3.3579658203125,0.0870313048362732,1.2881699800491333,0.856780469417572
1763701329142986800,3.36798681640625,0.07351069897413254,1.307473063468933,0.8430606722831726
1763701329153007900,3.3780078125,0.09140901267528534,1.2825645208358765,0.7992167472839355
1763701329163029000,3.388029052734375,0.1319361925125122,1.2536349296569824,0.7293950915336609
1763701329173049900,3.3980498046875,0.1706010401248932,1.2121154069900513,0.6487646698951721
1763701329183070700,3.40807080078125,0.22166074812412262,1.1865665912628174,0.5786742568016052
1763701329193091600,3.418091552734375,0.2599966824054718,1.1969079971313477,0.5233694911003113
1763701329203112700,3.42811279296875,0.3253525197505951,1.1694300174713135,0.4809056222438812
1763701329213133600,3.438133544921875,0.5475757718086243,1.2966350317001343,0.5051121711730957
1763701329223154400,3.448154541015625,0.7800198793411255,1.0500476360321045,0.5247045159339905
1763701329233175600,3.458175537109375,0.8795933723449707,0.7503552436828613,0.5713902711868286
1763701329243196400,3.468196533203125,0.9213709235191345,0.5328737497329712,0.5775607824325562
1763701329253217500,3.478217529296875,0.9650776386260986,0.3226267695426941,0.5689318776130676
1763701329263239700,3.48823974609375,1.0335222482681274,0.17786294221878052,0.548046350479126
1763701329273260500,3.498260498046875,1.093557596206665,0.007223558146506548,0.5141783952713013
1763701329283281700,3.50828173828125,1.1110655069351196,-0.2095865160226822,0.4612549841403961
1763701329293302500,3.518302490234375,0.9546391367912292,-0.43446701765060425,0.33469197154045105
1763701329303323400,3.528323486328125,0.8248243927955627,-0.5749964714050293,0.06824323534965515
1763701329313344500,3.538344482421875,0.5387649536132812,-0.41795650124549866,-0.22246795892715454
1763701329323365600,3.54836572265625,0.23208996653556824,-0.09315204620361328,-0.39530712366104126
1763701329333386800,3.55838671875,-0.060925934463739395,0.1199093610048294,-0.4538590908050537
1763701329343407600,3.56840771484375,-0.2514846920967102,0.19969287514686584,-0.44397398829460144
1763701329353428500,3.578428466796875,-0.30447494983673096,0.2907679080963135,-0.37578240036964417
1763701329363449600,3.58844970703125,-0.19697192311286926,0.2358199805021286,-0.29445508122444153
1763701329373470500,3.598470458984375,0.008190818130970001,0.03454306349158287,-0.22781717777252197
1763701329383491600,3.60849169921875,0.2354665845632553,-0.21249601244926453,-0.2582041323184967
1763701329393512400,3.618512451171875,0.3867762088775635,-0.43010425567626953,-0.3285805583000183
1763701329403533600,3.628533447265625,0.4647836685180664,-0.5903780460357666,-0.3740955591201782
1763701329413554700,3.6385546875,0.4531046450138092,-0.6088204383850098,-0.29627081751823425
1763701329423575600,3.648575439453125,0.2830796539783478,-0.5206983089447021,-0.22921347618103027
1763701329433596700,3.6585966796875,-0.0186634324491024,-0.2637927532196045,-0.28191423416137695
1763701329443617500,3.668617431640625,-0.32668358087539673,0.053412891924381256,-0.41694876551628113
1763701329453638700,3.678638671875,-0.5337352752685547,0.2890395224094391,-0.5770321488380432
1763701329463659500,3.688659423828125,-0.592290997505188,0.36349380016326904,-0.716167151927948
1763701329473680400,3.698680419921875,-0.5118337273597717,0.31622934341430664,-0.8002253174781799
1763701329483702800,3.708702880859375,-0.3877120316028595,0.14831729233264923,-0.8045007586479187
1763701329493723600,3.7187236328125,-0.30773597955703735,0.052975334227085114,-0.7550951242446899
1763701329503744500,3.72874462890625,-0.33527758717536926,0.06456807255744934,-0.7269952893257141
1763701329513765600,3.738765625,-0.45680323243141174,0.04795926809310913,-0.7739561796188354
1763701329523786500,3.748786376953125,-0.601851761341095,0.0719226598739624,-0.8756297826766968
1763701329533807600,3.7588076171875,-0.7808545231819153,0.11660091578960419,-0.9477263689041138
1763701329543828500,3.768828369140625,-0.9435760974884033,0.13044136762619019,-1.0191267728805542
1763701329553849300,3.778849365234375,-1.067402720451355,0.20682747662067413,-1.1608301401138306
1763701329563870700,3.78887060546875,-1.079075813293457,0.26832252740859985,-1.2782989740371704
1763701329573891600,3.7988916015625,-1.0327270030975342,0.2735244929790497,-1.3064637184143066
1763701329583912700,3.80891259765625,-0.9926634430885315,0.2851555645465851,-1.285141944885254
1763701329593933600,3.81893359375,-0.9374707937240601,0.3256119191646576,-1.2468574047088623
1763701329603954400,3.828954345703125,-0.8606665730476379,0.3406534492969513,-1.196133017539978
1763701329613975600,3.8389755859375,-0.778027355670929,0.3152977526187897,-1.1739059686660767
1763701329623996400,3.848996337890625,-0.7027994394302368,0.3012855350971222,-1.1940040588378906
1763701329634017500,3.859017578125,-0.6658666729927063,0.253362238407135,-1.2410945892333984
1763701329644038700,3.86903857421875,-0.6712545156478882,0.15601277351379395,-1.337655782699585
1763701329654059800,3.879059814453125,-0.7055177092552185,0.09741763025522232,-1.4464274644851685
1763701329664080600,3.88908056640625,-0.7738131284713745,0.15935103595256805,-1.5315916538238525
1763701329674101500,3.8991015625,-0.8101743459701538,0.20114988088607788,-1.605455994606018
1763701329684123400,3.909123291015625,-0.8062584400177002,0.20163750648498535,-1.6771693229675293
1763701329694144500,3.91914453125,-0.7564554810523987,0.164734348654747,-1.7365977764129639
1763701329704165400,3.929165283203125,-0.6930621266365051,0.08703742921352386,-1.7670491933822632
1763701329714186800,3.939186767578125,-0.5404595136642456,-0.014645521529018879,-1.7874999046325684
1763701329724207600,3.94920751953125,-0.3682275712490082,-0.03623949736356735,-1.7452919483184814
1763701329734228700,3.959228759765625,-0.20887625217437744,-0.048047687858343124,-1.6323307752609253
1763701329744249600,3.96924951171875,-0.10224141925573349,-0.08590558916330338,-1.504717469215393
1763701329754270500,3.9792705078125,-0.1163519099354744,-0.11254411935806274,-1.4140421152114868
1763701329764291600,3.98929150390625,-0.14767573773860931,-0.09027156978845596,-1.4097472429275513
1763701329774312400,3.9993125,-0.17040342092514038,-0.07244863361120224,-1.4653172492980957
1763701329784333600,4.00933349609375,-0.144484743475914,-0.05757887288928032,-1.483660340309143
1763701329794354700,4.019354736328125,-0.10627210885286331,-0.09918916970491409,-1.41627836227417
1763701329804375600,4.02937548828125,-0.08206557482481003,-0.1433853954076767,-1.241066575050354
1763701329814396700,4.039396728515625,-0.09579816460609436,-0.12321913987398148,-1.058003544807434
1763701329824417500,4.04941748046875,-0.13991902768611908,-0.02244964800775051,-0.8911714553833008
1763701329834438700,4.059438720703125,-0.19236811995506287,0.15380793809890747,-0.7201882600784302
1763701329844459500,4.06945947265625,-0.23150752484798431,0.26599520444869995,-0.5497009754180908
1763701329854480400,4.07948046875,-0.21362386643886566,0.22571435570716858,-0.433550626039505
1763701329864501500,4.08950146484375,-0.12291553616523743,0.10617303848266602,-0.3694957494735718
1763701329874522600,4.099522705078125,-0.004355866461992264,0.03917323425412178,-0.339368999004364
1763701329884543700,4.109543701171875,0.0266523826867342,0.10881250351667404,-0.32180678844451904
1763701329894564600,4.119564697265625,-0.07588571310043335,0.32671821117401123,-0.18040359020233154
1763701329904586500,4.12958642578125,-0.2035888135433197,0.5400986671447754,-0.00213612150400877
1763701329914607600,4.139607666015625,-0.23662398755550385,0.6804501414299011,0.08219287544488907
1763701329924628500,4.14962841796875,-0.10550379008054733,0.6010749340057373,0.01392939779907465
1763701329934649300,4.1596494140625,0.21640314161777496,0.3766700327396393,-0.13538898527622223
1763701329944670700,4.169670654296875,0.6042382121086121,0.051063716411590576,-0.23533421754837036
1763701329954691600,4.179691650390625,0.9249405860900879,-0.21558848023414612,-0.2793419063091278
1763701329964712700,4.189712646484375,1.064414381980896,-0.3753025233745575,-0.33957433700561523
1763701329974733600,4.199733642578125,0.9728468656539917,-0.41184374690055847,-0.4247068166732788
1763701329984754700,4.209754638671875,0.6597765684127808,-0.29922133684158325,-0.5098640322685242
1763701329994775600,4.219775634765625,0.19397665560245514,-0.06331798434257507,-0.48952069878578186
1763701330004796400,4.22979638671875,-0.29654166102409363,0.19533300399780273,-0.43015483021736145
1763701330014817500,4.239817626953125,-0.7294286489486694,0.426744669675827,-0.34522929787635803
1763701330024838700,4.249838623046875,-1.089976191520691,0.7038455009460449,-0.31981661915779114
1763701330034859800,4.25985986328125,-1.5135968923568726,1.0309679508209229,-0.32651445269584656
1763701330044880600,4.269880615234375,-2.0458600521087646,1.3971641063690186,-0.3574414849281311
1763701330054901500,4.279901611328125,-2.5591201782226562,1.7022206783294678,-0.40244439244270325
1763701330064922600,4.289922607421875,-2.826164722442627,1.6486746072769165,-0.41409170627593994
1763701330074943500,4.299943603515625,-2.7318944931030273,1.1908271312713623,-0.33536866307258606
1763701330084964600,4.309964599609375,-2.4093306064605713,0.3689681887626648,-0.23794731497764587
1763701330094985500,4.3199853515625,-2.042255163192749,-0.36540675163269043,-0.25112223625183105
1763701330105006600,4.330006591796875,-1.8137221336364746,-0.8516498804092407,-0.34378185868263245
1763701330115027700,4.34002783203125,-1.7978342771530151,-1.0020428895950317,-0.3406912684440613
1763701330125049600,4.350049560546875,-2.008384943008423,-0.7893497347831726,-0.23644982278347015
1763701330135070500,4.360070556640625,-2.400195837020874,-0.29217860102653503,-0.13554424047470093
1763701330145091600,4.370091552734375,-2.770559787750244,0.22546587884426117,-0.0482194609940052
1763701330155112400,4.380112548828125,-2.669921398162842,0.6148828864097595,0.0023347933311015368
1763701330165133600,4.390133544921875,-2.2549667358398438,0.8258776664733887,-0.03427887707948685
1763701330175154700,4.40015478515625,-1.8710280656814575,1.042378306388855,-0.17405489087104797
1763701330185175800,4.41017578125,-1.6796934604644775,1.299539566040039,-0.28414517641067505
1763701330195197200,4.420197265625,-1.8468726873397827,1.394006371498108,-0.2734435200691223
1763701330205218000,4.430218017578125,-2.148853302001953,1.289469599723816,-0.1947638988494873
1763701330215239200,4.4402392578125,-2.4278271198272705,1.0896337032318115,-0.13599085807800293
1763701330225260000,4.450260009765625,-2.49562668800354,0.8000277280807495,-0.1268642097711563
1763701330235281000,4.460281005859375,-2.6309597492218018,0.6611078977584839,-0.26720187067985535
1763701330245302000,4.470302001953125,-2.6652321815490723,0.3082190752029419,-0.280415415763855
1763701330255323000,4.480322998046875,-2.4397261142730713,-0.23715156316757202,-0.05199848487973213
1763701330265344000,4.490343994140625,-2.0730271339416504,-0.7068138718605042,0.25963476300239563
1763701330275364900,4.50036474609375,-1.9886236190795898,-0.5708576440811157,0.3747000992298126
1763701330285386000,4.510385986328125,-2.210904121398926,0.19800442457199097,0.3199705481529236
1763701330295407000,4.520406982421875,-2.4097461700439453,0.9097712635993958,0.4612749516963959
1763701330305428000,4.530427978515625,-2.80914568901062,1.426572322845459,0.38306882977485657
1763701330315449000,4.540448974609375,-2.9971330165863037,1.5456541776657104,0.33382537961006165
1763701330325470000,4.550469970703125,-2.904681921005249,1.3551934957504272,0.46205204725265503
1763701330335490800,4.56049072265625,-2.6180756092071533,0.8903043270111084,0.6767720580101013
1763701330345512000,4.570511962890625,-2.2009007930755615,0.500002384185791,0.9952195882797241
1763701330355534000,4.5805341796875,-1.8805445432662964,0.15825088322162628,1.4034056663513184
1763701330365555000,4.590554931640625,-1.497398853302002,-0.1324690878391266,1.7836990356445312
1763701330375576000,4.600576171875,-1.0842455625534058,-0.41461503505706787,2.1628575325012207
1763701330385597000,4.610596923828125,-0.8452780246734619,-0.2690865993499756,2.574877977371216
1763701330395618000,4.6206181640625,-1.0005344152450562,-0.028303543105721474,2.359849691390991
1763701330405639000,4.630638916015625,-1.6854687929153442,0.008760734461247921,1.8441178798675537
1763701330415660000,4.640659912109375,-2.357774019241333,-0.0054845139384269714,1.2538825273513794
1763701330425681000,4.650680908203125,-2.450845956802368,-0.6150386929512024,0.39801502227783203
1763701330435702000,4.660701904296875,-1.9042261838912964,-1.2306911945343018,-0.25325435400009155
1763701330445723100,4.67072314453125,-1.2274764776229858,-1.5330593585968018,-0.5769307017326355
1763701330455744000,4.680743896484375,-0.8484032154083252,-0.6306440234184265,-0.7617080211639404
1763701330465765000,4.69076513671875,-0.6983503699302673,-0.05218251049518585,-0.8844661712646484
1763701330475786000,4.700785888671875,-0.3751128911972046,-0.09365085512399673,-0.8098454475402832
1763701330485806800,4.710806884765625,-0.2676977515220642,0.23717819154262543,-0.7277945280075073
1763701330495828000,4.720827880859375,-0.14095446467399597,0.5573551654815674,-0.6241759657859802
1763701330505848800,4.730848876953125,0.028321653604507446,0.7234519720077515,-0.6424106359481812
1763701330515870200,4.7408701171875,-0.014611699618399143,0.767277181148529,-0.6505298018455505
1763701330525891000,4.75089111328125,-0.04586256295442581,0.643385648727417,-0.6588732600212097
1763701330535912000,4.760911865234375,-0.07519195228815079,0.14016643166542053,-0.6158437728881836
1763701330545933000,4.77093310546875,-0.4888743460178375,-0.28808772563934326,-0.5407966375350952
1763701330555954000,4.780953857421875,-0.8615682721138,-0.46690672636032104,-0.4956480860710144
1763701330565975000,4.79097509765625,-0.8302724361419678,-0.8057417869567871,-0.4751196503639221
1763701330575996000,4.800995849609375,-0.6734582781791687,-0.8734356164932251,-0.49701428413391113
1763701330586018000,4.81101806640625,-0.46674853563308716,-0.8377889394760132,-0.6910266280174255
1763701330596039200,4.8210390625,-0.3644520044326782,-0.5994575619697571,-0.8694730997085571
1763701330606060000,4.83106005859375,-0.3218395411968231,-0.14548049867153168,-1.0041006803512573
1763701330616081000,4.841080810546875,-0.36214250326156616,0.9699959754943848,-0.8580305576324463
1763701330626102000,4.85110205078125,-0.6219642162322998,2.190235137939453,-0.19994613528251648
1763701330636123000,4.861122802734375,-0.907662034034729,1.5444568395614624,0.20411399006843567
1763701330646144000,4.87114404296875,-1.2257499694824219,-0.19692957401275635,0.3453699052333832
1763701330656164900,4.881164794921875,-1.339821457862854,-0.2359113246202469,0.5040351748466492
1763701330666186000,4.89118603515625,-1.0019272565841675,0.1224963515996933,0.49450719356536865
1763701330676207000,4.90120703125,-0.46421241760253906,0.11803076416254044,0.34734171628952026
1763701330686228000,4.91122802734375,0.041917622089385986,-0.10803671926259995,0.09156693518161774
1763701330696249000,4.9212490234375,0.21514293551445007,-0.31533265113830566,-0.15696990489959717
1763701330706270000,4.93127001953125,0.06955830752849579,-0.3406483829021454,-0.3594910502433777
1763701330716291000,4.941291015625,-0.054718904197216034,-0.2718954384326935,-0.3851144015789032
1763701330726312000,4.95131201171875,-0.04903598502278328,-0.16677168011665344,-0.32064300775527954
1763701330736332800,4.961332763671875,-0.0009134642314165831,-0.10325261950492859,-0.22273187339305878
1763701330746354200,4.971354248046875,0.01486469991505146,-0.08688216656446457,-0.1419353038072586
1763701330756375000,4.981375,-0.019481290131807327,-0.05891311913728714,-0.11466798931360245
1763701330766396200,4.991396240234375,-0.059970125555992126,0.07644151151180267,-0.09312168508768082
1763701330776417000,5.0014169921875,-0.06583999842405319,0.2594451606273651,0.008103466592729092
1763701330786438000,5.01143798828125,-0.0231119766831398,0.38347840309143066,0.18169283866882324
1763701330796459000,5.021458984375,0.008648348972201347,0.42661523818969727,0.35451146960258484
1763701330806480000,5.03147998046875,-0.15007151663303375,0.45641759037971497,0.5080070495605469
1763701330816502000,5.041501953125,-0.6993626356124878,0.6160799860954285,0.29957154393196106
1763701330826523100,5.051523193359375,-0.9947431087493896,0.9628946185112,0.029795179143548012
1763701330836544000,5.0615439453125,-1.082138180732727,0.8168391585350037,-0.2800210118293762
1763701330846565000,5.071565185546875,-1.037357211112976,0.532515287399292,-0.419498473405838
1763701330856586000,5.0815859375,-1.023018479347229,0.0930098369717598,-0.4252266585826874
1763701330866606800,5.09160693359375,-1.1533021926879883,-0.27347707748413086,-0.45540958642959595
1763701330876628000,5.1016279296875,-1.3574891090393066,-0.3552126884460449,-0.49468135833740234
1763701330886648800,5.11164892578125,-1.4801993370056152,-0.242646723985672,-0.474637895822525
1763701330896670200,5.121670166015625,-1.3981335163116455,0.0825209766626358,-0.35830381512641907
1763701330906691000,5.131691162109375,-1.3085426092147827,0.4246585965156555,-0.23725782334804535
1763701330916712000,5.1417119140625,-1.2389073371887207,0.7268898487091064,-0.10696772485971451
1763701330926733000,5.151733154296875,-0.8729647397994995,1.0100948810577393,-0.0472806952893734
1763701330936754000,5.16175390625,-0.5231577754020691,0.9951915740966797,0.06338270008563995
1763701330946775000,5.171775146484375,-0.23850178718566895,0.866206705570221,0.00866219773888588
1763701330956796000,5.1817958984375,0.400669664144516,0.5715207457542419,-0.1351088136434555
1763701330966817000,5.191817138671875,0.5878432989120483,0.18375971913337708,-0.19830189645290375
1763701330976838100,5.201838134765625,0.11881586909294128,0.05723878741264343,-0.20871299505233765
1763701330986859000,5.21185888671875,-0.2637344300746918,0.09481146186590195,-0.2684919238090515
1763701330996880100,5.221880126953125,-0.39791515469551086,0.049560628831386566,-0.3021090030670166
1763701331006901000,5.23190087890625,-0.5301714539527893,0.1717216968536377,-0.24124351143836975
1763701331016922000,5.241922119140625,-0.7485008835792542,-0.1461007446050644,-0.00034700988908298314
1763701331026944000,5.251944091796875,-1.4953277111053467,-0.9061107039451599,0.26159778237342834
1763701331036964900,5.26196484375,-2.098944664001465,-1.3749316930770874,0.5093711018562317
1763701331046986000,5.271986083984375,-2.370469093322754,-1.161110281944275,0.5400936007499695
1763701331057007000,5.282007080078125,-2.027092456817627,-0.4564543664455414,0.131911963224411
1763701331067028000,5.292028076171875,-1.6674247980117798,-0.19942176342010498,-0.3262034058570862
1763701331077049000,5.302049072265625,-1.3927909135818481,-0.2808798551559448,-0.5065739750862122
1763701331087070000,5.312070068359375,-1.0665265321731567,-0.49067676067352295,-0.5398179292678833
1763701331097091000,5.322091064453125,-1.1987603902816772,-1.1127264499664307,-0.548654317855835
1763701331107112000,5.33211181640625,-0.5802290439605713,-0.6324788928031921,-0.6278085112571716
1763701331117132800,5.3421328125,-0.4416692852973938,-1.3866826295852661,-0.6193985342979431
1763701331127154200,5.352154296875,0.578244686126709,-1.8662012815475464,-0.5070008635520935
1763701331137175000,5.362175048828125,-0.25659850239753723,-1.5834887027740479,-0.9026339650154114
1763701331147196200,5.372196044921875,-0.7276291251182556,-1.2567683458328247,-0.9562116861343384
1763701331157217000,5.382217041015625,-0.6026408672332764,-0.9131742119789124,-0.617611289024353
1763701331167238000,5.39223779296875,-0.6870114207267761,-0.6183900237083435,-0.26874223351478577
1763701331177259000,5.402259033203125,-0.7771967053413391,-0.3446844220161438,0.036912743002176285
1763701331187279400,5.412279296875,-0.9997677206993103,-0.6156216263771057,0.30965664982795715
1763701331197300500,5.422300537109375,-1.7309894561767578,-2.1994760036468506,0.9344446063041687
1763701331207321300,5.4323212890625,-0.7078959345817566,-5.409600257873535,3.6206562519073486
1763701331217342500,5.442342529296875,-0.6844891309738159,-2.94862699508667,2.3002328872680664
1763701331227363600,5.452363525390625,-1.094020962715149,-0.47739559412002563,0.36043354868888855
1763701331237384400,5.462384521484375,-0.8129096627235413,0.12832388281822205,-0.49704092741012573
1763701331247405600,5.472405517578125,-0.49552425742149353,0.05315136909484863,-0.7219755053520203
1763701331257427500,5.482427490234375,-0.15475203096866608,0.014815963804721832,-0.5447195172309875
1763701331267448300,5.4924482421875,0.03489646315574646,0.07299671322107315,-0.21059559285640717
1763701331277469400,5.502469482421875,0.18083715438842773,0.1253235638141632,0.12767140567302704
1763701331287490600,5.512490478515625,0.31182926893234253,0.23106437921524048,0.3843806982040405
1763701331297511700,5.52251171875,0.39768078923225403,0.4219911992549896,0.619861364364624
1763701331307532500,5.532532470703125,0.452896386384964,0.5848519802093506,0.8519713282585144
1763701331317553400,5.542553466796875,0.4939301013946533,0.6945888996124268,1.0319879055023193
1763701331327574500,5.552574462890625,0.537670910358429,0.7420868873596191,1.126651644706726
1763701331337595400,5.562595458984375,0.5732307434082031,0.750318706035614,1.1474250555038452
1763701331347616500,5.572616455078125,0.5890430212020874,0.7447431683540344,1.1201039552688599
1763701331357637400,5.582637451171875,0.590569794178009,0.7458957433700562,1.082284927368164
1763701331367658500,5.592658447265625,0.6156170964241028,0.7586882710456848,1.0584217309951782
1763701331377679600,5.6026796875,0.699650764465332,0.8665899634361267,1.090948462486267
1763701331387700500,5.612700439453125,0.7677371501922607,0.8842669725418091,1.1214896440505981
1763701331397721600,5.6227216796875,0.8261336088180542,0.7355179786682129,1.0720256567001343
1763701331407742500,5.632742431640625,0.7191845178604126,0.6514014601707458,1.0505605936050415
1763701331417763600,5.642763671875,0.6368012428283691,0.5667986869812012,1.0126373767852783
1763701331427784400,5.652784423828125,0.6074311137199402,0.6625279188156128,1.285138726234436
1763701331437805300,5.662805419921875,0.535434365272522,0.7313911318778992,1.643402099609375
1763701331447826400,5.672826416015625,0.44241949915885925,0.7117686867713928,1.865267038345337
1763701331457847600,5.68284765625,0.37662291526794434,0.7199901342391968,1.9884809255599976
1763701331467868700,5.69286865234375,0.31335845589637756,0.7767359614372253,2.0592551231384277
1763701331477889500,5.7028896484375,0.27340543270111084,0.7818803787231445,2.068057060241699
1763701331487910400,5.712910400390625,0.21264782547950745,0.9664446115493774,2.1527514457702637
1763701331497932500,5.7229326171875,0.13127467036247253,0.5466130375862122,2.1053245067596436
1763701331507953400,5.732953369140625,0.08392179757356644,0.0513199120759964,1.885399580001831
1763701331517974300,5.742974365234375,0.03933648765087128,-0.27351704239845276,1.62667977809906
1763701331527995600,5.75299560546875,0.003620567498728633,-0.2962537705898285,1.4065046310424805
1763701331538016500,5.7630166015625,-0.03268098086118698,-0.19203788042068481,1.2341452836990356
1763701331548037600,5.77303759765625,-0.08887501060962677,-0.14304770529270172,1.0248099565505981
1763701331558058500,5.78305859375,-0.28315579891204834,-0.09533610939979553,0.7911913394927979
1763701331568079400,5.793079345703125,-0.41886037588119507,-0.021990252658724785,0.5857401490211487
1763701331578100500,5.8031005859375,-0.43894487619400024,0.12205320596694946,0.4707435369491577
1763701331588121300,5.813121337890625,-0.41203150153160095,0.27219370007514954,0.4110506474971771
1763701331598142500,5.823142578125,-0.38451120257377625,0.3996475338935852,0.367200642824173
1763701331608163600,5.83316357421875,-0.33376944065093994,0.48483219742774963,0.3308314383029938
1763701331618184400,5.843184326171875,-0.2840900421142578,0.5543734431266785,0.2851470410823822
1763701331628205600,5.85320556640625,-0.21275940537452698,0.5919613242149353,0.19870297610759735
1763701331638226400,5.863226318359375,-0.13343316316604614,0.6133555769920349,0.04934011772274971
1763701331648247600,5.87324755859375,-0.047937165945768356,0.5950670838356018,-0.1717725545167923
1763701331658268400,5.883268310546875,0.02611868642270565,0.5581189393997192,-0.46007758378982544
1763701331668289500,5.89328955078125,0.0745711699128151,0.5119743347167969,-0.7708389163017273
1763701331678310400,5.903310302734375,0.07771743088960648,0.43383532762527466,-1.069218635559082
1763701331688331500,5.91333154296875,0.046309709548950195,0.35987696051597595,-1.3169254064559937
1763701331698352600,5.9233525390625,0.006955910474061966,0.30713412165641785,-1.4782013893127441
1763701331708373500,5.93337353515625,0.0019265307346358895,0.23448334634304047,-1.5674484968185425
1763701331718394600,5.94339453125,-0.007385478354990482,0.17242157459259033,-1.6102102994918823
1763701331728416500,5.95341650390625,0.021691713482141495,0.1424892395734787,-1.6352269649505615
1763701331738437400,5.963437255859375,0.05494127795100212,0.10614827275276184,-1.6305238008499146
1763701331748458500,5.97345849609375,0.0580502524971962,-0.001401355373673141,-1.6582396030426025
1763701331758479600,5.983479736328125,0.03248763456940651,-0.1567310243844986,-1.7059022188186646
1763701331768500500,5.99350048828125,0.0318886898458004,-0.3783595561981201,-1.832826018333435
1763701331778521600,6.003521484375,-0.10755416005849838,-0.5962681770324707,-1.8425447940826416
1763701331788542500,6.01354248046875,-0.19252043962478638,-0.7565755844116211,-1.8051995038986206
1763701331798563600,6.0235634765625,-0.23267266154289246,-0.8993415236473083,-1.7153713703155518
1763701331808584400,6.03358447265625,-0.2488231360912323,-1.0983320474624634,-1.6485425233840942
1763701331818605300,6.043605224609375,-0.2348945289850235,-1.2817069292068481,-1.616224765777588
1763701331828626400,6.05362646484375,-0.18936726450920105,-1.4506278038024902,-1.5966694355010986
1763701331838647600,6.0636474609375,-0.0857149064540863,-1.560636043548584,-1.5504188537597656
1763701331848668700,6.073668701171875,0.08767552673816681,-1.6111950874328613,-1.4262290000915527
1763701331858689500,6.083689453125,0.2904352843761444,-1.5130014419555664,-1.2491389513015747
1763701331868710400,6.09371044921875,0.4436645209789276,-1.2878139019012451,-1.0678855180740356
1763701331878731500,6.1037314453125,0.4741521179676056,-1.0648441314697266,-0.9128690361976624
1763701331888752400,6.11375244140625,0.42207401990890503,-0.8513848781585693,-0.7797669172286987
1763701331898773500,6.1237734375,0.30658042430877686,-0.6049764752388,-0.6629390716552734
1763701331908794400,6.13379443359375,0.18852490186691284,-0.37275201082229614,-0.5364940762519836
1763701331918815500,6.1438154296875,0.12119167298078537,-0.17255738377571106,-0.4028579592704773
1763701331928836600,6.153836669921875,0.08754662424325943,-0.0035177695099264383,-0.2765849828720093
1763701331938857500,6.163857421875,0.07598184794187546,0.08015076071023941,-0.1579267829656601
1763701331948879400,6.17387939453125,0.07656507939100266,0.0346144363284111,-0.04304493963718414
1763701331958900500,6.183900390625,0.006431800313293934,-0.07948337495326996,0.05956319347023964
1763701331968921300,6.19392138671875,-0.1343892365694046,-0.1474408507347107,0.1951141059398651
1763701331978942500,6.2039423828125,-0.20422077178955078,0.04175277426838875,0.29217299818992615
1763701331988963600,6.213963623046875,-0.08225998282432556,0.5859599113464355,0.3018357455730438
1763701331998984400,6.223984375,0.18118444085121155,1.113363265991211,0.2607077658176422
1763701332009005600,6.234005615234375,0.41293084621429443,1.3126968145370483,0.1166461855173111
1763701332019026400,6.2440263671875,0.48686471581459045,1.10005521774292,-0.13003815710544586
1763701332029047600,6.254047607421875,0.411359041929245,0.7667688131332397,-0.3528086543083191
1763701332039068400,6.264068359375,0.27745530009269714,0.8591365814208984,-0.4602363109588623
1763701332049089500,6.274089599609375,0.08694874495267868,1.3525710105895996,-0.31587859988212585
1763701332059110400,6.2841103515625,-0.17019329965114594,1.6125155687332153,0.1620941013097763
1763701332069131300,6.29413134765625,-0.2925216257572174,0.9358776807785034,0.6892396807670593
1763701332079152600,6.304152587890625,-0.26279035210609436,0.04613979905843735,0.8749855756759644
1763701332089173500,6.314173583984375,-0.20909063518047333,-0.4016563594341278,0.6777830123901367
1763701332099194600,6.324194580078125,-0.16186346113681793,-0.5349140167236328,0.30057021975517273
1763701332109215500,6.334215576171875,-0.09296988695859909,-0.43360576033592224,-0.20879316329956055
1763701332119236400,6.344236328125,-0.02816878817975521,-0.304661363363266,-0.7086842060089111
1763701332129257500,6.354257568359375,0.034211765974760056,-0.34982937574386597,-1.0281599760055542
1763701332139278300,6.3642783203125,0.09050167351961136,-0.508385181427002,-1.1997644901275635
1763701332149299500,6.374299560546875,0.06363862752914429,-0.5838871598243713,-1.3421155214309692
1763701332159320600,6.384320556640625,-0.07589290291070938,-0.5560203790664673,-1.4124075174331665
1763701332169341400,6.394341552734375,-0.2929578423500061,-0.34859898686408997,-1.3241037130355835
1763701332179363600,6.404363525390625,-0.45190301537513733,0.002287655370309949,-1.0967656373977661
1763701332189385200,6.41438525390625,-0.4974622428417206,0.26880934834480286,-0.8103508949279785
1763701332199406000,6.424406005859375,-0.4338776767253876,0.23366574943065643,-0.5189800262451172
1763701332209427200,6.43442724609375,-0.29122892022132874,-0.009339439682662487,-0.27469122409820557
1763701332219448000,6.444447998046875,-0.14208683371543884,-0.13056014478206635,-0.06573640555143356
1763701332229469200,6.45446923828125,-0.023480026051402092,-0.1279877871274948,0.11195103824138641
1763701332239490000,6.464489990234375,0.0328061506152153,-0.08769549429416656,0.2635698616504669
1763701332249511000,6.474510986328125,0.02605343796312809,0.07787083089351654,0.37950071692466736
1763701332259532000,6.484531982421875,-0.03707066923379898,0.3203412592411041,0.4852668344974518
1763701332269553200,6.49455322265625,-0.14439979195594788,0.6435589790344238,0.5813363790512085
1763701332279574300,6.50457421875,-0.2526857852935791,0.865749716758728,0.7024907469749451
1763701332289595100,6.51459521484375,-0.31514570116996765,0.9404910802841187,0.8415594100952148
1763701332299616000,6.524615966796875,-0.3325585126876831,0.9029844403266907,0.8914631009101868
1763701332309637000,6.53463720703125,-0.32613763213157654,0.7419092655181885,0.8906433582305908
1763701332319658000,6.544657958984375,-0.32057666778564453,0.4719685912132263,0.8734438419342041
1763701332329679000,6.55467919921875,-0.3282013237476349,0.2585998773574829,0.890480637550354
1763701332339700000,6.564699951171875,-0.31138157844543457,0.10050956159830093,0.9841732978820801
1763701332349721000,6.57472119140625,-0.23836196959018707,-0.13491228222846985,1.0885117053985596
1763701332359742200,6.5847421875,-0.11772423982620239,-0.36831411719322205,1.2145987749099731
1763701332369763000,6.59476318359375,0.05091191828250885,-0.37738269567489624,1.4523125886917114
1763701332379784200,6.6047841796875,0.319413423538208,-0.15436586737632751,1.876379132270813
1763701332389805000,6.61480517578125,0.6081040501594543,-0.1319122314453125,2.433605909347534
1763701332399826200,6.624826171875,0.7502217888832092,-0.340334415435791,3.0272984504699707
1763701332409848000,6.63484814453125,0.7226101160049438,-0.6398420333862305,3.5459227561950684
1763701332419869200,6.644869140625,0.5830261707305908,-0.7647930383682251,4.047318935394287
1763701332429890000,6.65489013671875,0.3297986686229706,-0.6319758296012878,4.453413009643555
1763701332439911200,6.6649111328125,0.1370270997285843,-0.5837867259979248,4.6511616706848145
1763701332449932000,6.67493212890625,0.014964834786951542,-0.5769410729408264,4.669366836547852
1763701332459953200,6.684953125,-0.10356634110212326,-0.4620744287967682,4.503505706787109
1763701332469974000,6.69497412109375,-0.15274854004383087,-0.3071298599243164,4.059854030609131
1763701332479995100,6.7049951171875,-0.1340198516845703,-0.16293911635875702,3.4425466060638428
1763701332490016000,6.71501611328125,0.006971356924623251,0.08720201253890991,2.8651583194732666
1763701332500037000,6.725037109375,0.16430479288101196,0.5943600535392761,2.4515388011932373
1763701332510058200,6.735058349609375,0.24853843450546265,0.9603763818740845,2.0773425102233887
1763701332520079000,6.7450791015625,0.3090209662914276,0.8667569160461426,1.6345648765563965
1763701332530100200,6.755100341796875,0.42584559321403503,0.5475674867630005,1.1485092639923096
1763701332540121000,6.76512109375,0.6236070990562439,0.4664768874645233,0.5453019142150879
1763701332550142000,6.775141845703125,0.7050226330757141,0.6978331804275513,-0.03530685603618622
1763701332560163000,6.7851630859375,0.6851756572723389,0.9142586588859558,-0.4913705289363861
1763701332570184000,6.795183837890625,0.6726982593536377,0.7966619729995728,-0.8133025169372559
1763701332580205000,6.805205078125,0.6446548700332642,0.5015344619750977,-1.0626252889633179
1763701332590226200,6.81522607421875,0.5990170836448669,0.3131832182407379,-1.3130401372909546
1763701332600247000,6.8252470703125,0.5210155248641968,0.28025829792022705,-1.586098313331604
1763701332610269200,6.835269287109375,0.44160404801368713,0.23710735142230988,-1.9007478952407837
1763701332620290000,6.8452900390625,0.35453224182128906,0.0748598575592041,-2.2446346282958984
1763701332630311000,6.855310791015625,0.21851369738578796,-0.11488131433725357,-2.6299803256988525
1763701332640332000,6.86533203125,0.02221236191689968,-0.36347833275794983,-3.0383141040802
1763701332650353200,6.875353271484375,-0.22083383798599243,-0.7389848232269287,-3.3937106132507324
1763701332660374300,6.885374267578125,-0.475914865732193,-1.0287681818008423,-3.610948324203491
1763701332670395100,6.89539501953125,-0.7126405835151672,-1.1994869709014893,-3.6858794689178467
1763701332680416000,6.905416015625,-0.8577429056167603,-1.3701505661010742,-3.6621737480163574
1763701332690437000,6.91543701171875,-0.8530144691467285,-1.350662112236023,-3.5045807361602783
1763701332700458000,6.9254580078125,-0.7524175643920898,-1.2109172344207764,-3.1743059158325195
1763701332710479000,6.93547900390625,-0.5130497217178345,-1.1558058261871338,-2.659449338912964
1763701332720500000,6.9455,-0.12538428604602814,-1.2041935920715332,-2.049475908279419
1763701332730521000,6.95552099609375,0.37509799003601074,-1.2910877466201782,-1.577061414718628
1763701332740542200,6.965542236328125,0.8659499883651733,-1.3776651620864868,-1.3696304559707642
1763701332750563000,6.97556298828125,1.121896505355835,-1.5087801218032837,-1.4377434253692627
1763701332760584200,6.985584228515625,1.037518858909607,-1.704070806503296,-1.5512913465499878
1763701332770605000,6.99560498046875,0.8079836368560791,-1.6210041046142578,-1.4743826389312744
1763701332780626200,7.005626220703125,0.5704874396324158,-1.1340399980545044,-1.2103707790374756
1763701332790647000,7.01564697265625,0.3159220218658447,-0.5054003000259399,-0.7887609601020813
1763701332800668000,7.02566796875,-0.0820637121796608,-0.10436449199914932,-0.29334744811058044
1763701332810689000,7.03568896484375,-0.6883035898208618,0.09604451060295105,0.21758665144443512
1763701332820710100,7.045710205078125,-1.2373714447021484,0.6528893709182739,0.6261600255966187
1763701332830732000,7.05573193359375,-1.1673375368118286,1.9784775972366333,0.3189026117324829
1763701332840753200,7.065753173828125,-0.5247886776924133,2.187432289123535,-0.35566142201423645
1763701332850774000,7.07577392578125,0.20388256013393402,1.6194610595703125,-0.9739057421684265
1763701332860795100,7.085795166015625,0.7036425471305847,1.6749224662780762,-1.220580816268921
1763701332870816000,7.09581591796875,0.9976049661636353,2.6906189918518066,-0.7729079127311707
1763701332880836900,7.1058369140625,0.8945273160934448,3.017350196838379,0.17822512984275818
1763701332890858200,7.115858154296875,0.2381284087896347,1.7612013816833496,0.9739260077476501
1763701332900879000,7.125879150390625,-0.361926794052124,-0.17561016976833344,1.441504955291748
1763701332910900200,7.135900146484375,-0.45679256319999695,-1.0053499937057495,1.5765801668167114
1763701332920921000,7.145921142578125,-0.4492497146129608,-1.0982799530029297,1.4792256355285645
1763701332930942000,7.15594189453125,-0.4838433563709259,-1.1820813417434692,1.1561453342437744
1763701332940963000,7.165963134765625,-0.40435653924942017,-1.4460985660552979,0.6728242039680481
1763701332950984000,7.17598388671875,-0.1683109849691391,-1.6734817028045654,0.11959511041641235
1763701332961005000,7.186005126953125,0.1450410783290863,-1.6376456022262573,-0.3940841853618622
1763701332971026200,7.196026123046875,0.38259372115135193,-1.4320265054702759,-0.7953011393547058
1763701332981047000,7.206047119140625,0.47759345173835754,-1.2478421926498413,-1.0689151287078857
1763701332991068200,7.216068115234375,0.43751636147499084,-0.9128701090812683,-1.1250643730163574
1763701333001089000,7.226089111328125,0.21830543875694275,-0.38513755798339844,-0.8931938409805298
1763701333011110100,7.236110107421875,-0.06885655969381332,0.40806207060813904,-0.4619971811771393
1763701333021131000,7.246131103515625,-0.31800752878189087,1.0877535343170166,-0.06336645781993866
1763701333031153000,7.25615283203125,-0.5228443145751953,1.085787057876587,0.06872100383043289
1763701333041174300,7.26617431640625,-0.5639427304267883,0.6729999780654907,0.281235933303833
1763701333051195100,7.276195068359375,-0.3035273849964142,0.5714768171310425,0.7146438360214233
1763701333061216000,7.286216064453125,0.02576421946287155,0.7189419269561768,1.1411280632019043
1763701333071237000,7.296237060546875,0.0690363273024559,0.7779162526130676,1.3903110027313232
1763701333081258000,7.306258056640625,-0.007851265370845795,0.7077044248580933,1.5523585081100464
1763701333091279000,7.316279052734375,-0.0995233952999115,0.7929772734642029,1.7215604782104492
1763701333101300000,7.326300048828125,-0.16786836087703705,1.095489740371704,1.9199833869934082
1763701333111321000,7.336321044921875,-0.16240276396274567,1.4354217052459717,2.1471872329711914
1763701333121342200,7.34634228515625,-0.12006249278783798,1.6606955528259277,2.39803409576416
1763701333131363000,7.356363037109375,-0.04482792317867279,1.631166934967041,2.7260966300964355
1763701333141384200,7.36638427734375,0.09216348081827164,1.2766536474227905,3.0601038932800293
1763701333151405000,7.376405029296875,0.24770914018154144,0.8260590434074402,3.396599292755127
1763701333161426200,7.38642626953125,0.3460381031036377,0.5498088002204895,3.6937124729156494
1763701333171447000,7.396447021484375,0.40551233291625977,0.3547937870025635,3.85719633102417
1763701333181467600,7.406467529296875,0.4357810318470001,0.09900221228599548,3.8500523567199707
1763701333191488800,7.41648876953125,0.4405534267425537,-0.13224884867668152,3.6258037090301514
1763701333201509600,7.426509521484375,0.4681275188922882,-0.2221478521823883,3.152444839477539
1763701333211530800,7.43653076171875,0.5012364983558655,-0.33763182163238525,2.5175797939300537
1763701333221552600,7.446552734375,0.25633856654167175,-0.4135713279247284,1.9940948486328125
1763701333231573800,7.45657373046875,-0.07991959899663925,-0.33740174770355225,1.7731348276138306
1763701333241595000,7.466594970703125,-0.15007205307483673,-0.2743615210056305,1.6981010437011719
1763701333251615700,7.47661572265625,-0.012969328090548515,-0.4169311821460724,1.5115077495574951
1763701333261636600,7.48663671875,0.1366257518529892,-0.6343955993652344,1.1356943845748901
1763701333271657700,7.49665771484375,0.17781127989292145,-0.387188196182251,0.6737651228904724
1763701333281678600,7.5066787109375,0.2806929051876068,0.09573078900575638,0.19516922533512115
1763701333291699700,7.51669970703125,0.48534485697746277,0.5435943007469177,-0.3117999732494354
1763701333301720600,7.526720458984375,0.7121199369430542,0.8151073455810547,-0.8729476928710938
1763701333311741700,7.53674169921875,0.848788321018219,0.9478310346603394,-1.5247247219085693
1763701333321762800,7.5467626953125,0.8395743370056152,0.8500445485115051,-2.1959547996520996
1763701333331783700,7.55678369140625,0.7248392105102539,0.7002963423728943,-2.7513177394866943
1763701333341804800,7.5668046875,0.57285475730896,0.662447988986969,-3.127636671066284
1763701333351825700,7.57682568359375,0.4115681052207947,0.6959678530693054,-3.4044296741485596
1763701333361846800,7.5868466796875,0.24146614968776703,0.6633782386779785,-3.634627342224121
1763701333371867600,7.59686767578125,0.06340320408344269,0.48099857568740845,-3.7935140132904053
1763701333381888500,7.606888427734375,-0.17687676846981049,0.1555781364440918,-3.8494486808776855
1763701333391909600,7.61690966796875,-0.48854225873947144,-0.22911547124385834,-3.7539896965026855
1763701333401931800,7.626931884765625,-0.8046810626983643,-0.6161742210388184,-3.516728639602661
1763701333411952600,7.63695263671875,-1.050978183746338,-1.0770068168640137,-3.2014851570129395
1763701333421973800,7.646973876953125,-1.2085936069488525,-1.6363433599472046,-2.869595766067505
1763701333431994600,7.65699462890625,-1.2356367111206055,-2.2051937580108643,-2.585280656814575
1763701333442015700,7.667015625,-1.025935173034668,-2.687072277069092,-2.350647211074829
1763701333452036600,7.67703662109375,-0.46089357137680054,-2.853502035140991,-2.1512529850006104
1763701333462057500,7.687057373046875,0.3297683298587799,-2.7135276794433594,-1.9724644422531128
1763701333472078800,7.697078857421875,0.9025474190711975,-2.313742160797119,-1.6817766427993774
1763701333482099700,7.707099609375,1.0995465517044067,-1.7758122682571411,-1.1363109350204468
1763701333492120800,7.717120849609375,1.0508959293365479,-1.159172534942627,-0.4203605353832245
1763701333502141700,7.7271416015625,0.8554467558860779,-0.7164920568466187,0.20673532783985138
1763701333512162600,7.73716259765625,0.5593191981315613,-0.772357702255249,0.6038094758987427
1763701333522183700,7.74718359375,0.2448427677154541,-0.9322395324707031,0.6035250425338745
1763701333532204500,7.75720458984375,-0.07021983712911606,-0.7681342363357544,0.2645919620990753
1763701333542225700,7.7672255859375,-0.08800069242715836,-0.17167481780052185,-0.1690817028284073
1763701333552246800,7.777246826171875,0.19121842086315155,0.3231796622276306,-0.3843439519405365
1763701333562268000,7.787267822265625,0.20944936573505402,0.8832139372825623,-0.32433706521987915
1763701333572288800,7.797288818359375,-0.07332774251699448,1.7072346210479736,-0.44185224175453186
1763701333582309600,7.8073095703125,-0.33778682351112366,2.4908740520477295,-0.6305582523345947
1763701333592331500,7.81733154296875,-0.38821643590927124,2.339400291442871,-0.27095428109169006
1763701333602352600,7.8273525390625,-0.6279845833778381,0.9302583932876587,0.4599153995513916
1763701333612373500,7.83737353515625,-0.9476174116134644,-0.5437943339347839,1.059335708618164
1763701333622395000,7.847394775390625,-0.984401285648346,-0.9094210267066956,1.1634762287139893
1763701333632415700,7.857415771484375,-0.7298973202705383,-0.9579023122787476,1.0543521642684937
1763701333642436900,7.867436767578125,-0.5167770981788635,-0.9803801774978638,0.8214395046234131
1763701333652457700,7.877457763671875,-0.3746982514858246,-1.1449624300003052,0.44240352511405945
1763701333662478600,7.887478515625,-0.2044157236814499,-1.4512547254562378,0.001880191732198
1763701333672499700,7.897499755859375,-0.038906920701265335,-1.4782005548477173,-0.38696929812431335
1763701333682520600,7.9075205078125,0.10712379217147827,-1.100736141204834,-0.6662523150444031
1763701333692541700,7.917541748046875,0.25357314944267273,-0.7289639115333557,-0.835050642490387
1763701333702562800,7.927562744140625,0.1775715947151184,-0.5038479566574097,-0.8959076404571533
1763701333712583700,7.937583740234375,-0.09725704789161682,-0.006217415910214186,-0.7520852088928223
1763701333722604800,7.947604736328125,-0.3444596529006958,0.7526596784591675,-0.4067445993423462
1763701333732625700,7.957625732421875,-0.3900226056575775,1.2192955017089844,-0.05609282851219177
1763701333742646800,7.967646728515625,-0.24148106575012207,1.0912797451019287,0.3438687026500702
1763701333752667600,7.977667724609375,-0.037882935255765915,0.7414935231208801,0.7428101897239685
1763701333762689500,7.987689453125,0.09396830946207047,0.5775970220565796,1.047979712486267
1763701333772711000,7.9977109375,0.17712071537971497,0.4767042398452759,1.2673370838165283
1763701333782731800,8.007731689453125,0.18858109414577484,0.3134404718875885,1.4592859745025635
1763701333792752600,8.017752685546874,0.0924774706363678,0.35411572456359863,1.6484724283218384
1763701333802773800,8.027773681640625,-0.07892171293497086,0.6487329602241516,1.8670690059661865
1763701333812794600,8.037794677734375,-0.20143936574459076,0.8920292854309082,2.0983264446258545
1763701333822815700,8.047815673828126,-0.2550749182701111,0.9454834461212158,2.365182876586914
1763701333832836600,8.057836669921874,-0.27443209290504456,0.9350515604019165,2.749692916870117
1763701333842857500,8.067857421875,-0.20404021441936493,0.9808446168899536,3.225032329559326
1763701333852878800,8.07787890625,-0.02293514274060726,0.8974772691726685,3.5739402770996094
1763701333862899700,8.087899658203124,0.13612401485443115,0.5212035179138184,3.703136444091797
1763701333872920800,8.0979208984375,0.2023451179265976,0.1362113654613495,3.6329619884490967
1763701333882941700,8.107941650390625,0.3242419958114624,-0.1344427615404129,3.3861682415008545
1763701333892962800,8.117962890625,0.5510416030883789,-0.32822874188423157,2.9381422996520996
1763701333902983700,8.127983642578124,0.6888535022735596,-0.5605804920196533,2.3134982585906982
1763701333913004500,8.138004638671875,0.4569110870361328,-0.6681056022644043,1.765194058418274
1763701333923026700,8.148026611328126,0.018371017649769783,-0.5668615698814392,1.4955332279205322
1763701333933047800,8.1580478515625,-0.15748415887355804,-0.5390352606773376,1.4477816820144653
1763701333943068700,8.168068603515625,-0.10303663462400436,-0.6651255488395691,1.3960723876953125
1763701333953089800,8.17808984375,-0.06349828094244003,-0.8429248332977295,1.1622389554977417
1763701333963110700,8.188110595703124,-0.024805214256048203,-0.6996888518333435,0.7077550292015076
1763701333973131800,8.1981318359375,0.08961483836174011,-0.5435567498207092,0.15855368971824646
1763701333983152600,8.208152587890625,0.27809953689575195,-0.24447286128997803,-0.4360968768596649
1763701333993173500,8.218173583984376,0.5395769476890564,0.16007062792778015,-1.1068683862686157
1763701334003195000,8.22819482421875,0.7481655478477478,0.2935003340244293,-1.7812869548797607
1763701334013215700,8.2382158203125,0.8578177690505981,0.03436915948987007,-2.3705291748046875
1763701334023236900,8.24823681640625,0.8766977190971375,-0.29411017894744873,-2.8110592365264893
1763701334033257700,8.2582578125,0.8583996891975403,-0.5193238854408264,-3.049989700317383
1763701334043278600,8.268278564453125,0.8272172212600708,-0.6611350774765015,-3.1962854862213135
1763701334053299700,8.2782998046875,0.7878519892692566,-0.7884450554847717,-3.343600273132324
1763701334063320600,8.288320556640626,0.7430187463760376,-0.8903877139091492,-3.4937896728515625
1763701334073341700,8.298341796875,0.6554007530212402,-0.9935316443443298,-3.538116455078125
1763701334083363800,8.30836376953125,0.47245490550994873,-1.1414129734039307,-3.3899149894714355
1763701334093384700,8.318384765625,0.2032199651002884,-1.2750943899154663,-3.0753684043884277
1763701334103405800,8.32840576171875,-0.0713689848780632,-1.4267475605010986,-2.6739919185638428
1763701334113426700,8.3384267578125,-0.278691828250885,-1.6770743131637573,-2.252295732498169
1763701334123447600,8.348447509765625,-0.3529956042766571,-1.9535993337631226,-1.8451839685440063
1763701334133468700,8.35846875,-0.2106025069952011,-2.074742555618286,-1.5043193101882935
1763701334143489500,8.368489501953125,0.10648330301046371,-2.085897207260132,-1.2940733432769775
1763701334153511000,8.378510986328125,0.49510109424591064,-2.0930840969085693,-1.1607131958007812
1763701334163531800,8.38853173828125,0.787223219871521,-2.049253225326538,-1.0123889446258545
1763701334173552600,8.398552734375,0.9093430042266846,-1.8037341833114624,-0.7297236919403076
1763701334183574000,8.408573974609375,0.9014565944671631,-1.2304967641830444,-0.2706488072872162
1763701334193595000,8.418594970703126,0.7520322203636169,-0.5535010099411011,0.18799467384815216
1763701334203616000,8.428615966796874,0.43119266629219055,0.032708678394556046,0.5648458003997803
1763701334213636900,8.438636962890625,0.0905541330575943,0.3813055455684662,0.8311033248901367
1763701334223657700,8.44865771484375,-0.06891941279172897,0.6935678124427795,0.9180187582969666
1763701334233680100,8.45868017578125,-0.05103495344519615,0.7230596542358398,0.6435054540634155
1763701334243701000,8.468700927734375,0.007170561235398054,0.6076694130897522,0.04320739209651947
1763701334253721900,8.478721923828125,0.010032660327851772,0.6283097267150879,-0.5841529369354248
1763701334263743000,8.488742919921876,0.027957065030932426,0.6142147183418274,-0.9595720767974854
1763701334273763800,8.498763916015625,0.048660214990377426,0.39259734749794006,-1.3186208009719849
1763701334283785000,8.508784912109375,0.07797602564096451,0.0690658837556839,-2.025797128677368
1763701334293805800,8.518805908203126,0.22154010832309723,0.35446086525917053,-2.583400249481201
1763701334303827000,8.528826904296874,0.3064243793487549,0.9258807301521301,-2.151559591293335
1763701334313848000,8.53884814453125,-0.060628727078437805,1.115604043006897,-0.6492531299591064
1763701334323869000,8.548868896484375,-0.6936208605766296,0.02215270698070526,0.7337059378623962
1763701334333890000,8.55889013671875,-0.7300070524215698,-0.987770140171051,0.8372259140014648
1763701334343911000,8.568910888671875,-0.3684035837650299,-1.278212070465088,0.12066756188869476
1763701334353931800,8.578931884765625,-0.05999968573451042,-1.2756134271621704,-0.7660321593284607
1763701334363953000,8.588952880859376,0.08977808803319931,-1.379944086074829,-1.347153902053833
1763701334373973800,8.598973876953124,0.12435577064752579,-1.3067798614501953,-1.6028597354888916
1763701334383996000,8.608995849609375,0.03539101406931877,-1.054560899734497,-1.6761062145233154
1763701334394017000,8.61901708984375,-0.14141304790973663,-0.6851463913917542,-1.6726731061935425
1763701334404038000,8.629037841796874,-0.3970288336277008,-0.13359135389328003,-1.6269227266311646
1763701334414059000,8.63905908203125,-0.6536635756492615,0.3069988191127777,-1.5881569385528564
1763701334424080000,8.649079833984375,-0.8194674253463745,0.4631814956665039,-1.6331145763397217
1763701334434101000,8.65910107421875,-0.9440106749534607,0.554183840751648,-1.6951649188995361
1763701334444121900,8.669121826171875,-1.0152148008346558,0.7500993013381958,-1.6277762651443481
1763701334454143000,8.67914306640625,-1.065982699394226,0.8790567517280579,-1.3640090227127075
1763701334464164000,8.6891640625,-1.0435279607772827,0.9746714234352112,-0.9923729300498962
1763701334474185000,8.69918505859375,-0.957503616809845,1.0290180444717407,-0.6257743835449219
1763701334484206000,8.7092060546875,-0.8495760560035706,1.158792495727539,-0.3707626163959503
1763701334494227000,8.71922705078125,-0.6977010369300842,1.2423611879348755,-0.2317996770143509
1763701334504247800,8.729247802734376,-0.552316427230835,1.0679981708526611,-0.08094997704029083
1763701334514269000,8.73926904296875,-0.48553287982940674,0.8305797576904297,0.13009434938430786
1763701334524291000,8.749291015625,-0.5017637610435486,0.719750702381134,0.36650794744491577
1763701334534312000,8.75931201171875,-0.5203880667686462,0.5805267691612244,0.5563021302223206
1763701334544333000,8.7693330078125,-0.4430253803730011,0.3986552357673645,0.6366395950317383
1763701334554354000,8.77935400390625,-0.36610448360443115,0.20434115827083588,0.6827399730682373
1763701334564375000,8.789375,-0.3312562108039856,-0.05373752862215042,0.7861933708190918
1763701334574396000,8.79939599609375,-0.3096342980861664,-0.4229438006877899,0.9955625534057617
1763701334584416800,8.809416748046875,-0.26923438906669617,-0.8861380815505981,1.3297038078308105
1763701334594438000,8.81943798828125,-0.20161966979503632,-1.395805835723877,1.7786837816238403
1763701334604459000,8.829458984375,-0.026744263246655464,-1.7777713537216187,2.2241809368133545
1763701334614480100,8.839480224609375,0.3500453531742096,-1.8303793668746948,2.588515043258667
1763701334624501000,8.8495009765625,0.9946677684783936,-1.680770754814148,2.936013698577881
1763701334634521900,8.85952197265625,1.6968010663986206,-1.6219817399978638,3.2286059856414795
1763701334644543000,8.86954296875,2.248399257659912,-1.480655550956726,3.446035146713257
1763701334654563800,8.879563720703125,2.617417335510254,-1.2321476936340332,3.515151023864746
1763701334664586000,8.8895859375,2.7709386348724365,-1.3903037309646606,3.4541049003601074
1763701334674607000,8.899607177734374,2.6284635066986084,-1.5886112451553345,3.326267719268799
1763701334684628000,8.9096279296875,2.2696409225463867,-1.105753779411316,3.0492210388183594
1763701334694649000,8.919649169921875,1.7861077785491943,-0.17712391912937164,2.719036340713501
1763701334704670000,8.929669921875,1.3317464590072632,0.4975892901420593,2.4376816749572754
1763701334714690800,8.93969091796875,1.1746926307678223,0.2739143669605255,2.055415630340576
1763701334724712000,8.9497119140625,1.2600488662719727,-0.5890747308731079,1.506531834602356
1763701334734732800,8.95973291015625,1.4212027788162231,-1.2889041900634766,0.9972736835479736
1763701334744754000,8.96975390625,1.6315033435821533,-1.5157676935195923,0.864483118057251
1763701334754775000,8.979775146484375,1.8092477321624756,-1.512140154838562,0.9720796346664429
1763701334764796000,8.9897958984375,2.075735330581665,-1.5913084745407104,1.19945228099823
1763701334774817000,8.999817138671874,2.422255039215088,-1.8278923034667969,1.31190025806427
1763701334784838000,9.009837890625,2.66273832321167,-2.4809720516204834,1.3582624197006226
1763701334794859000,9.01985888671875,2.7034828662872314,-3.215890645980835,1.2930341958999634
1763701334804881000,9.029880859375,2.761296510696411,-3.756974697113037,1.200194001197815
1763701334814902000,9.039902099609375,2.7857580184936523,-4.313741207122803,1.1478261947631836
1763701334824923100,9.049923095703125,2.784184455871582,-4.750419616699219,1.0805385112762451
1763701334834944000,9.059944091796876,2.8112499713897705,-5.088137626647949,1.0186349153518677
1763701334844964900,9.06996484375,2.878039598464966,-5.355958461761475,0.9581334590911865
1763701334854986000,9.079986083984375,2.9421379566192627,-5.568627834320068,0.8917184472084045
1763701334865006800,9.0900068359375,2.981633424758911,-5.754478454589844,0.8043505549430847
1763701334875028000,9.100028076171874,2.924461603164673,-5.864766597747803,0.6868638396263123
1763701334885048800,9.110048828125,2.7999370098114014,-5.869758129119873,0.5381673574447632
1763701334895070000,9.120070068359375,2.644009828567505,-5.771164894104004,0.342619925737381
1763701334905091000,9.130091064453126,2.4648120403289795,-5.546812534332275,0.09002763032913208
1763701334915112000,9.14011181640625,2.247887134552002,-5.217101573944092,-0.21071915328502655
1763701334925133000,9.150133056640625,1.9898955821990967,-4.748294353485107,-0.5552661418914795
1763701334935154000,9.16015380859375,1.7133760452270508,-4.158858776092529,-0.9331516623497009
1763701334945175800,9.17017578125,1.478896975517273,-3.5466043949127197,-1.319137692451477
1763701334955197000,9.180197021484375,1.361588716506958,-2.8807785511016846,-1.6302495002746582
1763701334965218000,9.190218017578125,1.3907101154327393,-2.137040615081787,-1.77011239528656
1763701334975239000,9.200239013671874,1.489416241645813,-1.5352396965026855,-1.7575632333755493
1763701334985260000,9.210260009765625,1.5087110996246338,-1.209981918334961,-1.6569647789001465
1763701334995281000,9.220281005859375,1.4185534715652466,-1.0474375486373901,-1.5249958038330078
1763701335005302000,9.230302001953126,1.2584562301635742,-1.003983497619629,-1.4446144104003906
1763701335015323000,9.240322998046874,1.0001029968261719,-1.0956742763519287,-1.476340889930725
1763701335025344000,9.250343994140625,0.657068133354187,-1.3776897192001343,-1.5740398168563843
1763701335035364900,9.26036474609375,0.22551807761192322,-1.7677749395370483,-1.631292462348938
1763701335045385700,9.2703857421875,-0.29293254017829895,-2.133117437362671,-1.5159722566604614
1763701335055407000,9.280406982421875,-0.7777889966964722,-2.466456890106201,-1.160509467124939
1763701335065428000,9.290427978515625,-1.0627861022949219,-2.496239423751831,-0.635851263999939
1763701335075449900,9.300449951171874,-0.8921099305152893,-1.9673806428909302,-0.1661578118801117
1763701335085471000,9.310470947265625,-0.34386762976646423,-0.925301194190979,0.1508595496416092
1763701335095491800,9.320491943359375,0.33274760842323303,0.24447472393512726,0.3823620080947876
1763701335105513000,9.330512939453126,0.8114132285118103,0.9607899785041809,0.5901735424995422
1763701335115534000,9.3405341796875,1.0922776460647583,0.9251688122749329,0.651077926158905
1763701335125555000,9.350554931640625,1.1202208995819092,0.5134766101837158,0.40029895305633545
1763701335135576000,9.360576171875,0.9517359733581543,-0.04544498026371002,0.1582687348127365
1763701335145597000,9.370596923828124,0.48190778493881226,-0.8672751784324646,0.007527158595621586
1763701335155618000,9.3806181640625,0.12641014158725739,-0.9917888641357422,-0.003944141324609518
1763701335165639000,9.390638916015625,-0.057854510843753815,-0.5208969712257385,0.05251274257898331
1763701335175659800,9.40065966796875,-0.20502185821533203,-0.15534831583499908,0.06428311765193939
1763701335185681200,9.41068115234375,-0.3229980170726776,-0.23221619427204132,-0.09222899377346039
1763701335195702300,9.420702392578125,-0.37824878096580505,-0.7127806544303894,-0.41585952043533325
1763701335205723400,9.430723388671876,-0.3779408931732178,-1.3958990573883057,-0.8177134990692139
1763701335215745300,9.440745361328124,-0.3522784113883972,-2.094330310821533,-1.1528925895690918
1763701335225766100,9.45076611328125,-0.30125412344932556,-2.4700260162353516,-1.399540662765503
1763701335235787300,9.460787353515625,-0.17727971076965332,-2.5601329803466797,-1.5603673458099365
1763701335245808000,9.47080810546875,0.028331773355603218,-2.5260138511657715,-1.5857387781143188
1763701335255829000,9.4808291015625,0.3436138331890106,-2.5184123516082764,-1.4594963788986206
1763701335265850400,9.490850341796875,0.7114448547363281,-2.374058485031128,-1.2911622524261475
1763701335275871200,9.500871337890626,1.0640671253204346,-2.2085020542144775,-1.1629589796066284
1763701335285892400,9.510892333984375,1.2148480415344238,-2.1558961868286133,-1.049709439277649
1763701335295913200,9.520913330078125,1.1846837997436523,-2.0924971103668213,-0.9475290179252625
1763701335305934000,9.53093408203125,1.0084576606750488,-1.7905439138412476,-0.8449631929397583
1763701335315955200,9.540955078125,0.8009137511253357,-1.3694794178009033,-0.7995445728302002
1763701335325976000,9.55097607421875,0.6474573612213135,-1.007631778717041,-0.80739825963974
1763701335335997200,9.5609970703125,0.5057071447372437,-0.796188235282898,-0.8673369884490967
1763701335346019300,9.571019287109374,0.3825604319572449,-0.753602921962738,-0.9497013688087463
1763701335356040200,9.581040283203125,0.2935352027416229,-0.7662883996963501,-1.023039698600769
1763701335366061300,9.591061279296875,0.21418365836143494,-0.7556831240653992,-1.0649571418762207
1763701335376082200,9.601082275390626,0.16090978682041168,-0.6638235449790955,-1.055615782737732
1763701335386103000,9.61110302734375,0.11499183624982834,-0.5212796926498413,-1.026623010635376
1763701335396124200,9.621124267578125,0.07274957001209259,-0.3708294630050659,-0.9993349313735962
1763701335406145000,9.63114501953125,0.03749038279056549,-0.3206600248813629,-0.9884479641914368
1763701335416166400,9.64116650390625,0.010370349511504173,-0.39816921949386597,-0.9694287180900574
1763701335426187300,9.651187255859375,-0.015981363132596016,-0.5135714411735535,-0.9135755896568298
1763701335436208000,9.6612080078125,-0.0559985525906086,-0.6366989612579346,-0.8631472587585449
1763701335446229200,9.671229248046876,-0.10862341523170471,-0.7845121026039124,-0.8391729593276978
1763701335456250000,9.68125,-0.15225984156131744,-0.9018121361732483,-0.8214046359062195
1763701335466271200,9.691271240234375,-0.20202048122882843,-0.944654107093811,-0.8042264580726624
1763701335476293000,9.701293212890626,-0.2503616511821747,-0.9337924122810364,-0.7791509032249451
1763701335486314200,9.711314208984374,-0.2839986979961395,-0.8948013186454773,-0.7548394203186035
1763701335496335400,9.72133544921875,-0.28681498765945435,-0.8416875004768372,-0.7273156642913818
1763701335506356200,9.731356201171875,-0.2966758906841278,-0.7694540619850159,-0.7020769119262695
1763701335516377000,9.741377197265624,-0.30740416049957275,-0.681490957736969,-0.6680454611778259
1763701335526398200,9.751398193359375,-0.30255720019340515,-0.5828990936279297,-0.6253291368484497
1763701335536419000,9.761419189453125,-0.25969550013542175,-0.47510847449302673,-0.5565532445907593
1763701335546440200,9.771440185546876,-0.21552349627017975,-0.37378689646720886,-0.4987000823020935
1763701335556461000,9.7814609375,-0.16556313633918762,-0.2923889756202698,-0.4905768930912018
1763701335566482400,9.791482421875,-0.11692981421947479,-0.21401721239089966,-0.49980130791664124
1763701335576503300,9.80150341796875,-0.09058582782745361,-0.15564179420471191,-0.501734733581543
1763701335586524200,9.811524169921874,-0.10855311155319214,-0.10656771808862686,-0.4619993269443512
1763701335596545300,9.821545166015625,-0.1821247935295105,-0.08081841468811035,-0.37571316957473755
1763701335606567200,9.831567138671875,-0.28435662388801575,-0.11793249845504761,-0.24591736495494843
1763701335616588000,9.841588134765624,-0.3754769563674927,-0.22165729105472565,-0.1076769307255745
1763701335626609200,9.851609130859375,-0.4181993901729584,-0.3759597837924957,-0.0031241541728377342
1763701335636630300,9.86163037109375,-0.38420864939689636,-0.6294357180595398,0.1034315824508667
1763701335646651400,9.8716513671875,-0.25569090247154236,-0.9152384400367737,0.20386818051338196
1763701335656672300,9.88167236328125,-0.05842149630188942,-1.1524901390075684,0.32804152369499207
1763701335666693000,9.891693115234375,0.21083180606365204,-1.185900330543518,0.47926780581474304
1763701335676714200,9.90171435546875,0.5115964412689209,-1.1433120965957642,0.6347689628601074
1763701335686735000,9.911735107421874,0.7957797050476074,-1.1463840007781982,0.7780638337135315
1763701335696756200,9.921756103515625,0.9978025555610657,-1.155504822731018,0.973124086856842
1763701335706777000,9.931777099609375,1.0723079442977905,-1.1996738910675049,1.2798537015914917
1763701335716798200,9.941798095703126,1.0566725730895996,-1.3577327728271484,1.663047194480896
1763701335726819300,9.9518193359375,1.019973635673523,-1.5875284671783447,2.0193498134613037
1763701335736841200,9.96184130859375,1.0002425909042358,-1.7812597751617432,2.330862522125244
1763701335746862000,9.971862060546876,0.9947881102561951,-1.8029483556747437,2.566025495529175
1763701335756883200,9.98188330078125,1.0173043012619019,-1.7243001461029053,2.7409162521362305
1763701335766904000,9.991904052734375,1.1004672050476074,-1.5710586309432983,2.884019613265991
1763701335776925200,10.00192529296875,1.2105766534805298,-1.335271954536438,2.9816293716430664
1763701335786946300,10.0119462890625,1.2827173471450806,-1.1166367530822754,2.9809858798980713
1763701335796967200,10.02196728515625,1.2527728080749512,-0.8996189832687378,2.8656466007232666
1763701335806988300,10.03198828125,1.1461608409881592,-0.5882938504219055,2.6866071224212646
1763701335817009200,10.042009033203126,1.0404181480407715,-0.2315535992383957,2.5135133266448975
1763701335827030300,10.0520302734375,0.9847996830940247,-0.028679847717285156,2.3640830516815186
1763701335837051100,10.062051025390625,0.9941015839576721,-0.1313476413488388,2.1682467460632324
1763701335847072000,10.072072021484376,1.008612036705017,-0.5491526126861572,1.9258127212524414
1763701335857093000,10.082093017578124,0.9938659071922302,-1.0745295286178589,1.6960886716842651
1763701335867114200,10.0921142578125,1.0177725553512573,-1.324749231338501,1.5969107151031494
1763701335877136100,10.10213623046875,1.0976330041885376,-1.307084560394287,1.6016961336135864
1763701335887157200,10.1121572265625,1.202434778213501,-1.1851847171783447,1.5994330644607544
1763701335897178000,10.12217822265625,1.3602420091629028,-1.018467664718628,1.5426338911056519
1763701335907199200,10.13219921875,1.528644323348999,-0.9518648982048035,1.449306845664978
1763701335917220000,10.14222021484375,1.6391003131866455,-1.064956545829773,1.4359633922576904
1763701335927241000,10.152240966796874,1.723957896232605,-1.1528419256210327,1.461249828338623
1763701335937262300,10.162262451171875,1.7882213592529297,-1.2182796001434326,1.489406943321228
1763701335947283200,10.172283203125,1.8176041841506958,-1.3916332721710205,1.5034300088882446
1763701335957304300,10.18230419921875,1.7649375200271606,-1.595524787902832,1.467530608177185
1763701335967325200,10.1923251953125,1.653651237487793,-1.7806237936019897,1.4025382995605469
1763701335977346300,10.20234619140625,1.5500856637954712,-1.8570046424865723,1.2933945655822754
1763701335987367200,10.2123671875,1.4855530261993408,-1.8581745624542236,1.1166932582855225
1763701335997388000,10.222387939453125,1.4452391862869263,-1.8386183977127075,0.8720661997795105
1763701336007410200,10.23241015625,1.4259874820709229,-1.8367043733596802,0.5997553467750549
1763701336017431300,10.242431396484376,1.358738899230957,-1.8623312711715698,0.3182714581489563
1763701336027452200,10.2524521484375,1.2380878925323486,-1.8773506879806519,0.052363071590662
1763701336037473300,10.262473388671875,1.1103347539901733,-1.8516905307769775,-0.18065552413463593
1763701336047494100,10.272494140625,1.0095330476760864,-1.7899610996246338,-0.3917382061481476
1763701336057515300,10.282515380859374,0.8976791501045227,-1.711107611656189,-0.5888973474502563
1763701336067536100,10.2925361328125,0.7404152154922485,-1.6119858026504517,-0.7839429974555969
1763701336077557000,10.302556884765625,0.5446164608001709,-1.4689933061599731,-0.9868284463882446
1763701336087578400,10.312578369140626,0.3414774239063263,-1.2736338376998901,-1.2077182531356812
1763701336097599200,10.32259912109375,0.13711844384670258,-1.047848105430603,-1.421258807182312
1763701336107620400,10.332620361328125,-0.06540776789188385,-0.8300958275794983,-1.609625220298767
1763701336117641200,10.34264111328125,-0.27987533807754517,-0.6413480639457703,-1.7435840368270874
1763701336127663000,10.3526630859375,-0.5071569681167603,-0.47151079773902893,-1.8202428817749023
1763701336137684200,10.362684326171875,-0.705021321773529,-0.4040268361568451,-1.8437577486038208
1763701336147705300,10.372705322265626,-0.8667364120483398,-0.4366297721862793,-1.8558919429779053
1763701336157726200,10.382726318359374,-1.0112065076828003,-0.5963166356086731,-1.8734924793243408
1763701336167747300,10.392747314453125,-0.9819711446762085,-1.0203217267990112,-1.8337416648864746
1763701336177768200,10.402768310546875,-0.8696616291999817,-1.6042988300323486,-1.7409683465957642
1763701336187788300,10.412788330078126,-0.7304632663726807,-2.108189344406128,-1.8171043395996094
1763701336197809200,10.42280908203125,-0.45660483837127686,-2.6817026138305664,-2.033677101135254
1763701336207830500,10.43283056640625,-0.1345631331205368,-3.325509786605835,-1.971498966217041
1763701336217851400,10.442851318359375,0.42645543813705444,-3.4853549003601074,-1.5997445583343506
1763701336227872300,10.452872314453124,0.8080592751502991,-3.27256441116333,-1.0440698862075806
1763701336237893400,10.462893310546875,0.948919951915741,-2.9373886585235596,-0.46751686930656433
1763701336247914200,10.472914306640625,1.0215822458267212,-2.395432949066162,-0.05427921563386917
1763701336257936100,10.48293603515625,1.0878360271453857,-1.7026715278625488,0.18095619976520538
1763701336267957200,10.492957275390625,0.8767147660255432,-1.0943533182144165,0.37403565645217896
1763701336277978400,10.502978271484375,0.4381965100765228,-0.5225505232810974,0.5872288942337036
1763701336287999500,10.51299951171875,0.15357251465320587,0.07491818070411682,0.6832547187805176
1763701336298020400,10.523020263671874,0.130026176571846,0.6183436512947083,0.2271774858236313
1763701336308041200,10.533041259765625,0.25406450033187866,0.7991991639137268,-0.38272979855537415
1763701336318062300,10.543062255859375,0.60528963804245,0.6004176735877991,-0.7609682083129883
1763701336328083200,10.553083251953124,0.8607123494148254,0.4986598789691925,-1.0048754215240479
1763701336338104300,10.563104248046875,0.9861317873001099,2.119847536087036,-0.8003829717636108
1763701336348125200,10.573125244140625,0.993747353553772,4.078420162200928,0.493579626083374
1763701336358146300,10.583146240234376,0.4770027697086334,2.5524895191192627,1.896938681602478
1763701336368167400,10.59316748046875,-0.16739459335803986,-0.046610113233327866,2.4107468128204346
1763701336378188300,10.603188232421875,-0.4509322941303253,-0.8797286748886108,2.4867641925811768
1763701336388209400,10.61320947265625,-0.5634585618972778,-1.1768639087677002,2.228119373321533
1763701336398231300,10.623231201171874,-0.44451195001602173,-1.1562254428863525,1.630916953086853
1763701336408252200,10.633252197265625,-0.1599625051021576,-1.1409530639648438,0.85304856300354
1763701336418273300,10.643273193359375,0.12220127880573273,-1.0133479833602905,0.029051359742879868
1763701336428294400,10.65329443359375,0.3230246603488922,-0.5351725816726685,-0.7641972899436951
1763701336438315300,10.663315185546875,0.3524230420589447,0.1372646540403366,-1.2977427244186401
1763701336448336400,10.67333642578125,0.23685888946056366,0.47543445229530334,-1.4975823163986206
1763701336458357200,10.683357177734376,-0.024698687717318535,0.5780795812606812,-1.4364269971847534
1763701336468378400,10.69337841796875,-0.27605289220809937,0.8394898772239685,-1.1338533163070679
1763701336478399200,10.703399169921875,-0.3875005841255188,1.1065564155578613,-0.917982816696167
1763701336488420400,10.71342041015625,-0.4301266074180603,0.8635129332542419,-0.8658117651939392
1763701336498441200,10.723441162109374,-0.32248082756996155,0.5722659230232239,-0.7010403871536255
1763701336508462300,10.73346240234375,-0.2090059518814087,0.5024207830429077,-0.5044304132461548
1763701336518483500,10.7434833984375,-0.1219024658203125,0.2390517294406891,-0.38933390378952026
1763701336528505300,10.75350537109375,-0.052020058035850525,-0.41773733496665955,-0.29854434728622437
1763701336538526200,10.763526123046875,-0.018219217658042908,-1.046422004699707,-0.19169539213180542
1763701336548547300,10.77354736328125,-0.015620239078998566,-1.270731806755066,-0.04084650054574013
1763701336558568200,10.783568115234376,-0.09162046760320663,-1.2071595191955566,0.07662899792194366
1763701336568589300,10.79358935546875,-0.14450524747371674,-0.9179348945617676,0.12041642516851425
1763701336578610400,10.8036103515625,-0.1475263386964798,-0.5451698303222656,0.1680297553539276
1763701336588631300,10.81363134765625,-0.14832289516925812,-0.19848112761974335,0.30981510877609253
1763701336598652400,10.82365234375,-0.18209843337535858,0.10136869549751282,0.5372019410133362
1763701336608673300,10.83367333984375,-0.2081982046365738,0.44083571434020996,0.8255362510681152
1763701336618694400,10.8436943359375,-0.1963292956352234,0.8340916633605957,1.1711698770523071
1763701336628715300,10.85371533203125,-0.1267227977514267,1.068476676940918,1.548518419265747
1763701336638736100,10.863736083984374,0.003254915354773402,1.2778613567352295,1.864271640777588
1763701336648757200,10.87375732421875,0.1594138890504837,1.579837441444397,2.134122610092163
1763701336658778400,10.8837783203125,0.2956843674182892,1.8958539962768555,2.4549078941345215
1763701336668800300,10.89380029296875,0.448565810918808,2.0138211250305176,2.856067419052124
1763701336678821400,10.9038212890625,0.6556633114814758,2.04837965965271,3.1561806201934814
1763701336688842200,10.91384228515625,0.8394800424575806,1.97157621383667,3.259275436401367
1763701336698863400,10.92386328125,0.9052888751029968,1.7640397548675537,3.196413993835449
1763701336708884200,10.93388427734375,0.878971517086029,1.3734725713729858,3.0041394233703613
1763701336718905000,10.943905029296875,0.7999837398529053,0.7174316048622131,2.7869153022766113
1763701336728926500,10.953926513671876,0.6695517301559448,0.03700036182999611,2.602177381515503
1763701336738947300,10.963947265625,0.5254659056663513,-0.5316354036331177,2.426701545715332
1763701336748968400,10.973968505859375,0.39419472217559814,-0.8816930055618286,2.299030065536499
1763701336758989300,10.9839892578125,0.21575039625167847,-0.8732179999351501,2.184680223464966
1763701336769010400,10.994010498046874,0.12588629126548767,-0.755236804485321,1.9027185440063477
1763701336779031300,11.00403125,0.11731144785881042,-0.5456247329711914,1.4218087196350098
1763701336789052200,11.01405224609375,0.050329215824604034,-0.18400898575782776,0.8411655426025391
1763701336799074300,11.02407421875,0.03033074177801609,0.1255754977464676,0.2331528216600418
1763701336809095400,11.034095458984375,0.10526863485574722,0.12370782345533371,-0.2595764398574829
1763701336819116300,11.0441162109375,0.19497455656528473,-0.08811334520578384,-0.6390630602836609
1763701336829137400,11.054137451171876,0.23272885382175446,-0.20489588379859924,-0.9478397965431213
1763701336839158300,11.064158203125,0.20111286640167236,-0.1550913155078888,-1.188360571861267
1763701336849179400,11.074179443359375,0.14073394238948822,-0.03211798891425133,-1.4210611581802368
1763701336859200300,11.0842001953125,0.09412889182567596,0.08479691296815872,-1.7040960788726807
1763701336869221000,11.09422119140625,0.040825195610523224,0.20511026680469513,-2.0442051887512207
1763701336879242500,11.104242431640625,-0.04085715115070343,0.2475285679101944,-2.3876235485076904
1763701336889263400,11.114263427734375,-0.1295100599527359,0.2003975510597229,-2.6720147132873535
1763701336899284500,11.124284423828126,-0.23388013243675232,0.11852691322565079,-2.8644094467163086
1763701336909305300,11.134305419921875,-0.38101258873939514,0.03828294202685356,-2.957406997680664
1763701336919326200,11.144326171875,-0.5370320081710815,-0.043227631598711014,-2.953547954559326
1763701336929347300,11.154347412109376,-0.6188352704048157,-0.18850307166576385,-2.890355348587036
1763701336939369500,11.164369384765624,-0.6150405406951904,-0.30195319652557373,-2.8099799156188965
1763701336949390300,11.174390380859375,-0.5377566814422607,-0.3454442024230957,-2.705630302429199
1763701336959411500,11.184411376953125,-0.3845474123954773,-0.3027191162109375,-2.6011805534362793
1763701336969432300,11.194432373046874,-0.18930041790008545,-0.26661038398742676,-2.511964797973633
1763701336979453400,11.204453369140625,-0.02358255721628666,-0.35267016291618347,-2.4327962398529053
1763701336989474300,11.214474365234375,0.09143617004156113,-0.5454803705215454,-2.3627865314483643
1763701336999495200,11.2244951171875,0.23120099306106567,-0.8992613554000854,-2.2574169635772705
1763701337009516300,11.234516357421874,0.36432841420173645,-1.2575398683547974,-2.2000339031219482
1763701337019537200,11.244537109375,0.3556976616382599,-1.4694592952728271,-2.132657766342163
1763701337029558500,11.25455859375,0.2101212739944458,-1.5043957233428955,-1.844545602798462
1763701337039579400,11.264579345703124,0.07546865940093994,-1.3958207368850708,-1.363512396812439
1763701337049600300,11.274600341796875,0.007020358927547932,-1.2675751447677612,-0.8224033117294312
1763701337059621400,11.284621337890625,-0.038722626864910126,-1.0312420129776,-0.38373062014579773
1763701337069642200,11.294642333984376,-0.11642301827669144,-0.8661537170410156,-0.06820089370012283
1763701337079664000,11.3046640625,-0.2693507671356201,-0.9589837789535522,0.14850930869579315
1763701337089685500,11.314685546875,-0.503365695476532,-1.0375843048095703,0.29813075065612793
1763701337099706400,11.324706298828126,-0.6691216230392456,-0.5876296758651733,0.04717603325843811
1763701337109727500,11.3347275390625,-0.5036567449569702,0.1569046676158905,-0.5206519961357117
1763701337119748400,11.344748291015625,-0.04569558426737785,0.8394371867179871,-1.0416864156723022
1763701337129769200,11.354769287109375,0.3190493583679199,1.02833092212677,-1.4669666290283203
1763701337139790300,11.364790283203124,0.6154618263244629,1.2037121057510376,-1.8612114191055298
1763701337149811200,11.374811279296875,1.2240711450576782,1.8980804681777954,-1.590582013130188
1763701337159832300,11.384832275390625,1.5646201372146606,3.0212209224700928,-0.5698165893554688
1763701337169853200,11.394853271484376,1.261433720588684,2.8870327472686768,0.8528041243553162
1763701337179874300,11.404874267578125,0.151153564453125,0.8420414924621582,1.9822256565093994
1763701337189895700,11.414895751953125,-0.7981456518173218,-0.9382071495056152,2.5310842990875244
1763701337199916500,11.42491650390625,-1.1376742124557495,-1.5252360105514526,2.7157862186431885
1763701337209937700,11.434937744140624,-1.2100255489349365,-1.8568224906921387,2.4385340213775635
1763701337219959600,11.44495947265625,-1.0790947675704956,-2.289961099624634,1.8677382469177246
1763701337229980400,11.45498046875,-0.704359233379364,-2.5438454151153564,1.169919490814209
1763701337240001800,11.465001708984374,-0.2065553069114685,-2.4981205463409424,0.4157860279083252
1763701337250022700,11.475022705078125,0.28836867213249207,-1.9380561113357544,-0.3956775665283203
1763701337260043500,11.48504345703125,0.5389242172241211,-1.1359021663665771,-1.0853062868118286
1763701337270064600,11.495064697265626,0.5328993201255798,-0.4282280504703522,-1.4074718952178955
1763701337280085500,11.50508544921875,0.19836288690567017,0.39150145649909973,-1.1899805068969727
1763701337290106600,11.515106689453125,-0.31827783584594727,1.5394983291625977,-0.54574054479599
1763701337300127500,11.52512744140625,-0.5776228308677673,2.402493476867676,-0.1397983729839325
1763701337310148400,11.5351484375,-0.535798966884613,2.497347354888916,-0.1293659806251526
1763701337320169700,11.545169677734375,-0.3374158442020416,2.0234110355377197,-0.13202035427093506
1763701337330190600,11.555190673828125,0.026993799954652786,1.6691449880599976,0.12025370448827744
1763701337340211700,11.565211669921876,0.3374784290790558,1.4262505769729614,0.6531109809875488
1763701337350232600,11.575232666015625,0.36543071269989014,0.9970097541809082,1.020175814628601
1763701337360254500,11.58525439453125,0.20957772433757782,0.6721906661987305,1.0934622287750244
1763701337370275600,11.595275634765626,-0.0011978897964581847,0.7056873440742493,1.0694522857666016
1763701337380296400,11.60529638671875,-0.12486736476421356,1.011220932006836,1.114034652709961
1763701337390317600,11.615317626953125,-0.12677845358848572,1.1988757848739624,1.282220482826233
1763701337400338700,11.625338623046876,-0.014219416305422783,1.282161831855774,1.5820281505584717
1763701337410359600,11.635359619140624,0.11548904329538345,1.392727255821228,1.9777419567108154
1763701337420380700,11.645380615234375,0.31101059913635254,1.3524250984191895,2.428398370742798
1763701337430401500,11.655401611328125,0.5612928867340088,1.164924144744873,2.9903533458709717
1763701337440422700,11.665422607421876,0.8395021557807922,0.8558353185653687,3.494563102722168
1763701337450443500,11.675443603515625,1.094031572341919,0.5389788150787354,3.883993625640869
1763701337460464400,11.68546435546875,1.2614997625350952,0.17487408220767975,3.981865644454956
1763701337470485800,11.69548583984375,1.3222187757492065,-0.31482237577438354,3.595255136489868
1763701337480506600,11.705506591796874,1.1794791221618652,-0.7627729773521423,3.1366703510284424
1763701337490527700,11.71552783203125,0.7867518663406372,-0.9802733659744263,2.979496717453003
1763701337500549600,11.725549560546876,0.3683343529701233,-1.4489045143127441,3.0004429817199707
1763701337510570500,11.735570556640624,0.06368976086378098,-1.5875660181045532,3.138465642929077
1763701337520591600,11.745591552734375,0.03422055393457413,-1.2764848470687866,3.1018736362457275
1763701337530612500,11.755612548828125,0.25709810853004456,-0.9972802996635437,2.414590835571289
1763701337540633600,11.765633544921876,0.3475300073623657,-0.7285526990890503,1.4149353504180908
1763701337550654700,11.77565478515625,0.2591460645198822,-0.2343568354845047,0.5774774551391602
1763701337560675600,11.785675537109375,0.14562217891216278,0.03472815454006195,0.05156412348151207
1763701337570696700,11.79569677734375,0.11858523637056351,0.12007660418748856,-0.21235354244709015
1763701337580717600,11.805717529296874,0.0889114961028099,0.2612062990665436,-0.3636879324913025
1763701337590738400,11.815738525390625,0.09332381933927536,0.5494047999382019,-0.5141421556472778
1763701337600759600,11.825759521484375,0.1454075276851654,0.7715116143226624,-0.71766597032547
1763701337610780400,11.835780517578126,0.19764383137226105,0.8568140268325806,-0.9942717552185059
1763701337620801800,11.8458017578125,0.15513232350349426,0.9198797941207886,-1.3187673091888428
1763701337630822700,11.85582275390625,0.018323080614209175,1.0685750246047974,-1.6364805698394775
1763701337640843500,11.865843505859376,-0.12948289513587952,1.1612130403518677,-1.9080805778503418
1763701337650865700,11.87586572265625,-0.26633769273757935,1.1127941608428955,-2.116213798522949
1763701337660886500,11.885886474609375,-0.39590978622436523,0.9916629195213318,-2.26119327545166
1763701337670907400,11.895907470703126,-0.5624234080314636,0.8090859055519104,-2.3777287006378174
1763701337680928500,11.905928466796874,-0.7796396017074585,0.5250845551490784,-2.482241630554199
1763701337690949600,11.91594970703125,-0.974984347820282,0.10083074122667313,-2.573619842529297
1763701337700970800,11.925970703125,-1.0936310291290283,-0.32609716057777405,-2.611284017562866
1763701337710991600,11.93599169921875,-1.1282482147216797,-0.6704223155975342,-2.5860791206359863
1763701337721012500,11.946012451171875,-1.0314500331878662,-0.9131467938423157,-2.5875508785247803
1763701337731033600,11.95603369140625,-0.8326998949050903,-1.0418813228607178,-2.6339364051818848
1763701337741054500,11.966054443359376,-0.6300098896026611,-1.0832748413085938,-2.7056689262390137
1763701337751075600,11.97607568359375,-0.4668920934200287,-1.0828338861465454,-2.7547309398651123
1763701337761096400,11.986096435546875,-0.31034961342811584,-1.191730260848999,-2.7057461738586426
1763701337771117600,11.99611767578125,-0.14942623674869537,-1.4018349647521973,-2.615745782852173
1763701337781138700,12.006138671875,-0.016172312200069427,-1.56159508228302,-2.4272844791412354
1763701337791160600,12.01616064453125,0.07863515615463257,-1.5446821451187134,-2.1419177055358887
1763701337801181400,12.026181396484375,0.13901621103286743,-1.3396797180175781,-1.9234979152679443
1763701337811202600,12.03620263671875,0.13029569387435913,-1.3363531827926636,-1.7902495861053467
1763701337821223400,12.046223388671875,0.11059095710515976,-1.3079053163528442,-1.7259377241134644
1763701337831244500,12.05624462890625,0.08541583269834518,-0.9965807199478149,-1.6898212432861328
1763701337841265700,12.066265625,0.07396344095468521,-0.5892766118049622,-1.6013782024383545
1763701337851286500,12.07628662109375,0.1365370750427246,-0.2986348867416382,-1.4017982482910156
1763701337861307600,12.0863076171875,0.21966710686683655,-0.1651226431131363,-1.089078664779663
1763701337871328500,12.09632861328125,0.2543252110481262,-0.06734149158000946,-0.756668746471405
1763701337881349600,12.106349609375,0.14447888731956482,0.010922955349087715,-0.4997442960739136
1763701337891370500,12.11637060546875,-0.1382785141468048,-0.286050409078598,-0.08761480450630188
1763701337901391600,12.1263916015625,-0.3928245007991791,-0.20838569104671478,0.4294309914112091
1763701337911412500,12.13641259765625,-0.2751663327217102,0.44251084327697754,0.8243780732154846
1763701337921433600,12.14643359375,-0.05006290227174759,1.0627058744430542,0.7440517544746399
1763701337931454700,12.156454833984375,0.24900555610656738,1.2944302558898926,-0.032656215131282806
1763701337941476600,12.1664765625,0.7450752258300781,0.9896088242530823,-0.6458413004875183
1763701337951497500,12.17649755859375,0.8615336418151855,0.3935134708881378,-0.5416038632392883
1763701337961518600,12.1865185546875,0.22550475597381592,1.062320351600647,-0.15190351009368896
1763701337971539500,12.19653955078125,-0.405155211687088,2.0465543270111084,0.6415363550186157
1763701337981560600,12.206560546875,-0.7178465723991394,0.7508487105369568,1.3105138540267944
1763701337991581700,12.216581787109375,-0.7258658409118652,-0.6618317365646362,1.380483627319336
1763701338001602600,12.2266025390625,-0.5838969945907593,-1.0274001359939575,1.0014960765838623
1763701338011623700,12.236623779296876,-0.31826159358024597,-0.9087041020393372,0.3577301800251007
1763701338021644500,12.24664453125,-0.0762455016374588,-0.7302640676498413,-0.24891474843025208
1763701338031665700,12.256665771484375,0.08611198514699936,-0.5312201976776123,-0.668194055557251
1763701338041686500,12.2666865234375,0.17025135457515717,-0.291701078414917,-0.9562569856643677
1763701338051707400,12.276707275390624,0.08882254362106323,-0.1293606460094452,-1.1772866249084473
1763701338061728500,12.286728515625,-0.053694918751716614,0.025071797892451286,-1.2681752443313599
1763701338071749600,12.29674951171875,-0.18358421325683594,0.07604603469371796,-1.166399359703064
1763701338081770800,12.306770751953126,-0.3532360792160034,0.1841735690832138,-0.9794131517410278
1763701338091792600,12.316792724609375,-0.5359177589416504,0.560377299785614,-0.7804787755012512
1763701338101813500,12.3268134765625,-0.6370041370391846,0.9629066586494446,-0.6228185892105103
1763701338111834600,12.336834716796876,-0.5905998945236206,1.1202677488327026,-0.4753502905368805
1763701338121855500,12.34685546875,-0.4272274971008301,0.9264450073242188,-0.25989416241645813
1763701338131876400,12.35687646484375,-0.28646159172058105,0.5423468947410583,0.025259284302592278
1763701338141897700,12.366897705078125,-0.2384016513824463,0.25584855675697327,0.24926415085792542
1763701338151918600,12.376918701171874,-0.21538688242435455,0.0631994754076004,0.4014952480792999
1763701338161939700,12.386939697265625,-0.2424757480621338,-0.06717823445796967,0.44807684421539307
1763701338171960600,12.396960693359375,-0.3421647846698761,-0.09164230525493622,0.39344850182533264
1763701338181981400,12.4069814453125,-0.4143178164958954,0.08373351395130157,0.3317593038082123
1763701338192002600,12.41700244140625,-0.4412924349308014,0.36029213666915894,0.33066099882125854
1763701338202023400,12.4270234375,-0.43138813972473145,0.5143786668777466,0.36446452140808105
1763701338212044500,12.43704443359375,-0.3922881484031677,0.5386309623718262,0.3957606554031372
1763701338222065700,12.447065673828124,-0.32222092151641846,0.553350031375885,0.43984049558639526
1763701338232086800,12.457086669921875,-0.24947001039981842,0.6387898325920105,0.46675944328308105
1763701338242108700,12.467108642578125,-0.2025078386068344,0.7352551221847534,0.4702788293361664
1763701338252129500,12.477129638671874,-0.19849339127540588,0.7536695003509521,0.47474732995033264
1763701338262150400,12.487150390625,-0.20931567251682281,0.6476253867149353,0.48978593945503235
1763701338272171500,12.497171630859375,-0.2077220380306244,0.5006979703903198,0.528248131275177
