time,seconds_elapsed,z,y,x
1763694517063555800,0.188555908203125,6.694220542907715,4.5939202308654785,-1.4198411703109741
1763694517092318700,0.217318603515625,6.990930557250977,5.2737812995910645,-0.4286143481731415
1763694517101906400,0.226906494140625,6.9358954429626465,5.098805904388428,-0.7277171611785889
1763694517111493000,0.2364931640625,7.4506516456604,4.627419948577881,-1.3863415718078613
1763694517121080800,0.246080810546875,7.826623916625977,4.040879249572754,-1.714158296585083
1763694517130669300,0.25566943359375,7.9127655029296875,3.7510485649108887,-0.9696913957595825
1763694517140257000,0.265257080078125,7.65164852142334,3.794119358062744,-0.4094717800617218
1763694517149843700,0.27484375,7.567899703979492,4.004687786102295,-0.39990049600601196
1763694517159431400,0.284431396484375,7.728219032287598,4.430909156799316,-0.7851449251174927
1763694517169020000,0.29402001953125,7.733004570007324,4.5577287673950195,-1.592124342918396
1763694517178607400,0.303607421875,7.697112083435059,4.409373760223389,-2.5618157386779785
1763694517188194300,0.3131943359375,7.666005611419678,4.220340728759766,-3.418745279312134
1763694517197782000,0.322781982421875,7.704290866851807,4.3758745193481445,-3.5024940967559814
1763694517207370500,0.33237060546875,7.867301940917969,4.402195453643799,-3.483351469039917
1763694517216958000,0.3419580078125,8.420342445373535,4.256233215332031,-3.303889751434326
1763694517226546000,0.3515458984375,8.870193481445312,4.2586259841918945,-3.153141975402832
1763694517236132600,0.361132568359375,8.980562210083008,4.165306091308594,-2.968595504760742
1763694517245721000,0.37072119140625,9.207880973815918,4.17009162902832,-3.050250768661499
1763694517255308800,0.380308837890625,9.119346618652344,3.9376888275146484,-3.0236306190490723
1763694517264895500,0.3898955078125,8.99970531463623,3.7510485649108887,-2.896811008453369
1763694517274483200,0.399483154296875,8.949456214904785,3.791726589202881,-2.8752756118774414
1763694517284071700,0.40907177734375,8.714659690856934,3.870689630508423,-2.834597587585449
1763694517293659400,0.418659423828125,8.403593063354492,4.048057556152344,-2.8441689014434814
1763694517303246000,0.42824609375,8.48016357421875,4.1389851570129395,-2.8776683807373047
1763694517312833800,0.437833740234375,8.90638542175293,4.158127784729004,-2.911167860031128
1763694517322422300,0.44742236328125,9.404091835021973,4.098307132720947,-3.3302109241485596
1763694517332010000,0.457010009765625,9.825528144836426,3.8276188373565674,-3.811467409133911
1763694517341596700,0.4665966796875,10.144072532653809,3.4758739471435547,-3.9574296474456787
1763694517351184400,0.476184326171875,10.5723876953125,3.276970624923706,-3.801896095275879
1763694517360772900,0.48577294921875,10.893324851989746,3.466003656387329,-3.538386583328247
1763694517370360300,0.4953603515625,10.773683547973633,3.7342989444732666,-3.277568817138672
1763694517379947300,0.504947265625,10.54845905303955,3.763012647628784,-3.153141975402832
1763694517389535000,0.514534912109375,10.852646827697754,3.681656837463379,-3.145963668823242
1763694517399123500,0.52412353515625,10.507781982421875,3.533301830291748,-3.19860577583313
1763694517408711000,0.5337109375,10.46231746673584,3.564408540725708,-3.1100711822509766
1763694517418297900,0.5432978515625,11.652149200439453,4.048057556152344,-3.208176851272583
1763694517427885600,0.552885498046875,3.78753924369812,4.792524814605713,-5.077868938446045
1763694517437474000,0.56247412109375,11.214262008666992,4.0528435707092285,-4.268795490264893
1763694517447061500,0.5720615234375,8.788837432861328,3.61226487159729,-5.413163185119629
1763694517456648400,0.5816484375,7.8433732986450195,4.440480709075928,-4.400400638580322
1763694517466236200,0.591236083984375,8.477770805358887,3.870689630508423,-3.8210387229919434
1763694517475824600,0.60082470703125,8.207082748413086,3.3200414180755615,-3.153141975402832
1763694517485412000,0.610412109375,8.666803359985352,3.2889347076416016,-3.0164520740509033
1763694517494999000,0.6199990234375,8.394021987915039,3.1956145763397217,-3.0789644718170166
1763694517504586800,0.629586669921875,9.069096565246582,2.8579275608062744,-3.349353551864624
1763694517514175200,0.63917529296875,10.287641525268555,2.7406792640686035,-2.9853453636169434
1763694517523762700,0.6487626953125,11.149656295776367,2.7717859745025635,-2.4466612339019775
1763694517533349600,0.658349609375,10.744970321655273,2.5923242568969727,-1.7859430313110352
1763694517542937300,0.667937255859375,10.77129077911377,2.384148597717285,-1.9127626419067383
1763694517552525600,0.677525634765625,10.761719703674316,2.4104697704315186,-2.104487419128418
1763694517562113300,0.68711328125,11.455937385559082,2.508575439453125,-1.8888343572616577
1763694517571700200,0.6967001953125,10.900503158569336,2.501396894454956,-1.4198411703109741
1763694517581288000,0.706287841796875,8.551948547363281,2.7263224124908447,-1.3525429964065552
1763694517590876200,0.715876220703125,9.3490571975708,2.546860694885254,-1.407876968383789
1763694517600464000,0.7254638671875,10.505388259887695,2.90099835395813,-1.1419745683670044
1763694517610050800,0.73505078125,10.428818702697754,2.642573595046997,-1.5658032894134521
1763694517619638500,0.744638427734375,9.851848602294922,2.7717859745025635,-2.173879384994507
1763694517629226800,0.754226806640625,9.772886276245117,3.0759735107421875,-2.3844478130340576
1763694517638814500,0.763814453125,9.483354568481445,3.0855448246002197,-2.056631088256836
1763694517648401400,0.7734013671875,8.429914474487305,3.111865758895874,-2.403590440750122
1763694517657989000,0.782989013671875,8.851051330566406,2.903391122817993,-3.0861430168151855
1763694517667577300,0.792577392578125,9.777671813964844,2.6449663639068604,-2.7436702251434326
1763694517677165000,0.8021650390625,9.892526626586914,2.4343979358673096,-1.9202401638031006
1763694517686752000,0.811751953125,9.856635093688965,2.824428081512451,-1.5394822359085083
1763694517696339700,0.821339599609375,10.220643043518066,2.405683994293213,-1.446162223815918
1763694517705928000,0.830927978515625,10.01456069946289,2.3793630599975586,-1.3142578601837158
1763694517715515600,0.840515625,9.669994354248047,2.111067771911621,-1.319043517112732
1763694517725102300,0.850102294921875,9.38734245300293,2.197209358215332,-1.3671990633010864
1763694517734690000,0.85968994140625,8.915956497192383,2.022533416748047,-0.9840483069419861
1763694517744278500,0.869278564453125,8.886942863464355,2.053640127182007,-0.3089732229709625
1763694517753866200,0.8788662109375,8.259724617004395,2.1852452754974365,-0.25633111596107483
1763694517763453000,0.888452880859375,7.793124198913574,1.7904295921325684,-0.8237292170524597
1763694517773040600,0.89804052734375,8.429914474487305,2.204387903213501,-1.1611171960830688
1763694517782629000,0.907629150390625,9.406484603881836,2.80049991607666,-0.890728235244751
1763694517792216800,0.917216796875,10.19192886352539,2.618645191192627,-1.410269856452942
1763694517801803500,0.926803466796875,9.801599502563477,2.597109794616699,-1.9920248985290527
1763694517811391200,0.93639111328125,9.947562217712402,2.5851457118988037,-3.538386583328247
1763694517820979700,0.945979736328125,9.459425926208496,2.2785654067993164,-4.055535316467285
1763694517830567400,0.9555673828125,9.444769859313965,2.453540563583374,-3.990929126739502
1763694517840154000,0.965154052734375,9.567103385925293,2.446362018585205,-3.3134610652923584
1763694517849741800,0.974741943359375,9.868598937988281,2.242672920227051,-2.475374937057495
1763694517859330300,0.984330322265625,10.07468032836914,2.0967109203338623,-1.6758731603622437
1763694517868917800,0.993917724609375,9.715457916259766,1.922034740447998,-0.9744769930839539
1763694517878504700,1.003504638671875,9.1624174118042,1.6680965423583984,-0.43579283356666565
1763694517888092400,1.013092529296875,9.581459999084473,1.6776677370071411,-0.062213387340307236
1763694517897681000,1.022680908203125,9.5264253616333,1.7638094425201416,-0.07896314561367035
1763694517907268400,1.032268310546875,9.265308380126953,1.866999864578247,-0.3640081584453583
1763694517916855300,1.041855224609375,9.217452049255371,1.8741782903671265,-0.8955138921737671
1763694517926443000,1.051443115234375,9.157630920410156,1.953141450881958,-1.470090389251709
1763694517936031500,1.061031494140625,9.155238151550293,2.0201404094696045,-1.7428722381591797
1763694517945619000,1.070618896484375,9.12413215637207,1.9459630250930786,-2.5546371936798096
1763694517955206000,1.080205810546875,9.65803050994873,2.0105693340301514,-3.030808925628662
1763694517964793600,1.089793701171875,10.108180046081543,1.7805591821670532,-2.9781668186187744
1763694517974382000,1.099382080078125,9.698708534240723,2.032104730606079,-3.129213809967041
1763694517983969500,1.108969482421875,9.090632438659668,2.0991036891937256,-3.739682674407959
1763694517993556500,1.118556396484375,9.55753231048584,2.5683960914611816,-2.604886531829834
1763694518003144200,1.128144287109375,9.605388641357422,2.5683960914611816,-2.1403799057006836
1763694518012732700,1.137732666015625,9.521639823913574,2.5444676876068115,-1.92741858959198
1763694518022320000,1.147320068359375,9.940383911132812,2.3482563495635986,-2.087737798690796
1763694518031907000,1.156906982421875,10.261321067810059,2.2235305309295654,-1.9776679277420044
1763694518041494500,1.16649462890625,10.682756423950195,2.1756739616394043,-1.55623197555542
1763694518051083300,1.176083251953125,10.261321067810059,1.7542381286621094,-2.698206663131714
1763694518060670700,1.185670654296875,10.666007041931152,2.0440688133239746,-3.153141975402832
1763694518070257700,1.195257568359375,10.560423851013184,2.1613171100616455,-2.30069899559021
1763694518079845000,1.20484521484375,10.622936248779297,2.2618155479431152,-1.678265929222107
1763694518089433600,1.21443359375,10.20628547668457,2.015354871749878,-2.1379871368408203
1763694518099021300,1.224021240234375,9.514460563659668,2.15653133392334,-2.8992037773132324
1763694518108608300,1.233608154296875,8.925527572631836,2.422433853149414,-3.5814573764801025
1763694518118196000,1.243196044921875,8.566305160522461,2.666501760482788,-3.5431721210479736
1763694518127784200,1.2527841796875,8.417949676513672,2.719143867492676,-3.497708559036255
1763694518137372000,1.262371826171875,8.516056060791016,2.721536636352539,-3.911965847015381
1763694518146958600,1.27195849609375,9.073882102966309,2.944368362426758,-3.7253258228302
1763694518156546300,1.28154638671875,9.5862455368042,3.0041887760162354,-3.301496982574463
1763694518166134800,1.291134765625,9.746564865112305,2.886641502380371,-3.466601848602295
1763694518175722500,1.300722412109375,9.602995872497559,2.92283296585083,-3.531208038330078
1763694518185309200,1.31030908203125,9.243772506713867,2.8100709915161133,-3.835395574569702
1763694518194897000,1.31989697265625,9.021240234375,2.7574288845062256,-4.237689018249512
1763694518204485400,1.3294853515625,8.877371788024902,2.90099835395813,-4.486542224884033
1763694518214073000,1.339072998046875,8.872586250305176,3.2315070629119873,-4.718646049499512
1763694518223659800,1.34865966796875,8.226224899291992,3.1381869316101074,-5.482554912567139
1763694518233247500,1.35824755859375,6.416353702545166,2.877070188522339,-5.935097694396973
1763694518242836000,1.3678359375,7.218547821044922,3.291327476501465,-6.270092487335205
1763694518252423700,1.377423583984375,6.909574508666992,3.9711883068084717,-6.286842346191406
1763694518262010400,1.38701025390625,4.922335147857666,4.675276279449463,-6.186343669891357
1763694518271598000,1.39659814453125,6.0762739181518555,3.894618034362793,-6.758527755737305
1763694518281186600,1.4061865234375,5.884848117828369,3.468695640563965,-6.725028038024902
1763694518290774300,1.415774169921875,5.944668769836426,3.7869410514831543,-6.401698112487793
1763694518300361000,1.42536083984375,6.172286033630371,4.0456647872924805,-5.899205207824707
1763694518309948700,1.43494873046875,6.547959327697754,4.002295017242432,-5.30548620223999
1763694518319537200,1.444537109375,7.191927433013916,4.112663745880127,-4.991727352142334
1763694518329124900,1.454124755859375,7.191927433013916,3.8443686962127686,-5.013262748718262
1763694518338711600,1.463711669921875,7.5463643074035645,3.291327476501465,-4.931906700134277
1763694518348299300,1.47329931640625,7.778767108917236,3.554837226867676,-4.805087089538574
1763694518357887700,1.4828876953125,7.417151927947998,3.8922250270843506,-4.716253280639648
1763694518367475200,1.49247509765625,7.079464912414551,3.468695640563965,-4.960620403289795
1763694518377062100,1.502062255859375,6.718148708343506,2.18045973777771,-5.482554912567139
1763694518386649900,1.51164990234375,6.4426751136779785,1.3809577226638794,-5.9662041664123535
1763694518396238300,1.52123828125,6.782754898071289,1.5125629901885986,-6.004489421844482
1763694518405825800,1.53082568359375,7.105785846710205,2.5612175464630127,-6.315556049346924
1763694518415412700,1.540412841796875,7.383652687072754,3.401397466659546,-6.607779502868652
1763694518425000400,1.55000048828125,7.362117290496826,3.5045878887176514,-6.813562393188477
1763694518434589000,1.5595888671875,7.536793231964111,3.6003007888793945,-6.744170665740967
1763694518444176400,1.56917626953125,8.175975799560547,3.877868175506592,-6.231807708740234
1763694518453763300,1.578763427734375,8.659625053405762,3.849154233932495,-6.763313293457031
1763694518463351000,1.58835107421875,8.240582466125488,4.406980991363525,-4.5822553634643555
1763694518472939500,1.597939453125,8.28126049041748,4.165306091308594,-5.463412284851074
1763694518482527000,1.60752685546875,7.587042331695557,3.9759738445281982,-5.322235584259033
1763694518492114000,1.617114013671875,7.264011383056641,3.363112211227417,-5.712265968322754
1763694518501701600,1.62670166015625,6.840182781219482,3.0424740314483643,-5.425127029418945
1763694518511290000,1.6362900390625,6.679863452911377,3.0305099487304688,-6.334698677062988
1763694518520877600,1.645877685546875,6.500102519989014,3.2865419387817383,-7.0292158126831055
1763694518530464500,1.655464599609375,6.054738521575928,3.8850467205047607,-7.321139812469482
1763694518540052200,1.66505224609375,5.571388244628906,4.373481750488281,-7.627720355987549
1763694518549640700,1.674640625,4.936692237854004,3.9520456790924072,-7.189534664154053
1763694518559228200,1.684228271484375,4.182653903961182,3.363112211227417,-7.105785846710205
1763694518568815000,1.693815185546875,4.266402721405029,2.659323215484619,-5.9662041664123535
1763694518578402800,1.70340283203125,4.278367042541504,2.3120648860931396,-6.112166404724121
1763694518587991000,1.712990966796875,3.6798620223999023,1.8167506456375122,-7.127321243286133
1763694518597578800,1.722578857421875,3.3352956771850586,1.4192429780960083,-8.467900276184082
1763694518607165700,1.732165771484375,3.263211965560913,1.4814562797546387,-9.784850120544434
1763694518616753400,1.74175341796875,3.902693748474121,1.8909281492233276,-11.075180053710938
1763694518626341600,1.751341552734375,4.455734729766846,1.3163515329360962,-10.761421203613281
1763694518635929300,1.760929443359375,4.752444744110107,0.09511470049619675,-8.846264839172363
1763694518645516000,1.77051611328125,5.075775146484375,0.35862427949905396,-7.402495861053467
1763694518655103700,1.780103759765625,4.240081787109375,1.7856439352035522,-7.110571384429932
1763694518664692200,1.789692138671875,3.8763725757598877,2.728715181350708,-7.57507848739624
1763694518674280000,1.799280029296875,3.869194269180298,3.0185458660125732,-8.384151458740234
1763694518683866600,1.80886669921875,3.8572301864624023,2.7239294052124023,-9.301200866699219
1763694518693454300,1.818454345703125,3.900300979614258,2.1708884239196777,-10.244272232055664
1763694518703042800,1.828042724609375,3.864408493041992,1.7470595836639404,-10.854741096496582
1763694518712630500,1.837630615234375,3.6822550296783447,1.3522439002990723,-10.502995491027832
1763694518722217200,1.84721728515625,4.022335052490234,1.337886929512024,-9.540482521057129
1763694518731805000,1.856804931640625,4.146761417388916,1.953141450881958,-8.580363273620605
1763694518741393400,1.866393310546875,3.605684518814087,2.625823736190796,-8.084749221801758
1763694518750981000,1.875981201171875,3.285046339035034,2.9730820655822754,-7.64447021484375
1763694518760567800,1.88556787109375,2.8971099853515625,3.300898790359497,-7.742575645446777
1763694518770155500,1.895155517578125,2.846860647201538,3.2099716663360596,-8.367402076721191
1763694518779744000,1.904743896484375,3.1148569583892822,2.7789642810821533,-9.265308380126953
1763694518789331500,1.91433154296875,3.1100711822509766,2.290529489517212,-9.90688419342041
1763694518798918400,1.92391845703125,2.837289333343506,1.9794625043869019,-10.205986976623535
1763694518808506000,1.933506103515625,2.6312077045440674,1.8837496042251587,-10.213165283203125
1763694518818094600,1.943094482421875,2.4110679626464844,1.8550357818603516,-9.882955551147461
1763694518827682000,1.95268212890625,2.336890459060669,1.8406788110733032,-9.46630573272705
1763694518837269000,1.96226904296875,2.336890459060669,1.8598214387893677,-9.174081802368164
1763694518846856700,1.971856689453125,2.1933209896087646,1.843071699142456,-8.958727836608887
1763694518856445200,1.981445068359375,1.9728822708129883,1.9244276285171509,-8.915657043457031
1763694518866032600,1.99103271484375,1.810170292854309,1.9818553924560547,-8.970691680908203
1763694518875619600,2.00061962890625,1.7838492393493652,1.9866410493850708,-9.05444049835205
1763694518885207300,2.010207275390625,1.9250258207321167,1.9028922319412231,-9.215059280395508
1763694518894795800,2.019795654296875,2.0709879398345947,1.8143577575683594,-9.554840087890625
1763694518904383200,2.02938330078125,2.0853450298309326,1.8095721006393433,-9.885348320007324
1763694518913970200,2.03897021484375,2.1068804264068604,1.7856439352035522,-10.0073823928833
1763694518923558000,2.048557861328125,2.2076780796051025,1.7470595836639404,-9.897313117980957
1763694518933146400,2.058146484375,2.2842483520507812,1.8263218402862549,-9.648159980773926
1763694518942733800,2.06773388671875,2.370389938354492,1.8406788110733032,-9.411270141601562
1763694518952320800,2.07732080078125,2.4134607315063477,1.7303098440170288,-9.313164710998535
1763694518961908500,2.086908447265625,2.3249263763427734,1.5723835229873657,-9.114261627197266
1763694518971497000,2.0964970703125,2.1693928241729736,1.5149558782577515,-8.908478736877441
1763694518981084400,2.10608447265625,2.056631088256836,1.4982060194015503,-8.906085968017578
1763694518990671400,2.11567138671875,1.9250258207321167,1.4503495693206787,-9.018548965454102
1763694519000259000,2.125259033203125,1.8556339740753174,1.3689936399459839,-9.253344535827637
1763694519009847300,2.134847412109375,1.932204246520996,1.2780663967132568,-9.423234939575195
1763694519019435000,2.14443505859375,2.087737798690796,1.282852053642273,-9.562018394470215
1763694519029022000,2.15402197265625,2.3177478313446045,1.4240286350250244,-9.652945518493652
1763694519038609700,2.163609619140625,2.6264219284057617,1.550848126411438,-9.588339805603027
1763694519048198000,2.173197998046875,2.854039192199707,1.6393826007843018,-9.4088773727417
1763694519057785600,2.18278564453125,2.909074068069458,1.7063816785812378,-9.224630355834961
1763694519067372500,2.19237255859375,2.8803603649139404,1.8550357818603516,-9.001798629760742
1763694519076960300,2.201960205078125,2.892324447631836,1.898106575012207,-8.779266357421875
1763694519086548500,2.211548583984375,2.885145902633667,1.8957136869430542,-8.779266357421875
1763694519096136200,2.22113623046875,3.0693931579589844,1.8574285507202148,-8.922835350036621
1763694519105723100,2.23072314453125,3.2440693378448486,1.8693926334381104,-8.980263710021973
1763694519115310800,2.240310791015625,3.330509901046753,1.9722840785980225,-8.951549530029297
1763694519124899000,2.249899169921875,3.3520455360412598,2.0512471199035645,-8.896514892578125
1763694519134486800,2.25948681640625,3.3209388256073,2.008176326751709,-8.865407943725586
1763694519144073700,2.26907373046875,3.292224884033203,1.8957136869430542,-8.879764556884766
1763694519153661400,2.278661376953125,3.1962127685546875,1.775773525238037,-8.879764556884766
1763694519163249700,2.288249755859375,3.088535785675049,1.6393826007843018,-8.918049812316895
1763694519172837400,2.29783740234375,3.0454649925231934,1.495813250541687,-8.965906143188477
1763694519182424000,2.307424072265625,3.067000389099121,1.4001003503799438,-8.997013092041016
1763694519192011800,2.31701171875,3.1004998683929443,1.43599271774292,-8.982656478881836
1763694519201600300,2.326600341796875,3.177070379257202,1.4742778539657593,-8.963513374328613
1763694519211188000,2.33618798828125,3.409473180770874,1.3091731071472168,-8.941978454589844
1763694519220774700,2.345774658203125,3.4980075359344482,1.1150553226470947,-8.925228118896484
1763694519230362400,2.3553623046875,3.3209388256073,1.1030912399291992,-8.927620887756348
1763694519239950800,2.364950927734375,3.0957143306732178,1.2326027154922485,-8.949156761169434
1763694519249538600,2.37453857421875,2.8277182579040527,1.3235300779342651,-8.992227554321289
1763694519259125200,2.384125244140625,2.7774689197540283,1.155733346939087,-9.020941734313965
1763694519268713000,2.393712890625,3.0957143306732178,0.7417750358581543,-9.310771942138672
1763694519278301400,2.403301513671875,3.502793312072754,0.3897309899330139,-9.712766647338867
1763694519287889000,2.412888916015625,3.677469253540039,0.25334009528160095,-10.000204086303711
1763694519297475800,2.422475830078125,3.73250412940979,0.1983051747083664,-10.062417030334473
1763694519307063600,2.4320634765625,3.8066816329956055,0.1456630825996399,-9.942776679992676
1763694519316652000,2.441652099609375,3.675076484680176,0.25334009528160095,-9.758230209350586
1763694519326239500,2.451239501953125,3.4932219982147217,0.3729812204837799,-9.46630573272705
1763694519335826400,2.460826416015625,3.371187925338745,0.43519461154937744,-9.20279598236084
1763694519345414100,2.4704140625,3.3329029083251953,0.4447658956050873,-9.066405296325684
1763694519355002600,2.480002685546875,3.3113675117492676,0.4447658956050873,-8.987442016601562
1763694519364590000,2.489590087890625,3.3185458183288574,0.4328017830848694,-8.96829891204834
1763694519374177000,2.499177001953125,3.306581735610962,0.40408793091773987,-9.006584167480469
1763694519383764700,2.5087646484375,3.3041889667510986,0.41126638650894165,-9.224630355834961
1763694519393353200,2.518353271484375,3.3879377841949463,0.3729812204837799,-9.384949684143066
1763694519402940700,2.527940673828125,3.4525439739227295,0.29401808977127075,-9.514162063598633
1763694519412527600,2.537527587890625,3.5458641052246094,0.21744775772094727,-9.712766647338867
1763694519422115300,2.547115234375,3.7301113605499268,0.20548364520072937,-9.904491424560547
1763694519431703800,2.556703857421875,3.895515203475952,0.2748754918575287,-10.02173900604248
1763694519441291300,2.566291259765625,4.046263217926025,0.34666016697883606,-10.083952903747559
1763694519450878200,2.575878173828125,4.110869407653809,0.3969094455242157,-10.043274879455566
1763694519460466000,2.5854658203125,4.180261135101318,0.4088735580444336,-9.995418548583984
1763694519470054400,2.595054443359375,4.240081787109375,0.392123818397522,-9.952347755432129
1763694519479641900,2.604641845703125,4.223331928253174,0.39930227398872375,-10.019346237182617
1763694519489228800,2.614228759765625,4.321437835693359,0.3275175988674164,-10.048060417175293
1763694519498816500,2.62381640625,4.427021026611328,0.20548364520072937,-10.112667083740234
1763694519508404700,2.63340478515625,4.625625133514404,0.008973085321485996,-10.292128562927246
1763694519517992400,2.642992431640625,4.639982223510742,-0.19202402234077454,-10.46471118927002
1763694519527579400,2.652579345703125,4.47487735748291,-0.27816563844680786,-10.46231746673584
1763694519537167000,2.6621669921875,4.402793884277344,-0.3236292600631714,-10.383355140686035
1763694519546755600,2.671755615234375,4.393222332000732,-0.4504488706588745,-10.34746265411377
1763694519556343000,2.681343017578125,4.465306282043457,-0.6014958024024963,-10.311270713806152
1763694519565930000,2.690929931640625,4.505984306335449,-0.7666005492210388,-10.251450538635254
1763694519575517700,2.700517578125,4.503591537475586,-0.8455637097358704,-10.172487258911133
1763694519585106200,2.710106201171875,4.575376033782959,-0.9053842425346375,-10.040882110595703
1763694519594693600,2.719693603515625,4.678267478942871,-0.9484550952911377,-9.971489906311035
1763694519604280600,2.729280517578125,4.7141594886779785,-0.92691969871521,-9.844670295715332
1763694519613868300,2.738868408203125,4.706981182098389,-0.8670991063117981,-9.645767211914062
1763694519623456500,2.74845654296875,4.702195644378662,-0.831206738948822,-9.413662910461426
1763694519633044200,2.758044189453125,4.584947109222412,-0.7833502888679504,-9.154939651489258
1763694519642631200,2.767631103515625,4.498805522918701,-0.7666005492210388,-8.863015174865723
1763694519652219000,2.777218994140625,4.362115859985352,-0.7666005492210388,-8.621041297912598
1763694519661807000,2.78680712890625,4.235296249389648,-0.7450651526451111,-8.448758125305176
1763694519671394800,2.796394775390625,4.1970109939575195,-0.7546364665031433,-8.376973152160645
1763694519680981500,2.8059814453125,4.216153621673584,-0.7259225845336914,-8.28126049041748
1763694519690569200,2.8155693359375,4.244867324829102,-0.6397809386253357,-8.130512237548828
1763694519700157700,2.82515771484375,4.204189300537109,-0.5488536953926086,-7.965108394622803
1763694519709745400,2.834745361328125,4.1730828285217285,-0.5249254703521729,-7.867002487182617
1763694519719332000,2.84433203125,4.182653903961182,-0.6110670566558838,-7.843074321746826
1763694519728919800,2.853919921875,4.151547431945801,-0.6876373887062073,-7.910073280334473
1763694519738508300,2.86350830078125,4.022335052490234,-0.6924230456352234,-8.060821533203125
1763694519748096000,2.873095947265625,3.9218363761901855,-0.6445665955543518,-8.262117385864258
1763694519757682700,2.8826826171875,3.9146578311920166,-0.5751747488975525,-8.484649658203125
1763694519767270400,2.8922705078125,3.9696927070617676,-0.5057829022407532,-8.681160926818848
1763694519776859000,2.90185888671875,3.996013879776001,-0.4145565330982208,-8.719446182250977
1763694519786446600,2.911446533203125,3.9768712520599365,-0.3116651475429535,-8.549256324768066
1763694519796033300,2.921033203125,4.01037073135376,-0.2111666053533554,-8.350651741027832
1763694519805621000,2.93062109375,3.9601213932037354,-0.06520441919565201,-8.207082748413086
1763694519815209500,2.94020947265625,3.8524444103240967,0.07836493849754333,-8.140083312988281
1763694519824797200,2.949797119140625,3.81864595413208,0.2437688112258911,-8.180761337280273
1763694519834384000,2.9593837890625,3.82582426071167,0.4064807593822479,-8.247760772705078
1763694519843971600,2.9689716796875,3.749253988265991,0.5021936297416687,-8.30997371673584
1763694519853560000,2.97856005859375,3.7516467571258545,0.547657310962677,-8.300402641296387
1763694519863147800,2.988147705078125,3.7444684505462646,0.6529414653778076,-8.293224334716797
1763694519872734500,2.997734375,3.7133617401123047,0.7728816866874695,-8.228617668151855
1763694519882322200,3.007322265625,3.6870405673980713,0.9284151792526245,-8.269295692443848
1763694519891910700,3.01691064453125,3.801896095275879,1.0049854516983032,-8.410472869873047
1763694519901498400,3.026498291015625,3.94815731048584,0.9834501147270203,-8.585148811340332
1763694519911085000,3.0360849609375,4.101297855377197,0.8638089895248413,-8.855836868286133
1763694519920672800,3.0456728515625,4.235296249389648,0.7178468108177185,-9.138189315795898
1763694519930261200,3.05526123046875,4.302295207977295,0.6505486369132996,-9.365806579589844
1763694519939848700,3.0648486328125,4.299902439117432,0.7082754969596863,-9.588339805603027
1763694519949435600,3.074435546875,4.357329845428467,0.7992027401924133,-9.767801284790039
1763694519959023400,3.0840234375,4.510769844055176,0.8255237936973572,-9.918848037719727
1763694519968611800,3.09361181640625,4.639982223510742,0.8279166221618652,-10.043274879455566
1763694519978199300,3.10319921875,4.589733123779297,0.8614161610603333,-10.091131210327148
1763694519987786200,3.1127861328125,4.563411712646484,0.8662018179893494,-10.01456069946289
1763694519997374000,3.1223740234375,4.517948150634766,0.763310432434082,-9.930811882019043
1763694520006962400,3.13196240234375,4.369294166564941,0.6122635006904602,-9.8207426071167
1763694520016550000,3.1415498046875,4.182653903961182,0.5667998790740967,-9.688838005065918
1763694520026136800,3.15113671875,4.012763500213623,0.5931209325790405,-9.502198219299316
1763694520035724500,3.160724609375,3.9194436073303223,0.5883352756500244,-9.337093353271484
1763694520045313000,3.17031298828125,3.8739798069000244,0.5404788255691528,-9.2557373046875
1763694520054900500,3.179900390625,3.9385859966278076,0.42323049902915955,-9.298808097839355
1763694520064487400,3.1894873046875,4.091726779937744,0.29401808977127075,-9.289237022399902
1763694520074075100,3.1990751953125,4.146761417388916,0.2270190417766571,-9.145368576049805
1763694520083663600,3.20866357421875,4.046263217926025,0.2629113793373108,-8.944371223449707
1763694520093251000,3.2182509765625,3.933800458908081,0.3323032557964325,-8.664410591125488
1763694520102838000,3.227838134765625,3.862015724182129,0.3801597058773041,-8.355437278747559
1763694520112425700,3.23742578125,3.8524444103240967,0.3729812204837799,-8.125726699829102
1763694520122014000,3.247013916015625,3.8907296657562256,0.3251247704029083,-7.938787460327148
1763694520131601700,3.2566015625,3.955335855484009,0.26530420780181885,-7.795217990875244
1763694520141188600,3.266188720703125,4.058227062225342,0.2102692872285843,-7.797610759735107
1763694520150776300,3.2757763671875,4.137190341949463,0.19591236114501953,-7.89332389831543
1763694520160364500,3.285364501953125,4.206582069396973,0.23180469870567322,-7.941180229187012
1763694520169952300,3.2949521484375,4.340580463409424,0.23180469870567322,-7.936394691467285
1763694520179539200,3.304539306640625,4.458127498626709,0.16002000868320465,-7.89332389831543
1763694520189127000,3.314126953125,4.647160530090332,0.006580262444913387,-7.816753387451172
1763694520198715100,3.323715087890625,4.750051975250244,-0.13459627330303192,-7.685148239135742
1763694520208302800,3.333302734375,4.852943420410156,-0.20159530639648438,-7.723433494567871
1763694520217889800,3.342889892578125,5.116453170776367,-0.08673982322216034,-7.972286701202393
1763694520227477500,3.3524775390625,5.286343574523926,-0.022133609279990196,-7.764111042022705
1763694520237065700,3.362065673828125,5.655137062072754,0.008973085321485996,-7.455138206481934
1763694520246653400,3.3716533203125,5.892026424407959,0.0975075215101242,-7.196712970733643
1763694520256240400,3.381240478515625,6.102894306182861,0.11934202909469604,-6.93320369720459
1763694520265828000,3.390828125,6.27996301651001,0.09990034252405167,-6.844669342041016
1763694520275416300,3.400416259765625,6.401997089385986,0.13609178364276886,-6.873383045196533
1763694520285004000,3.410004150390625,6.588637351989746,-0.10348957777023315,-6.998108863830566
1763694520294590700,3.4195908203125,6.746862411499023,-0.4145565330982208,-7.443173885345459
1763694520304178400,3.429178466796875,6.617351055145264,-0.4651049077510834,-7.874181270599365
1763694520313767000,3.438766845703125,6.385247230529785,-0.268594354391098,-8.02492904663086
1763694520323354600,3.448354736328125,6.2871413230896,-0.09870393574237823,-7.965108394622803
1763694520332941300,3.45794140625,6.263213157653809,-0.048454657196998596,-7.70668363571167
1763694520342529000,3.467529052734375,6.256034851074219,-0.16091732680797577,-7.33549690246582
1763694520352117500,3.477117431640625,6.215356826782227,-0.22073788940906525,-7.005287170410156
1763694520361705200,3.486705322265625,6.2105712890625,-0.1824527233839035,-6.768098831176758
1763694520371292000,3.4962919921875,6.124429702758789,-0.20398813486099243,-6.612565517425537
1763694520380879600,3.505879638671875,6.1124653816223145,-0.36191442608833313,-6.562315940856934
1763694520390468000,3.515468017578125,6.330212116241455,-0.8120641708374023,-6.713063716888428
1763694520400055800,3.525055908203125,6.27996301651001,-1.0082756280899048,-7.2182488441467285
1763694520409642500,3.534642578125,6.1124653816223145,-1.0923235416412354,-7.563114166259766
1763694520419230200,3.544230224609375,6.021239280700684,-1.1880364418029785,-7.71386194229126
1763694520428818700,3.553818603515625,6.018846035003662,-1.207179069519043,-7.71386194229126
1763694520438406400,3.563406494140625,6.035595893859863,-1.231107234954834,-7.5535430908203125
1763694520447993000,3.5729931640625,6.145965099334717,-1.2837493419647217,-7.2110700607299805
1763694520457580800,3.582580810546875,6.260820388793945,-1.2143574953079224,-6.93320369720459
1763694520467169300,3.592169189453125,6.294320106506348,-1.0202397108078003,-6.758527755737305
1763694520476757000,3.601757080078125,6.299105644226074,-0.8910273313522339,-6.669992923736572
1763694520486343700,3.61134375,6.339783668518066,-0.8838488459587097,-6.6939215660095215
1763694520495931400,3.620931396484375,6.457031726837158,-0.9221340417861938,-6.811169624328613
1763694520505519900,3.630519775390625,6.571887493133545,-1.0396814346313477,-6.835097789764404
1763694520515107600,3.640107666015625,6.583851337432861,-1.1569297313690186,-6.98614501953125
1763694520524694300,3.6496943359375,6.571887493133545,-1.5469598770141602,-7.282855033874512
1763694520534282000,3.659281982421875,6.516852378845215,-2.0904297828674316,-7.785646915435791
1763694520543870500,3.668870361328125,6.34217643737793,-2.4975085258483887,-8.242975234985352
1763694520553458000,3.6784580078125,6.179464340209961,-2.6913273334503174,-8.530113220214844
1763694520563044900,3.688044921875,6.102894306182861,-2.818445920944214,-8.745766639709473
1763694520572632600,3.697632568359375,6.018846035003662,-2.8543384075164795,-8.834300994873047
1763694520582221000,3.707220947265625,5.805884838104248,-2.7538397312164307,-8.707481384277344
1763694520591808500,3.71680859375,5.609673500061035,-2.6697919368743896,-8.534899711608887
1763694520601395500,3.7263955078125,5.379663467407227,-2.578864574432373,-8.367402076721191
1763694520610983200,3.735983154296875,5.193023204803467,-2.485544443130493,-8.219046592712402
1763694520620571600,3.745571533203125,5.0327043533325195,-2.4472594261169434,-8.16401195526123
1763694520630159000,3.7551591796875,4.845765113830566,-2.5094728469848633,-8.106583595275879
1763694520639746000,3.76474609375,4.572983264923096,-2.617149829864502,-8.072785377502441
1763694520649333800,3.774333740234375,4.153940200805664,-2.6626133918762207,-8.159226417541504
1763694520658922200,3.783922119140625,3.9290146827697754,-2.7538397312164307,-8.331509590148926
1763694520668509700,3.793509765625,3.9457645416259766,-2.938086986541748,-8.568398475646973
1763694520678096600,3.8030966796875,3.9433717727661133,-3.127120018005371,-8.755337715148926
1763694520687684400,3.812684326171875,3.950550079345703,-3.244368314743042,-8.882157325744629
1763694520697272800,3.82227294921875,3.9194436073303223,-3.3690943717956543,-8.95394229888916
1763694520706860300,3.8318603515625,3.9218363761901855,-3.548556089401245,-8.992227554321289
1763694520716447200,3.841447265625,4.005585193634033,-3.8479578495025635,-8.95394229888916
1763694520726035000,3.851034912109375,4.024727821350098,-4.206881523132324,-8.891729354858398
1763694520735623400,3.86062353515625,3.87876558303833,-4.381557464599609,-8.745766639709473
1763694520745211000,3.8702109375,3.864408493041992,-4.41057014465332,-8.760123252868652
1763694520754797800,3.8797978515625,4.118047714233398,-4.444069862365723,-8.779266357421875
1763694520764385500,3.889385498046875,4.194618225097656,-4.424927234649658,-8.858229637145996
1763694520773974000,3.89897412109375,4.2831525802612305,-4.566103935241699,-8.889336585998535
1763694520783561500,3.9085615234375,4.311866283416748,-4.85324239730835,-8.86062240600586
1763694520793148400,3.9181484375,4.1347975730896,-5.080859661102295,-9.011369705200195
1763694520802736000,3.927736083984375,3.8524444103240967,-5.4158549308776855,-9.131011009216309
1763694520812324600,3.93732470703125,3.4453654289245605,-5.763113498687744,-9.037691116333008
1763694520821912000,3.946912109375,3.215355396270752,-6.021538257598877,-8.95394229888916
1763694520831499000,3.9564990234375,3.2656047344207764,-6.225227355957031,-8.870193481445312
1763694520841086500,3.96608642578125,3.145963668823242,-6.055037498474121,-8.819944381713867
1763694520850675000,3.975675048828125,3.0837502479553223,-5.734399318695068,-8.484649658203125
1763694520860262700,3.9852626953125,3.1339993476867676,-5.260321617126465,-8.266902923583984
1763694520869849600,3.994849609375,3.1244282722473145,-4.788636207580566,-8.286046028137207
1763694520879437000,4.00443701171875,3.10528564453125,-4.556532382965088,-8.410472869873047
1763694520889025500,4.014025634765625,3.090928554534912,-4.513461589813232,-8.5133638381958
1763694520898613200,4.02361328125,3.0382864475250244,-4.645066738128662,-8.623434066772461
1763694520908200200,4.0332001953125,3.002394199371338,-4.903491973876953,-9.066405296325684
1763694520917788000,4.042787841796875,2.8971099853515625,-4.692923545837402,-9.227023124694824
1763694520927376100,4.052376220703125,2.933002471923828,-4.479962348937988,-9.253344535827637
1763694520936963800,4.0619638671875,3.0526435375213623,-4.307379722595215,-9.346664428710938
1763694520946550800,4.07155078125,3.1172497272491455,-4.1398820877075195,-9.425627708435059
1763694520956138500,4.081138427734375,3.0071799755096436,-3.9675991535186768,-9.571589469909668
1763694520965726700,4.090726806640625,2.8109683990478516,-3.891028642654419,-9.78963565826416
1763694520975314400,4.100314453125,2.525923490524292,-3.898207187652588,-9.909276962280273
1763694520984901400,4.1099013671875,2.353640079498291,-3.8312082290649414,-10.261021614074707
1763694520994489000,4.119489013671875,2.42303204536438,-3.5844483375549316,-10.330413818359375
1763694521004077300,4.129077392578125,2.698206663131714,-3.1845479011535645,-10.110274314880371
1763694521013665000,4.1386650390625,2.7391836643218994,-2.756232500076294,-9.993025779724121
1763694521023251700,4.148251708984375,2.698206663131714,-2.6075785160064697,-9.842277526855469
1763694521032839400,4.15783935546875,2.6024937629699707,-2.5645077228546143,-9.645767211914062
1763694521042428000,4.167427978515625,2.5857439041137695,-2.4017956256866455,-9.272486686706543
1763694521052015600,4.177015625,3.6487553119659424,-2.133500576019287,-8.575576782226562
1763694521061602300,4.186602294921875,3.670290946960449,-1.8008981943130493,-8.451150894165039
1763694521071190000,4.19618994140625,4.264009952545166,-1.5903297662734985,-7.790432453155518
1763694521080778500,4.205778564453125,4.144368648529053,-1.542174220085144,-7.5702924728393555
1763694521090366200,4.2153662109375,3.0693931579589844,-1.6357933282852173,-7.649255752563477
1763694521099953000,4.224952880859375,1.688136339187622,-1.4727823734283447,-7.5535430908203125
1763694521109540600,4.23454052734375,0.7256234884262085,-1.4344971179962158,-7.479066371917725
1763694521119129000,4.244129150390625,0.385543555021286,-1.29810631275177,-7.39053201675415
1763694521128716800,4.253716796875,0.7471588850021362,-1.2287144660949707,-6.9068827629089355
1763694521138303500,4.263303466796875,1.3863415718078613,-1.4536397457122803,-6.2174506187438965
1763694521147891200,4.27289111328125,1.6091731786727905,-1.8678971529006958,-6.097809314727783
1763694521157479700,4.282479736328125,1.6977076530456543,-2.6315066814422607,-6.468996047973633
1763694521167067400,4.2920673828125,1.3313066959381104,-3.158226728439331,-7.199106216430664
1763694521176654000,4.301654052734375,0.890728235244751,-3.172583818435669,-7.948358535766602
1763694521186241800,4.31124169921875,0.8309076428413391,-3.07208514213562,-8.28126049041748
1763694521195830300,4.320830322265625,0.9026923179626465,-3.031407117843628,-8.628219604492188
1763694521205418000,4.33041796875,0.1701895147562027,-2.6769702434539795,-8.872586250305176
1763694521215004700,4.340004638671875,0.8309076428413391,-3.421736478805542,-8.908478736877441
1763694521224592400,4.34959228515625,1.0513464212417603,-3.31884503364563,-8.757730484008789
1763694521234180900,4.359180908203125,1.7670994997024536,-3.627519130706787,-7.95553731918335
1763694521243768600,4.3687685546875,1.9154545068740845,-3.8479578495025635,-8.372187614440918
1763694521253355300,4.378355224609375,1.963310956954956,-4.831707000732422,-8.877371788024902
1763694521262943000,4.38794287109375,1.5849459171295166,-5.7511491775512695,-9.626625061035156
1763694521272531500,4.397531494140625,1.1973086595535278,-6.354439735412598,-9.92841911315918
1763694521282119000,4.407118896484375,1.4916257858276367,-7.043871879577637,-10.34028434753418
1763694521291705900,4.416705810546875,1.9920248985290527,-7.592127323150635,-11.252248764038086
1763694521301293600,4.42629345703125,2.1933209896087646,-7.608876705169678,-11.015358924865723
1763694521310882000,4.435882080078125,2.734398126602173,-6.637091636657715,-9.384949684143066
1763694521320469500,4.445469482421875,2.923431158065796,-5.5381879806518555,-7.991429328918457
1763694521330056400,4.455056396484375,3.292224884033203,-5.095216751098633,-7.323532581329346
1763694521339644200,4.46464404296875,3.3520455360412598,-4.958825588226318,-6.756134510040283
1763694521349232600,4.474232666015625,3.1890344619750977,-5.210072040557861,-6.751348972320557
1763694521358820000,4.483820068359375,2.643171787261963,-5.2411789894104,-6.995716094970703
1763694521368407000,4.493406982421875,2.0829520225524902,-5.181358337402344,-7.532007694244385
1763694521377994800,4.502994873046875,1.4437693357467651,-5.088038444519043,-7.079464912414551
1763694521387583200,4.512583251953125,1.3767703771591187,-5.047360420227051,-7.368996620178223
1763694521397170700,4.522170654296875,1.1757732629776,-5.190929412841797,-7.654041290283203
1763694521406757600,4.531757568359375,1.4557334184646606,-4.973182678222656,-7.709076404571533
1763694521416345300,4.541345458984375,0.9864411354064941,-4.680959224700928,-8.079963684082031
1763694521425933800,4.550933837890625,1.3217353820800781,-5.370391368865967,-9.291629791259766
1763694521435521300,4.560521240234375,1.053739309310913,-6.498009204864502,-11.814861297607422
1763694521445108200,4.570108154296875,1.352842092514038,-6.576972007751465,-14.410176277160645
1763694521454696000,4.579696044921875,1.9920248985290527,-5.5142598152160645,-14.3599271774292
1763694521464284400,4.589284423828125,2.590529680252075,-4.491926193237305,-12.576077461242676
1763694521473872000,4.598871826171875,3.090928554534912,-4.206881523132324,-10.345069885253906
1763694521483458800,4.608458740234375,2.765504837036133,-3.4576287269592285,-7.163213729858398
1763694521493046500,4.618046630859375,3.5458641052246094,-2.9165515899658203,-1.3525429964065552
1763694521502635000,4.627635009765625,1.963310956954956,-2.8686952590942383,-1.5658032894134521
1763694521512222500,4.637222412109375,0.9505487680435181,-3.1151559352874756,-0.8356932997703552
1763694521521809400,4.646809326171875,-0.1052841991186142,-3.366701364517212,-0.7588238716125488
1763694521531397000,4.656397216796875,-0.4498506486415863,-3.4791641235351562,0.07896314561367035
1763694521540985600,4.665985595703125,-0.8401798605918884,-3.8934216499328613,0.062213387340307236
1763694521550573000,4.675572998046875,-0.41156548261642456,-5.5381879806518555,-0.6678966283798218
1763694521560160000,4.685159912109375,-0.15314064919948578,-8.303094863891602,-1.501197099685669
1763694521569747700,4.694747802734375,0.1175474151968956,-9.007183074951172,-1.9800606966018677
1763694521579336200,4.704336181640625,1.0752747058868408,-9.560223579406738,-3.10528564453125
1763694521588923600,4.713923583984375,1.8388842344284058,-9.457332611083984,-4.900799751281738
1763694521598510600,4.723510498046875,0.1534397453069687,-7.431807994842529,-3.349353551864624
1763694521608098300,4.733098388671875,2.667099952697754,-6.931408882141113,-3.835395574569702
1763694521617686800,4.742686767578125,2.820539712905884,-7.333702087402344,-5.762515068054199
1763694521627274200,4.752274169921875,2.3871397972106934,-8.078168869018555,-7.378567695617676
1763694521636861200,4.761861083984375,1.6618152856826782,-8.468498229980469,-7.910073280334473
1763694521646449000,4.771448974609375,0.6011967062950134,-8.468498229980469,-7.632505893707275
1763694521656037400,4.781037353515625,0.15583257377147675,-7.9657063484191895,-7.747361660003662
1763694521665624800,4.790624755859375,0.30658039450645447,-7.072585582733154,-7.167999267578125
1763694521675211800,4.800211669921875,0.28504499793052673,-6.09122896194458,-6.961917400360107
1763694521684799500,4.809799560546875,0.3568296730518341,-5.18614387512207,-6.514459609985352
1763694521694388000,4.819387939453125,0.6323033571243286,-4.966004371643066,-6.488138675689697
1763694521703975400,4.828975341796875,0.6011967062950134,-5.293820858001709,-6.729813575744629
1763694521713562400,4.838562255859375,0.615553617477417,-6.328118801116943,-6.198307991027832
1763694521723150000,4.848150146484375,0.7926225066184998,-7.118049144744873,-5.422734260559082
1763694521732738600,4.857738525390625,1.3217353820800781,-6.98405122756958,-4.031607151031494
1763694521742326000,4.867325927734375,1.8029918670654297,-7.441379547119141,-2.652743101119995
1763694521751913000,4.876912841796875,1.8029918670654297,-7.874779224395752,-1.592124342918396
1763694521761500700,4.886500732421875,0.8189435601234436,-7.283452987670898,-0.4956133961677551
1763694521771089000,4.8960888671875,-0.5407779216766357,-10.433902740478516,-0.17228323221206665
1763694521780676600,4.905676513671875,0.9984052777290344,-14.211871147155762,-0.42382872104644775
1763694521790263600,4.915263671875,2.480459690093994,-15.686746597290039,0.04307080805301666
1763694521799851000,4.92485107421875,3.4310085773468018,-15.344274520874023,0.062213387340307236
1763694521809439500,4.934439453125,3.7899320125579834,-14.882160186767578,-0.35443684458732605
1763694521819027200,4.944027099609375,3.8210387229919434,-15.191133499145508,-1.501197099685669
1763694521828614100,4.9536142578125,3.5937204360961914,-15.763317108154297,-2.518744945526123
1763694521838201900,4.963201904296875,2.9066812992095947,-15.56680679321289,-2.738884687423706
1763694521847790000,4.9727900390625,2.2962124347686768,-14.925230979919434,-2.255235433578491
1763694521857377800,4.982377685546875,1.6498512029647827,-12.454642295837402,-1.7476578950881958
1763694521866964700,4.99196484375,1.5490535497665405,-9.076574325561523,-1.1276177167892456
1763694521876552400,5.001552490234375,0.43100717663764954,-7.917850017547607,-1.0055837631225586
1763694521886140700,5.011140625,0.3927220106124878,-7.850851058959961,-0.802193820476532
1763694521905315300,5.0303154296875,1.1733803749084473,-7.620841026306152,-1.9848463535308838
1763694521914903000,5.039903076171875,0.3233301639556885,-7.340880870819092,-1.6399807929992676
1763694521924491300,5.0494912109375,-0.014057832770049572,-6.952944278717041,-1.7189439535140991
1763694521934079000,5.059078857421875,-0.45224347710609436,-6.988836765289307,-1.072582721710205
1763694521943666000,5.068666015625,0.009870393201708794,-6.967301368713379,0.23210379481315613
1763694521953253400,5.07825341796875,1.3265210390090942,-6.986443996429443,0.4812564551830292
1763694521962841900,5.087841796875,2.233999013900757,-7.3073811531066895,0.2105683982372284
1763694521972429600,5.0974296875,2.2962124347686768,-7.252346515655518,0.3568296730518341
1763694521982016500,5.1070166015625,2.149951219558716,-7.1228346824646,0.3616153299808502
1763694521991604000,5.11660400390625,2.1475582122802734,-7.180262565612793,0.5673980712890625
1763694522001192400,5.1261923828125,1.8029918670654297,-7.055835723876953,0.7612167000770569
1763694522010780200,5.1357802734375,1.6713865995407104,-6.933801651000977,0.9625129103660583
1763694522020367000,5.1453671875,1.5634105205535889,-6.847660064697266,1.1730812788009644
1763694522029954800,5.154954833984375,1.348056435585022,-6.826124668121338,1.280758261680603
1763694522039543000,5.16454296875,0.924227774143219,-6.536293983459473,1.414756417274475
1763694522049130800,5.174130859375,0.8476574420928955,-6.661019802093506,1.651944875717163
1763694522058717400,5.183717529296875,0.893121063709259,-6.51954460144043,1.683051586151123
1763694522068305200,5.19330517578125,1.0968101024627686,-7.656733512878418,1.8409779071807861
1763694522077893600,5.2028935546875,1.0199406147003174,-12.330215454101562,2.458625316619873
1763694522087481300,5.2124814453125,-0.4307080805301666,-21.216859817504883,2.9398818016052246
1763694522097068000,5.222068115234375,0.9960124492645264,-10.331011772155762,2.92073917388916
1763694522106655700,5.23165576171875,1.7527425289154053,-17.467905044555664,3.0188448429107666
1763694522116244200,5.241244140625,1.407876968383789,-12.75613784790039,2.6383860111236572
1763694522125832000,5.25083203125,1.3648061752319336,-13.191930770874023,2.5495524406433105
1763694522135419000,5.2604189453125,1.352842092514038,-13.325928688049316,2.635993242263794
1763694522145006300,5.27000634765625,-0.0690927505493164,-12.483355522155762,2.496910333633423
1763694522154594800,5.2795947265625,0.8787640929222107,-10.718948364257812,2.7747769355773926
1763694522164182500,5.2891826171875,1.103988528251648,-5.614758491516113,2.944667339324951
1763694522173769200,5.298769287109375,0.27308088541030884,-8.413463592529297,2.7197420597076416
1763694522183357000,5.30835693359375,2.7870402336120605,-8.396714210510254,1.8553348779678345
1763694522192945400,5.3179453125,1.3432707786560059,-7.3552374839782715,0.701396107673645
1763694522202533000,5.327533203125,4.067798614501953,-6.282654762268066,0.035892341285943985
1763694522212119800,5.337119873046875,1.4270195960998535,-7.024729251861572,-1.7380865812301636
1763694522221707500,5.34670751953125,1.8388842344284058,-6.682555675506592,-1.9007984399795532
1763694522231296000,5.3562958984375,2.4038894176483154,-11.590234756469727,-2.4777679443359375
1763694522240883700,5.3658837890625,2.542673110961914,-15.643675804138184,-1.2305090427398682
1763694522250470400,5.375470458984375,2.0039889812469482,-14.152050018310547,-1.83619225025177
1763694522260058000,5.38505810546875,1.4294124841690063,-12.478569984436035,-1.7931214570999146
1763694522269646600,5.394646484375,1.719243049621582,-9.076574325561523,-1.3094722032546997
1763694522279234300,5.404234375,1.6857435703277588,-9.60090160369873,-0.1746760457754135
1763694522288821000,5.413821044921875,2.782254457473755,-9.734899520874023,-0.15074782073497772
1763694522298408700,5.42340869140625,2.8085756301879883,-10.04148006439209,0.10289137065410614
1763694522307997200,5.4329970703125,1.7838492393493652,-11.87767219543457,-0.34247273206710815
1763694522317585000,5.4425849609375,2.2794625759124756,-9.40917682647705,-0.7875377535820007
1763694522327171600,5.452171630859375,1.7694923877716064,-10.01994514465332,-0.4262215197086334
1763694522336759300,5.46175927734375,2.0159530639648438,-10.185050010681152,-0.675075113773346
1763694522346347800,5.47134765625,1.9824535846710205,-10.15872859954834,-0.6248258352279663
1763694522355935500,5.480935546875,1.9537396430969238,-9.588937759399414,-0.646361231803894
1763694522365522200,5.490522216796875,1.8987047672271729,-9.050253868103027,-0.7133602499961853
1763694522375110000,5.50010986328125,1.805384635925293,-9.399605751037598,-0.7205387353897095
1763694522384698400,5.509698486328125,2.29142689704895,-9.909575462341309,-0.524327278137207
1763694522394286000,5.5192861328125,2.645564556121826,-10.247262954711914,-0.6990033388137817
1763694522403872800,5.528872802734375,2.6168506145477295,-10.223334312438965,-0.7779664397239685
1763694522413460500,5.53846044921875,2.6814568042755127,-9.84975528717041,-1.1300104856491089
1763694522423049000,5.548049072265625,2.676671266555786,-9.734899520874023,-1.434198021888733
1763694522442223400,5.567223388671875,2.693420886993408,-10.481760025024414,-1.2831511497497559
1763694522451811000,5.57681103515625,2.533101797103882,-9.935896873474121,-1.4437693357467651
1763694522461399600,5.586399658203125,2.0303099155426025,-9.48365306854248,-1.256830096244812
1763694522470987300,5.5959873046875,1.8747764825820923,-9.093324661254883,-0.8739784955978394
1763694522480574000,5.605573974609375,1.6737794876098633,-8.992825508117676,-0.7923234105110168
1763694522490161700,5.61516162109375,1.5227324962615967,-9.232108116149902,-0.5315057039260864
1763694522499750100,5.624750244140625,1.4820544719696045,-9.48365306854248,-0.18424734473228455
1763694522509337600,5.634337646484375,1.7479569911956787,-8.432605743408203,-0.5769693851470947
1763694522518924500,5.643924560546875,1.726421594619751,-10.113265037536621,0.41904306411743164
1763694522528512300,5.65351220703125,1.6522440910339355,-9.220144271850586,0.30628129839897156
1763694522538100700,5.663100830078125,1.1590235233306885,-9.572187423706055,0.3496512174606323
1763694522547688400,5.6726884765625,1.2690932750701904,-9.861719131469727,0.2584248483181
1763694522557275100,5.682275146484375,1.7647067308425903,-9.62483024597168,0.059820566326379776
1763694522566862800,5.69186279296875,2.2603201866149902,-9.342177391052246,-0.1339980661869049
1763694522576451300,5.701451416015625,2.7173492908477783,-9.282357215881348,-0.1746760457754135
1763694522586039000,5.7110390625,3.122035264968872,-8.995218276977539,-0.3041875660419464
1763694522595625700,5.720625732421875,3.399901866912842,-7.860422611236572,-0.7947162389755249
1763694522605213400,5.73021337890625,2.995215654373169,-5.980860233306885,-1.6663018465042114
1763694522614802000,5.739802001953125,2.0997018814086914,-5.2746782302856445,-2.1403799057006836
1763694522624389400,5.749389404296875,3.0143582820892334,-4.855635166168213,-2.26959228515625
1763694522633976300,5.758976318359375,3.354438304901123,-3.8117663860321045,-1.8290138244628906
1763694522643564000,5.76856396484375,2.5378875732421875,-4.360022068023682,-1.6160526275634766
1763694522653152500,5.778152587890625,3.145963668823242,-5.4541401863098145,-1.55623197555542
1763694522662740000,5.787739990234375,3.4932219982147217,-6.560222148895264,-1.5849459171295166
1763694522672327000,5.797326904296875,2.4924237728118896,-7.1371917724609375,-1.3959128856658936
1763694522681914600,5.80691455078125,2.518744945526123,-8.26241683959961,-1.3142578601837158
1763694522691503000,5.816503173828125,2.8731818199157715,-9.32303524017334,-1.2448660135269165
1763694522701090800,5.8260908203125,3.1962127685546875,-10.098908424377441,-0.893121063709259
1763694522710677500,5.835677490234375,3.770789384841919,-10.970194816589355,-0.2922234535217285
1763694522720265200,5.84526513671875,4.369294166564941,-12.162418365478516,0.646361231803894
1763694522729853700,5.854853759765625,4.625625133514404,-12.94786262512207,1.750050663948059
1763694522739441200,5.864441162109375,4.66869592666626,-12.600604057312012,3.0571300983428955
1763694522749028000,5.874028076171875,4.371686935424805,-11.707781791687012,3.4331023693084717
1763694522758615800,5.88361572265625,3.368795156478882,-10.393224716186523,2.848954439163208
1763694522768204300,5.893204345703125,2.964108943939209,-9.679864883422852,2.676671266555786
1763694522777791700,5.902791748046875,2.8731818199157715,-11.018051147460938,1.501197099685669
1763694522787378700,5.912378662109375,2.6575286388397217,-10.015159606933594,0.32303106784820557
1763694522796966400,5.92196630859375,2.29860520362854,-8.200202941894531,-0.18424734473228455
1763694522806555000,5.931554931640625,2.23639178276062,-7.091728210449219,-0.2153540402650833
1763694522816142300,5.941142333984375,2.20528507232666,-6.943373203277588,0.08374879509210587
1763694522825729300,5.950729248046875,1.8340985774993896,-7.340880870819092,0.35922250151634216
1763694522835317000,5.96031689453125,1.2834502458572388,-7.805387496948242,0.30628129839897156
1763694522844905500,5.969905517578125,0.8524430394172668,-8.291130065917969,0.05024927482008934
1763694522854493000,5.979492919921875,0.5581258535385132,-8.8681001663208,-0.2515454888343811
1763694522864080000,5.989079833984375,0.4262215197086334,-9.531510353088379,-0.41186460852622986
1763694522873667600,5.99866748046875,0.42382872104644775,-10.031908988952637,-0.40707895159721375
1763694522883256000,6.008256103515625,0.4501497745513916,-10.338190078735352,-0.34247273206710815
1763694522892843500,6.017843505859375,0.7543373107910156,-10.38365364074707,-0.263509601354599
1763694522902430500,6.027430419921875,1.0872387886047363,-10.211370468139648,-0.16749759018421173
1763694522912018200,6.03701806640625,0.9050851464271545,-9.897611618041992,-0.01196411345154047
1763694522921606700,6.046606689453125,0.9218349456787109,-9.524331092834473,0.1986042857170105
1763694522931194000,6.056194091796875,0.7639086246490479,-9.134002685546875,0.3329014480113983
1763694522940781000,6.065781005859375,0.7232306599617004,-8.978468894958496,0.42382872104644775
1763694522950368800,6.07536865234375,0.5437689423561096,-9.055039405822754,0.4956133961677551
1763694522959957200,6.084957275390625,0.5868397355079651,-9.138788223266602,0.524327278137207
1763694522969544700,6.094544677734375,0.7040880918502808,-9.167501449584961,0.5817549824714661
1763694522979131600,6.104131591796875,0.8093722462654114,-9.1986083984375,0.6822535395622253
1763694522988719400,6.11371923828125,0.893121063709259,-9.100502967834473,0.7588238716125488
1763694522998307800,6.123307861328125,0.7208378314971924,-8.909076690673828,0.8353942036628723
1763694523007895300,6.132895263671875,0.5389832854270935,-8.798707962036133,0.8521439433097839
1763694523027070000,6.152070068359375,0.21804596483707428,-9.021539688110352,0.7588238716125488
1763694523036658400,6.161658447265625,-0.011665010824799538,-9.19143009185791,0.7995018362998962
1763694523046246000,6.171245849609375,-0.02841476909816265,-9.356534957885742,0.8018946647644043
1763694523055832800,6.180832763671875,0.03858426585793495,-9.339784622192383,0.8018946647644043
1763694523065420500,6.190420654296875,0.27786654233932495,-9.303893089294434,0.7707880139350891
1763694523075009000,6.200009033203125,0.39032918214797974,-9.265607833862305,0.7827520966529846
1763694523084596500,6.209596435546875,0.4501497745513916,-9.275178909301758,0.8401798605918884
1763694523094183400,6.219183349609375,0.5341976284980774,-9.263215065002441,0.9864411354064941
1763694523103771100,6.228771240234375,0.4692923426628113,-9.18425178527832,1.2185449600219727
1763694523113359600,6.238359619140625,0.39511483907699585,-9.162715911865234,1.4581263065338135
1763694523122947000,6.247947021484375,0.37118661403656006,-9.232108116149902,1.6710875034332275
1763694523132534000,6.257533935546875,0.36640095710754395,-9.311071395874023,1.8792630434036255
1763694523142121700,6.267121826171875,-0.0810568705201149,-9.517152786254883,2.0925233364105225
1763694523151710200,6.276710205078125,-0.3158525824546814,-9.596116065979004,2.1643080711364746
1763694523161297700,6.286297607421875,-0.397208571434021,-9.541081428527832,2.166700839996338
1763694523170884600,6.295884521484375,-0.2584248483181,-9.430712699890137,2.025524377822876
1763694523180472300,6.305472412109375,-0.1052841991186142,-9.397212982177734,1.9151554107666016
1763694523190060800,6.315060791015625,-0.08853443711996078,-9.766006469726562,1.8505492210388184
1763694523199648300,6.324648193359375,0.20368902385234833,-10.060623168945312,1.714158296585083
1763694523209235200,6.334235107421875,0.6203392744064331,-10.170692443847656,1.6256239414215088
1763694523218823000,6.343822998046875,0.4740779995918274,-10.419546127319336,1.5251253843307495
1763694523228411400,6.353411376953125,0.04815555736422539,-10.335797309875488,1.3334003686904907
1763694523237998800,6.362998779296875,-0.35892340540885925,-9.95982551574707,1.1012966632843018
1763694523247585800,6.372585693359375,-0.7516453862190247,-9.64636516571045,0.981655478477478
1763694523257173500,6.382173583984375,-1.129711389541626,-9.447761535644531,1.012762188911438
1763694523266762000,6.391761962890625,-1.472184181213379,-9.354142189025879,1.220937728881836
1763694523276349400,6.401349365234375,-1.7955143451690674,-9.256035804748535,1.529910922050476
1763694523285936400,6.410936279296875,-2.0324037075042725,-9.086145401000977,1.8266209363937378
1763694523295524000,6.420524169921875,-2.0467605590820312,-8.80349349975586,2.0925233364105225
1763694523305112600,6.430112548828125,-1.9606190919876099,-8.64795970916748,2.286342144012451
1763694523314700000,6.439699951171875,-1.6803597211837769,-8.65035343170166,2.4011974334716797
1763694523324287000,6.449286865234375,-1.2711870670318604,-8.848957061767578,2.4610180854797363
1763694523333874700,6.458874755859375,-0.9311071038246155,-9.17467975616455,2.427518606185913
1763694523343463200,6.468463134765625,-0.6846463680267334,-9.394820213317871,2.286342144012451
1763694523353050600,6.478050537109375,-0.5024927258491516,-9.517152786254883,2.0781664848327637
1763694523362637600,6.487637451171875,-0.3445664644241333,-9.550652503967285,1.9127626419067383
1763694523372225300,6.497225341796875,-0.14356936514377594,-9.550652503967285,1.812264084815979
1763694523381813800,6.506813720703125,0.1534397453069687,-9.517152786254883,1.8385851383209229
1763694523391401200,6.516401123046875,0.4911268353462219,-9.306285858154297,1.934298038482666
1763694523400988200,6.52598828125,0.43579283356666565,-9.658329963684082,2.104487419128418
1763694523420164400,6.545164306640625,0.41186460852622986,-9.782755851745605,1.9989042282104492
1763694523429751800,6.554751708984375,0.3089732229709625,-9.73968505859375,1.812264084815979
1763694523439338800,6.5643388671875,0.10079765319824219,-9.52193832397461,1.501197099685669
1763694523448926500,6.573926513671875,-0.1339980661869049,-9.227322578430176,1.1515458822250366
1763694523458515000,6.583514892578125,-0.23210379481315613,-9.043074607849121,0.8282157182693481
1763694523468102400,6.593102294921875,-0.23449662327766418,-8.93539810180664,0.521934449672699
1763694523477689300,6.602689453125,-0.14117653667926788,-8.870492935180664,0.3086741268634796
1763694523487277000,6.612277099609375,-0.040378883481025696,-8.827422142028809,0.19142581522464752
1763694523496865500,6.621865478515625,0.05054837837815285,-8.79631519317627,0.11006984114646912
1763694523506453000,6.631452880859375,0.1989033818244934,-8.834600448608398,0.05742774158716202
1763694523516040000,6.6410400390625,0.2706880569458008,-9.038289070129395,-0.019142581149935722
1763694523525627600,6.650627685546875,0.27308088541030884,-9.361320495605469,-0.09571290761232376
1763694523535216000,6.660216064453125,0.22522443532943726,-9.622437477111816,-0.13878370821475983
1763694523544803600,6.669803466796875,0.15583257377147675,-9.665508270263672,-0.12921242415905
1763694523554390500,6.679390625,0.10797612369060516,-9.502796173095703,-0.10289137065410614
1763694523563978200,6.688978271484375,0.12233305722475052,-9.31585693359375,-0.05024927482008934
1763694523573566700,6.698566650390625,0.22761724889278412,-9.260822296142578,0.06939185410737991
1763694523583154200,6.708154296875,0.3640081584453583,-9.349356651306152,0.3329014480113983
1763694523592741000,6.7177412109375,0.43579283356666565,-9.498010635375977,0.7085745930671692
1763694523602328800,6.727328857421875,0.3927220106124878,-9.61525821685791,1.1012966632843018
1763694523611917300,6.736917236328125,0.17497515678405762,-9.548259735107422,1.3908281326293945
1763694523621504800,6.7465048828125,-0.042771704494953156,-9.294321060180664,1.537089467048645
1763694523631091700,6.756091796875,-0.19381862878799438,-9.07418155670166,1.55623197555542
1763694523640679400,6.765679443359375,-0.20578274130821228,-8.940183639526367,1.5945172309875488
1763694523650268000,6.775267822265625,-0.16271193325519562,-8.885149002075195,1.6734803915023804
1763694523659855400,6.78485546875,-0.17946170270442963,-8.865707397460938,1.678265929222107
1763694523669442300,6.7944423828125,-0.2727817893028259,-8.904291152954102,1.5825530290603638
1763694523679030000,6.804030029296875,-0.349352091550827,-9.019146919250488,1.374078392982483
1763694523688618500,6.813618408203125,-0.4259224236011505,-9.265607833862305,1.1060823202133179
1763694523698206000,6.8232060546875,-0.5048855543136597,-9.462118148803711,0.8617152571678162
1763694523707793000,6.83279296875,-0.6966105103492737,-9.517152786254883,0.7253243923187256
1763694523717380600,6.842380615234375,-0.8928219676017761,-9.823433876037598,0.5841478109359741
1763694523726969000,6.851968994140625,-0.8497511148452759,-9.935896873474121,0.6032904386520386
1763694523736556500,6.861556640625,-0.8282157182693481,-10.005587577819824,0.7827520966529846
1763694523746143500,6.8711435546875,-0.8736793398857117,-9.971789360046387,1.0414760112762451
1763694523755731200,6.880731201171875,-0.9574281573295593,-9.955039978027344,1.252044439315796
1763694523765319700,6.890319580078125,-0.9933205246925354,-9.931111335754395,1.4386845827102661
1763694523774907100,6.8999072265625,-0.9885348677635193,-9.923933029174805,1.6112669706344604
1763694523784494000,6.909494140625,-0.9526425004005432,-9.868897438049316,1.800299882888794
1763694523794081800,6.919081787109375,-0.8282157182693481,-9.907182693481445,1.9677975177764893
1763694523803670300,6.928670166015625,-0.6269195079803467,-10.031908988952637,2.1260228157043457
1763694523813257700,6.9382578125,-0.8617152571678162,-10.261619567871094,2.3054845333099365
1763694523822844700,6.9478447265625,-0.32303106784820557,-10.168299674987793,2.317448616027832
1763694523832432400,6.957432373046875,-0.08853443711996078,-10.070194244384766,2.20737886428833
1763694523842020900,6.967020751953125,-0.002093719784170389,-10.079765319824219,2.1643080711364746
1763694523851608300,6.9766083984375,0.14386846125125885,-10.015159606933594,2.080559253692627
1763694523861195300,6.9861953125,0.3400799036026001,-9.780363082885742,1.9558334350585938
1763694523870783000,6.995782958984375,0.529412031173706,-9.464510917663574,1.8625133037567139
1763694523880371500,7.005371337890625,0.6203392744064331,-9.208179473876953,1.7907286882400513
1763694523889959000,7.014958984375,0.6921239495277405,-9.019146919250488,1.7691932916641235
1763694523899545900,7.0245458984375,0.7543373107910156,-8.844171524047852,1.8481563329696655
1763694523909133600,7.034133544921875,0.8117650747299194,-8.655138969421387,1.9438693523406982
1763694523918722000,7.04372216796875,0.8811569213867188,-8.645566940307617,2.0781664848327637
1763694523928309500,7.0533095703125,1.0680961608886719,-8.971290588378906,2.2671995162963867
1763694523937896400,7.062896484375,1.4030914306640625,-9.52193832397461,2.6024937629699707
1763694523947484200,7.072484130859375,1.5897315740585327,-9.964611053466797,3.0738797187805176
1763694523957072600,7.08207275390625,1.5658032894134521,-10.082158088684082,3.497708559036255
1763694523966661400,7.091661376953125,1.4581263065338135,-9.964611053466797,3.5503506660461426
1763694523985836000,7.1108359375,1.0031908750534058,-9.572187423706055,1.6974085569381714
1763694523995424500,7.120424560546875,1.139880895614624,-9.42353343963623,1.3692927360534668
1763694524005012000,7.130011962890625,1.202094316482544,-9.61765193939209,1.43389892578125
1763694524024186600,7.1491865234375,1.0223335027694702,-10.26640510559082,1.158724308013916
1763694524033775000,7.158775146484375,0.9266205430030823,-10.604092597961426,1.6208382844924927
1763694524043362600,7.168362548828125,1.2164511680603027,-10.979765892028809,1.9773688316345215
1763694524052949500,7.177949462890625,1.6307085752487183,-11.106585502624512,1.8936200141906738
1763694524062537200,7.187537109375,2.0781664848327637,-11.087442398071289,2.403590440750122
1763694524072125700,7.197125732421875,2.425424814224243,-11.032407760620117,2.4299113750457764
1763694524081713200,7.206713134765625,2.5833511352539062,-10.900802612304688,1.9701902866363525
1763694524091300000,7.216300048828125,2.612065076828003,-10.666306495666504,1.2855439186096191
1763694524100887800,7.2258876953125,2.415853500366211,-10.311869621276855,0.5721837282180786
1763694524110476300,7.235476318359375,2.29142689704895,-9.978967666625977,-0.39990049600601196
1763694524120063700,7.245063720703125,2.2531416416168213,-9.667901039123535,-1.1443674564361572
1763694524129650700,7.254650634765625,2.2627129554748535,-9.41635513305664,-1.5131611824035645
1763694524139238400,7.26423828125,2.233999013900757,-9.186644554138184,-1.7069798707962036
1763694524148827000,7.273826904296875,2.4038894176483154,-9.251250267028809,-1.316650629043579
1763694524158414300,7.283414306640625,2.4756741523742676,-9.349356651306152,-0.8237292170524597
1763694524168001300,7.293001220703125,2.4421746730804443,-9.368498802185059,-0.3161516785621643
1763694524177589000,7.302589111328125,2.5857439041137695,-9.086145401000977,0.6008976101875305
1763694524187177500,7.312177490234375,2.5235304832458496,-8.635995864868164,1.134796142578125
1763694524196765000,7.321764892578125,2.241177558898926,-8.166703224182129,1.0534402132034302
1763694524206352000,7.331351806640625,2.2722842693328857,-7.9489569664001465,0.9505487680435181
1763694524215939600,7.340939697265625,2.564208507537842,-7.858029365539551,1.158724308013916
1763694524225528000,7.350528076171875,2.789433002471924,-7.678268909454346,1.1874382495880127
1763694524235115500,7.360115478515625,2.925823926925659,-7.58734130859375,1.2161520719528198
1763694524244702500,7.369702392578125,3.0000014305114746,-7.462914943695068,1.0247262716293335
1763694524254290200,7.379290283203125,3.067000389099121,-7.52512788772583,0.768395185470581
1763694524263878700,7.388878662109375,2.8516464233398438,-7.824530124664307,0.41186460852622986
1763694524273466000,7.398466064453125,2.7197420597076416,-8.109275817871094,0.02392822690308094
1763694524283053000,7.408052978515625,2.844467878341675,-8.463712692260742,-0.27786654233932495
1763694524292640800,7.417640869140625,3.0622148513793945,-8.667102813720703,-0.47647079825401306
1763694524302229200,7.427229248046875,3.1100711822509766,-8.676673889160156,-0.17946170270442963
1763694524311816700,7.436816650390625,3.0717861652374268,-8.564210891723633,0.20817556977272034
1763694524321403600,7.446403564453125,2.916252613067627,-8.295916557312012,0.27756741642951965
1763694524330991400,7.455991455078125,2.700599431991577,-8.178668022155762,0.21296121180057526
1763694524340579800,7.465579833984375,2.590529680252075,-8.537890434265137,0.09571290761232376
1763694524350167300,7.475167236328125,2.691028118133545,-9.40917682647705,-0.059820566326379776
1763694524359754200,7.484754150390625,2.995215654373169,-9.82822036743164,-0.44297128915786743
1763694524369342000,7.494342041015625,3.19860577583313,-9.59372329711914,-0.5362913608551025
1763694524378930400,7.503930419921875,3.1579277515411377,-8.901898384094238,-0.4214358925819397
1763694524388518000,7.513517822265625,3.098107099533081,-8.12123966217041,-0.246759831905365
1763694524398104800,7.523104736328125,3.0717861652374268,-7.628019332885742,0.062213387340307236
1763694524407692500,7.532692626953125,3.0454649925231934,-7.563413143157959,0.19381862878799438
1763694524417281000,7.542281005859375,3.2033913135528564,-7.7838521003723145,0.11246266216039658
1763694524426868500,7.551868408203125,3.208176851272583,-8.154739379882812,0.11485548317432404
1763694524436455400,7.561455322265625,3.119642496109009,-8.128418922424316,0.02632104977965355
1763694524446043100,7.571043212890625,3.13639235496521,-8.418249130249023,-0.1052841991186142
1763694524455631600,7.580631591796875,3.4764721393585205,-7.82692289352417,-0.3807578980922699
1763694524465219000,7.590218994140625,3.6511483192443848,-7.57298469543457,-1.4629119634628296
1763694524474806000,7.599805908203125,3.9912281036376953,-7.8388872146606445,-2.6503500938415527
1763694524484393700,7.609393798828125,4.254438877105713,-7.288238525390625,-1.7955143451690674
1763694524493982200,7.618982177734375,4.240081787109375,-6.684948444366455,-0.734895646572113
1763694524503569700,7.628569580078125,3.4908292293548584,-6.5578293800354,-0.13160525262355804
1763694524513156600,7.638156494140625,3.1651060581207275,-7.7838521003723145,-2.856132984161377
1763694524522744300,7.647744384765625,2.4278175830841064,-7.730910778045654,-2.4370899200439453
1763694524532332800,7.657332763671875,2.4756741523742676,-7.728518009185791,-1.6854444742202759
1763694524541920300,7.666920166015625,2.9282166957855225,-8.094919204711914,-0.5937191247940063
1763694524551507200,7.676507080078125,3.3520455360412598,-8.358428955078125,0.18424734473228455
1763694524561095000,7.686094970703125,3.529114246368408,-8.274380683898926,0.15553347766399384
1763694524570683400,7.695683349609375,3.7540395259857178,-7.9489569664001465,-0.19621145725250244
1763694524580270800,7.705270751953125,4.769194602966309,-7.498806953430176,-0.07657032459974289
1763694524589857800,7.71485791015625,5.9662041664123535,-7.675876140594482,0.06939185410737991
1763694524599445500,7.724445556640625,5.7532429695129395,-8.169096946716309,-1.012762188911438
1763694524609034000,7.734033935546875,4.6734819412231445,-8.597710609436035,-2.307877540588379
1763694524618621700,7.74362158203125,4.340580463409424,-8.93539810180664,-2.7269206047058105
1763694524628208400,7.75320849609375,4.074976921081543,-9.047860145568848,-2.722134828567505
1763694524637796000,7.762796142578125,3.7923247814178467,-9.08853816986084,-2.4610180854797363
1763694524647384600,7.772384521484375,3.567399501800537,-9.143573760986328,-2.0518453121185303
1763694524656972000,7.781971923828125,3.598506212234497,-9.150752067565918,-1.8768702745437622
1763694524666559000,7.79155908203125,3.7444684505462646,-9.30867862701416,-1.477268934249878
1763694524676146700,7.801146728515625,3.708575963973999,-9.840184211730957,-0.8237292170524597
1763694524685735200,7.810735107421875,3.416651725769043,-10.623235702514648,-0.7851449251174927
1763694524695322600,7.820322509765625,3.368795156478882,-11.262417793273926,-0.2515454888343811
1763694524704909600,7.82990966796875,3.4549367427825928,-10.551151275634766,0.1986042857170105
1763694524714497300,7.839497314453125,3.533900022506714,-9.009575843811035,0.6032904386520386
1763694524724085800,7.849085693359375,3.5243287086486816,-8.274380683898926,1.654337763786316
1763694524733673200,7.858673095703125,3.13639235496521,-8.21695327758789,2.135594129562378
1763694524743260200,7.86826025390625,3.169891834259033,-8.008777618408203,2.7436702251434326
1763694524752848000,7.877847900390625,3.0215368270874023,-9.055039405822754,2.042274236679077
1763694524762436400,7.887436279296875,3.3640096187591553,-9.909575462341309,0.97926265001297
1763694524772023800,7.89702392578125,3.9529430866241455,-10.996515274047852,0.08853443711996078
1763694524781610800,7.90661083984375,3.94097900390625,-11.9159574508667,-0.7492526173591614
1763694524791198500,7.916198486328125,3.7660038471221924,-12.248859405517578,-1.316650629043579
1763694524800787000,7.925786865234375,3.2608189582824707,-11.925528526306152,-1.994417667388916
1763694524810374700,7.935374755859375,2.8253252506256104,-11.0802640914917,-2.3988046646118164
1763694524819961300,7.94496142578125,2.6718854904174805,-10.079765319824219,-2.705385208129883
1763694524829549000,7.954549072265625,1.994417667388916,-8.801100730895996,-2.731706142425537
1763694524839137500,7.964137451171875,1.410269856452942,-7.75753116607666,-1.4126626253128052
1763694524848725000,7.97372509765625,1.0680961608886719,-7.304988384246826,-0.39511483907699585
1763694524858312000,7.98331201171875,1.170987606048584,-7.7838521003723145,0.3927220106124878
1763694524867899600,7.992899658203125,1.194915771484375,-8.676673889160156,1.1204391717910767
1763694524877488000,8.002488037109375,1.2667005062103271,-9.634401321411133,0.9457631707191467
1763694524887075800,8.012075927734376,1.348056435585022,-10.491331100463867,0.8377870321273804
1763694524896662500,8.02166259765625,1.970489501953125,-9.98136043548584,-0.734895646572113
1763694524906250200,8.031250244140624,1.755135416984558,-9.761220932006836,-0.7157530784606934
1763694524915838700,8.040838623046875,1.7742780447006226,-9.545866966247559,-0.3735794425010681
1763694524925426400,8.050426513671875,1.5873386859893799,-9.672686576843262,-0.246759831905365
1763694524935013000,8.06001318359375,1.477268934249878,-9.964611053466797,-0.4692923426628113
1763694524944600800,8.069600830078125,1.474876046180725,-10.091729164123535,-0.6631109714508057
1763694524954189300,8.079189208984374,1.5897315740585327,-10.225728034973145,-0.6367899179458618
1763694524963776800,8.08877685546875,1.657029628753662,-10.48654556274414,-0.8620143532752991
1763694524973363700,8.09836376953125,1.7383856773376465,-10.285548210144043,-1.0247262716293335
1763694524982951400,8.107951416015625,1.7766708135604858,-9.962218284606934,-0.6607181429862976
1763694524992540000,8.117539794921875,1.8795621395111084,-9.354142189025879,-0.39990049600601196
1763694525002127600,8.127127685546874,1.6450655460357666,-7.6136627197265625,0.26081767678260803
1763694525011714300,8.13671435546875,1.596909999847412,-6.148656845092773,0.6631109714508057
1763694525021302000,8.146302001953124,1.8149559497833252,-6.833303451538086,0.7468597888946533
1763694525030890500,8.155890380859375,1.9441684484481812,-8.128418922424316,0.5913262963294983
1763694525040478200,8.165478271484375,1.7288143634796143,-9.49322509765625,0.28953152894973755
1763694525050065000,8.17506494140625,1.2547364234924316,-10.879267692565918,-0.5745765566825867
1763694525059652600,8.184652587890625,1.285843014717102,-11.104192733764648,-0.7444669604301453
1763694525069241000,8.194240966796874,1.4030914306640625,-10.620841979980469,-0.5673980712890625
1763694525078828500,8.20382861328125,1.446162223815918,-10.17308521270752,-0.39990049600601196
1763694525088415500,8.21341552734375,1.1470593214035034,-9.9502534866333,-0.4860421121120453
1763694525098003200,8.223003173828126,0.9625129103660583,-8.674281120300293,-0.7588238716125488
1763694525107591700,8.232591796875,0.20368902385234833,-8.133204460144043,-1.592124342918396
1763694525117179400,8.242179443359374,0.30179476737976074,-7.750053405761719,-2.0446670055389404
1763694525126766000,8.25176611328125,0.7328019142150879,-8.003992080688477,-1.994417667388916
1763694525136353800,8.261353759765624,0.3496512174606323,-6.893123626708984,-2.1643080711364746
1763694525145942300,8.2709423828125,0.8763712644577026,-6.428617000579834,-2.3772692680358887
1763694525155529700,8.28052978515625,1.139880895614624,-7.094120979309082,-2.4705893993377686
1763694525165116700,8.29011669921875,1.657029628753662,-7.592127323150635,-1.3070793151855469
1763694525174704400,8.299704345703125,1.2906286716461182,-8.638388633728027,0.01196411345154047
1763694525184292900,8.30929296875,1.2523435354232788,-9.366106033325195,0.5889334678649902
1763694525193880600,8.318880615234375,0.7447660565376282,-9.945467948913574,0.6248258352279663
1763694525203467300,8.32846728515625,0.584446907043457,-10.072587013244629,0.43100717663764954
1763694525213055000,8.338054931640626,0.8333004713058472,-10.216156005859375,0.41904306411743164
1763694525222643500,8.3476435546875,1.3384851217269897,-10.896017074584961,0.32572299242019653
1763694525232231200,8.357231201171874,2.20528507232666,-11.458629608154297,0.2512463629245758
1763694525241817900,8.36681787109375,2.604886531829834,-10.52483081817627,0.3520440459251404
1763694525251405600,8.376405517578124,2.767897605895996,-9.394820213317871,0.3735794425010681
1763694525260994000,8.385994140625,2.8325037956237793,-8.590532302856445,0.05503492057323456
1763694525270581500,8.39558154296875,2.667099952697754,-8.24566650390625,0.03349951654672623
1763694525280168400,8.40516845703125,2.29142689704895,-8.669495582580566,0.2847459018230438
1763694525289756200,8.414756103515625,1.781456470489502,-8.98803997039795,0.41904306411743164
1763694525299344600,8.4243447265625,1.410269856452942,-9.663115501403809,0.2225325107574463
1763694525308932000,8.43393212890625,1.012762188911438,-10.118050575256348,0.09092725813388824
1763694525318519000,8.44351904296875,0.859621524810791,-10.15872859954834,-0.3113660514354706
1763694525328106800,8.453106689453126,0.9577272534370422,-9.990931510925293,-0.6607181429862976
1763694525337695200,8.4626953125,0.9601200819015503,-9.84975528717041,-0.7133602499961853
1763694525347283000,8.472282958984374,0.9864411354064941,-9.399605751037598,-0.4692923426628113
1763694525356869600,8.48186962890625,1.0680961608886719,-9.246464729309082,-0.6391827464103699
1763694525376045800,8.5010458984375,1.1973086595535278,-8.56181812286377,-0.43100717663764954
1763694525385633300,8.51063330078125,1.2427722215652466,-8.384749412536621,-0.6846463680267334
1763694525395220200,8.52022021484375,1.1781660318374634,-8.40867805480957,-0.9194421172142029
1763694525404808000,8.529807861328125,1.1183454990386963,-8.195417404174805,-0.9409775137901306
1763694525414396400,8.539396484375,1.2786645889282227,-8.303094863891602,-1.012762188911438
1763694525423983900,8.54898388671875,1.6139588356018066,-8.817850112915039,-1.1730812788009644
1763694525433570800,8.55857080078125,2.0039889812469482,-9.689435958862305,-1.5442678928375244
1763694525443158500,8.568158447265626,2.0231316089630127,-10.161121368408203,-1.7045869827270508
1763694525452747000,8.5777470703125,1.8245272636413574,-10.264012336730957,-1.9776679277420044
1763694525462334700,8.587334716796875,1.599302887916565,-9.844969749450684,-2.0997018814086914
1763694525471921400,8.59692138671875,1.328913927078247,-9.284749984741211,-1.6686947345733643
1763694525481509000,8.606509033203125,1.0992028713226318,-8.839385986328125,-1.2448660135269165
1763694525491097600,8.61609765625,1.0896315574645996,-8.731708526611328,-0.7998009920120239
1763694525500685000,8.62568505859375,1.1733803749084473,-9.270393371582031,-0.6966105103492737
1763694525510272000,8.63527197265625,1.2595219612121582,-9.550652503967285,-0.4381856322288513
1763694525519859700,8.644859619140625,1.4054841995239258,-9.083752632141113,-0.22013968229293823
1763694525529448200,8.6544482421875,1.4868401288986206,-9.653543472290039,-0.6272186636924744
1763694525539035600,8.66403564453125,1.6378871202468872,-10.15872859954834,-0.9960124492645264
1763694525548622600,8.67362255859375,2.094916343688965,-10.604092597961426,-1.0917253494262695
1763694525558210300,8.683210205078124,1.7359927892684937,-9.727721214294434,-0.4549354016780853
1763694525567798800,8.692798828125,1.848455548286438,-9.596116065979004,-0.8213363885879517
1763694525577386200,8.70238623046875,2.23639178276062,-9.715757369995117,-1.1635099649429321
1763694525586973200,8.71197314453125,2.336890459060669,-9.562616348266602,-1.2544373273849487
1763694525596561000,8.721560791015625,1.970489501953125,-9.579366683959961,-1.7620147466659546
1763694525606149400,8.7311494140625,1.9010975360870361,-10.491331100463867,-4.098606109619141
1763694525615736800,8.74073681640625,1.2738789319992065,-9.289535522460938,-2.973381280899048
1763694525625323800,8.75032373046875,1.1446665525436401,-7.939385414123535,0.24885354936122894
1763694525634911500,8.759911376953125,0.4094717800617218,-6.821339130401611,4.393222332000732
1763694525644500000,8.7695,0.08883354067802429,-7.814958572387695,-0.20099709928035736
1763694525654087400,8.77908740234375,0.28983065485954285,-8.588139533996582,-2.087737798690796
1763694525663674400,8.78867431640625,0.8859425783157349,-9.150752067565918,-3.0236306190490723
1763694525673262000,8.798261962890624,2.0685951709747314,-9.366106033325195,-3.492922782897949
1763694525682850600,8.8078505859375,2.6814568042755127,-10.697412490844727,-2.8537402153015137
1763694525692438000,8.81743798828125,2.791825771331787,-11.56152057647705,-2.5833511352539062
1763694525702025000,8.82702490234375,2.4996023178100586,-11.676376342773438,-2.518744945526123
1763694525711612700,8.83661279296875,2.370389938354492,-11.06590747833252,-2.3222343921661377
1763694525721201200,8.846201171875,2.135594129562378,-10.766804695129395,-2.0925233364105225
1763694525730788600,8.85578857421875,2.0542383193969727,-10.9271240234375,-2.11405873298645
1763694525749963300,8.87496337890625,2.5857439041137695,-11.106585502624512,-2.1236300468444824
1763694525759551700,8.8845517578125,2.5761725902557373,-11.427522659301758,-1.415055513381958
1763694525769139200,8.89413916015625,2.6383860111236572,-11.889636993408203,-0.9433703422546387
1763694525778726100,8.90372607421875,2.988037347793579,-11.815459251403809,-1.1395817995071411
1763694525788313900,8.91331396484375,3.3520455360412598,-11.338988304138184,-1.7356936931610107
1763694525797902300,8.92290234375,3.660719633102417,-10.216156005859375,-2.588136672973633
1763694525807489800,8.93248974609375,4.01037073135376,-8.509176254272461,-2.973381280899048
1763694525817076700,8.94207666015625,4.436592102050781,-7.326523780822754,-1.9848463535308838
1763694525826664400,8.95166455078125,4.549055099487305,-6.505187511444092,-1.690230131149292
1763694525836253000,8.9612529296875,3.567399501800537,-6.627221584320068,-1.0558329820632935
1763694525845840400,8.97084033203125,2.39192533493042,-8.13081169128418,-1.80508553981781
1763694525855427300,8.98042724609375,2.0709879398345947,-11.693425178527832,-1.8481563329696655
1763694525865015000,8.99001513671875,2.6503500938415527,-13.246965408325195,-1.7069798707962036
1763694525874603500,8.999603515625,2.923431158065796,-12.380464553833008,-0.675075113773346
1763694525884191000,9.00919091796875,2.3081765174865723,-11.633305549621582,0.44297128915786743
1763694525893778000,9.01877783203125,1.5825530290603638,-11.73888874053955,1.2855439186096191
1763694525903365400,9.028365478515624,1.474876046180725,-10.225728034973145,1.2783654928207397
1763694525912953900,9.037953857421876,1.5945172309875488,-9.093324661254883,0.8665009140968323
1763694525922541600,9.04754150390625,2.518744945526123,-7.340880870819092,0.16510476171970367
1763694525932128500,9.05712841796875,2.94975209236145,-7.312166690826416,-0.4046861231327057
1763694525941716000,9.066716064453125,3.512364625930786,-6.900302410125732,-1.5107684135437012
1763694525951304400,9.076304443359374,3.5075788497924805,-8.968897819519043,-1.7165511846542358
1763694525960892200,9.08589208984375,3.4046874046325684,-10.867302894592285,-2.104487419128418
1763694525970479000,9.09547900390625,3.0933215618133545,-11.731710433959961,-1.9250258207321167
1763694525980066800,9.10506689453125,3.1722846031188965,-10.848160743713379,-2.025524377822876
1763694525989655000,9.114655029296875,3.423830032348633,-9.84975528717041,-1.939382791519165
1763694525999242800,9.12424267578125,3.002394199371338,-9.603294372558594,-0.893121063709259
1763694526008829700,9.13382958984375,3.2297122478485107,-8.719744682312012,-0.5626124143600464
1763694526018417400,9.14341748046875,3.256033420562744,-8.183453559875488,-0.5171487927436829
1763694526028005600,9.153005615234376,3.3113675117492676,-7.678268909454346,-1.2975081205368042
1763694526037593300,9.16259326171875,3.347259759902954,-7.309773921966553,-1.342971682548523
1763694526047180300,9.17218017578125,3.1268210411071777,-6.8620171546936035,-0.8261220455169678
1763694526056768000,9.18176806640625,3.002394199371338,-6.586543560028076,-0.7253243923187256
1763694526066356200,9.191356201171875,2.775076150894165,-6.1965131759643555,-0.7277171611785889
1763694526075944000,9.20094384765625,2.5283162593841553,-5.641079425811768,-0.5075774788856506
1763694526085530600,9.210530517578125,2.3033909797668457,-5.425426006317139,-0.4980062246322632
1763694526095118300,9.220118408203126,2.2459630966186523,-5.96889591217041,-1.1994023323059082
1763694526104706800,9.229706787109375,2.401496648788452,-6.416653156280518,-0.9840483069419861
1763694526114294500,9.23929443359375,2.6790640354156494,-5.291428089141846,-0.3281157910823822
1763694526123881200,9.248881103515625,2.674278497695923,-4.96839714050293,-0.7923234105110168
1763694526133469000,9.258468994140625,2.336890459060669,-5.351248741149902,-1.474876046180725
1763694526143057400,9.268057373046876,2.2962124347686768,-5.660222053527832,-1.9752750396728516
1763694526152645000,9.27764501953125,2.5307090282440186,-5.746363639831543,-2.3461625576019287
1763694526162231800,9.287231689453124,3.0526435375213623,-6.055037498474121,-1.592124342918396
1763694526171819500,9.296819580078125,3.6894333362579346,-6.416653156280518,-1.379163146018982
1763694526181408000,9.306407958984375,4.130012035369873,-6.462116718292236,-1.4222339391708374
1763694526190995500,9.315995361328126,4.6423749923706055,-6.239583969116211,-1.9657038450241089
1763694526200582400,9.32558251953125,4.907978534698486,-6.287440776824951,-1.77397882938385
1763694526210170000,9.335170166015626,4.718945503234863,-6.349654197692871,-2.3126630783081055
1763694526219758600,9.344758544921875,5.236093997955322,-6.687341213226318,-3.332603693008423
1763694526229346000,9.354345947265625,5.401198863983154,-7.484450340270996,-3.3134610652923584
1763694526238933000,9.36393310546875,5.537889003753662,-8.411070823669434,-3.19860577583313
1763694526248520700,9.373520751953125,5.810670852661133,-9.382855415344238,-3.208176851272583
1763694526258109200,9.383109130859374,6.172286033630371,-10.53918743133545,-3.8545382022857666
1763694526267696600,9.392696533203125,6.758826732635498,-12.330215454101562,-4.40757942199707
1763694526277283600,9.40228369140625,7.275975227355957,-12.725030899047852,-4.536791801452637
1763694526286871300,9.411871337890625,7.184749126434326,-12.457035064697266,-4.42193603515625
1763694526296459800,9.421459716796875,6.950252532958984,-10.891231536865234,-3.7348971366882324
1763694526306047200,9.431047119140626,6.595815658569336,-9.502796173095703,-2.8920252323150635
1763694526315634200,9.44063427734375,5.552245616912842,-9.095717430114746,-2.26959228515625
1763694526325222000,9.450221923828124,3.84765887260437,-9.31585693359375,-2.087737798690796
1763694526334810400,9.459810302734375,2.384746789932251,-10.412367820739746,-2.3916261196136475
1763694526344397800,9.469397705078125,1.415055513381958,-12.323036193847656,-2.389233350753784
1763694526353984800,9.47898486328125,0.5078766345977783,-14.075480461120605,-2.035095691680908
1763694526363572500,9.488572509765625,-0.1866401731967926,-14.25733470916748,-1.3046865463256836
1763694526373161000,9.498160888671874,0.25633111596107483,-13.594223976135254,0.33768710494041443
1763694526382748400,9.50774853515625,1.383948802947998,-12.753745079040527,0.7205387353897095
1763694526392335400,9.51733544921875,2.535494804382324,-10.702198028564453,-0.28504499793052673
1763694526401923000,9.526923095703125,2.8516464233398438,-7.788637638092041,-0.8476574420928955
1763694526411511600,9.536511474609375,1.7359927892684937,-5.736792087554932,0.11724831163883209
1763694526421099000,9.54609912109375,0.9290133714675903,-6.431009769439697,0.6487540602684021
1763694526430686000,9.55568603515625,0.3089732229709625,-7.165905475616455,1.5753746032714844
1763694526440273700,9.565273681640624,-0.519242525100708,-7.853243827819824,1.4291132688522339
1763694526449862100,9.574862060546875,-1.1560324430465698,-8.638388633728027,0.7612167000770569
1763694526459449600,9.58444970703125,-1.5655041933059692,-8.595317840576172,1.134796142578125
1763694526469036500,9.59403662109375,-0.8425726890563965,-7.570591926574707,0.6894320249557495
1763694526478624300,9.603624267578125,-0.7372884750366211,-6.560222148895264,0.48364928364753723
1763694526488212700,9.613212646484374,-0.363709032535553,-6.2036919593811035,-0.6774678826332092
1763694526497800200,9.62280029296875,-0.08853443711996078,-6.802196502685547,0.13639089465141296
1763694526507387100,9.63238720703125,0.5916253924369812,-7.936992645263672,0.31824541091918945
1763694526516974800,9.641974853515626,1.4940186738967896,-8.621639251708984,-0.2802593410015106
1763694526526563000,9.65156298828125,2.2172493934631348,-9.495617866516113,-0.031106693670153618
1763694526536150800,9.66115087890625,3.208176851272583,-10.30469036102295,-0.9984052777290344
1763694526545737700,9.67073779296875,3.5004005432128906,-11.06590747833252,-2.135594129562378
1763694526555325400,9.680325439453124,4.912764072418213,-11.650054931640625,-3.8784663677215576
1763694526564913700,9.68991357421875,2.6814568042755127,-11.068300247192383,-2.0997018814086914
1763694526574501400,9.69950146484375,2.4661028385162354,-12.571889877319336,-3.4091739654541016
1763694526584088000,9.709088134765626,-0.02841476909816265,-13.345070838928223,0.2392822653055191
1763694526593675800,9.71867578125,-2.1113669872283936,-11.944671630859375,-1.8816559314727783
1763694526603264300,9.72826416015625,-0.1866401731967926,-10.546365737915039,-7.39771032333374
1763694526612852000,9.73785205078125,0.9912267923355103,-7.173084259033203,-3.5336008071899414
1763694526622438700,9.747438720703125,1.8819550275802612,-6.2898335456848145,-0.5003990530967712
1763694526632026400,9.7570263671875,1.108774185180664,-6.600900173187256,-0.22971096634864807
1763694526641614800,9.76661474609375,0.4453641176223755,-7.082156658172607,0.009571290574967861
1763694526651202600,9.77620263671875,-0.3565305769443512,-7.69741153717041,-0.4142574071884155
1763694526660789200,9.785789306640625,-1.3453645706176758,-8.047062873840332,-0.48843491077423096
1763694526670377000,9.795376953125,-1.5702898502349854,-7.6304121017456055,0.062213387340307236
1763694526679965400,9.80496533203125,-1.3692927360534668,-7.443772315979004,0.5721837282180786
1763694526689553200,9.81455322265625,-0.3852444589138031,-9.287142753601074,0.8497511148452759
1763694526699139800,9.824139892578126,-0.6798607110977173,-9.943075180053711,-0.009571290574967861
1763694526708727600,9.8337275390625,-0.07866404205560684,-10.086943626403809,-0.8763712644577026
1763694526718316000,9.84331591796875,0.8213363885879517,-10.120443344116211,-1.9848463535308838
1763694526727903500,9.852903564453126,1.1805589199066162,-10.386046409606934,-3.8760735988616943
1763694526737490400,9.862490478515625,1.0103694200515747,-10.53200912475586,-4.912764072418213
1763694526747078100,9.872078125,0.47168517112731934,-9.18425178527832,-4.40757942199707
1763694526756666600,9.88166650390625,-0.06669992953538895,-7.592127323150635,-2.903989315032959
1763694526766254000,9.891254150390624,-0.3038884699344635,-6.416653156280518,-1.3286148309707642
1763694526775841000,9.900841064453125,-0.3038884699344635,-5.973681926727295,-0.3448655605316162
1763694526785428700,9.9104287109375,-0.5647061467170715,-6.5578293800354,1.3214362859725952
1763694526795017200,9.920017333984376,-0.6678966283798218,-8.073383331298828,2.597707986831665
1763694526804604700,9.929604736328125,-0.20099709928035736,-9.61525821685791,2.121237277984619
1763694526814191600,9.939191650390624,0.11036894470453262,-10.350153923034668,1.1204391717910767
1763694526823779300,9.948779296875,0.08165507018566132,-10.59212875366211,0.32303106784820557
1763694526833367600,9.958367431640625,0.2922234535217285,-10.000802040100098,0.6559324860572815
1763694526842955300,9.967955322265626,0.8428717851638794,-9.911968231201172,-0.5434698462486267
1763694526852542200,9.977542236328125,1.7096717357635498,-9.921540260314941,-2.6072793006896973
1763694526862130000,9.9871298828125,1.3408780097961426,-9.962218284606934,-2.635993242263794
1763694526871718100,9.99671826171875,1.1279168128967285,-10.005587577819824,-3.270390272140503
1763694526881305900,10.006305908203124,0.5222335457801819,-9.955039978027344,-3.0478577613830566
1763694526890892800,10.015892822265625,-0.18903298676013947,-10.01994514465332,-2.784348249435425
1763694526900480300,10.025480224609375,-0.6702894568443298,-9.706186294555664,-2.8585257530212402
1763694526910068700,10.03506884765625,-0.9957132935523987,-9.17467975616455,-3.0236306190490723
1763694526919656400,10.044656494140625,-1.0555338859558105,-8.64078140258789,-3.1244282722473145
1763694526929243400,10.054243408203124,-0.5694918036460876,-8.341678619384766,-3.349353551864624
1763694526938830800,10.063830810546875,0.3329014480113983,-9.248857498168945,-3.0454649925231934
1763694526948419300,10.07341943359375,0.8787640929222107,-10.216156005859375,-3.746861219406128
1763694526958007000,10.083007080078126,0.5892325639724731,-10.412367820739746,-4.029214382171631
1763694526967593700,10.09259375,-0.004486542660742998,-9.947860717773438,-3.4139597415924072
1763694526977181400,10.102181396484376,-0.4666004180908203,-9.502796173095703,-3.301496982574463
1763694526986770000,10.11177001953125,-0.9143573641777039,-9.430712699890137,-3.804288864135742
1763694526996357600,10.121357666015625,-1.3932210206985474,-9.406784057617188,-4.321437835693359
1763694527005944300,10.1309443359375,-1.8194425106048584,-9.339784622192383,-4.067499160766602
1763694527015532000,10.140531982421875,-1.7258232831954956,-9.581759452819824,-3.363710403442383
1763694527025120500,10.15012060546875,-0.7803592681884766,-10.534401893615723,-3.16749906539917
1763694527034708000,10.1597080078125,-0.21774685382843018,-11.48255729675293,-3.620041608810425
1763694527044295000,10.169294921875,0.036191441118717194,-12.715459823608398,-3.629612922668457
1763694527053882600,10.178882568359375,0.5796613097190857,-13.673187255859375,-3.7205400466918945
1763694527063471000,10.18847119140625,2.1981067657470703,-14.731412887573242,-3.4713873863220215
1763694527073058600,10.19805859375,4.659124851226807,-15.083456993103027,-3.840181350708008
1763694527082645500,10.2076455078125,5.820241928100586,-14.999408721923828,-2.2600209712982178
1763694527092233200,10.217233154296874,5.858527183532715,-15.088242530822754,-2.7101707458496094
1763694527101821700,10.22682177734375,4.402793884277344,-14.228620529174805,-0.5458626747131348
1763694527111409200,10.2364091796875,2.8827531337738037,-13.242179870605469,1.7333009243011475
1763694527120996000,10.24599609375,2.676671266555786,-12.624532699584961,2.0781664848327637
1763694527130583800,10.255583740234375,2.6312077045440674,-12.437891960144043,2.0518453121185303
1763694527140172300,10.26517236328125,1.7024933099746704,-12.193525314331055,2.200200319290161
1763694527149759700,10.274759765625,0.13908281922340393,-11.89442253112793,2.475374937057495
1763694527159346700,10.2843466796875,-1.6923238039016724,-11.666805267333984,1.8744773864746094
1763694527168934400,10.293934326171875,-3.303590774536133,-11.291131973266602,0.7253243923187256
1763694527178522600,10.303522705078125,-4.055535316467285,-10.268798828125,-0.6248258352279663
1763694527188110300,10.3131103515625,-2.6907291412353516,-8.724530220031738,-1.3381860256195068
1763694527197697300,10.322697265625,-0.3397808074951172,-7.709375381469727,-1.1084750890731812
1763694527207284700,10.33228466796875,1.2451651096343994,-7.539484977722168,-0.924227774143219
1763694527216873200,10.341873291015625,1.9752750396728516,-8.068597793579102,-1.4246268272399902
1763694527226461000,10.3514609375,1.9872392416000366,-8.94975471496582,-2.3533411026000977
1763694527236047600,10.361047607421876,2.4373888969421387,-9.878469467163086,-3.3948171138763428
1763694527255223800,10.380223876953124,3.122035264968872,-11.456236839294434,-4.488935470581055
1763694527264811500,10.3898115234375,3.270390272140503,-11.427522659301758,-4.218546390533447
1763694527274398200,10.399398193359374,2.9928228855133057,-11.032407760620117,-3.675076484680176
1763694527283986000,10.40898583984375,2.1379871368408203,-10.323833465576172,-3.0236306190490723
1763694527293574400,10.418574462890625,1.383948802947998,-9.610472679138184,-2.341377019882202
1763694527303162000,10.428162109375,1.1255239248275757,-8.918647766113281,-1.7548363208770752
1763694527312748800,10.437748779296875,0.8500502705574036,-8.090133666992188,-1.072582721710205
1763694527322336500,10.44733642578125,0.5748756527900696,-7.281060218811035,-0.4692923426628113
1763694527331925000,10.456925048828126,0.5006981492042542,-6.507580280303955,-0.04785645380616188
1763694527341512400,10.466512451171875,0.1462612897157669,-5.971288681030273,0.37597227096557617
1763694527351099400,10.476099365234376,0.0768694281578064,-5.648257732391357,0.7277171611785889
1763694527360687000,10.48568701171875,0.21565313637256622,-5.717649936676025,0.9529415965080261
1763694527370275600,10.495275634765624,0.2515454888343811,-5.904289722442627,1.0151549577713013
1763694527379863000,10.504863037109375,0.26590242981910706,-6.239583969116211,0.8593224287033081
1763694527389450000,10.514449951171875,0.5222335457801819,-6.280261993408203,0.5937191247940063
1763694527399037700,10.52403759765625,0.7734799385070801,-6.481259346008301,-0.7157530784606934
1763694527408626200,10.533626220703125,0.47647079825401306,-5.523830890655518,-0.7588238716125488
1763694527418213600,10.543213623046874,0.21326032280921936,-4.84606409072876,-0.5171487927436829
1763694527427800600,10.552800537109375,0.6825526356697083,-4.374378681182861,-0.9194421172142029
1763694527437388000,10.562387939453124,1.5251253843307495,-3.5030922889709473,-0.35922250151634216
1763694527446976500,10.5719765625,1.836491346359253,-2.5262224674224854,0.5075774788856506
1763694527456564200,10.581564208984375,2.487638235092163,-2.085644006729126,1.292722463607788
1763694527466151200,10.591151123046876,3.3903305530548096,-2.0808584690093994,1.8242281675338745
1763694527475739000,10.60073876953125,4.125226020812988,-2.3060827255249023,2.018345832824707
1763694527485327000,10.6103271484375,4.776372909545898,-2.8758738040924072,1.6471593379974365
1763694527494914800,10.619914794921876,5.169095039367676,-3.9675991535186768,1.2233306169509888
1763694527504501500,10.62950146484375,5.429912567138672,-5.566901683807373,0.34725838899612427
1763694527514089200,10.639089111328126,6.114858150482178,-7.647161960601807,-0.8428717851638794
1763694527523677700,10.648677734375,6.634100914001465,-10.074979782104492,-2.5211377143859863
1763694527533265400,10.658265380859374,7.627720355987549,-12.39721393585205,-4.845765113830566
1763694527542852000,10.66785205078125,8.583054542541504,-14.470295906066895,-7.4862446784973145
1763694527552439800,10.677439697265624,9.088239669799805,-15.550057411193848,-9.154939651489258
1763694527562028300,10.6870283203125,8.784051895141602,-14.487045288085938,-9.657731056213379
1763694527571615700,10.69661572265625,8.324331283569336,-11.595020294189453,-8.918049812316895
1763694527581202700,10.70620263671875,7.963014602661133,-9.227322578430176,-7.507780075073242
1763694527590790400,10.715790283203125,6.129215240478516,-8.324929237365723,-6.526423931121826
1763694527600379000,10.72537890625,3.0239295959472656,-8.933005332946777,-4.805087089538574
1763694527609966300,10.73496630859375,1.3671990633010864,-11.288739204406738,-2.6575286388397217
1763694527619553300,10.74455322265625,-0.49292147159576416,-15.540485382080078,-0.8739784955978394
1763694527629141000,10.75414111328125,-3.303590774536133,-19.55085563659668,0.5745765566825867
1763694527638729500,10.7637294921875,-4.017250061035156,-20.688045501708984,1.1395817995071411
1763694527648317000,10.77331689453125,-0.9526425004005432,-20.731115341186523,0.4668995141983032
1763694527657903900,10.78290380859375,1.9800606966018677,-19.921743392944336,0.7516453862190247
1763694527667491600,10.79249169921875,1.9896320104599,-16.910078048706055,1.7189439535140991
1763694527677079800,10.802079833984376,1.1877373456954956,-12.375679016113281,2.386840581893921
1763694527686667500,10.81166748046875,-0.17946170270442963,-8.726922988891602,3.6843485832214355
1763694527696254500,10.82125439453125,-0.6317051649093628,-6.287440776824951,4.599005222320557
1763694527705842000,10.830842041015625,-1.776371717453003,-4.77667236328125,4.1991047859191895
1763694527715430400,10.840430419921875,-3.7944185733795166,-3.82373046875,3.2895328998565674
1763694527725018000,10.85001806640625,-6.61705207824707,-2.890230655670166,2.0135602951049805
1763694527734604800,10.859604736328125,-6.715157508850098,-2.6769702434539795,1.0917253494262695
1763694527744192500,10.869192626953126,-5.587540149688721,-3.182155132293701,0.6870391964912415
1763694527753781000,10.878781005859375,-3.8470606803894043,-4.333701133728027,1.0103694200515747
1763694527763368700,10.88836865234375,-2.2286152839660645,-6.028716564178467,1.4434702396392822
1763694527772955400,10.897955322265625,-0.8330013751983643,-8.478069305419922,1.2065808773040771
1763694527782543000,10.907543212890625,0.6299105882644653,-11.391630172729492,0.32303106784820557
1763694527792131600,10.917131591796876,1.9824535846710205,-13.864612579345703,-0.8955138921737671
1763694527801719000,10.926718994140625,2.580958366394043,-14.573486328125,-1.347757339477539
1763694527811306000,10.936305908203124,0.97926265001297,-13.441082954406738,-2.0446670055389404
1763694527820893700,10.945893798828125,-0.7253243923187256,-11.030014991760254,-2.643171787261963
1763694527830482200,10.955482177734375,-1.2065808773040771,-8.497212409973145,-2.8896324634552
1763694527840069600,10.965069580078126,-0.8066803216934204,-6.85244607925415,-2.7652056217193604
1763694527849656600,10.974656494140625,-0.5742774605751038,-6.0864434242248535,-2.707777976989746
1763694527859244300,10.984244384765624,-0.607776939868927,-6.069394588470459,-2.2743778228759766
1763694527868832800,10.993832763671875,-0.4378865361213684,-6.579364776611328,-1.599302887916565
1763694527878420200,11.003420166015625,-0.1052841991186142,-7.391129970550537,-0.6535396575927734
1763694527888007200,11.013007080078125,-0.13639089465141296,-7.980063438415527,0.062213387340307236
1763694527897595000,11.022594970703125,-0.768395185470581,-8.540283203125,0.1459621787071228
1763694527907183000,11.03218310546875,-1.8505492210388184,-8.817850112915039,0.33050861954689026
1763694527916770800,11.041770751953125,-2.942274570465088,-9.17467975616455,0.0526420995593071
1763694527926357800,11.051357666015624,-2.7984061241149902,-9.234500885009766,-0.385543555021286
1763694527935945200,11.0609453125,-1.6085749864578247,-9.057432174682617,-0.9194421172142029
1763694527945533700,11.07053369140625,-0.275174617767334,-9.49322509765625,-1.7596219778060913
1763694527955121400,11.080121337890626,0.9960124492645264,-11.013265609741211,-4.431507587432861
1763694527964708000,11.0897080078125,1.328913927078247,-11.425129890441895,-3.8617167472839355
1763694527974295800,11.0992958984375,1.6713865995407104,-11.233704566955566,-4.673182487487793
1763694527983884300,11.10888427734375,1.1327024698257446,-10.419546127319336,-3.5336008071899414
1763694527993472000,11.118471923828125,0.1701895147562027,-8.94257640838623,-2.0063817501068115
1763694528003058700,11.12805859375,-0.31106695532798767,-8.346464157104492,-0.23449662327766418
1763694528012646400,11.137646484375,-0.42352959513664246,-8.24566650390625,-0.8548358678817749
1763694528022235000,11.14723486328125,-0.6631109714508057,-7.460521697998047,-1.3911272287368774
1763694528031822300,11.156822265625,-1.1799606084823608,-7.0031938552856445,-1.4844473600387573
1763694528041409300,11.1664091796875,-1.3334003686904907,-6.756732940673828,-0.8333004713058472
1763694528050997000,11.1759970703125,-1.1081759929656982,-6.7902326583862305,-0.040677983313798904
1763694528060585500,11.18558544921875,-0.7181459069252014,-6.881159782409668,0.11724831163883209
1763694528070173000,11.1951728515625,-0.6918248534202576,-7.410272598266602,-1.3959128856658936
1763694528079760000,11.204759765625,-0.42831525206565857,-8.298309326171875,-2.11405873298645
1763694528089347600,11.21434765625,0.014656038954854012,-9.32303524017334,-2.7819554805755615
1763694528098936000,11.22393603515625,-0.04755735024809837,-10.043872833251953,-2.8130621910095215
1763694528108523500,11.2335234375,-0.2512463629245758,-10.347761154174805,-2.7675983905792236
1763694528118110500,11.2431103515625,-0.363709032535553,-10.249655723571777,-3.1028928756713867
1763694528127698200,11.2526982421875,-0.6870391964912415,-10.15155029296875,-3.5479576587677
1763694528137286400,11.262286376953124,-1.0555338859558105,-9.99571704864502,-4.0196428298950195
1763694528146874000,11.2718740234375,-0.8688937425613403,-9.58654499053955,-4.479363918304443
1763694528156460800,11.281460693359374,-0.4378865361213684,-9.871291160583496,-4.7234320640563965
1763694528166048500,11.291048583984375,-0.004486542660742998,-10.38365364074707,-4.773980140686035
1763694528175637000,11.300636962890625,0.134297177195549,-10.68544864654541,-4.886443138122559
1763694528185224700,11.310224609375,0.2994019389152527,-10.836196899414062,-4.9414777755737305
1763694528194811400,11.319811279296875,0.2515454888343811,-11.248061180114746,-4.795515537261963
1763694528204399000,11.329399169921874,0.9050851464271545,-11.14038372039795,-4.824229717254639
1763694528213987600,11.338987548828126,0.8835497498512268,-11.429915428161621,-4.6061835289001465
1763694528223575000,11.348574951171875,0.4046861231327057,-11.79153060913086,-4.338187217712402
1763694528233162000,11.358161865234376,0.09840483218431473,-12.217453002929688,-4.271188259124756
1763694528242749700,11.367749755859375,0.12233305722475052,-12.722638130187988,-4.311866283416748
1763694528252338200,11.377338134765624,0.9218349456787109,-13.263714790344238,-4.295116424560547
1763694528261925600,11.386925537109375,1.726421594619751,-13.931910514831543,-3.9550366401672363
1763694528271512600,11.3965126953125,3.1172497272491455,-14.611771583557129,-3.284747362136841
1763694528281100300,11.406100341796876,4.912764072418213,-15.662818908691406,-2.5833511352539062
1763694528290688800,11.415688720703125,4.888835906982422,-16.2421817779541,-1.714158296585083
1763694528300276200,11.425276123046874,3.9194436073303223,-15.497414588928223,-0.5673980712890625
1763694528309863200,11.43486328125,3.4692938327789307,-14.786447525024414,0.5338985323905945
1763694528319451000,11.444450927734374,2.446960210800171,-14.556736946105957,1.6208382844924927
1763694528329039000,11.4540390625,0.8739784955978394,-14.520844459533691,2.5953152179718018
1763694528338626800,11.463626708984375,-1.3286148309707642,-14.415261268615723,3.3206396102905273
1763694528348213500,11.473213623046876,-3.2772696018218994,-14.092229843139648,3.64127779006958
1763694528357801200,11.48280126953125,-4.47188663482666,-13.88375473022461,3.3828530311584473
1763694528367389700,11.4923896484375,-4.242175579071045,-13.30439281463623,4.268795490264893
1763694528376977400,11.501977294921875,-3.3801610469818115,-11.841779708862305,4.239782810211182
1763694528386564000,11.511564208984375,-1.92951238155365,-10.424331665039062,2.786741018295288
1763694528396151800,11.52115185546875,-1.1321041584014893,-9.73250675201416,0.9409775137901306
1763694528405740300,11.530740234375,-0.4737788736820221,-9.33021354675293,-1.745265007019043
1763694528415328000,11.540327880859374,0.4334000051021576,-9.33739185333252,-6.186343669891357
1763694528424914700,11.549914794921875,2.322533369064331,-10.153943061828613,-9.566803932189941
1763694528434502400,11.55950244140625,4.364508628845215,-10.970194816589355,-9.471091270446777
1763694528444091000,11.5690908203125,3.924229145050049,-11.13320541381836,-6.842276573181152
1763694528453678300,11.57867822265625,1.9250258207321167,-10.582557678222656,-4.876871585845947
1763694528463265300,11.588265380859376,0.584446907043457,-9.99571704864502,-4.4961137771606445
1763694528472853000,11.59785302734375,0.012263216078281403,-9.847362518310547,-4.216153621673584
1763694528482441500,11.60744140625,-1.6205391883850098,-9.60807991027832,-2.7987051010131836
1763694528492029000,11.61702880859375,-1.3262219429016113,-8.65753173828125,-2.26959228515625
1763694528501615900,11.626615966796875,-0.8712865710258484,-7.8317084312438965,-1.4318052530288696
1763694528511203600,11.63620361328125,-0.4163511395454407,-6.694519519805908,-1.0654042959213257
1763694528520791800,11.645791748046875,-0.2632105052471161,-5.42781925201416,0.10767702013254166
1763694528530379500,11.655379638671874,-0.4833501875400543,-4.420141696929932,0.6080760359764099
1763694528539966200,11.66496630859375,-0.31345975399017334,-3.404986619949341,0.732502818107605
1763694528549554000,11.674553955078125,-0.24167509377002716,-2.7442684173583984,0.9002995491027832
1763694528559142400,11.684142333984376,-0.02841476909816265,-2.248655080795288,1.017547845840454
1763694528568730000,11.693730224609375,-0.07866404205560684,-1.9348962306976318,1.197009563446045
1763694528578316800,11.70331689453125,-0.26081767678260803,-1.7673985958099365,1.3142578601837158
1763694528587904500,11.712904541015625,-0.4259224236011505,-1.7697914838790894,1.350150227546692
1763694528597493000,11.722492919921875,-0.6005984544754028,-1.755434513092041,1.4434702396392822
1763694528607080400,11.73208056640625,-0.20338992774486542,-1.6405789852142334,1.781157374382019
1763694528616667400,11.74166748046875,0.6801598072052002,-1.5086746215820312,1.989332914352417
1763694528626255000,11.751255126953126,1.3504493236541748,-1.4297115802764893,1.9366908073425293
1763694528635843600,11.760843505859375,1.7670994997024536,-1.6262221336364746,1.8936200141906738
1763694528645431000,11.77043115234375,2.257927179336548,-2.0593230724334717,1.9414764642715454
1763694528655018000,11.78001806640625,3.2105698585510254,-2.7442684173583984,1.5777673721313477
1763694528664605700,11.789605712890625,4.750051975250244,-3.627519130706787,0.007178467698395252
1763694528674194200,11.799194091796876,6.3732829093933105,-5.279464244842529,-0.11006984114646912
1763694528683781600,11.80878173828125,7.405188083648682,-7.680661678314209,-0.4334000051021576
1763694528702956000,11.8279560546875,11.396117210388184,-18.466310501098633,-4.572684288024902
1763694528712544500,11.83754443359375,9.320343017578125,-24.652652740478516,-7.407281398773193
1763694528722132200,11.84713232421875,7.072286605834961,-22.741985321044922,-10.498209953308105
1763694528731719000,11.856718994140625,9.332307815551758,-18.652950286865234,-11.802896499633789
1763694528741306600,11.866306640625,11.132607460021973,-12.378071784973145,-10.809277534484863
1763694528750895000,11.87589501953125,10.74257755279541,-9.378069877624512,-8.41286563873291
1763694528760482800,11.88548291015625,8.769695281982422,-9.100502967834473,-5.97098970413208
1763694528770069500,11.895069580078125,6.141179084777832,-9.727721214294434,-4.1368913650512695
1763694528779657200,11.9046572265625,3.533900022506714,-10.922338485717773,-2.6240291595458984
1763694528789245700,11.91424560546875,1.328913927078247,-13.424333572387695,-1.474876046180725
1763694528798833200,11.923833251953125,-1.8792630434036255,-16.85982894897461,-0.6343970894813538
1763694528808420000,11.933420166015624,-4.301996231079102,-18.154943466186523,-0.18424734473228455
1763694528818007800,11.9430078125,-3.5048868656158447,-17.78136444091797,0.39511483907699585
1763694528827596300,11.95259619140625,-0.6846463680267334,-17.056039810180664,0.28953152894973755
1763694528837183700,11.962183837890626,1.139880895614624,-13.646865844726562,-0.03349951654672623
1763694528846770700,11.971770751953125,0.7830511927604675,-9.454939842224121,1.0151549577713013
1763694528856358400,11.9813583984375,0.9672985672950745,-6.39511775970459,1.9965113401412964
1763694528865946600,11.990946533203125,0.7304090857505798,-4.862813949584961,3.5431721210479736
1763694528875534300,12.000534423828125,-0.48813581466674805,-5.30339241027832,5.341079235076904
1763694528885121300,12.010121337890626,-2.1257238388061523,-5.676971912384033,5.9300127029418945
1763694528894708700,12.019708740234375,-3.7944185733795166,-5.152644634246826,5.413163185119629
1763694528904297200,12.029297119140624,-4.567599296569824,-4.075275897979736,4.639683246612549
1763694528913885000,12.038885009765625,-4.47188663482666,-3.2252259254455566,3.7372899055480957
1763694528923471600,12.0484716796875,-3.8566319942474365,-3.493520975112915,2.26959228515625
1763694528942647800,12.067647705078125,-2.108973979949951,-7.261917591094971,-1.3573286533355713
1763694528952235300,12.0772353515625,-0.976570725440979,-11.420344352722168,-3.5431721210479736
1763694528961822200,12.086822265625,-0.9047860503196716,-15.227025985717773,-5.274080276489258
1763694528971410000,12.096409912109374,-0.8425726890563965,-16.883756637573242,-6.416353702545166
1763694528980998400,12.105998291015625,0.45972105860710144,-17.228322982788086,-7.587042331695557
1763694528990585900,12.1155859375,1.7216359376907349,-14.9611234664917,-8.015357971191406
1763694529000172800,12.1251728515625,2.2292134761810303,-11.542378425598145,-7.744968891143799
1763694529009760500,12.134760498046875,1.4653047323226929,-8.808279037475586,-6.358626842498779
1763694529019349000,12.144348876953124,0.5365904569625854,-6.85244607925415,-4.740480899810791
1763694529028936400,12.1539365234375,-0.42831525206565857,-5.607579708099365,-3.404388427734375
1763694529038523400,12.1635234375,-1.3357932567596436,-4.874777793884277,-2.2504496574401855
1763694529048111000,12.173111083984375,-1.709073543548584,-4.587639331817627,-0.7468597888946533
1763694529057699300,12.18269921875,-1.6588243246078491,-4.836492538452148,0.6080760359764099
1763694529067287000,12.192287109375,-1.618146300315857,-5.219643592834473,1.4916257858276367
1763694529076874000,12.2018740234375,-1.7787644863128662,-5.796612739562988,2.573779821395874
1763694529086461400,12.21146142578125,-1.8098711967468262,-6.431009769439697,2.9805595874786377
1763694529096050000,12.2210498046875,-1.4171491861343384,-7.079763889312744,3.01405930519104
1763694529105637600,12.2306376953125,-1.1871391534805298,-7.735696315765381,2.6407787799835205
1763694529115224300,12.240224365234376,-0.8401798605918884,-8.470890998840332,1.7189439535140991
1763694529124812000,12.24981201171875,-0.08853443711996078,-8.793922424316406,0.16749759018421173
1763694529134400500,12.259400390625,0.5557330846786499,-8.54746150970459,-1.8888343572616577
1763694529143988000,12.268988037109375,0.5365904569625854,-9.093324661254883,-3.3445677757263184
1763694529153575000,12.278574951171874,0.10079765319824219,-9.926325798034668,-4.153641223907471
1763694529163162600,12.28816259765625,-0.12442677468061447,-10.29751205444336,-4.493721008300781
1763694529172751000,12.297751220703125,-0.16510476171970367,-9.9502534866333,-4.704289436340332
1763694529182338600,12.307338623046874,-0.07387840002775192,-9.411569595336914,-4.383651256561279
1763694529191925500,12.316925537109375,-0.12921242415905,-8.909076690673828,-4.029214382171631
1763694529201513200,12.32651318359375,-0.26081767678260803,-8.334500312805176,-4.177868366241455
1763694529211101400,12.336101318359376,0.31854450702667236,-7.848458290100098,-3.8617167472839355
1763694529220689200,12.345689208984375,1.2954143285751343,-7.908278942108154,-2.9542386531829834
1763694529230276000,12.355276123046876,1.9010975360870361,-8.090133666992188,-1.7787644863128662
1763694529239863600,12.364863525390625,1.4270195960998535,-8.820243835449219,-0.4812564551830292
1763694529249452000,12.3744521484375,0.5078766345977783,-9.275178909301758,0.18903298676013947
1763694529259039700,12.384039794921875,-0.6726822853088379,-9.706186294555664,0.2105683982372284
1763694529268626400,12.39362646484375,-1.689931035041809,-9.919147491455078,-0.4286143481731415
1763694529278214100,12.403214111328126,-2.33180570602417,-9.677472114562988,-1.7428722381591797
1763694529287802600,12.412802734375,-2.9877381324768066,-9.43310546875,-3.643969774246216
1763694529297390000,12.42239013671875,-3.212663412094116,-9.62483024597168,-5.578267574310303
1763694529306977000,12.43197705078125,-2.6668007373809814,-10.230513572692871,-7.251748085021973
1763694529316564700,12.441564697265624,-1.7907286882400513,-11.389237403869629,-8.30997371673584
1763694529326153200,12.4511533203125,-0.8090731501579285,-12.145668983459473,-8.915657043457031
1763694529335740700,12.46074072265625,0.37836506962776184,-12.224631309509277,-8.963513374328613
1763694529345327600,12.47032763671875,1.1901301145553589,-12.152847290039062,-7.864609718322754
1763694529354915300,12.479915283203125,1.1757732629776,-11.88485050201416,-6.67717170715332
