time,seconds_elapsed,z,y,x
1763690860451763500,0.056763427734375,-0.002403469756245613,0.06767502427101135,-0.010743574239313602
1763690860461722600,0.06672265625,-0.04360310733318329,0.10266603529453278,0.038792021572589874
1763690860471682600,0.0766826171875,-0.06560640782117844,0.09566671401262283,0.08002867549657822
1763690860481641500,0.086641357421875,-0.0711657702922821,0.050137750804424286,0.10485343635082245
1763690860491600600,0.0966005859375,-0.06737419217824936,-0.005927955731749535,0.10825502127408981
1763690860501559600,0.1065595703125,-0.05262960121035576,-0.04506097733974457,0.09025311470031738
1763690860511519500,0.11651953125,-0.03365299105644226,-0.0652342289686203,0.05929398536682129
1763690860521478400,0.126478515625,-0.012866754084825516,-0.07693562656641006,0.027027921751141548
1763690860531437300,0.136437255859375,0.005737017374485731,-0.0695139691233635,0.0003620781935751438
1763690860541396700,0.146396728515625,0.016658907756209373,-0.055319856852293015,-0.01549837738275528
1763690860551356700,0.156356689453125,0.01823176071047783,-0.04549044370651245,-0.02780459076166153
1763690860561315600,0.166315673828125,0.010993024334311485,-0.035279616713523865,-0.03859945014119148
1763690860571274500,0.1762744140625,0.0021313601173460484,-0.024149978533387184,-0.045655086636543274
1763690860581233400,0.1862333984375,-0.002633035182952881,-0.013620903715491295,-0.046682536602020264
1763690860591193300,0.196193359375,-0.004469551146030426,-0.002126967068761587,-0.040740758180618286
1763690860601152500,0.206152587890625,-0.0020671188831329346,0.004876846447587013,-0.03655108064413071
1763690860611111400,0.216111328125,-0.0015219850465655327,0.0026471572928130627,-0.028823010623455048
1763690860621070600,0.226070556640625,-0.004945478402078152,-0.0007755372207611799,-0.017790332436561584
1763690860631030500,0.236030517578125,-0.00932183675467968,-0.010002242401242256,-0.0011852355673909187
1763690860640989400,0.245989501953125,-0.01395387388765812,-0.020267128944396973,0.022107571363449097
1763690860650948600,0.255948486328125,-0.018033022060990334,-0.019979143515229225,0.04570027440786362
1763690860660907500,0.265907470703125,-0.019684981554746628,-0.014397423714399338,0.06237352639436722
1763690860670867500,0.275867431640625,-0.021733226254582405,-0.009806450456380844,0.06539326906204224
1763690860680826400,0.285826416015625,-0.021844279021024704,-0.005199979990720749,0.055219996720552444
1763690860690785500,0.29578564453125,-0.022241603583097458,0.005921239033341408,0.03526030108332634
1763690860700744400,0.305744384765625,-0.018921440467238426,0.013738681562244892,0.011234859935939312
1763690860710704600,0.31570458984375,-0.011647015810012817,0.009426233358681202,-0.005749580450356007
1763690860720663600,0.32566357421875,0.0015028754714876413,0.012248917482793331,-0.010845272801816463
1763690860730622500,0.33562255859375,0.014941159635782242,0.013580865226686,-0.007201578468084335
1763690860740581600,0.34558154296875,0.025026284158229828,0.006957316771149635,-0.0044763656333088875
1763690860750541600,0.35554150390625,0.027132853865623474,-0.008009332232177258,-0.0036467784084379673
1763690860760500500,0.36550048828125,0.021021965891122818,-0.014612107537686825,-0.0035692802630364895
1763690860770459400,0.37545947265625,0.014653286896646023,-0.015043498948216438,-0.001584016252309084
1763690860780418300,0.385418212890625,0.009242809377610683,-0.010824518278241158,0.000210954574868083
1763690860790378500,0.39537841796875,0.010013530030846596,-0.002395863411948085,0.00241472409106791
1763690860800337700,0.405337646484375,0.013342747464776039,-0.008941113948822021,0.002883440349251032
1763690860810296600,0.415296630859375,0.015556621365249157,-0.01931021548807621,0.005901580210775137
1763690860820255500,0.42525537109375,0.015025320462882519,-0.021996280178427696,0.00843424629420042
1763690860830215400,0.43521533203125,0.014252202585339546,-0.01198067981749773,0.01074133813381195
1763690860840174300,0.44517431640625,0.015069260261952877,-0.00794146303087473,0.008157006464898586
1763690860850133500,0.455133544921875,0.019012339413166046,-0.005996273830533028,0.0041470895521342754
1763690860860092400,0.465092529296875,0.027927804738283157,-0.009400859475135803,-0.00037282751873135567
1763690860870051600,0.475051513671875,0.0363636240363121,-0.017607182264328003,0.002229199279099703
1763690860880011500,0.485011474609375,0.047631192952394485,-0.03553451597690582,0.013160143978893757
1763690860889970400,0.494970458984375,0.0572742223739624,-0.05685824900865555,0.03583667427301407
1763690860899929600,0.5049296875,0.06746719777584076,-0.06522270292043686,0.07056403160095215
1763690860909888500,0.514888427734375,0.06807707995176315,-0.06979526579380035,0.10653683543205261
1763690860919848400,0.524848388671875,0.06568875908851624,-0.07338280975818634,0.13069836795330048
1763690860929807400,0.534807373046875,0.05781911313533783,-0.0755692720413208,0.12426269799470901
1763690860939766500,0.5447666015625,0.03719373047351837,-0.0806170254945755,0.08940911293029785
1763690860949725400,0.554725341796875,0.01536034606397152,-0.07137900590896606,0.0363931767642498
1763690860959685600,0.564685546875,0.0010453229770064354,-0.0641048476099968,-0.019147047773003578
1763690860969644500,0.57464453125,-0.000184524804353714,-0.07212016731500626,-0.06207454204559326
1763690860979603500,0.584603515625,0.011463874951004982,-0.10125727951526642,-0.07657279074192047
1763690860989562600,0.594562744140625,0.030159801244735718,-0.14669638872146606,-0.06108969822525978
1763690860999522600,0.6045224609375,0.046933721750974655,-0.19596725702285767,-0.020815514028072357
1763690861009481500,0.6144814453125,0.05634959414601326,-0.21791861951351166,0.02162422426044941
1763690861019440400,0.6244404296875,0.05894777551293373,-0.21259522438049316,0.05238320305943489
1763690861029399300,0.6343994140625,0.06002981215715408,-0.18511784076690674,0.06658130139112473
1763690861039359500,0.644359375,0.06097257137298584,-0.11352860182523727,0.07594604790210724
1763690861049318700,0.654318603515625,0.052627015858888626,-0.031795430928468704,0.09062124788761139
1763690861059277600,0.664277587890625,-0.06132005900144577,0.08847132325172424,0.13775813579559326
1763690861069236500,0.674236572265625,-0.1647673398256302,0.18046261370182037,0.217584028840065
1763690861079196400,0.684196533203125,-0.27726057171821594,0.2746570408344269,0.32124996185302734
1763690861089155300,0.6941552734375,-0.33998391032218933,0.21871624886989594,0.4678552448749542
1763690861099114500,0.704114501953125,-0.38322752714157104,0.14318500459194183,0.6171597838401794
1763690861109073400,0.714073486328125,-0.4332800507545471,0.1662818044424057,0.7209484577178955
1763690861119033600,0.72403369140625,-0.49102267622947693,0.2896202802658081,0.7401976585388184
1763690861128992500,0.733992431640625,-0.5440941452980042,0.4157446026802063,0.6457298994064331
1763690861138951700,0.74395166015625,-0.5371571183204651,0.48502033948898315,0.46428045630455017
1763690861148910800,0.753910888671875,-0.47653642296791077,0.4302670657634735,0.23693174123764038
1763690861158870800,0.763870849609375,-0.34303775429725647,0.2800144553184509,0.021766431629657745
1763690861168829700,0.77382958984375,-0.18766279518604279,0.1883905529975891,-0.15222106873989105
1763690861178788600,0.78378857421875,-0.0298318974673748,0.17285579442977905,-0.2613941729068756
1763690861188747500,0.79374755859375,0.10274560004472733,0.2175745964050293,-0.31500890851020813
1763690861198707500,0.80370751953125,0.21070721745491028,0.28150591254234314,-0.3294682800769806
1763690861208666600,0.81366650390625,0.287465900182724,0.3353484869003296,-0.31600335240364075
1763690861218625800,0.823625732421875,0.3194800019264221,0.3711879849433899,-0.2748708426952362
1763690861228584700,0.833584716796875,0.33407869935035706,0.3943277597427368,-0.2089860737323761
1763690861238544600,0.843544677734375,0.3264460861682892,0.3686410188674927,-0.13858674466609955
1763690861248503800,0.85350390625,0.31205806136131287,0.32792553305625916,-0.07970106601715088
1763690861258462700,0.863462646484375,0.2867116928100586,0.28905215859413147,-0.04464267939329147
1763690861268421600,0.873421630859375,0.2755679488182068,0.26866260170936584,-0.038488149642944336
1763690861278381600,0.883381591796875,0.2557455003261566,0.2531009614467621,-0.06784816831350327
1763690861288340500,0.893340576171875,0.2519470453262329,0.23541702330112457,-0.13369563221931458
1763690861298300000,0.9032998046875,0.28454893827438354,0.29350054264068604,-0.21747733652591705
1763690861308258800,0.9132587890625,0.3617960512638092,0.4984022080898285,-0.2994898855686188
1763690861318218800,0.92321875,0.4832889139652252,0.8394530415534973,-0.36866602301597595
1763690861328177700,0.933177734375,0.5973060131072998,1.0728157758712769,-0.38574254512786865
1763690861338136600,0.943136474609375,0.6597869396209717,1.0135349035263062,-0.3151322901248932
1763690861348095700,0.953095703125,0.6745220422744751,0.7205268740653992,-0.15595149993896484
1763690861358055700,0.9630556640625,0.6831400394439697,0.3349730670452118,0.07211709767580032
1763690861368014600,0.9730146484375,0.6440972685813904,-0.027448993176221848,0.28970760107040405
1763690861377973500,0.982973388671875,0.5897104740142822,-0.24362656474113464,0.4815351366996765
1763690861387932700,0.9929326171875,0.5610636472702026,-0.3758234977722168,0.6429535746574402
1763690861397892600,1.002892578125,0.5387002825737,-0.4227420687675476,0.7039437890052795
1763690861407851800,1.012851806640625,0.5747562646865845,-0.31527578830718994,0.6353272199630737
1763690861417810700,1.022810791015625,0.6282490491867065,-0.09519828855991364,0.45724135637283325
1763690861427769600,1.03276953125,0.6319020986557007,0.08786997944116592,0.22744792699813843
1763690861437729500,1.0427294921875,0.5892643332481384,0.1579902023077011,0.011069295927882195
1763690861447688700,1.052688720703125,0.5458133220672607,0.03898358345031738,-0.11203940957784653
1763690861457647600,1.062647705078125,0.4972279369831085,-0.11754876375198364,-0.15840716660022736
1763690861467606800,1.072606689453125,0.41149333119392395,-0.17469070851802826,-0.16225147247314453
1763690861477566700,1.082566650390625,0.3232817053794861,-0.04378887638449669,-0.15032130479812622
1763690861487525600,1.092525634765625,0.27767878770828247,0.2059636116027832,-0.14876602590084076
1763690861497484800,1.10248486328125,0.2588675320148468,0.4086671769618988,-0.1803886741399765
1763690861507443700,1.112443603515625,0.13090717792510986,0.6758461594581604,-0.26055222749710083
1763690861517403600,1.122403564453125,0.08769898861646652,0.7853249907493591,-0.3107416331768036
1763690861527362600,1.132362548828125,0.09929066896438599,0.6556476950645447,-0.3757908046245575
1763690861537321500,1.142321533203125,0.07710680365562439,0.3915926218032837,-0.4169329106807709
1763690861547281000,1.152281005859375,0.007838504388928413,0.30835360288619995,-0.34863772988319397
1763690861557239800,1.16223974609375,-0.032702263444662094,0.524442195892334,-0.2673324942588806
1763690861567199700,1.17219970703125,-0.020008563995361328,0.6717965602874756,-0.30274641513824463
1763690861577158700,1.18215869140625,0.00181470881216228,0.6239923238754272,-0.4237154424190521
1763690861587117600,1.19211767578125,-0.016056450083851814,0.5891804099082947,-0.5565968155860901
1763690861597076700,1.20207666015625,-0.15508891642093658,0.6402281522750854,-0.6637454032897949
1763690861607036700,1.21203662109375,-0.18645131587982178,0.6462823152542114,-0.6586784720420837
1763690861616995600,1.22199560546875,-0.12415198981761932,0.38336676359176636,-0.5646989941596985
1763690861626954500,1.23195458984375,-0.14326898753643036,0.07261458784341812,-0.37628188729286194
1763690861636913700,1.24191357421875,-0.17610816657543182,-0.027852894738316536,-0.12589602172374725
1763690861646873600,1.25187353515625,-0.20532087981700897,-0.10636936873197556,0.05065576359629631
1763690861656832800,1.261832763671875,-0.19121411442756653,-0.1596432328224182,0.12129398435354233
1763690861666791700,1.271791748046875,-0.10835680365562439,-0.40380942821502686,0.16377776861190796
1763690861676750600,1.28175048828125,-0.1575259417295456,-0.70513516664505,0.17128095030784607
1763690861686710500,1.29171044921875,-0.16522380709648132,-0.7753832340240479,0.20817159116268158
1763690861696669700,1.301669677734375,-0.07417779415845871,-0.7816067934036255,0.19170686602592468
1763690861706628600,1.311628662109375,0.046388301998376846,-0.7276479601860046,0.15655353665351868
1763690861716587800,1.321587890625,0.14218725264072418,-0.6028509140014648,0.13256432116031647
1763690861726547700,1.331547607421875,0.19235485792160034,-0.5281754732131958,0.09941944479942322
1763690861736506600,1.341506591796875,0.07846023887395859,-0.33608537912368774,0.0214556697756052
1763690861746465800,1.3514658203125,0.11880046874284744,-0.15631003677845,-0.08936166018247604
1763690861756424700,1.3614248046875,0.09140186756849289,0.08604241162538528,-0.22780396044254303
1763690861766384600,1.371384521484375,0.0049005234614014626,0.29338914155960083,-0.2617259919643402
1763690861776343600,1.381343505859375,-0.2211696356534958,0.5843011736869812,-0.27725303173065186
1763690861786302500,1.391302490234375,-0.3570531904697418,0.820722758769989,-0.29179826378822327
1763690861796262000,1.401261962890625,-0.3447245955467224,0.8937066793441772,-0.31603488326072693
1763690861806221800,1.411221923828125,-0.35140088200569153,0.797596275806427,-0.3087623715400696
1763690861816180700,1.4211806640625,-0.45112454891204834,0.7615298628807068,-0.2904810905456543
1763690861826139600,1.4311396484375,-0.5022806525230408,0.716154158115387,-0.2775476276874542
1763690861836098600,1.4410986328125,-0.47443273663520813,0.5453144907951355,-0.2596852779388428
1763690861846058500,1.45105859375,-0.47597235441207886,0.38325414061546326,-0.22456662356853485
1763690861856017700,1.461017578125,-0.43987560272216797,0.24309544265270233,-0.16550889611244202
1763690861865976600,1.4709765625,-0.39293259382247925,0.13391460478305817,-0.10228251665830612
1763690861875935500,1.480935546875,-0.346670538187027,0.11463519930839539,-0.0833280012011528
1763690861885895700,1.490895751953125,-0.33449485898017883,0.23928968608379364,-0.1352960169315338
1763690861895854600,1.5008544921875,-0.24972857534885406,0.4197172522544861,-0.17009420692920685
1763690861905813800,1.510813720703125,-0.2357216626405716,0.7160707116127014,-0.15718331933021545
1763690861915772700,1.520772705078125,-0.3011952042579651,1.0860782861709595,-0.21262793242931366
1763690861925732600,1.530732666015625,-0.3625299632549286,1.5574020147323608,-0.26456865668296814
1763690861935691500,1.54069140625,-0.448121041059494,2.2209320068359375,-0.3141026496887207
1763690861945650700,1.550650634765625,-0.4510512948036194,2.7323660850524902,-0.3339550197124481
1763690861955609600,1.560609619140625,-0.3684203028678894,2.900608539581299,-0.31160232424736023
1763690861965568800,1.57056884765625,-0.3871322274208069,2.802077531814575,-0.1950264424085617
1763690861975528700,1.58052880859375,-0.5407217741012573,2.6820788383483887,-0.09628814458847046
1763690861985487600,1.590487548828125,-0.5081883072853088,2.4056951999664307,-0.12441619485616684
1763690861995446800,1.60044677734375,-0.362840473651886,1.9759142398834229,-0.11780223995447159
1763690862005405700,1.61040576171875,-0.4812808334827423,1.6004055738449097,-0.08874526619911194
1763690862015365600,1.62036572265625,-0.376926451921463,1.1910079717636108,-0.05560488998889923
1763690862025324500,1.630324462890625,-0.31400448083877563,0.931054949760437,-0.013683129101991653
1763690862035283500,1.640283447265625,-0.23047283291816711,0.7215043902397156,-0.013979805633425713
1763690862045243000,1.650242919921875,-0.14598752558231354,0.5090689659118652,-0.04655056819319725
1763690862055202800,1.660202880859375,-0.10198091715574265,0.32718488574028015,-0.05966504290699959
1763690862065161700,1.67016162109375,-0.09631875902414322,0.0865393877029419,-0.03837636858224869
1763690862075120600,1.68012060546875,-0.056762296706438065,-0.1820707619190216,-0.011725049465894699
1763690862085079600,1.69007958984375,0.03369753435254097,-0.5332233905792236,0.032886046916246414
1763690862095039500,1.70003955078125,0.03894928842782974,-0.7319839000701904,0.11142107099294662
1763690862104998700,1.70999853515625,0.047115061432123184,-0.882779598236084,0.1112198531627655
1763690862114957600,1.71995751953125,0.09076373279094696,-0.9339264035224915,0.07804405689239502
1763690862124916700,1.729916748046875,0.09236139059066772,-0.8141289949417114,0.049468111246824265
1763690862134876700,1.739876708984375,0.14955490827560425,-0.6928073763847351,-0.022682778537273407
1763690862144836000,1.749836181640625,0.25732293725013733,-0.5478131771087646,-0.04959029331803322
1763690862154795300,1.759795166015625,0.30515411496162415,-0.3562144339084625,-0.008405039086937904
1763690862164754200,1.769754150390625,0.29483863711357117,-0.18326213955879211,0.006955721415579319
1763690862174714400,1.77971435546875,0.2665204405784607,0.03005891479551792,0.0018379248213022947
1763690862184673300,1.78967333984375,0.22966092824935913,0.22518321871757507,-0.037426166236400604
1763690862194632200,1.799632080078125,0.14327651262283325,0.39086753129959106,-0.06872870028018951
1763690862204591400,1.80959130859375,0.1180366799235344,0.4470618963241577,-0.08773460239171982
1763690862214551300,1.81955126953125,-0.03783760592341423,0.48489394783973694,-0.10210075974464417
1763690862224510200,1.82951025390625,0.09340163320302963,0.5480111241340637,-0.012724407017230988
1763690862234469000,1.83946923828125,0.1943860501050949,0.2652342617511749,0.017931506037712097
1763690862244428000,1.849427978515625,0.0431954562664032,0.21174414455890656,0.12018544226884842
1763690862254388200,1.85938818359375,0.0031108870171010494,0.11585596948862076,0.1726856678724289
1763690862264347400,1.869347412109375,-0.0707273930311203,0.14006538689136505,0.0950385257601738
1763690862274306300,1.879306396484375,-0.04898348078131676,0.2946254014968872,0.041053853929042816
1763690862284265200,1.88926513671875,0.10380901396274567,0.38352423906326294,0.03723198547959328
1763690862294224400,1.899224365234375,-0.0004175226204097271,0.5360631346702576,0.05326368287205696
1763690862304184300,1.909184326171875,-0.0950242131948471,0.8079451322555542,0.0019787608180195093
1763690862314143200,1.919143310546875,-0.09827353060245514,1.0207538604736328,-0.10089089721441269
1763690862324102100,1.92910205078125,-0.19066202640533447,1.1239656209945679,-0.1620672643184662
1763690862334061000,1.93906103515625,-0.27512097358703613,1.173362135887146,-0.15177147090435028
1763690862344021200,1.949021240234375,-0.30017468333244324,0.9985195994377136,-0.12266290932893753
1763690862353980400,1.95898046875,-0.26540258526802063,0.7486624121665955,0.00846555270254612
1763690862363939300,1.968939208984375,-0.28666824102401733,0.46403968334198,0.11971776187419891
1763690862373898200,1.978898193359375,-0.2317812591791153,0.1097434014081955,0.1740044355392456
1763690862383858200,1.988858154296875,-0.17232324182987213,-0.2299107313156128,0.2280329465866089
1763690862393817000,1.998817138671875,-0.13895809650421143,-0.5654700994491577,0.23827573657035828
1763690862403776300,2.0087763671875,-0.10215216875076294,-0.8831073045730591,0.23775145411491394
1763690862413735200,2.018735107421875,-0.11981318891048431,-1.0782792568206787,0.1919112652540207
1763690862423695400,2.0286953125,-0.11195607483386993,-0.9947001338005066,0.07739385962486267
1763690862433654300,2.038654296875,0.126920685172081,-0.6398946642875671,-0.0460367277264595
1763690862443613200,2.04861328125,0.1723739504814148,-0.3566441535949707,-0.09716098010540009
1763690862453572400,2.058572265625,0.15349560976028442,-0.12433925271034241,-0.07421465218067169
1763690862463532300,2.0685322265625,0.1576988399028778,-0.07314316183328629,-0.11839628219604492
1763690862473491200,2.0784912109375,0.1638462096452713,-0.11675721406936646,-0.12659403681755066
1763690862483450000,2.0884501953125,0.1547773778438568,-0.24819548428058624,-0.12029893696308136
1763690862493409300,2.0984091796875,0.21105343103408813,-0.22812537848949432,-0.13112469017505646
1763690862503369200,2.108369140625,0.30315300822257996,-0.13924050331115723,-0.10437283664941788
1763690862513328400,2.118328369140625,0.27952197194099426,0.05576253682374954,-0.13193362951278687
1763690862523287300,2.128287353515625,0.2542749345302582,0.33525192737579346,-0.19513775408267975
1763690862533246200,2.13824609375,0.19654931128025055,0.5647858381271362,-0.24200540781021118
1763690862543206100,2.1482060546875,0.043951794505119324,0.6769791841506958,-0.27549663186073303
1763690862553165300,2.158165283203125,0.006050220690667629,0.8533853888511658,-0.2927275598049164
1763690862563124200,2.168124267578125,0.029272453859448433,0.8451673984527588,-0.3120306730270386
1763690862573083100,2.178083251953125,0.14028578996658325,0.7670356035232544,-0.1851355880498886
1763690862583043300,2.188043212890625,-0.016218889504671097,0.5208760499954224,-0.09678739309310913
1763690862593002200,2.198002197265625,-0.028718966990709305,0.3105108141899109,-0.030313290655612946
1763690862602961400,2.20796142578125,-0.030900072306394577,0.16005142033100128,-0.027066320180892944
1763690862612920300,2.21792041015625,0.09075286239385605,-0.00728323869407177,-0.05045020580291748
1763690862622879200,2.227879150390625,0.15460136532783508,-0.25933799147605896,0.05735870823264122
1763690862632839200,2.237839111328125,0.2522413730621338,-0.5320731401443481,0.11418470740318298
1763690862642798000,2.247798095703125,0.2787805199623108,-0.6045023202896118,0.14707320928573608
1763690862652757200,2.25775732421875,0.09021380543708801,-0.5404959321022034,0.040085505694150925
1763690862662716200,2.267716064453125,-0.09811852872371674,-0.3828166723251343,-0.06255175173282623
1763690862672676400,2.27767626953125,-0.2678130269050598,-0.3358907103538513,-0.1358747035264969
1763690862682635300,2.28763525390625,-0.34173494577407837,-0.39094480872154236,-0.12884412705898285
1763690862692594200,2.29759423828125,-0.3392805755138397,-0.4948224723339081,-0.11548171937465668
1763690862702553300,2.30755322265625,0.016537480056285858,-0.6017471551895142,-0.10870659351348877
1763690862712513300,2.31751318359375,0.278533399105072,-0.6543765664100647,-0.07277069985866547
1763690862722472200,2.32747216796875,0.38272958993911743,-0.7840515375137329,-0.14055389165878296
1763690862732431000,2.33743115234375,0.3636017143726349,-0.8936855792999268,-0.15993478894233704
1763690862742390300,2.347390380859375,0.2656431794166565,-1.0015770196914673,-0.19059690833091736
1763690862752350200,2.35735009765625,0.43565085530281067,-1.0754655599594116,-0.22472265362739563
1763690862762309400,2.367309326171875,0.41053059697151184,-0.49563586711883545,0.08204085379838943
1763690862772268300,2.377268310546875,0.32810574769973755,-0.29195892810821533,-0.0032370234839618206
1763690862782227200,2.387227294921875,0.08456844836473465,0.12448369711637497,-0.026939857751131058
1763690862792187100,2.397187255859375,0.11765556037425995,0.49140602350234985,-0.29810264706611633
1763690862802146300,2.407146240234375,0.22209887206554413,0.6671898365020752,-0.34057730436325073
1763690862812105200,2.417105224609375,0.1129034161567688,0.4653736352920532,-0.36690983176231384
1763690862822064000,2.427064208984375,-0.025983626022934914,0.2001713067293167,-0.35092097520828247
1763690862832024300,2.4370244140625,0.024138662964105606,0.051988497376441956,-0.340685099363327
1763690862841983200,2.446983154296875,0.28834235668182373,-0.004196160472929478,-0.35296228528022766
1763690862851942400,2.4569423828125,0.2876765727996826,-0.23783448338508606,-0.20958247780799866
1763690862861901300,2.4669013671875,0.03637642040848732,-0.4002828299999237,-0.14317937195301056
1763690862871860200,2.476860107421875,-0.003996567334979773,-0.30551421642303467,-0.1685856729745865
1763690862881820200,2.486820068359375,-0.058328770101070404,-0.06999485939741135,-0.23462139070034027
1763690862891779000,2.496779052734375,-0.08978976309299469,0.01562257669866085,-0.33683353662490845
1763690862901738200,2.50673828125,-0.17048966884613037,0.17986848950386047,-0.4386232793331146
1763690862911697200,2.516697265625,-0.1081186980009079,0.045690715312957764,-0.3710876405239105
1763690862921657300,2.5266572265625,-0.04375116154551506,-0.21371154487133026,-0.2626906931400299
1763690862931616300,2.5366162109375,-0.040539391338825226,-0.4456840455532074,-0.178511381149292
1763690862941575200,2.5465751953125,-0.0472492054104805,-0.5821198225021362,-0.15114271640777588
1763690862951534300,2.556534423828125,0.04173232987523079,-0.3321366310119629,-0.13386066257953644
1763690862961494300,2.566494384765625,0.18447667360305786,-0.0713014230132103,-0.1792537420988083
1763690862971453200,2.576453125,0.0883038118481636,0.28107503056526184,-0.11691019684076309
1763690862981412000,2.586412109375,-0.15092423558235168,0.44800060987472534,-0.21128037571907043
1763690862991371300,2.596371337890625,-0.1424444615840912,0.47058525681495667,-0.3175337016582489
1763690863001331500,2.60633154296875,-0.09594432264566422,0.33726876974105835,-0.3855744004249573
1763690863011290400,2.616290283203125,-0.16706696152687073,0.17738483846187592,-0.4109612703323364
1763690863021249300,2.626249267578125,-0.2599684000015259,-0.0626111626625061,-0.41889798641204834
1763690863031208200,2.636208251953125,-0.3303930461406708,-0.35826385021209717,-0.424714058637619
1763690863041168100,2.646168212890625,-0.37778958678245544,-0.6321766972541809,-0.42972373962402344
1763690863051127300,2.656127197265625,-0.4169345796108246,-0.8673322200775146,-0.45257771015167236
1763690863061086200,2.666086181640625,-0.46269381046295166,-0.8254798650741577,-0.6001657247543335
1763690863071045000,2.676045166015625,-0.4552398920059204,-0.14165017008781433,-0.7107865214347839
1763690863081005300,2.68600537109375,-0.46353378891944885,-0.05699958652257919,-0.4790307283401489
1763690863090964200,2.695964111328125,-0.24619771540164948,-0.07365152984857559,0.1804521381855011
1763690863100923400,2.70592333984375,0.18795982003211975,-0.41023552417755127,-0.15702539682388306
1763690863110882300,2.71588232421875,0.20518141984939575,-0.02150137349963188,-0.22154207527637482
1763690863120841200,2.72584130859375,0.17942678928375244,0.2344387322664261,-0.16439372301101685
1763690863130801200,2.73580126953125,0.17632927000522614,0.20621135830879211,-0.030958693474531174
1763690863140759600,2.745759521484375,0.1768733561038971,0.03702482953667641,0.1483093500137329
1763690863150718500,2.755718505859375,0.1670614778995514,-0.1519232541322708,0.3460325598716736
1763690863160677400,2.765677490234375,0.23033124208450317,-0.5075085759162903,0.31627157330513
1763690863170637600,2.775637451171875,0.3614450693130493,-0.4947456419467926,0.3218892514705658
1763690863180596500,2.785596435546875,0.437602698802948,-0.1496017575263977,0.47997772693634033
1763690863190555600,2.7955556640625,0.42139390110969543,0.35626837611198425,0.6572326421737671
1763690863200514600,2.8055146484375,0.317238450050354,-0.8371341228485107,0.6464340686798096
1763690863210474500,2.815474609375,0.21105316281318665,-0.6330657005310059,0.5642574429512024
1763690863220433400,2.825433349609375,0.18894439935684204,0.044947393238544464,0.37981194257736206
1763690863230392600,2.835392578125,0.1946299821138382,0.46883368492126465,0.22457335889339447
1763690863240351500,2.8453515625,0.13001877069473267,1.3004666566848755,0.1085776686668396
1763690863250311700,2.855311767578125,0.07600001990795135,0.5778553485870361,-0.028546102344989777
1763690863260270600,2.8652705078125,-0.06008486449718475,0.6179454326629639,-0.01928631030023098
1763690863270229500,2.8752294921875,-0.1582585722208023,0.4343303143978119,-0.11687225103378296
1763690863280188700,2.885188720703125,-0.20350408554077148,0.13470205664634705,-0.1489928960800171
1763690863290148600,2.895148681640625,-0.21970435976982117,-0.03307308256626129,-0.17293445765972137
1763690863300107500,2.905107421875,-0.2610113024711609,0.11005540937185287,-0.177810937166214
1763690863310066400,2.91506640625,-0.3185025453567505,0.2957150340080261,-0.11311397701501846
1763690863320025300,2.925025390625,-0.34733232855796814,0.3487052321434021,0.0009626506362110376
1763690863329984500,2.934984619140625,-0.3052639961242676,0.3735533058643341,0.09960800409317017
1763690863339944700,2.94494482421875,-0.17216265201568604,0.19757595658302307,0.15576982498168945
1763690863349903600,2.954903564453125,-0.007666114717721939,0.07786446064710617,0.2506531774997711
1763690863359862500,2.964862548828125,0.1078500747680664,0.7596268653869629,0.28837722539901733
1763690863369821400,2.974821533203125,0.14098379015922546,1.0505589246749878,0.23530416190624237
1763690863379781400,2.984781494140625,0.141373410820961,1.0085992813110352,0.24370083212852478
1763690863389740500,2.994740478515625,0.13035590946674347,0.8627581000328064,0.2575831115245819
1763690863399699500,3.004699462890625,0.08057613670825958,0.7455839514732361,0.21108008921146393
1763690863409658400,3.014658447265625,0.02814168855547905,0.6751564145088196,0.14877863228321075
1763690863419618600,3.02461865234375,0.004228061996400356,0.6202252507209778,0.10971039533615112
1763690863429577500,3.034577392578125,0.0002841867972165346,0.7161435484886169,0.07663926482200623
1763690863439536600,3.04453662109375,0.015266632661223412,0.8674922585487366,0.05484866350889206
1763690863449495600,3.05449560546875,0.03746860846877098,0.9855225086212158,0.044050078839063644
1763690863459455500,3.06445556640625,0.0604652538895607,1.0541741847991943,0.045788295567035675
1763690863469414400,3.074414306640625,0.09523309022188187,1.067579746246338,0.054461147636175156
1763690863479373600,3.08437353515625,0.1702767163515091,1.0062533617019653,0.06234172731637955
1763690863489332500,3.09433251953125,0.27464306354522705,0.943602979183197,0.06825181841850281
1763690863499292700,3.104292724609375,0.3934541642665863,0.9590725898742676,0.1102212592959404
1763690863509251600,3.11425146484375,0.5066752433776855,1.0154311656951904,0.19211451709270477
1763690863519210500,3.12421044921875,0.5934453010559082,1.1011015176773071,0.26540428400039673
1763690863529169700,3.134169677734375,0.6650757789611816,1.2279070615768433,0.31160107254981995
1763690863539128600,3.144128662109375,0.7407071590423584,1.3318524360656738,0.33144018054008484
1763690863549088500,3.154088623046875,0.8369455337524414,1.3925974369049072,0.35718175768852234
1763690863559047400,3.16404736328125,0.9596565365791321,1.4161908626556396,0.40749591588974
1763690863569006300,3.17400634765625,1.0751818418502808,1.497857689857483,0.4818314015865326
1763690863578965500,3.183965576171875,1.107301115989685,1.6042746305465698,0.5618416666984558
1763690863588925700,3.19392578125,1.021744966506958,1.6965546607971191,0.6307917237281799
1763690863598884600,3.203884521484375,0.7750755548477173,1.7720487117767334,0.679456353187561
1763690863608843500,3.213843505859375,0.433493435382843,1.7672009468078613,0.6751074194908142
1763690863618802400,3.223802490234375,0.036430779844522476,1.6732769012451172,0.5835044980049133
1763690863628762400,3.233762451171875,-0.2565164268016815,1.436137318611145,0.4014092981815338
1763690863638721500,3.243721435546875,-0.39589110016822815,1.0983365774154663,0.15379253029823303
1763690863648680400,3.253680419921875,-0.4025423228740692,0.7303694486618042,-0.11779077351093292
1763690863658639400,3.263639404296875,-0.3387598693370819,0.32066282629966736,-0.39722731709480286
1763690863668599600,3.273599609375,-0.20801278948783875,-0.05095122382044792,-0.45172810554504395
1763690863678558500,3.283558349609375,0.03352152556180954,-0.3419792056083679,-0.39093121886253357
1763690863688517600,3.293517578125,0.08227149397134781,-0.2547665536403656,-0.3442625105381012
1763690863698476500,3.3034765625,0.054128825664520264,0.03351493179798126,-0.23071621358394623
1763690863708435500,3.313435546875,0.0645337924361229,0.07173502445220947,-0.0800340324640274
1763690863718395400,3.3233955078125,-0.01467796228826046,-0.07020630687475204,-0.016777336597442627
1763690863728354600,3.3333544921875,-0.17122043669223785,-0.1252775490283966,-0.02509199269115925
1763690863738313500,3.3433134765625,-0.3399287462234497,0.0382305346429348,-0.023288607597351074
1763690863748272400,3.3532724609375,-0.4663444757461548,0.23014351725578308,-0.040686771273612976
1763690863758232600,3.363232666015625,-0.4933617115020752,0.33034881949424744,-0.10456497967243195
1763690863768191500,3.37319140625,-0.4495644271373749,0.3898792564868927,-0.14712309837341309
1763690863778150700,3.383150634765625,-0.3174796402454376,0.35309329628944397,-0.106587253510952
1763690863788109600,3.393109619140625,-0.1412002146244049,0.30723124742507935,-0.044565699994564056
1763690863798069500,3.403069580078125,-0.03128650411963463,0.40651416778564453,0.00981498509645462
1763690863808028400,3.4130283203125,0.046595778316259384,0.4981657862663269,0.09981784969568253
1763690863817987300,3.4229873046875,0.11291781067848206,0.39188751578330994,0.18626591563224792
1763690863827946500,3.432946533203125,0.1656891405582428,0.3477914333343506,0.1257314682006836
1763690863837906700,3.44290673828125,0.14676524698734283,0.33900055289268494,0.06150079891085625
1763690863847865600,3.452865478515625,0.09350788593292236,-0.14025871455669403,0.27570176124572754
1763690863857824500,3.462824462890625,0.09392094612121582,-0.2213558852672577,0.32437556982040405
1763690863867783400,3.472783447265625,0.1294371336698532,-0.22287574410438538,0.30216801166534424
1763690863877743400,3.482743408203125,0.10861068964004517,-0.19098517298698425,0.19825027883052826
1763690863887702500,3.49270263671875,0.029923327267169952,-0.1735531985759735,0.05558367818593979
1763690863897661400,3.502661376953125,-0.047277987003326416,-0.12566959857940674,-0.07724787294864655
1763690863907620400,3.512620361328125,-0.10225895047187805,-0.04758038371801376,-0.16244558990001678
1763690863917579500,3.52257958984375,-0.10524140298366547,0.03441578894853592,-0.16824740171432495
1763690863927539700,3.532539794921875,-0.025624075904488564,0.06240827217698097,-0.1066114604473114
1763690863937498600,3.54249853515625,0.08879224956035614,0.03904327005147934,-0.029199372977018356
1763690863947457500,3.55245751953125,0.16565772891044617,-0.04177434369921684,0.05888254940509796
1763690863957416400,3.56241650390625,0.17360062897205353,-0.1537289172410965,0.16939298808574677
1763690863967376400,3.57237646484375,0.14020805060863495,-0.23200108110904694,0.3051212728023529
1763690863977335600,3.58233544921875,0.11228320002555847,-0.20478849112987518,0.4470472037792206
1763690863987294500,3.59229443359375,0.07211767137050629,-0.07213164120912552,0.5409833192825317
1763690863997253400,3.60225341796875,0.015825897455215454,0.06539902091026306,0.5459199547767639
1763690864007213600,3.612213623046875,-0.05574016273021698,0.19949904084205627,0.41777294874191284
1763690864017172500,3.62217236328125,-0.1674608439207077,0.29108133912086487,0.23245179653167725
1763690864027131600,3.632131591796875,-0.3053950071334839,0.27464964985847473,0.07818926125764847
1763690864037090600,3.642090576171875,-0.42303669452667236,0.16417743265628815,-0.03428589180111885
1763690864047050500,3.652050537109375,-0.5286858677864075,0.19402852654457092,-0.0654669776558876
1763690864057009400,3.662009521484375,-0.6194405555725098,0.3024405241012573,0.00896824337542057
1763690864066968300,3.67196826171875,-0.6672994494438171,0.38073107600212097,0.14570052921772003
1763690864076927500,3.681927490234375,-0.742188036441803,0.500381350517273,0.296569287776947
1763690864086886400,3.691886474609375,-0.8521260023117065,0.5975478291511536,0.4128980338573456
1763690864096846600,3.7018466796875,-0.9912154674530029,0.6118520498275757,0.47738221287727356
1763690864106805500,3.711805419921875,-1.0954089164733887,0.5085394978523254,0.5144787430763245
1763690864116764700,3.7217646484375,-1.2125579118728638,0.43149763345718384,0.546359121799469
1763690864126723600,3.7317236328125,-1.1800111532211304,0.8443818688392639,0.5360180735588074
1763690864136684500,3.7416845703125,-1.030137300491333,0.8645753264427185,0.4259209930896759
1763690864146643500,3.7516435546875,-0.7263843417167664,0.6378215551376343,0.4023083448410034
1763690864156602600,3.7616025390625,-0.3572123944759369,0.5060884356498718,0.3849867582321167
1763690864166561500,3.7715615234375,-0.035835180431604385,0.508696973323822,0.40769898891448975
1763690864176521500,3.781521484375,0.2191196233034134,0.5275479555130005,0.4891074299812317
1763690864186480600,3.791480712890625,0.392997682094574,0.49317455291748047,0.5856890678405762
1763690864196439600,3.801439453125,0.514795184135437,0.48946812748908997,0.6755020022392273
1763690864206398500,3.8113984375,0.5550837516784668,0.46595269441604614,0.7650433778762817
1763690864216357400,3.821357421875,0.49691474437713623,0.5142279267311096,0.9079225063323975
1763690864226317300,3.8313173828125,0.444367378950119,0.4750669300556183,1.096953272819519
1763690864236276500,3.8412763671875,0.40912389755249023,0.2960253357887268,1.2991020679473877
1763690864246235600,3.851235595703125,0.2694946527481079,0.09520168602466583,1.4641560316085815
1763690864256194600,3.861194580078125,0.11277960240840912,0.05026239529252052,1.4675079584121704
1763690864266154500,3.871154541015625,-0.0679643452167511,0.16872192919254303,1.2173763513565063
1763690864276113400,3.881113525390625,-0.24874770641326904,0.3852108120918274,0.7780687808990479
1763690864286072600,3.891072509765625,-0.39672785997390747,0.5923733115196228,0.2565307915210724
1763690864296031500,3.901031494140625,-0.45094528794288635,0.6974220275878906,-0.20255543291568756
1763690864305991400,3.910991455078125,-0.4556090235710144,0.7005847692489624,-0.5544444918632507
1763690864315950300,3.920950439453125,-0.4446223974227905,0.7401303052902222,-0.7996236681938171
1763690864325909500,3.930909423828125,-0.45272719860076904,0.7881244421005249,-0.932110607624054
1763690864335868700,3.94086865234375,-0.5669653415679932,0.7096912264823914,-0.8917271494865417
1763690864345828600,3.95082861328125,-1.0756096839904785,0.4871966242790222,-0.8666782975196838
1763690864355787500,3.96078759765625,-1.3157460689544678,0.6954913139343262,-0.7921024560928345
1763690864365746400,3.970746337890625,-1.450505018234253,0.8166190385818481,-0.6872953772544861
1763690864375705600,3.98070556640625,-1.5171551704406738,0.8130617737770081,-0.5903559327125549
1763690864385664500,3.99066455078125,-1.5303540229797363,0.7395399212837219,-0.5209614038467407
1763690864395624400,4.00062451171875,-1.4978128671646118,0.6424820423126221,-0.4851795434951782
1763690864405583600,4.01058349609375,-1.4370027780532837,0.47030919790267944,-0.4687712788581848
1763690864415542500,4.02054248046875,-1.3647557497024536,0.24360652267932892,-0.4646787941455841
1763690864425501700,4.030501708984375,-1.2718702554702759,-0.03474440798163414,-0.4924931228160858
1763690864435461600,4.040461669921875,-1.146102786064148,-0.2719095051288605,-0.5595526695251465
1763690864445420500,4.050420654296875,-1.02243173122406,-0.45947515964508057,-0.6702051758766174
1763690864455379500,4.06037939453125,-0.9222496747970581,-0.5945923924446106,-0.8239268660545349
1763690864465338400,4.07033837890625,-0.8498333096504211,-0.6702770590782166,-1.0061790943145752
1763690864475298300,4.08029833984375,-0.7845472097396851,-0.7574857473373413,-1.1918772459030151
1763690864485257500,4.090257568359375,-0.7237019538879395,-0.8293620944023132,-1.3563649654388428
1763690864495216600,4.100216552734375,-0.6777693629264832,-0.8440232872962952,-1.4716788530349731
1763690864505175600,4.110175537109375,-0.6613813638687134,-0.8337575793266296,-1.523613691329956
1763690864515134500,4.120134521484375,-0.6787970662117004,-0.7927733063697815,-1.5138757228851318
1763690864525094400,4.130094482421875,-0.7090618014335632,-0.6910325884819031,-1.4686908721923828
1763690864535053600,4.140053466796875,-0.7288477420806885,-0.5920305848121643,-1.4093949794769287
1763690864545012500,4.150012451171875,-0.7285337448120117,-0.5410142540931702,-1.3558393716812134
1763690864554971400,4.159971435546875,-0.7145606875419617,-0.4990805387496948,-1.3131545782089233
1763690864564931300,4.169931396484375,-0.6919919848442078,-0.38668712973594666,-1.2853777408599854
1763690864574890500,4.179890380859375,-0.685021698474884,-0.21483583748340607,-1.2737504243850708
1763690864584849700,4.189849609375,-0.6994075775146484,-0.055193446576595306,-1.27006196975708
1763690864594808600,4.19980859375,-0.7291443943977356,0.040685344487428665,-1.2647655010223389
1763690864604768500,4.2097685546875,-0.779321014881134,-0.10521619766950607,-1.315700650215149
1763690864614727400,4.2197275390625,-0.8286800384521484,0.09463555365800858,-1.2852433919906616
1763690864624686600,4.2296865234375,-0.8497360944747925,0.041566744446754456,-1.3044633865356445
1763690864634645500,4.2396455078125,-0.8417415618896484,0.12270709127187729,-1.2990286350250244
1763690864644604400,4.2496044921875,-0.8066237568855286,0.23242907226085663,-1.291144847869873
1763690864654564600,4.259564697265625,-0.7698098421096802,0.3668140172958374,-1.2709134817123413
1763690864664523500,4.2695234375,-0.7312829494476318,0.481871634721756,-1.2482075691223145
1763690864674482700,4.279482666015625,-0.6911088824272156,0.5743010640144348,-1.2282341718673706
1763690864684441600,4.289441650390625,-0.6528736352920532,0.6242198348045349,-1.2343151569366455
1763690864694401500,4.299401611328125,-0.6288452744483948,0.6479594111442566,-1.2797287702560425
1763690864704360400,4.3093603515625,-0.6103993654251099,0.6748799681663513,-1.3715050220489502
1763690864714319400,4.3193193359375,-0.5747553706169128,0.7270063161849976,-1.5038748979568481
1763690864724278500,4.329278564453125,-0.5081638097763062,0.818501889705658,-1.658844232559204
1763690864734238700,4.33923876953125,-0.4141920506954193,0.9265005588531494,-1.802013874053955
1763690864744197600,4.34919775390625,-0.2956872284412384,1.0202314853668213,-1.906756043434143
1763690864754156500,4.359156494140625,-0.16178405284881592,1.118443489074707,-1.9629963636398315
1763690864764115500,4.369115478515625,-0.020787782967090607,1.2223600149154663,-1.9827613830566406
1763690864774074600,4.37907470703125,0.12173528224229813,1.252116084098816,-1.978320837020874
1763690864784034600,4.38903466796875,0.24448491632938385,1.2092938423156738,-1.956770896911621
1763690864793993500,4.398993408203125,0.3550681471824646,1.2080761194229126,-1.929469108581543
1763690864803952400,4.408952392578125,0.47548776865005493,1.2541881799697876,-1.908467173576355
1763690864813911600,4.41891162109375,0.6037234663963318,1.2916244268417358,-1.9115580320358276
1763690864823871500,4.42887158203125,0.6750093698501587,1.300877332687378,-1.9468803405761719
1763690864833830700,4.43883056640625,0.6738701462745667,1.2226306200027466,-2.005218982696533
1763690864843789600,4.44878955078125,0.7079615592956543,1.1880364418029785,-2.0741689205169678
1763690864853748500,4.45874853515625,0.7085127234458923,1.1756796836853027,-2.1403517723083496
1763690864863708400,4.46870849609375,0.6827850341796875,1.1027090549468994,-2.1955151557922363
1763690864873667600,4.47866748046875,0.6846830248832703,1.0700247287750244,-2.251448392868042
1763690864883626500,4.48862646484375,0.7543452382087708,1.0521240234375,-2.308751344680786
1763690864893585400,4.49858544921875,0.8604114651679993,0.8179705739021301,-2.2830088138580322
1763690864903544300,4.50854443359375,0.8966099619865417,0.39702069759368896,-2.0093603134155273
1763690864913504500,4.51850439453125,0.8400073647499084,-0.001458355924114585,-1.5370217561721802
1763690864923463700,4.528463623046875,0.7638311386108398,-0.17561843991279602,-1.0624085664749146
1763690864933422600,4.538422607421875,0.6918887495994568,-0.17612884938716888,-0.8130388855934143
1763690864943381500,4.548381591796875,0.6739784479141235,-0.025566238909959793,-0.8675737380981445
1763690864953341400,4.558341552734375,0.7026005387306213,0.13002821803092957,-1.1274093389511108
1763690864963300400,4.56830029296875,0.7096230387687683,0.2604570686817169,-1.4189107418060303
1763690864973259500,4.578259521484375,0.720982015132904,0.3785509765148163,-1.6300010681152344
1763690864983218400,4.588218505859375,0.7793952226638794,0.48611313104629517,-1.7160615921020508
1763690864993178600,4.5981787109375,0.9022276401519775,0.4725039601325989,-1.6758403778076172
1763690865003137500,4.608137451171875,0.9291862845420837,0.32604047656059265,-1.5262614488601685
1763690865013096400,4.618096435546875,0.9467841982841492,0.22728492319583893,-1.3863972425460815
1763690865023055600,4.6280556640625,0.9959596991539001,0.11652219295501709,-1.3106844425201416
1763690865033014500,4.6380146484375,1.0739340782165527,0.02000872790813446,-1.293899655342102
1763690865042974500,4.647974365234375,1.1622461080551147,-0.02794361673295498,-1.3268719911575317
1763690865052933400,4.657933349609375,1.2439814805984497,0.009841196238994598,-1.375282883644104
1763690865062892500,4.667892578125,1.315097451210022,0.164375901222229,-1.3979480266571045
1763690865072851500,4.6778515625,1.3898239135742188,0.8157708048820496,-1.8986804485321045
1763690865082811600,4.687811767578125,1.234993815422058,0.8328792452812195,-2.1380057334899902
1763690865092770600,4.6977705078125,1.0275386571884155,0.6248822808265686,-1.9284734725952148
1763690865102729500,4.7077294921875,0.7893972396850586,0.5605261921882629,-1.3645440340042114
1763690865112688600,4.717688720703125,0.5602769255638123,0.5266779661178589,-0.5638769865036011
1763690865122647600,4.7276474609375,0.3234870433807373,0.4657411277294159,0.2753199338912964
1763690865132607500,4.737607421875,0.10098236054182053,0.5196555852890015,0.9572652578353882
1763690865142565600,4.747565673828125,-0.20009998977184296,0.4286934733390808,1.5656228065490723
1763690865152524800,4.75752490234375,-0.45004191994667053,0.2006361335515976,1.467572808265686
1763690865162483700,4.767483642578125,-0.31673499941825867,-0.367672860622406,1.0377076864242554
1763690865172443600,4.777443603515625,-0.22902245819568634,-0.6100832223892212,0.5264753103256226
1763690865182402600,4.787402587890625,-0.2829674482345581,-0.8639506101608276,0.16072584688663483
1763690865192361500,4.797361572265625,-0.5305145978927612,-1.0369013547897339,-0.07606350630521774
1763690865202320600,4.807320556640625,-0.8750272989273071,-1.1550694704055786,-0.24239389598369598
1763690865212279600,4.817279541015625,-1.0124123096466064,-1.3660776615142822,-0.37651243805885315
1763690865222239700,4.82723974609375,-1.765724778175354,-1.3126037120819092,-0.11910699307918549
1763690865232198700,4.83719873046875,-2.68717360496521,-1.0329792499542236,-0.045453984290361404
1763690865242157800,4.84715771484375,-3.201272964477539,-0.8062089681625366,0.19044215977191925
1763690865252116700,4.85711669921875,-3.335454225540161,-0.45354726910591125,0.23848851025104523
1763690865262076700,4.86707666015625,-2.8746917247772217,0.31844910979270935,0.0604243203997612
1763690865272035600,4.87703564453125,-2.1304709911346436,0.7601264715194702,-0.08197254687547684
1763690865281994500,4.886994384765625,-1.8467963933944702,0.8745095133781433,-0.004996541887521744
1763690865291953700,4.89695361328125,-2.0499050617218018,0.8044844269752502,0.13069285452365875
1763690865301913900,4.906913818359375,-2.363955020904541,0.6390533447265625,0.3753702640533447
1763690865311872800,4.916872802734375,-2.748349666595459,0.10884733498096466,0.22668251395225525
1763690865321831700,4.926831787109375,-2.982112407684326,-0.2041284143924713,0.09225866943597794
1763690865331790600,4.93679052734375,-2.9657223224639893,-0.7119272351264954,0.15392228960990906
1763690865341749800,4.946749755859375,-2.5759785175323486,-1.140463948249817,0.213683620095253
1763690865351709700,4.956709716796875,-2.166692018508911,-1.4019312858581543,0.19655826687812805
1763690865361668600,4.966668701171875,-1.7871224880218506,-1.5010086297988892,0.169684037566185
1763690865371627500,4.97662744140625,-1.520432472229004,-1.3563936948776245,0.1475573182106018
1763690865381586700,4.986586669921875,-1.280212640762329,-1.2594610452651978,0.1761104017496109
1763690865391546600,4.996546630859375,-1.2633694410324097,-1.2356494665145874,0.23695367574691772
1763690865401505800,5.006505859375,-1.339185118675232,-1.3779045343399048,0.252325177192688
1763690865411464700,5.016464599609375,-1.4945882558822632,-1.4339553117752075,0.20496229827404022
1763690865421423600,5.026423583984375,-1.6478146314620972,-1.4252238273620605,0.13827088475227356
1763690865431382800,5.0363828125,-1.7175204753875732,-1.1929354667663574,0.11695333570241928
1763690865441342700,5.0463427734375,-1.7420034408569336,-0.8325176239013672,0.0953148826956749
1763690865451301600,5.056301513671875,-1.6810425519943237,-0.5734476447105408,0.012319212779402733
1763690865461260500,5.066260498046875,-1.5623977184295654,-0.33909881114959717,-0.1501394659280777
1763690865471219700,5.0762197265625,-1.483518362045288,-0.07624667137861252,-0.32999885082244873
1763690865481179600,5.0861796875,-1.417328119277954,0.20277909934520721,-0.3936864733695984
1763690865491138800,5.096138916015625,-1.2853277921676636,0.25736796855926514,-0.4539913833141327
1763690865501097700,5.10609765625,-1.0359134674072266,-0.020906513556838036,-0.524235725402832
1763690865511056600,5.116056640625,-0.6963667869567871,-0.5842933654785156,-0.5561329126358032
1763690865521015600,5.126015625,-0.22901739180088043,-0.8785185813903809,-0.5792840123176575
1763690865530975500,5.1359755859375,0.03092845156788826,-1.0503541231155396,-0.6285808682441711
1763690865540934700,5.1459345703125,0.01185382716357708,-1.1113512516021729,-0.6098111867904663
1763690865550893800,5.155893798828125,-0.10872773081064224,-0.994466245174408,-0.4513552486896515
1763690865560852700,5.165852783203125,-0.2832971513271332,-0.825675368309021,-0.25695914030075073
1763690865570812700,5.175812744140625,-0.41764402389526367,-0.6085715293884277,-0.08346430212259293
1763690865580771600,5.185771484375,-0.4639494717121124,-0.3420026898384094,0.07462479919195175
1763690865590730800,5.195730712890625,-0.461475133895874,-0.15965120494365692,0.22041943669319153
1763690865600689700,5.205689697265625,-0.4116961359977722,-0.029017562046647072,0.36732447147369385
1763690865610648600,5.215648681640625,-0.2645444869995117,0.146748885512352,0.5028993487358093
1763690865620608500,5.2256083984375,-0.10869923233985901,0.17473791539669037,0.4959884285926819
1763690865630567700,5.235567626953125,-0.07947397232055664,0.1812964528799057,0.2612171769142151
1763690865640526800,5.24552685546875,-0.060237158089876175,0.22089792788028717,-0.0035857181064784527
1763690865650485800,5.25548583984375,-0.030363405123353004,0.16034172475337982,-0.2236727774143219
1763690865660445700,5.26544580078125,0.027332913130521774,0.0813550353050232,-0.40861785411834717
1763690865670404600,5.275404541015625,0.05764419957995415,0.00259727262891829,-0.5597027540206909
1763690865680363800,5.28536376953125,0.03830965235829353,-0.09631785750389099,-0.7183017134666443
1763690865690322700,5.29532275390625,0.0043511525727808475,-0.0951513946056366,-0.8054779171943665
1763690865700281600,5.305281494140625,-0.007578190416097641,0.024240676313638687,-0.8024641275405884
1763690865710241500,5.315241455078125,-0.1681053191423416,-0.11563087999820709,-0.6262325048446655
1763690865720200700,5.32520068359375,-0.5216881632804871,-0.5550327301025391,-0.33823829889297485
1763690865730159900,5.335159912109375,-0.8277778029441833,-1.0635695457458496,-0.0219973623752594
1763690865740118800,5.345118896484375,-0.7625830769538879,-1.187715768814087,0.2593480348587036
1763690865750078700,5.35507861328125,-0.6699124574661255,-1.2324841022491455,0.5139555931091309
1763690865760037600,5.36503759765625,-0.6323363184928894,-1.2229665517807007,0.7741299271583557
1763690865769996500,5.37499658203125,-0.6239386200904846,-1.0901294946670532,0.9261524081230164
1763690865779955700,5.384955810546875,-0.5832013487815857,-0.7042754888534546,0.3599361777305603
1763690865789915600,5.39491552734375,-0.5523723363876343,-0.1869959831237793,0.06459929049015045
1763690865799874800,5.404874755859375,-0.3752742409706116,0.3076683282852173,-0.21935652196407318
1763690865809833700,5.414833740234375,-0.11544928699731827,0.4462870657444,-0.3599454462528229
1763690865819792600,5.424792724609375,0.061165694147348404,0.3796539604663849,-0.33938851952552795
1763690865829751800,5.434751708984375,0.11339402198791504,0.1880691796541214,-0.23820434510707855
1763690865839711700,5.444711669921875,0.22983434796333313,-0.1149093359708786,-0.07058098167181015
1763690865849670700,5.454670654296875,0.18693801760673523,-0.1679060310125351,0.06342221051454544
1763690865859629600,5.464629638671875,0.09419821202754974,-0.25050556659698486,0.037690214812755585
1763690865869588700,5.474588623046875,0.07864723354578018,-0.2168676108121872,0.021824322640895844
1763690865879548700,5.484548583984375,0.10099088400602341,-0.08647418022155762,-0.007904808968305588
1763690865889507800,5.4945078125,0.12391004711389542,0.03169367462396622,0.005709787365049124
1763690865899466800,5.504466796875,0.09379102289676666,0.05895059555768967,-0.006837696302682161
1763690865909425700,5.51442578125,0.0301891528069973,0.051206961274147034,-0.08581732213497162
1763690865919384800,5.524384765625,0.01129136048257351,0.03421333059668541,-0.14696934819221497
1763690865929344800,5.5343447265625,0.008760293945670128,0.021822448819875717,-0.14685310423374176
1763690865939303700,5.5443037109375,0.006095267832279205,-0.05113937705755234,-0.11234227567911148
1763690865949262600,5.5542626953125,-0.012994267046451569,-0.04699893295764923,-0.1476263552904129
1763690865959221500,5.564221435546875,-0.041007526218891144,-0.0048951562494039536,-0.1273583620786667
1763690865969181700,5.574181640625,-0.05095629766583443,0.02151142619550228,-0.07199670374393463
1763690865979140900,5.584140869140625,-0.058043766766786575,0.03403041139245033,-0.01154827605932951
1763690865989099800,5.594099853515625,-0.09256181865930557,0.04132014140486717,0.05438263714313507
1763690865999058700,5.60405859375,-0.13902410864830017,0.02506474032998085,0.09968113899230957
1763690866009017600,5.614017578125,-0.14234799146652222,0.06527412682771683,0.1006336659193039
1763690866018977500,5.6239775390625,-0.08490094542503357,0.1240793764591217,0.05691814050078392
1763690866028936700,5.633936767578125,-0.008814966306090355,0.2019626945257187,0.04339513182640076
1763690866038895600,5.6438955078125,0.02972736582159996,0.2335459291934967,0.0691915825009346
1763690866048854500,5.6538544921875,-0.010350033640861511,0.21062339842319489,0.09585244953632355
1763690866058813700,5.663813720703125,-0.10535164922475815,0.1790500283241272,0.10763294249773026
1763690866068773600,5.673773681640625,-0.23062407970428467,0.19113072752952576,0.13816742599010468
1763690866078732800,5.68373291015625,-0.2810600697994232,0.1959526389837265,0.14243488013744354
1763690866088691700,5.693691650390625,-0.2679000794887543,0.14061538875102997,0.07302226126194
1763690866098650600,5.703650634765625,-0.42907750606536865,0.15288937091827393,0.013637226074934006
1763690866108610600,5.713610595703125,-0.7452051043510437,0.19836072623729706,0.011278469115495682
1763690866118569700,5.72356982421875,-0.9305102229118347,0.291441410779953,-0.07678934186697006
1763690866128528600,5.733528564453125,-1.0251553058624268,0.2793758809566498,-0.2567010521888733
1763690866138487600,5.743487548828125,-1.0869745016098022,0.2395547330379486,-0.3592314124107361
1763690866148447000,5.753447021484375,-1.255254864692688,0.15241722762584686,-0.42188361287117004
1763690866158407000,5.763406982421875,-1.325728178024292,-0.013663089834153652,-0.5041587948799133
1763690866168366000,5.773365966796875,-1.3776789903640747,-0.11207365989685059,-0.5582373738288879
1763690866178325000,5.783324951171875,-1.447077989578247,-0.13418987393379211,-0.584548830986023
1763690866188284000,5.793283935546875,-1.533734679222107,-0.1820037066936493,-0.6097828149795532
1763690866198244000,5.803244140625,-1.6152780055999756,-0.19309498369693756,-0.6193342804908752
1763690866208203000,5.813203125,-1.6541081666946411,-0.23580075800418854,-0.5983757972717285
1763690866218162200,5.823162109375,-1.6502599716186523,-0.2583335041999817,-0.5438345670700073
1763690866228121000,5.83312109375,-1.605444312095642,-0.2890997529029846,-0.4642121493816376
1763690866238080000,5.843080078125,-1.4840794801712036,-0.3409898281097412,-0.35037028789520264
1763690866248040000,5.8530400390625,-1.308687448501587,-0.41274797916412354,-0.19199863076210022
1763690866257998800,5.862998779296875,-1.1548839807510376,-0.5029441714286804,-0.04910246655344963
1763690866267958000,5.8729580078125,-1.0668063163757324,-0.5783730149269104,0.06615424156188965
1763690866277917000,5.8829169921875,-0.9894680976867676,-0.6475156545639038,0.12149713188409805
1763690866287877000,5.892877197265625,-0.965521514415741,-0.745476245880127,0.11390147358179092
1763690866297836000,5.9028359375,-0.8990128040313721,-0.7765284180641174,0.07699645310640335
1763690866307795000,5.912794921875,-0.8205310702323914,-0.729373037815094,0.05551408976316452
1763690866317754000,5.922754150390625,-0.6947742104530334,-0.6390261054039001,0.07831127941608429
1763690866327713000,5.932713134765625,-0.5657498240470886,-0.5405017733573914,0.09487845003604889
1763690866337673000,5.9426728515625,-0.5059536099433899,-0.5071344971656799,0.1412225216627121
1763690866347631900,5.9526318359375,-0.42862290143966675,-0.4767061769962311,0.17168636620044708
1763690866357591000,5.962591064453125,-0.3357265293598175,-0.4436454474925995,0.23576043546199799
1763690866367550000,5.972550048828125,-0.1957283914089203,-0.4960017502307892,0.22598092257976532
1763690866377510100,5.98251025390625,-0.12239372730255127,-0.46919944882392883,0.3068302273750305
1763690866387469000,5.992468994140625,-0.19435900449752808,-0.3932413160800934,0.17296163737773895
1763690866397428000,6.002427978515625,-0.3416198194026947,-0.3465675711631775,0.23823703825473785
1763690866407387100,6.01238720703125,-0.796969473361969,-0.31011927127838135,0.22698666155338287
1763690866417346000,6.022345947265625,-1.337692141532898,-0.5072759985923767,0.1783623993396759
1763690866427306000,6.032305908203125,-1.6370126008987427,-0.40604645013809204,0.1957482099533081
1763690866437265000,6.042264892578125,-1.8038688898086548,0.1294771432876587,0.23658806085586548
1763690866447223800,6.052223876953125,-1.6627253293991089,0.4672697186470032,0.3021710216999054
1763690866457183200,6.062183349609375,-1.3828463554382324,0.05232153460383415,0.1783372461795807
1763690866467143200,6.07214306640625,-1.3555848598480225,-0.2826102674007416,0.05561600625514984
1763690866477102000,6.08210205078125,-1.3513044118881226,-0.36749985814094543,-0.0867677703499794
1763690866487061000,6.09206103515625,-1.4055732488632202,-0.2906689941883087,-0.24153490364551544
1763690866497020000,6.10202001953125,-1.4706451892852783,-0.3417220711708069,-0.5266092419624329
1763690866506979000,6.11197900390625,-1.5094069242477417,-0.4698071777820587,-0.7033498883247375
1763690866516939000,6.12193896484375,-1.8217400312423706,-0.39273715019226074,-0.5219804048538208
1763690866526898000,6.13189794921875,-2.0248522758483887,0.053202807903289795,0.006174802780151367
1763690866536856800,6.14185693359375,-1.8219033479690552,0.23630525171756744,0.39792633056640625
1763690866546816000,6.15181591796875,-1.3659600019454956,-0.09167532622814178,0.33167871832847595
1763690866556775200,6.161775146484375,-0.9350528120994568,-0.42954710125923157,0.06281237304210663
1763690866566735000,6.171735107421875,-0.6283738017082214,-0.5667734146118164,-0.20665480196475983
1763690866576694000,6.181694091796875,-0.43229061365127563,-0.6062952876091003,-0.36705753207206726
1763690866586653000,6.19165283203125,-0.19870208203792572,-0.5990130305290222,-0.4257916510105133
1763690866596612000,6.201612060546875,-0.07501235604286194,-0.6468237042427063,-0.4266398549079895
1763690866606572000,6.211572021484375,-0.06401696801185608,-0.6357529759407043,-0.33536189794540405
1763690866616531000,6.221531005859375,-0.09873100370168686,-0.5592547655105591,-0.23238250613212585
1763690866626490000,6.231489990234375,-0.12618526816368103,-0.49456357955932617,-0.14925619959831238
1763690866636449000,6.241448974609375,-0.0935162603855133,-0.40471383929252625,-0.07546718418598175
1763690866646408200,6.251408203125,-0.05208814516663551,-0.30124562978744507,-0.015085624530911446
1763690866656368000,6.2613681640625,-0.02527570351958275,-0.2534022033214569,0.023361898958683014
1763690866666327000,6.2713271484375,0.006309124641120434,-0.22981853783130646,0.05965932458639145
1763690866676286000,6.281285888671875,0.051476601511240005,-0.22823874652385712,0.07311814278364182
1763690866686244900,6.291244873046875,0.08407370746135712,-0.25609534978866577,0.061466965824365616
1763690866696204800,6.301204833984375,0.10198239982128143,-0.27325859665870667,0.03397515416145325
1763690866706164200,6.311164306640625,0.0942791998386383,-0.30548155307769775,-0.008857140317559242
1763690866716123100,6.321123046875,0.08641780912876129,-0.3488655090332031,-0.05872109904885292
1763690866726082000,6.33108203125,0.06040457263588905,-0.3740274906158447,-0.09094858169555664
1763690866736041000,6.341041015625,-0.006353152450174093,-0.31720679998397827,-0.0967169851064682
1763690866746001000,6.3510009765625,-0.11387079209089279,-0.1996879279613495,-0.07254514843225479
1763690866755960000,6.3609599609375,-0.17521537840366364,-0.056332629173994064,-0.025837834924459457
1763690866765919000,6.3709189453125,-0.20915046334266663,0.05519029498100281,0.07733392715454102
1763690866775878000,6.3808779296875,-0.20508886873722076,0.07170721888542175,0.16226160526275635
1763690866785837000,6.390837158203125,-0.23985858261585236,0.10551007837057114,0.21259331703186035
1763690866795797000,6.400796875,-0.3088208734989166,-0.11363904923200607,0.30646923184394836
1763690866805756200,6.410756103515625,-0.42728546261787415,-0.2899259030818939,0.3302419185638428
1763690866815715000,6.420715087890625,-0.39651158452033997,-0.20555512607097626,0.19687534868717194
1763690866825674000,6.430674072265625,-0.17059509456157684,-0.12295525521039963,0.042676735669374466
1763690866835634000,6.440634033203125,0.03241102769970894,-0.05738742649555206,-0.025277279317378998
1763690866845593000,6.450593017578125,0.09651917964220047,-0.010766618885099888,-0.023169245570898056
1763690866855552000,6.460552001953125,0.10671136528253555,-0.0025995029136538506,0.006944448221474886
1763690866865511000,6.470510986328125,0.081145279109478,-0.060610100626945496,0.04313400387763977
1763690866875469800,6.4804697265625,0.030638428404927254,-0.15375469624996185,0.0917968824505806
1763690866885430000,6.490429931640625,-0.019210608676075935,-0.24052171409130096,0.14216113090515137
1763690866895389200,6.50038916015625,-0.03998033329844475,-0.3165823817253113,0.18390485644340515
1763690866905348000,6.51034814453125,-0.041816309094429016,-0.36431393027305603,0.21378301084041595
1763690866915307000,6.52030712890625,-0.030787097290158272,-0.3803277909755707,0.2362166792154312
1763690866925266000,6.530265869140625,-0.017603915184736252,-0.38526368141174316,0.2555980980396271
1763690866935225900,6.540225830078125,-0.004117668606340885,-0.38547593355178833,0.2726772129535675
1763690866945185000,6.55018505859375,0.016847796738147736,-0.40261176228523254,0.28844112157821655
1763690866955144000,6.56014404296875,0.045919664204120636,-0.4370829463005066,0.30784836411476135
1763690866965102800,6.570102783203125,0.07629513740539551,-0.4636448621749878,0.3585561513900757
1763690866975063000,6.58006298828125,0.10218984633684158,-0.45971083641052246,0.4334341287612915
1763690866985022000,6.59002197265625,0.13260020315647125,-0.4202495813369751,0.5235012769699097
1763690866994981000,6.599981201171875,0.17416256666183472,-0.37113156914711,0.6081416010856628
1763690867004940000,6.60993994140625,0.22524572908878326,-0.3377506136894226,0.6861264109611511
1763690867014899000,6.61989892578125,0.28532662987709045,-0.3223641812801361,0.7505631446838379
1763690867024859000,6.62985888671875,0.33917951583862305,-0.30561020970344543,0.8049800992012024
1763690867034818000,6.639818115234375,0.3957114815711975,-0.27604007720947266,0.8460639119148254
1763690867044777000,6.64977685546875,0.44892436265945435,-0.23942458629608154,0.8779586553573608
1763690867054736000,6.65973583984375,0.4948961138725281,-0.23891805112361908,0.9112348556518555
1763690867064695000,6.669695068359375,0.529039740562439,-0.3106159269809723,0.9559206366539001
1763690867074655000,6.679655029296875,0.5521146655082703,-0.4558524787425995,0.9978960156440735
1763690867084614100,6.6896142578125,0.5736578106880188,-0.6439361572265625,1.0126334428787231
1763690867094573000,6.699572998046875,0.5769507884979248,-0.8257884979248047,1.0085222721099854
1763690867104532000,6.709531982421875,0.5506768226623535,-0.9617465138435364,1.0032793283462524
1763690867114492000,6.719491943359375,0.4909919202327728,-1.0458341836929321,0.9825689792633057
1763690867124450800,6.729450927734375,0.4051731526851654,-1.0701864957809448,0.9320840239524841
1763690867134410000,6.739409912109375,0.30949217081069946,-1.038130760192871,0.8545274138450623
1763690867144369200,6.749369140625,0.22911131381988525,-0.9573137760162354,0.7496488094329834
1763690867154328000,6.759328125,0.18393610417842865,-0.8447973132133484,0.628418505191803
1763690867164288000,6.7692880859375,0.20114678144454956,-0.7147166132926941,0.4992654621601105
1763690867174247000,6.779246826171875,0.2588998079299927,-0.587547242641449,0.38110658526420593
1763690867184206000,6.7892060546875,0.3263885974884033,-0.4947446286678314,0.29146701097488403
1763690867194165000,6.7991650390625,0.39903831481933594,-0.4553295969963074,0.23242047429084778
1763690867204124000,6.8091240234375,0.4755783677101135,-0.4598178565502167,0.18802489340305328
1763690867214083800,6.819083740234375,0.5534244179725647,-0.47205057740211487,0.14990973472595215
1763690867224043000,6.82904296875,0.6270195245742798,-0.48394519090652466,0.10937771946191788
1763690867234002200,6.839002197265625,0.6863260269165039,-0.4794662892818451,0.06813041865825653
1763690867243961000,6.848961181640625,0.7283163666725159,-0.4660705029964447,0.024673905223608017
1763690867253920000,6.858919921875,0.7477257251739502,-0.4513906240463257,-0.02062193676829338
1763690867263880000,6.8688798828125,0.758488655090332,-0.4334643483161926,-0.07376684248447418
1763690867273839000,6.878839111328125,0.7627744674682617,-0.4164523482322693,-0.12826471030712128
1763690867283798000,6.888798095703125,0.7560853958129883,-0.44776463508605957,-0.1817530244588852
1763690867293757000,6.8987568359375,0.7370275259017944,-0.4561634361743927,-0.2222200185060501
1763690867303716900,6.908716796875,0.6981866955757141,-0.431461900472641,-0.2436372935771942
1763690867313676000,6.918676025390625,0.6505663990974426,-0.41860973834991455,-0.2557496428489685
1763690867323635200,6.92863525390625,0.5998063087463379,-0.41511744260787964,-0.25268152356147766
1763690867333594000,6.938593994140625,0.547272801399231,-0.41718778014183044,-0.2348814606666565
1763690867343553000,6.948552978515625,0.4912686347961426,-0.4184541702270508,-0.2086966186761856
1763690867353513000,6.958512939453125,0.42187172174453735,-0.40931740403175354,-0.16965921223163605
1763690867363472000,6.968471923828125,0.34574419260025024,-0.39961305260658264,-0.11209149658679962
1763690867373431000,6.97843115234375,0.2771877646446228,-0.40721210837364197,-0.04769812896847725
1763690867383390000,6.988389892578125,0.22020544111728668,-0.44918468594551086,0.01269049197435379
1763690867393348900,6.998348876953125,0.1788337677717209,-0.5028221011161804,0.057663027197122574
1763690867403309000,7.00830908203125,0.15221306681632996,-0.5287367701530457,0.07730250805616379
1763690867413268000,7.01826806640625,0.13815957307815552,-0.5174082517623901,0.08154119551181793
1763690867423227100,7.02822705078125,0.13422982394695282,-0.4829878509044647,0.07906114310026169
1763690867433186000,7.03818603515625,0.13789352774620056,-0.44832679629325867,0.08109793066978455
1763690867443146000,7.04814599609375,0.15808935463428497,-0.4433237612247467,0.08362780511379242
1763690867453105000,7.05810498046875,0.19148539006710052,-0.4819640815258026,0.07151708006858826
1763690867463064000,7.06806396484375,0.23489782214164734,-0.5307143926620483,0.04179246351122856
1763690867473023000,7.07802294921875,0.27292245626449585,-0.5333365201950073,-0.0030391905456781387
1763690867482982000,7.08798193359375,0.30087846517562866,-0.5084636807441711,-0.04537253826856613
1763690867492942000,7.097942138671875,0.32659128308296204,-0.4768892526626587,-0.09402209520339966
1763690867502901000,7.10790087890625,0.3390074372291565,-0.43885913491249084,-0.13993248343467712
1763690867512860200,7.117860107421875,0.34075847268104553,-0.4166518449783325,-0.17821408808231354
1763690867522819000,7.127819091796875,0.3264123201370239,-0.4095381200313568,-0.19919909536838531
1763690867532778000,7.137778076171875,0.28338202834129333,-0.40373244881629944,-0.22099387645721436
1763690867542738000,7.147738037109375,0.2185066044330597,-0.39079543948173523,-0.2685055136680603
1763690867552696800,7.15769677734375,0.1414531022310257,-0.31368201971054077,-0.3001944422721863
1763690867562656000,7.167656005859375,0.05316266417503357,-0.2814427316188812,-0.2986030578613281
1763690867572615000,7.177614990234375,-0.034709133207798004,-0.34600815176963806,-0.26827311515808105
1763690867582573800,7.18757373046875,-0.10481524467468262,-0.363368421792984,-0.21378003060817719
1763690867592534000,7.197533935546875,-0.1335209310054779,-0.24745912849903107,-0.1323099434375763
1763690867602493000,7.207492919921875,-0.14679867029190063,-0.09479443728923798,-0.053387343883514404
1763690867612452000,7.2174521484375,-0.19380052387714386,-0.027908088639378548,-0.006175888702273369
1763690867622411000,7.227410888671875,-0.27815160155296326,-0.020169932395219803,0.008476175367832184
1763690867632370000,7.237369873046875,-0.38173288106918335,-0.012340771965682507,-0.026673823595046997
1763690867642329900,7.247329833984375,-0.498918354511261,0.06226428970694542,-0.11831877380609512
1763690867652289000,7.2572890625,-0.6135357618331909,0.23079365491867065,-0.2469579577445984
1763690867662248000,7.267248046875,-0.704695999622345,0.4203929305076599,-0.38109856843948364
1763690867672207000,7.27720703125,-0.7370542287826538,0.5812817215919495,-0.4896966814994812
1763690867682167000,7.2871669921875,-0.6832171082496643,0.7118718028068542,-0.5577456951141357
1763690867692126000,7.2971259765625,-0.5503695607185364,0.8177550435066223,-0.5992862582206726
1763690867702085000,7.307085205078125,-0.3787536323070526,0.8831830620765686,-0.6225062012672424
1763690867712044000,7.3170439453125,-0.23363076150417328,0.909532904624939,-0.6511911153793335
1763690867722003000,7.3270029296875,-0.12548379600048065,0.942848801612854,-0.7008694410324097
1763690867731963000,7.336962890625,-0.022042620927095413,0.9791319966316223,-0.7778661847114563
1763690867741921800,7.346921875,0.0742112398147583,1.0044375658035278,-0.8920860886573792
1763690867751881200,7.356881103515625,0.1394922435283661,1.0207158327102661,-1.007543921470642
1763690867761840000,7.366840087890625,0.17218732833862305,0.9911212921142578,-1.078217625617981
1763690867771799000,7.376799072265625,0.1671946942806244,0.9340420365333557,-1.1063810586929321
1763690867781759000,7.386759033203125,0.130499005317688,0.8557918071746826,-1.1034842729568481
1763690867791718000,7.3967177734375,0.07401548326015472,0.7487939596176147,-1.0982228517532349
1763690867801677000,7.406677001953125,0.01448050606995821,0.6482171416282654,-1.0851083993911743
1763690867811636000,7.416635986328125,-0.03832491487264633,0.5659227967262268,-1.0596965551376343
1763690867821595000,7.426594970703125,-0.07512712478637695,0.4882529079914093,-1.0191575288772583
1763690867831554800,7.436554931640625,-0.08685754984617233,0.40214651823043823,-0.9560379385948181
1763690867841514000,7.446513916015625,-0.08053789287805557,0.3001880347728729,-0.8935762047767639
1763690867851473200,7.45647314453125,-0.08129023760557175,0.22734445333480835,-0.860771656036377
1763690867861432000,7.46643212890625,-0.08919740468263626,0.17759065330028534,-0.8571649193763733
1763690867871391000,7.476390869140625,-0.09633121639490128,0.157069131731987,-0.8502910137176514
1763690867881351000,7.486350830078125,-0.09405849874019623,0.09024997800588608,-0.819421112537384
1763690867891310000,7.49631005859375,-0.07521557062864304,0.009102659299969673,-0.7540703415870667
1763690867901269000,7.50626904296875,-0.041395269334316254,-0.052878301590681076,-0.6841080188751221
1763690867911228000,7.516227783203125,-0.003734977450221777,-0.034387972205877304,-0.6053242087364197
1763690867921186800,7.526186767578125,0.03737172111868858,0.07277528941631317,-0.537033200263977
1763690867931147000,7.53614697265625,0.08207554370164871,0.16884402930736542,-0.49211233854293823
1763690867941106200,7.546106201171875,0.1257745623588562,0.2456946223974228,-0.4588245451450348
1763690867951065000,7.556065185546875,0.14177030324935913,0.30795156955718994,-0.40842530131340027
1763690867961024000,7.56602392578125,0.11971159279346466,0.3375866115093231,-0.3300209045410156
1763690867970984000,7.57598388671875,0.07038398832082748,0.3733725845813751,-0.223703533411026
1763690867980942800,7.58594287109375,0.020676109939813614,0.42264339327812195,-0.12589409947395325
1763690867990902000,7.595902099609375,-0.006447386462241411,0.4174638092517853,-0.06085145100951195
1763690868000861000,7.60586083984375,-0.02326231822371483,0.36700254678726196,-0.04102315008640289
1763690868010819800,7.61581982421875,-0.03615867346525192,0.3024134337902069,-0.06587283313274384
1763690868020780000,7.625780029296875,-0.03901439532637596,0.2499929666519165,-0.10845987498760223
1763690868030739000,7.635739013671875,-0.03471658378839493,0.2154317945241928,-0.1439901739358902
1763690868040698000,7.645697998046875,-0.03506411984562874,0.1854952871799469,-0.16186927258968353
1763690868050657000,7.655656982421875,-0.03685456141829491,0.1514212042093277,-0.18532240390777588
1763690868060616000,7.665615966796875,-0.03479114547371864,0.11057603359222412,-0.22889691591262817
1763690868070575900,7.675575927734375,-0.03176898881793022,0.07964847981929779,-0.2847527265548706
1763690868080535000,7.68553515625,-0.03618664667010307,0.06684397161006927,-0.3281474709510803
1763690868090494000,7.695493896484375,-0.04375188797712326,0.06395843625068665,-0.3452034294605255
1763690868100452900,7.705452880859375,-0.05979638546705246,0.07447806000709534,-0.344522625207901
1763690868110412000,7.715412109375,-0.07861267775297165,0.08677653968334198,-0.33626121282577515
1763690868120372000,7.7253720703125,-0.09789341688156128,0.11511905491352081,-0.3327924311161041
1763690868130331100,7.7353310546875,-0.1264113485813141,0.15437829494476318,-0.34355029463768005
1763690868140290300,7.745290283203125,-0.165867418050766,0.2161465585231781,-0.34600570797920227
1763690868150249200,7.755249267578125,-0.20331145823001862,0.26606059074401855,-0.3292696177959442
1763690868160208100,7.7652080078125,-0.2393522709608078,0.29616808891296387,-0.30525851249694824
1763690868170168300,7.775168212890625,-0.26508185267448425,0.33328482508659363,-0.29020631313323975
1763690868180127500,7.78512744140625,-0.27130112051963806,0.3967295289039612,-0.2847592532634735
1763690868190086400,7.79508642578125,-0.26547521352767944,0.47330713272094727,-0.28278717398643494
1763690868200045300,7.80504541015625,-0.24684801697731018,0.5393773317337036,-0.28487884998321533
1763690868210004200,7.815004150390625,-0.222259059548378,0.5717470049858093,-0.29382336139678955
1763690868219964200,7.824964111328125,-0.2068590223789215,0.5614100098609924,-0.31036537885665894
1763690868229923300,7.83492333984375,-0.19598747789859772,0.5246780514717102,-0.31978362798690796
1763690868239882200,7.84488232421875,-0.18848244845867157,0.47012561559677124,-0.3133560121059418
1763690868249841200,7.854841064453125,-0.18417797982692719,0.40971633791923523,-0.29391175508499146
1763690868259800300,7.86480029296875,-0.18159815669059753,0.3503516614437103,-0.26803022623062134
1763690868269760300,7.87476025390625,-0.18181733787059784,0.2937701344490051,-0.23800678551197052
1763690868279719400,7.884719482421875,-0.19588442146778107,0.24863801896572113,-0.196670264005661
1763690868289678300,7.89467822265625,-0.22539864480495453,0.23869538307189941,-0.12704059481620789
1763690868299637200,7.90463720703125,-0.2705594599246979,0.26539483666419983,-0.025426501408219337
1763690868309596400,7.914596435546875,-0.31502386927604675,0.3426225185394287,0.10394373536109924
1763690868319556400,7.924556396484375,-0.34821298718452454,0.4607057273387909,0.23430892825126648
1763690868329515300,7.934515380859375,-0.3569801151752472,0.576695442199707,0.3512480854988098
1763690868339474200,7.94447412109375,-0.34768515825271606,0.6704365611076355,0.43343451619148254
1763690868349433000,7.95443310546875,-0.32749491930007935,0.7465938925743103,0.4811876714229584
1763690868359392500,7.964392578125,-0.2992662191390991,0.8011166453361511,0.535720944404602
1763690868369352400,7.9743525390625,-0.26717567443847656,0.837664008140564,0.6160754561424255
1763690868379311400,7.984311279296875,-0.24073553085327148,0.8299740552902222,0.7034448385238647
1763690868389270300,7.994270263671875,-0.20751473307609558,0.7575975656509399,0.7904439568519592
1763690868399229200,8.004229248046874,-0.15017446875572205,0.688258945941925,0.8716257214546204
1763690868409189000,8.014189208984375,-0.08297412842512131,0.6193240880966187,0.925750732421875
1763690868419148300,8.024148193359375,-0.015500010922551155,0.5336324572563171,0.9660879373550415
1763690868429107200,8.034107177734375,0.04661183059215546,0.46961164474487305,0.9956173300743103
1763690868439066400,8.04406640625,0.0804227739572525,0.43336403369903564,1.0100685358047485
1763690868449025300,8.054025390625,0.05825968459248543,0.3914133906364441,0.9781713485717773
1763690868458985200,8.063985107421875,-0.03426090255379677,0.3431864082813263,0.9174277186393738
1763690868468944400,8.0739443359375,-0.17610272765159607,0.2836274802684784,0.8617266416549683
1763690868478903300,8.0839033203125,-0.3323325514793396,0.20546677708625793,0.8331037759780884
1763690868488862200,8.0938623046875,-0.46165141463279724,0.1088254451751709,0.8224633932113647
1763690868498821400,8.1038212890625,-0.5490188002586365,0.06990747153759003,0.8325814604759216
1763690868508780300,8.1137802734375,-0.5715163946151733,0.11681878566741943,0.8598852157592773
1763690868518740500,8.123740478515625,-0.5374715924263,0.1674499809741974,0.8973416686058044
1763690868528699400,8.133699462890625,-0.4766141176223755,0.16277986764907837,0.9545993208885193
1763690868538658300,8.143658203125,-0.4018799364566803,0.13516703248023987,1.0167187452316284
1763690868548617500,8.153617431640624,-0.3081265687942505,0.14035353064537048,1.0547574758529663
1763690868558577400,8.163577392578125,-0.20072928071022034,0.19925673305988312,1.0720629692077637
1763690868568536300,8.173536376953125,-0.08891671895980835,0.2600364685058594,1.0695878267288208
1763690868578495200,8.1834951171875,0.006025500595569611,0.3029750883579254,1.053935170173645
1763690868588454100,8.1934541015625,0.06996959447860718,0.31064578890800476,1.0358954668045044
1763690868598413300,8.203413330078124,0.08420554548501968,0.28181806206703186,1.037147045135498
1763690868608373500,8.21337353515625,0.06541614979505539,0.19756069779396057,1.0676945447921753
1763690868618332400,8.22333251953125,0.024120371788740158,0.061269719153642654,1.136703372001648
1763690868628291300,8.233291259765625,-0.025041846558451653,-0.16718502342700958,1.2050553560256958
1763690868638250200,8.243250244140626,-0.07337556034326553,-0.3226984441280365,1.2675658464431763
1763690868648209400,8.25320947265625,-0.09404648095369339,-0.38851022720336914,1.3048756122589111
1763690868658169300,8.26316943359375,-0.07191666960716248,-0.36009931564331055,1.3311227560043335
1763690868668128300,8.273128173828125,-0.027161985635757446,-0.3047308623790741,1.3648022413253784
1763690868678087200,8.283087158203125,0.026311885565519333,-0.33275189995765686,1.381854772567749
1763690868688046300,8.29304638671875,0.07433267682790756,-0.3751766085624695,1.3529613018035889
1763690868698005200,8.303005126953124,0.10752125829458237,-0.31905680894851685,1.2681214809417725
1763690868707965400,8.31296533203125,0.17164193093776703,-0.1833522617816925,1.139341115951538
1763690868717924400,8.32292431640625,0.27547407150268555,-0.028371160849928856,0.987599790096283
1763690868727883300,8.33288330078125,0.3633096516132355,0.13986392319202423,0.8558012843132019
1763690868737842400,8.342842529296876,0.42714452743530273,0.25857609510421753,0.7400173544883728
1763690868747801300,8.35280126953125,0.49465352296829224,0.30058375000953674,0.6169082522392273
1763690868757761300,8.36276123046875,0.5644440650939941,0.31024181842803955,0.4730965197086334
1763690868767720200,8.37272021484375,0.6196205019950867,0.3401235342025757,0.3107805550098419
1763690868777679000,8.38267919921875,0.64544278383255,0.43167194724082947,0.1510392129421234
1763690868787638300,8.39263818359375,0.626771867275238,0.5772430300712585,0.03741597756743431
1763690868797597400,8.402597412109374,0.5663820505142212,0.6885737776756287,-0.009676171466708183
1763690868807557400,8.412557373046875,0.48282986879348755,0.7148037552833557,0.020048169419169426
1763690868817516300,8.422516357421875,0.38926345109939575,0.6626657843589783,0.09811262041330338
1763690868827475200,8.43247509765625,0.2854912579059601,0.5838577747344971,0.18311618268489838
1763690868837434400,8.442434326171876,0.17751844227313995,0.5744165778160095,0.2224530726671219
1763690868847393300,8.452393310546874,0.11163316667079926,0.6614875197410583,0.2014487236738205
1763690868857353200,8.462353271484375,0.12729017436504364,0.7693784832954407,0.13407224416732788
1763690868867312000,8.47231201171875,0.18794766068458557,0.8108479380607605,0.06761039793491364
1763690868877271300,8.482271240234375,0.24348017573356628,0.7649782299995422,0.03281354159116745
1763690868887230500,8.49223046875,0.2743624448776245,0.6956233978271484,0.026530880481004715
1763690868897189400,8.502189453125,0.2990669906139374,0.6454214453697205,0.01998809538781643
1763690868907149300,8.5121494140625,0.32299333810806274,0.6142717599868774,-0.0059449695982038975
1763690868917108200,8.522108154296875,0.3526756465435028,0.5965902209281921,-0.03607698902487755
1763690868927067400,8.5320673828125,0.39202651381492615,0.5899919867515564,-0.05289192125201225
1763690868937026300,8.5420263671875,0.4367377758026123,0.5797370076179504,-0.05670581012964249
1763690868946985200,8.551985107421874,0.48112228512763977,0.5523341298103333,-0.0474044531583786
1763690868956945200,8.561945068359375,0.5204374194145203,0.48127344250679016,-0.035630643367767334
1763690868966904300,8.571904296875,0.5518217086791992,0.3795987665653229,-0.029686201363801956
1763690868976863500,8.581863525390625,0.5799401998519897,0.23846012353897095,-0.035628944635391235
1763690868986822400,8.591822509765626,0.5907768607139587,0.1537926346063614,-0.04059174284338951
1763690868996781300,8.60178125,0.5821058750152588,0.11219608038663864,-0.03938610106706619
1763690869006741200,8.6117412109375,0.5489537715911865,0.061618123203516006,-0.03462356701493263
1763690869016700200,8.6217001953125,0.5048156380653381,-0.025971677154302597,-0.024556027725338936
1763690869026659300,8.631659423828125,0.45075422525405884,-0.1297587901353836,0.001065179007127881
1763690869036618200,8.6416181640625,0.4045116603374481,-0.2333535999059677,0.03386947140097618
1763690869046577200,8.6515771484375,0.36811211705207825,-0.34173840284347534,0.06257808208465576
1763690869056536300,8.661536376953125,0.34347519278526306,-0.4686148762702942,0.08570416271686554
1763690869066496300,8.671496337890625,0.324656218290329,-0.5768140554428101,0.1065593808889389
1763690869076455400,8.681455322265625,0.3059310019016266,-0.6348704099655151,0.1275939643383026
1763690869086414300,8.691414306640626,0.2961398959159851,-0.6394369602203369,0.13750597834587097
1763690869096373200,8.701373291015624,0.2849772870540619,-0.5948963761329651,0.13291563093662262
1763690869106333200,8.711333251953125,0.2737347483634949,-0.5256443619728088,0.13875646889209747
1763690869116292400,8.721292236328125,0.24917851388454437,-0.4683828353881836,0.16197466850280762
1763690869126251300,8.731251220703125,0.212204247713089,-0.4697690010070801,0.19150567054748535
1763690869136210200,8.741210205078126,0.1526184380054474,-0.5037012100219727,0.20504067838191986
1763690869146168800,8.7511689453125,0.09339053183794022,-0.5133541226387024,0.1991652250289917
1763690869156127700,8.761127685546874,0.046631284058094025,-0.4841291010379791,0.18429799377918243
1763690869166088000,8.771087890625,0.018775949254631996,-0.4196089506149292,0.16496556997299194
1763690869176046800,8.781046875,-0.0010233297944068909,-0.3473303020000458,0.13943184912204742
1763690869186005800,8.791005859375,-0.018201518803834915,-0.299533486366272,0.11018819361925125
1763690869195965000,8.80096484375,-0.03082728199660778,-0.2805335521697998,0.091107077896595
1763690869205923800,8.810923828125,-0.042002707719802856,-0.26444968581199646,0.08197402954101562
1763690869215883800,8.8208837890625,-0.04515989497303963,-0.22957807779312134,0.06270936131477356
1763690869225842700,8.8308427734375,-0.04060029983520508,-0.1854258030653,0.028111441060900688
1763690869235801600,8.840801513671876,-0.030066154897212982,-0.15655170381069183,-0.012748884037137032
1763690869245760800,8.8507607421875,-0.02402637153863907,-0.15305230021476746,-0.04253474622964859
1763690869255719700,8.8607197265625,-0.024216266348958015,-0.17244768142700195,-0.062162529677152634
1763690869265680000,8.870679931640625,-0.02718435786664486,-0.19909660518169403,-0.0752522349357605
1763690869275638800,8.880638671875,-0.02726210653781891,-0.21131213009357452,-0.09058602154254913
1763690869285597700,8.89059765625,-0.022074270993471146,-0.2009713500738144,-0.10800096392631531
1763690869295556900,8.900556884765624,-0.02262820675969124,-0.18539877235889435,-0.12701831758022308
1763690869305515800,8.910515869140625,-0.027711115777492523,-0.17271944880485535,-0.1365111619234085
1763690869315475700,8.920475830078125,-0.03979787230491638,-0.15389172732830048,-0.13706856966018677
1763690869325434600,8.9304345703125,-0.05432834476232529,-0.13642697036266327,-0.1274319291114807
1763690869335393800,8.940393798828126,-0.07034061849117279,-0.11392313987016678,-0.10893616080284119
1763690869345352700,8.950352783203124,-0.0829315111041069,-0.08416657894849777,-0.09567761421203613
1763690869355311900,8.960311767578125,-0.08899685740470886,-0.051815275102853775,-0.08224223554134369
1763690869365271800,8.970271728515625,-0.08692331612110138,-0.015759270638227463,-0.06850564479827881
1763690869375230700,8.980230712890625,-0.07287273555994034,0.017248649150133133,-0.06874316185712814
1763690869385190000,8.99018994140625,-0.060693301260471344,0.03989243879914284,-0.08599352091550827
1763690869395148800,9.000148681640624,-0.05774945765733719,0.047956597059965134,-0.11785495281219482
1763690869405107700,9.010107666015625,-0.06156523898243904,0.05015077814459801,-0.15237323939800262
1763690869415067600,9.020067626953125,-0.06958161294460297,0.045497167855501175,-0.1803862303495407
1763690869425026600,9.030026611328125,-0.07682541012763977,0.04870894178748131,-0.19468633830547333
1763690869434985700,9.03998583984375,-0.08921228349208832,0.06495389342308044,-0.19870421290397644
1763690869444945000,9.04994482421875,-0.10003350675106049,0.0914108008146286,-0.2072223424911499
1763690869454903800,9.05990380859375,-0.11413043737411499,0.13551972806453705,-0.2345093935728073
1763690869464863700,9.06986376953125,-0.1318977177143097,0.1966579258441925,-0.2870551645755768
1763690869474822700,9.07982275390625,-0.15917381644248962,0.2699207365512848,-0.360856294631958
1763690869484781800,9.08978173828125,-0.19721919298171997,0.3337697386741638,-0.4471411108970642
1763690869494740700,9.09974072265625,-0.24195285141468048,0.39420753717422485,-0.5276657342910767
1763690869504699600,9.10969970703125,-0.2885877192020416,0.46611952781677246,-0.6030619740486145
1763690869514659600,9.11965966796875,-0.33083823323249817,0.5581672191619873,-0.6703259348869324
1763690869524618800,9.12961865234375,-0.3602887988090515,0.6573632955551147,-0.732957661151886
1763690869534578000,9.139577880859376,-0.37961721420288086,0.7348046898841858,-0.8074504137039185
1763690869544536800,9.149536865234374,-0.38009339570999146,0.7794908881187439,-0.9078230857849121
1763690869554495700,9.159495849609375,-0.37673941254615784,0.7821588516235352,-1.024007797241211
1763690869564455700,9.16945556640625,-0.3833589553833008,0.7731717824935913,-1.1296701431274414
1763690869574414800,9.179414794921875,-0.399109423160553,0.8247498869895935,-1.1965084075927734
1763690869584373800,9.189373779296876,-0.39502495527267456,0.8693703413009644,-1.1544238328933716
1763690869594332700,9.199332763671874,-0.3022755980491638,0.8403809070587158,-0.9830912351608276
1763690869604291600,9.20929150390625,-0.0779721736907959,0.7578660845756531,-0.6809209585189819
1763690869614250800,9.219250732421875,0.2461124211549759,0.6228102445602417,-0.2414006143808365
1763690869624211000,9.2292109375,0.4906694293022156,0.4604423940181732,0.15076743066310883
1763690869634169900,9.239169921875,0.5635542869567871,0.4582121670246124,0.3020155727863312
1763690869644128800,9.249128662109374,0.522018551826477,0.5801471471786499,0.20088469982147217
1763690869654087700,9.259087646484375,0.43350285291671753,0.6461020112037659,-0.030225714668631554
1763690869664046800,9.269046875,0.32706454396247864,0.5953248739242554,-0.26835545897483826
1763690869674006800,9.2790068359375,0.21062767505645752,0.4774712920188904,-0.4772903323173523
1763690869683965700,9.288965576171876,0.09645317494869232,0.21414484083652496,-0.6195353865623474
1763690869693924600,9.298924560546874,-0.04124130681157112,-0.15560387074947357,-0.626372218132019
1763690869703883500,9.308883544921875,-0.23006261885166168,-0.379001259803772,-0.5516510605812073
1763690869713843000,9.318843017578125,-0.44667401909828186,-0.27354252338409424,-0.517885684967041
1763690869723803000,9.328802978515625,-0.6173504590988159,0.03992590308189392,-0.5768259763717651
1763690869733761800,9.33876171875,-0.6846905946731567,0.3165241777896881,-0.6993486881256104
1763690869743720700,9.348720703125,-0.626164972782135,0.48414379358291626,-0.8106022477149963
1763690869753680000,9.358679931640625,-0.5337707996368408,0.5506196618080139,-0.8353871703147888
1763690869763638800,9.368638671875,-0.49189502000808716,0.4930357038974762,-0.7405757308006287
1763690869773598700,9.3785986328125,-0.48213693499565125,0.36215558648109436,-0.594719648361206
1763690869783557600,9.3885576171875,-0.4872816205024719,0.26396217942237854,-0.47870171070098877
1763690869793516800,9.398516845703124,-0.5017362236976624,0.2908651828765869,-0.3818899095058441
1763690869803476000,9.40847607421875,-0.4373180568218231,0.2550629675388336,-0.35489901900291443
1763690869813435000,9.418434814453125,-0.3322046995162964,0.3531285524368286,-0.3174903988838196
1763690869823393800,9.428393798828125,-0.2108772248029709,0.5085533261299133,-0.2922942340373993
1763690869833353700,9.438353759765626,-0.0880032330751419,0.6327226161956787,-0.29953300952911377
1763690869843312600,9.448312744140624,0.006005821283906698,0.7244674563407898,-0.29583922028541565
1763690869853271800,9.458271728515625,0.07769785821437836,0.7466793060302734,-0.28261247277259827
1763690869863230700,9.468230712890625,0.1149432361125946,0.7420624494552612,-0.2718900442123413
1763690869873189600,9.478189697265625,0.09974831342697144,0.7331053614616394,-0.2436450570821762
1763690869883149800,9.48814990234375,0.04003385454416275,0.6738811731338501,-0.21239659190177917
1763690869893108700,9.498108642578124,-0.05213683471083641,0.5726260542869568,-0.19702312350273132
1763690869903068000,9.50806787109375,-0.1555180847644806,0.46586257219314575,-0.18286016583442688
1763690869913026800,9.51802685546875,-0.24365457892417908,0.3492855429649353,-0.16527847945690155
1763690869922985700,9.52798583984375,-0.30423617362976074,0.24905268847942352,-0.1461292803287506
1763690869932945700,9.537945556640626,-0.3328308165073395,0.19455088675022125,-0.13000361621379852
1763690869942904800,9.54790478515625,-0.32467567920684814,0.19383423030376434,-0.12539607286453247
1763690869952863700,9.55786376953125,-0.2996227741241455,0.2252848893404007,-0.13437345623970032
1763690869962822700,9.56782275390625,-0.26751944422721863,0.268502414226532,-0.1594471037387848
1763690869972781600,9.577781494140625,-0.2301049679517746,0.3171336352825165,-0.17939363420009613
1763690869982741800,9.58774169921875,-0.18710823357105255,0.3667270243167877,-0.19229425489902496
1763690869992701000,9.597700927734374,-0.1533939242362976,0.3800588846206665,-0.18903200328350067
1763690870002659800,9.607659912109375,-0.14274287223815918,0.37339353561401367,-0.1748805046081543
1763690870012618800,9.61761865234375,-0.14947029948234558,0.38049718737602234,-0.1590123325586319
1763690870022577700,9.62757763671875,-0.1629355102777481,0.41727596521377563,-0.12748344242572784
1763690870032537600,9.63753759765625,-0.1779719889163971,0.448215514421463,-0.03605152294039726
1763690870042496800,9.647496826171874,-0.20014600455760956,0.47768500447273254,0.09265292435884476
1763690870052455700,9.65745556640625,-0.23655273020267487,0.5149788856506348,0.19241733849048615
1763690870062414600,9.66741455078125,-0.28789156675338745,0.542452335357666,0.2747151553630829
1763690870072373800,9.677373779296875,-0.35460934042930603,0.5647274851799011,0.3525426983833313
1763690870082333000,9.6873330078125,-0.42259424924850464,0.6075093150138855,0.435718834400177
1763690870092292900,9.69729296875,-0.4776836037635803,0.6500639319419861,0.5209376811981201
1763690870102251800,9.707251708984375,-0.510142982006073,0.6806991100311279,0.5873047113418579
1763690870112210700,9.717210693359375,-0.5187036991119385,0.7397465109825134,0.6289504766464233
1763690870122169900,9.727169921875,-0.509031355381012,0.7853310108184814,0.6586924195289612
1763690870132128800,9.737128662109376,-0.47173890471458435,0.7783445715904236,0.6915748119354248
1763690870142089500,9.74708935546875,-0.4381740093231201,0.7204216122627258,0.7142298221588135
1763690870152048400,9.75704833984375,-0.4011422097682953,0.5987606048583984,0.7068102359771729
1763690870162007300,9.76700732421875,-0.3475216031074524,0.3578129708766937,0.6865803599357605
1763690870171966200,9.77696630859375,-0.31009939312934875,0.10030257701873779,0.6646041870117188
1763690870181925400,9.78692529296875,-0.2967468500137329,-0.05025896430015564,0.6152872443199158
1763690870191885600,9.796885498046874,-0.2936088442802429,-0.12246307730674744,0.565326988697052
1763690870201844500,9.806844482421875,-0.2910447418689728,-0.15741093456745148,0.5462598204612732
1763690870211803400,9.816803466796875,-0.2604285180568695,-0.20090755820274353,0.5081591010093689
1763690870221762300,9.82676220703125,-0.20975655317306519,-0.25199392437934875,0.4153745174407959
1763690870231721500,9.836721435546876,-0.1497078537940979,-0.2618892192840576,0.291861891746521
1763690870241680400,9.846680419921874,-0.10604479908943176,-0.25829315185546875,0.17295122146606445
1763690870251640300,9.856640380859375,-0.0960100069642067,-0.24772387742996216,0.0878140926361084
1763690870261599200,9.86659912109375,-0.12011534720659256,-0.2085501104593277,0.05284438654780388
1763690870271558400,9.876558349609375,-0.1701478660106659,-0.1384497731924057,0.05712916702032089
1763690870281517300,9.886517333984376,-0.23103918135166168,-0.07176874577999115,0.08056578040122986
1763690870291476500,9.8964765625,-0.26963427662849426,-0.04419008642435074,0.10628127306699753
1763690870301436400,9.9064365234375,-0.2952860891819,-0.04509422928094864,0.12703049182891846
1763690870311395300,9.916395263671875,-0.3112006187438965,-0.05723543092608452,0.1400458663702011
1763690870321354500,9.9263544921875,-0.3160475790500641,-0.03210371360182762,0.14074388146400452
1763690870331313400,9.9363134765625,-0.30360475182533264,0.0193068478256464,0.1274038553237915
1763690870341272300,9.946272216796874,-0.2700060307979584,0.06487379968166351,0.10395153611898422
1763690870351232300,9.956232177734375,-0.22372056543827057,0.11070425808429718,0.07117384672164917
1763690870361191200,9.966191162109375,-0.18306714296340942,0.1762627512216568,0.04356991872191429
1763690870371150600,9.976150634765625,-0.1551162153482437,0.2572382390499115,0.03304682672023773
1763690870381109500,9.986109619140626,-0.14739704132080078,0.3319564461708069,0.04397271201014519
1763690870391068400,9.996068359375,-0.1531798094511032,0.40959632396698,0.062191713601350784
1763690870401027300,10.00602734375,-0.1708964854478836,0.4854349195957184,0.06397069990634918
1763690870410987300,10.0159873046875,-0.20285603404045105,0.5466920137405396,0.04751233756542206
1763690870420946400,10.025946533203125,-0.2607547640800476,0.5890336036682129,0.024702362716197968
1763690870430905300,10.0359052734375,-0.334472119808197,0.5827280282974243,0.022116700187325478
1763690870440864300,10.0458642578125,-0.394400954246521,0.53960782289505,0.03574930876493454
1763690870450823400,10.055823486328125,-0.42305871844291687,0.4917312264442444,0.04586409777402878
1763690870460783400,10.065783447265625,-0.4234515130519867,0.4457056522369385,0.04478259012103081
1763690870470742500,10.075742431640625,-0.4166026711463928,0.41820386052131653,0.0267263762652874
1763690870480701400,10.085701416015626,-0.3983485698699951,0.42269954085350037,0.013018820434808731
1763690870490660400,10.095660400390624,-0.36779358983039856,0.44569867849349976,0.010251550935208797
1763690870500619500,10.10561962890625,-0.3257686495780945,0.4872357249259949,0.012153048068284988
1763690870510579500,10.115579345703125,-0.28073084354400635,0.555961012840271,0.01517435535788536
1763690870520538400,10.125538330078125,-0.23678737878799438,0.6323620676994324,0.015904327854514122
1763690870530497300,10.135497314453126,-0.2057812511920929,0.6903122663497925,0.011474566534161568
1763690870540456200,10.145456298828124,-0.19357864558696747,0.7138631343841553,0.009845245629549026
1763690870550415400,10.155415283203125,-0.20300224423408508,0.7071309685707092,0.010072289034724236
1763690870560374500,10.16537451171875,-0.22216102480888367,0.6815915107727051,0.013922154903411865
1763690870570334500,10.17533447265625,-0.24572253227233887,0.6464406847953796,0.013928944244980812
1763690870580293400,10.18529345703125,-0.26861852407455444,0.6037773489952087,0.011044474318623543
1763690870590252300,10.195252197265624,-0.2867128551006317,0.5500012636184692,0.01265622302889824
1763690870600211500,10.20521142578125,-0.29572659730911255,0.49589112401008606,0.028216274455189705
1763690870610170400,10.21517041015625,-0.2991918921470642,0.44952526688575745,0.049292270094156265
1763690870620130300,10.22513037109375,-0.2920974791049957,0.40738818049430847,0.06598282605409622
1763690870630089200,10.235089111328126,-0.27521461248397827,0.3813067078590393,0.07338698208332062
1763690870640048400,10.24504833984375,-0.2578555941581726,0.3739981949329376,0.07413852959871292
1763690870650007600,10.255007568359375,-0.23755088448524475,0.38064056634902954,0.06804480403661728
1763690870659966500,10.264966552734375,-0.21173180639743805,0.38769394159317017,0.055792663246393204
1763690870669925400,10.27492529296875,-0.18413347005844116,0.3850189447402954,0.036395370960235596
1763690870679885300,10.28488525390625,-0.16129633784294128,0.3736216723918915,0.018003316596150398
1763690870689844500,10.294844482421874,-0.144435852766037,0.35825324058532715,0.009355532005429268
1763690870699803400,10.304803466796875,-0.1374567747116089,0.3439190685749054,0.007019140757620335
1763690870709762300,10.31476220703125,-0.14232343435287476,0.3206517696380615,0.013219764456152916
1763690870719721200,10.32472119140625,-0.14999093115329742,0.29562389850616455,0.01883264258503914
1763690870729681400,10.334681396484376,-0.16391660273075104,0.2666035294532776,0.01774529181420803
1763690870739640600,10.344640625,-0.18450550734996796,0.2387540489435196,0.010646369308233261
1763690870749599500,10.354599609375,-0.20819298923015594,0.22249697148799896,0.0037524972576647997
1763690870759558400,10.364558349609375,-0.23123465478420258,0.2088799625635147,-0.0026665199548006058
1763690870769517300,10.374517333984375,-0.24672016501426697,0.19594921171665192,-0.0029142042621970177
1763690870779476500,10.3844765625,-0.2501492500305176,0.18223366141319275,0.00880743283778429
1763690870789436400,10.3944365234375,-0.2375921607017517,0.1635385900735855,0.030692901462316513
1763690870799395300,10.404395263671875,-0.22413253784179688,0.1449880748987198,0.04311548173427582
1763690870809354200,10.414354248046875,-0.21696330606937408,0.1419420838356018,0.042863838374614716
1763690870819313400,10.4243134765625,-0.20770670473575592,0.1533428132534027,0.02646649070084095
1763690870829272300,10.434272216796876,-0.1931978017091751,0.18068169057369232,0.006825266405940056
1763690870839232500,10.444232421875,-0.1735958606004715,0.22056812047958374,-0.01023680716753006
1763690870849191400,10.45419140625,-0.1555985063314438,0.2616666257381439,-0.019768835976719856
1763690870859150300,10.464150390625,-0.1389702558517456,0.28406432271003723,-0.02442057989537716
1763690870869109500,10.474109619140625,-0.1281122863292694,0.28385964035987854,-0.026848429813981056
1763690870879068400,10.484068359375,-0.11718479543924332,0.2699986696243286,-0.027880936861038208
1763690870889028400,10.4940283203125,-0.10471426695585251,0.2423306256532669,-0.02558181807398796
1763690870898987300,10.5039873046875,-0.09266719222068787,0.20706771314144135,-0.0206320658326149
1763690870908946200,10.5139462890625,-0.08904928714036942,0.17240110039710999,-0.012294238433241844
1763690870918905600,10.523905517578125,-0.09261180460453033,0.1372809261083603,-0.004428325220942497
1763690870928864500,10.533864501953126,-0.09747127443552017,0.10657414048910141,0.0035394509322941303
1763690870938823400,10.543823486328124,-0.10140769183635712,0.0877586379647255,0.014702623710036278
1763690870948783400,10.553783447265625,-0.09795782715082169,0.07436640560626984,0.026314005255699158
1763690870958742300,10.5637421875,-0.08662501722574234,0.06795995682477951,0.030489852651953697
1763690870968701400,10.573701416015625,-0.07726135849952698,0.06772887706756592,0.02694634720683098
1763690870978660400,10.583660400390626,-0.07004845142364502,0.07605791836977005,0.019475648179650307
1763690870988619300,10.593619384765624,-0.06989530473947525,0.07218874245882034,0.015932073816657066
1763690870998578400,10.603578369140624,-0.06696662306785583,0.06054460629820824,0.018590707331895828
1763690871008538400,10.613538330078125,-0.059867169708013535,0.039776820689439774,0.0218521635979414
1763690871018497500,10.62349755859375,-0.0565217025578022,0.01887819543480873,0.025267135351896286
1763690871028456400,10.63345654296875,-0.059703923761844635,0.0012450069189071655,0.024178406223654747
1763690871038415400,10.643415283203124,-0.06646489351987839,-0.009916567243635654,0.01733621209859848
1763690871048374500,10.65337451171875,-0.0755113810300827,-0.01797042414546013,0.009619053453207016
1763690871058334500,10.66333447265625,-0.07697132229804993,-0.025766294449567795,0.0010221032425761223
1763690871068293400,10.67329345703125,-0.0738580971956253,-0.034121546894311905,-0.006009198725223541
1763690871078252300,10.683252197265626,-0.06747689098119736,-0.04637368768453598,-0.010028974153101444
1763690871088211200,10.693211181640624,-0.058198168873786926,-0.06002785265445709,-0.008895905688405037
1763690871098170400,10.70317041015625,-0.04608211666345596,-0.06971509754657745,-0.005533133167773485
1763690871108130600,10.713130615234375,-0.03179452195763588,-0.07061950862407684,-0.0024153701961040497
1763690871118089500,10.72308935546875,-0.011637581512331963,-0.061425670981407166,-0.0038820905610919
1763690871128048400,10.73304833984375,0.0037243247497826815,-0.04789447411894798,-0.007259923033416271
1763690871138007300,10.74300732421875,0.01627979800105095,-0.04043735936284065,-0.01040777936577797
1763690871147966000,10.752966064453124,0.02399284392595291,-0.04441452398896217,-0.010185938328504562
1763690871157924900,10.7629248046875,0.020757893100380898,-0.055464353412389755,-0.011389043182134628
1763690871167885000,10.772885009765625,0.012288255617022514,-0.06705906987190247,-0.007556191645562649
1763690871177844000,10.782843994140626,0.0006811341736465693,-0.0776725634932518,-0.003976103849709034
1763690871187803100,10.79280322265625,-0.0015641842037439346,-0.08082397282123566,0.0043486542999744415
1763690871197762000,10.802761962890624,-0.0017010709270834923,-0.09073732793331146,0.00855325348675251
1763690871207721000,10.812720947265625,0.0008425060659646988,-0.10717550665140152,0.014332959428429604
1763690871217680000,10.822679931640625,0.006455650553107262,-0.12262850254774094,0.016084786504507065
1763690871227639800,10.832639892578126,0.01126931980252266,-0.1361975222826004,0.015272799879312515
1763690871237599000,10.842598876953126,0.012982264161109924,-0.14175288379192352,0.019741849973797798
1763690871247558100,10.85255810546875,0.012880261987447739,-0.14217236638069153,0.019144495949149132
1763690871257517000,10.86251708984375,0.01571839302778244,-0.14230898022651672,0.023693973198533058
1763690871267476000,10.87247607421875,0.019446294754743576,-0.13562488555908203,0.023450180888175964
1763690871277436000,10.882435791015626,0.028040580451488495,-0.13080456852912903,0.02197612076997757
1763690871287395000,10.89239501953125,0.03950309753417969,-0.12248558551073074,0.019588209688663483
1763690871297354000,10.90235400390625,0.04822707921266556,-0.11165184527635574,0.015231810510158539
1763690871307313000,10.91231298828125,0.060243260115385056,-0.10038484632968903,0.007516359910368919
1763690871317272000,10.92227197265625,0.06829319149255753,-0.09602924436330795,0.006324062589555979
1763690871327231000,10.93223095703125,0.0742214098572731,-0.0972624123096466,0.008247427642345428
1763690871337191200,10.942191162109374,0.0731702595949173,-0.10495228320360184,0.014550863765180111
1763690871347150000,10.952150146484374,0.06893742084503174,-0.10982387512922287,0.01614154316484928
1763690871357109000,10.96210888671875,0.06252718716859818,-0.11351048946380615,0.018512554466724396
1763690871367068200,10.972068115234375,0.05745146423578262,-0.11335396021604538,0.017510659992694855
1763690871377027000,10.982027099609375,0.04877036064863205,-0.11077042669057846,0.01573912426829338
1763690871386987000,10.991987060546874,0.04626431688666344,-0.10645963251590729,0.012077400460839272
1763690871396946000,11.00194580078125,0.0419318862259388,-0.10604870319366455,0.010480836033821106
1763690871406904800,11.01190478515625,0.03601222485303879,-0.11222632974386215,0.007930748164653778
1763690871416864000,11.021864013671875,0.031002018600702286,-0.1200786605477333,0.008176291361451149
1763690871426823000,11.031822998046875,0.025969434529542923,-0.12502263486385345,0.010595755651593208
1763690871436782000,11.041781982421876,0.023169655352830887,-0.12943017482757568,0.011346501298248768
1763690871446742000,11.051741943359374,0.0231544841080904,-0.13117389380931854,0.0071493834257125854
1763690871456701000,11.061700927734375,0.021442871540784836,-0.12706142663955688,0.002713622059673071
1763690871466660000,11.07166015625,0.016869952902197838,-0.12053807079792023,-0.003130162600427866
1763690871476619000,11.081618896484375,0.013286403380334377,-0.11327189952135086,-0.007915064692497253
1763690871486578000,11.091577880859376,0.010474094189703465,-0.10723303258419037,-0.01066453568637371
1763690871496537000,11.101537109375,0.00695739034563303,-0.11058542132377625,-0.0037722745910286903
1763690871506497000,11.1114970703125,0.0024140523746609688,-0.11690360307693481,-0.005830064881592989
1763690871516456000,11.1214560546875,0.0030753151513636112,-0.12373354285955429,-0.004473716486245394
1763690871526415000,11.1314150390625,-0.0012693670578300953,-0.1334189474582672,-0.003296070732176304
1763690871536374000,11.1413740234375,-0.0019934806041419506,-0.14039376378059387,-0.005447372328490019
1763690871546333200,11.151333251953124,-0.0018001357093453407,-0.1422438621520996,-0.007267777808010578
1763690871556293000,11.161293212890625,0.0026060643140226603,-0.14440928399562836,-0.011322440579533577
1763690871566252000,11.171251953125,0.0026446706615388393,-0.1426847279071808,-0.016303371638059616
1763690871576211000,11.1812109375,0.0003402375150471926,-0.13142381608486176,-0.022432368248701096
1763690871586169900,11.191169921875,-0.0007340819574892521,-0.11931203305721283,-0.029802536591887474
1763690871596129000,11.20112890625,-0.0020693913102149963,-0.10792568325996399,-0.03224705159664154
1763690871606088000,11.211087890625,-0.0005692001432180405,-0.10011421889066696,-0.03270157054066658
1763690871616048000,11.221048095703125,0.0028337868861854076,-0.09534662216901779,-0.03655543178319931
1763690871626007000,11.231007080078125,0.009296461939811707,-0.09053481370210648,-0.04191961884498596
1763690871635966000,11.240966064453126,0.01473650150001049,-0.08519171178340912,-0.04660331830382347
1763690871645925000,11.250925048828124,0.021901998668909073,-0.08288494497537613,-0.051443494856357574
1763690871655884000,11.260884033203125,0.025403788313269615,-0.07819724828004837,-0.049457576125860214
1763690871665843000,11.270843017578125,0.029878167435526848,-0.07255557924509048,-0.04871334880590439
1763690871675803000,11.280802978515625,0.02928667888045311,-0.06881170719861984,-0.04625631496310234
1763690871685762000,11.290761962890626,0.03146114572882652,-0.06889298558235168,-0.04005968198180199
1763690871695721000,11.300720947265624,0.031297359615564346,-0.06934918463230133,-0.033491529524326324
1763690871705680000,11.310679931640625,0.03326411545276642,-0.0701403096318245,-0.02914842590689659
1763690871715639000,11.32063916015625,0.03170749545097351,-0.07350122183561325,-0.023348860442638397
1763690871725599000,11.330598876953125,0.02720090188086033,-0.07734860479831696,-0.014396763406693935
1763690871735558100,11.34055810546875,0.021888427436351776,-0.08626513928174973,-0.005386224016547203
1763690871745517000,11.35051708984375,0.020978683605790138,-0.0936264768242836,0.0025634265039116144
1763690871755476000,11.36047607421875,0.02170679159462452,-0.09795278310775757,0.006239920388907194
1763690871765435000,11.370434814453125,0.027134044095873833,-0.10099656134843826,0.007685740478336811
1763690871775394000,11.38039404296875,0.03339220583438873,-0.09567476809024811,0.011661040596663952
1763690871785354000,11.39035400390625,0.03638187795877457,-0.0943116694688797,0.018412170931696892
1763690871795313200,11.400313232421874,0.040649861097335815,-0.0898578017950058,0.027688760310411453
1763690871805272000,11.41027197265625,0.0439457930624485,-0.08396392315626144,0.03383734077215195
1763690871815231000,11.42023095703125,0.05330280959606171,-0.08099662512540817,0.034611787647008896
1763690871825190100,11.430190185546875,0.06338979303836823,-0.07665114849805832,0.03344665467739105
1763690871835149000,11.440149169921876,0.07259102165699005,-0.07721200585365295,0.031017852947115898
1763690871845109000,11.45010888671875,0.07248955219984055,-0.09058587998151779,0.0326656810939312
1763690871855068000,11.46006787109375,0.07037979364395142,-0.11387921869754791,0.04127541556954384
1763690871865027000,11.470027099609375,0.06434773653745651,-0.14153799414634705,0.051024049520492554
1763690871874986000,11.479986083984375,0.06256874650716782,-0.15647034347057343,0.059455882757902145
1763690871884945000,11.48994482421875,0.06766923516988754,-0.17142975330352783,0.06687400490045547
1763690871894903800,11.49990380859375,0.0770193338394165,-0.19741635024547577,0.07346426695585251
1763690871904864000,11.509864013671875,0.09123366326093674,-0.21316277980804443,0.08391859382390976
1763690871914823200,11.5198232421875,0.10877563804388046,-0.2083730846643448,0.09175600856542587
1763690871924782000,11.529781982421875,0.1257578283548355,-0.20269575715065002,0.08972641080617905
1763690871934741000,11.539740966796876,0.14355865120887756,-0.2038438469171524,0.07332853227853775
1763690871944700000,11.549699951171876,0.15039819478988647,-0.20582535862922668,0.05048862844705582
1763690871954659000,11.5596591796875,0.14605751633644104,-0.21356849372386932,0.025494063273072243
1763690871964619000,11.569618896484375,0.1325899064540863,-0.228168785572052,0.008588039316236973
1763690871974578000,11.579577880859375,0.12046373635530472,-0.2503311038017273,-0.004430823028087616
1763690871984537000,11.589537109375,0.11315762251615524,-0.27242326736450195,-0.011015873402357101
1763690871994496000,11.59949609375,0.10598573088645935,-0.28831300139427185,-0.018376318737864494
1763690872004455200,11.609455078125,0.10040772706270218,-0.3006118834018707,-0.02444262057542801
1763690872014415000,11.6194150390625,0.09321106970310211,-0.31066903471946716,-0.030930615961551666
1763690872024374000,11.6293740234375,0.08629404753446579,-0.3164258897304535,-0.03680419921875
1763690872034333000,11.6393330078125,0.0789911299943924,-0.32279646396636963,-0.04103010892868042
1763690872044292000,11.6492919921875,0.07377373427152634,-0.3270518481731415,-0.04340696334838867
1763690872054251000,11.6592509765625,0.07053107023239136,-0.3351614475250244,-0.043128930032253265
1763690872064210000,11.6692099609375,0.07497240602970123,-0.34558340907096863,-0.04097580537199974
1763690872074170000,11.679170166015625,0.08164149522781372,-0.34867000579833984,-0.024876464158296585
1763690872084129000,11.68912890625,0.08892284333705902,-0.3536645174026489,0.005858538672327995
1763690872094088200,11.699088134765624,0.09998827427625656,-0.36299678683280945,0.04089988023042679
1763690872104047000,11.709047119140624,0.11571504920721054,-0.3829435110092163,0.0741402730345726
1763690872114006000,11.719006103515625,0.12943193316459656,-0.4026450514793396,0.11257714778184891
1763690872123965000,11.72896484375,0.12936721742153168,-0.387084424495697,0.1549786776304245
1763690872133924900,11.7389248046875,0.13368473947048187,-0.34130921959877014,0.1875041276216507
1763690872143884000,11.748884033203124,0.15929529070854187,-0.291565865278244,0.21496492624282837
1763690872153843000,11.758843017578124,0.20016415417194366,-0.25352180004119873,0.2400052845478058
1763690872163801900,11.7688017578125,0.2490941435098648,-0.2040993720293045,0.27211901545524597
1763690872173760800,11.7787607421875,0.2974978983402252,-0.13085845112800598,0.3028116822242737
1763690872183720000,11.788719970703125,0.34748491644859314,-0.041077498346567154,0.33894410729408264
1763690872193680000,11.798679931640624,0.3989483714103699,0.04729790613055229,0.39319828152656555
1763690872203638800,11.808638671875,0.45259666442871094,0.08286866545677185,0.4472085237503052
1763690872213597700,11.81859765625,0.4963603913784027,0.0561387836933136,0.4840421676635742
1763690872223557000,11.82855712890625,0.5180177688598633,-0.007021610159426928,0.5031617879867554
1763690872233516000,11.83851611328125,0.5271470546722412,-0.0814412534236908,0.5204366445541382
1763690872243475000,11.848474853515626,0.5289228558540344,-0.15263131260871887,0.5534483194351196
1763690872253435000,11.858434814453124,0.5258546471595764,-0.22026948630809784,0.6117393374443054
1763690872263393800,11.868393798828125,0.5240072011947632,-0.29139113426208496,0.6844201683998108
1763690872273353000,11.87835302734375,0.5120698809623718,-0.37516483664512634,0.7246530652046204
1763690872283311900,11.888311767578125,0.4877386689186096,-0.44222894310951233,0.7309062480926514
1763690872293270800,11.898270751953126,0.44406551122665405,-0.4674815833568573,0.7176799178123474
1763690872303229700,11.908229736328124,0.37749794125556946,-0.465739369392395,0.6982772350311279
1763690872313190000,11.91818994140625,0.29819297790527344,-0.46479901671409607,0.6793277859687805
1763690872323149000,11.928149169921875,0.22332780063152313,-0.4548285901546478,0.6520929336547852
1763690872333108000,11.93810791015625,0.18249088525772095,-0.40682029724121094,0.6065137386322021
1763690872343067000,11.94806689453125,0.18862654268741608,-0.3328411281108856,0.5405250191688538
1763690872353025800,11.95802587890625,0.23766252398490906,-0.24937736988067627,0.45595690608024597
1763690872362985000,11.96798486328125,0.3158670663833618,-0.18105366826057434,0.3823434114456177
1763690872372945000,11.97794482421875,0.4114505648612976,-0.15485242009162903,0.32417571544647217
1763690872382903800,11.98790380859375,0.5162347555160522,-0.15129481256008148,0.26756247878074646
1763690872392862700,11.99786279296875,0.6222365498542786,-0.14136815071105957,0.2076197862625122
1763690872402822000,12.00782177734375,0.7142117619514465,-0.13426335155963898,0.14139775931835175
1763690872412781000,12.017781005859375,0.7859330773353577,-0.14167092740535736,0.0872652679681778
1763690872422740000,12.027739990234375,0.8416045904159546,-0.19570289552211761,0.049440547823905945
1763690872432700000,12.037699951171875,0.8743827939033508,-0.30372655391693115,0.030203739181160927
1763690872442658800,12.047658935546876,0.8743875622749329,-0.46294504404067993,0.014051922596991062
1763690872452618000,12.057617919921874,0.8455002903938293,-0.622834324836731,0.007321315351873636
1763690872462577000,12.067576904296875,0.7983673810958862,-0.6899452209472656,-0.016023823991417885
1763690872472535800,12.077535888671875,0.7511857748031616,-0.6946760416030884,-0.04572313278913498
1763690872482494700,12.08749462890625,0.7170161008834839,-0.6733396053314209,-0.08665870875120163
1763690872492454700,12.09745458984375,0.6838852763175964,-0.6484470367431641,-0.13232207298278809
1763690872502414000,12.1074140625,0.654561460018158,-0.6315290331840515,-0.18159468472003937
1763690872512373000,12.117373046875,0.6185874938964844,-0.6204260587692261,-0.22989164292812347
1763690872522332000,12.127331787109375,0.6080946326255798,-0.6083182096481323,-0.2669562101364136
1763690872532290800,12.137290771484375,0.6125397086143494,-0.6132379174232483,-0.29471591114997864
1763690872542250000,12.14725,0.6300904750823975,-0.6304863095283508,-0.3202225863933563
1763690872552210000,12.1572099609375,0.6541207432746887,-0.6555245518684387,-0.3531930446624756
1763690872562168800,12.1671689453125,0.6762769222259521,-0.6875121593475342,-0.38315507769584656
1763690872572127700,12.177127685546875,0.6920620203018188,-0.7307288646697998,-0.41489967703819275
1763690872582087000,12.1870869140625,0.6957288980484009,-0.7850812673568726,-0.4457167387008667
1763690872592045800,12.1970458984375,0.6860315203666687,-0.8280881643295288,-0.46156254410743713
1763690872602004700,12.207004638671876,0.6622604131698608,-0.8877184987068176,-0.4725058972835541
1763690872611965000,12.21696484375,0.622874915599823,-0.9712632298469543,-0.4678669273853302
1763690872621923800,12.226923828125,0.5816188454627991,-1.0504212379455566,-0.44322505593299866
1763690872631883000,12.236883056640625,0.5476198792457581,-1.106357455253601,-0.4088314175605774
1763690872641842000,12.246842041015626,0.5172950029373169,-1.1511527299880981,-0.376726895570755
1763690872651800800,12.25680078125,0.4976235330104828,-1.196423888206482,-0.3551830053329468
1763690872661759700,12.266759765625,0.4811500310897827,-1.237046480178833,-0.33809733390808105
1763690872671719700,12.2767197265625,0.4675561785697937,-1.2570194005966187,-0.31318745017051697
