time,seconds_elapsed,z,y,x
1763690860395521300,0.190521240234375,0,0,0
1763690860405107200,0.200107177734375,-0.026336669921875,0.0162428617477417,0.022013328969478607
1763690860443451000,0.238450927734375,0.06774711608886719,0.09067738056182861,-0.0657561868429184
1763690860462622000,0.2576220703125,0.05077552795410156,0.05223965644836426,-0.10067877173423767
1763690860472208600,0.267208740234375,-0.057064056396484375,0.03204214572906494,-0.08051760494709015
1763690860481794600,0.276794677734375,-0.09889793395996094,0.021001815795898438,-0.00041621923446655273
1763690860491379700,0.286379638671875,-0.022754669189453125,0.08402645587921143,0.07994595170021057
1763690860500965600,0.295965576171875,0.04890632629394531,0.132590651512146,0.11842180788516998
1763690860510552300,0.30555224609375,0.011439323425292969,0.11945164203643799,0.15157991647720337
1763690860520138200,0.31513818359375,-0.05889606475830078,0.10599398612976074,0.12608283758163452
1763690860529723400,0.324723388671875,-0.14958572387695312,0.12817418575286865,0.06586653739213943
1763690860539308300,0.334308349609375,-0.21106243133544922,0.09570586681365967,0.03564317524433136
1763690860548895000,0.34389501953125,-0.24776840209960938,0.02090156078338623,0.040438905358314514
1763690860558481000,0.35348095703125,-0.21355247497558594,-0.018458247184753418,0.04073125123977661
1763690860568066000,0.363066162109375,-0.09354209899902344,-0.01813948154449463,0.011952787637710571
1763690860577652000,0.37265185546875,0.047575950622558594,-0.00851297378540039,0.057202860713005066
1763690860587238700,0.38223876953125,0.29451560974121094,-0.008753180503845215,0.20946326851844788
1763690860596824600,0.391824462890625,0.3584709167480469,0.010907173156738281,0.2895462214946747
1763690860606409700,0.40140966796875,0.17444324493408203,0.041654109954833984,0.2552834749221802
1763690860615995600,0.41099560546875,-0.08983421325683594,0.06227374076843262,0.11573699116706848
1763690860625582300,0.420582275390625,-0.22333908081054688,0.05198955535888672,-0.051504433155059814
1763690860635168300,0.430168212890625,-0.2880373001098633,0.009374856948852539,-0.1318548023700714
1763690860644753400,0.43975341796875,-0.6434354782104492,-0.06285691261291504,-0.15463456511497498
1763690860654339300,0.44933935546875,-0.5309457778930664,-0.17822182178497314,-0.1980980634689331
1763690860663926000,0.458926025390625,-0.38684558868408203,-0.2896902561187744,-0.14084583520889282
1763690860673512000,0.468511962890625,-0.3508157730102539,-0.36414361000061035,-0.1290910243988037
1763690860683097000,0.47809716796875,-0.28485107421875,-0.31699633598327637,-0.2978690564632416
1763690860692683000,0.48768310546875,-0.3169708251953125,-0.230582594871521,-0.457543283700943
1763690860702269700,0.497269775390625,-0.43695545196533203,-0.14844799041748047,-0.5257239937782288
1763690860711855600,0.506855712890625,-0.5469017028808594,-0.04759395122528076,-0.5186865925788879
1763690860721440800,0.516440673828125,-0.572667121887207,0.03245949745178223,-0.48466384410858154
1763690860731026700,0.526026611328125,-0.6004791259765625,0.08552050590515137,-0.39003872871398926
1763690860740613400,0.53561328125,-0.5514011383056641,0.18174481391906738,-0.3252307176589966
1763690860750199300,0.54519921875,-0.39033031463623047,0.31054186820983887,-0.29432201385498047
1763690860759784400,0.554784423828125,-0.10113239288330078,0.46505022048950195,-0.2343701422214508
1763690860769370400,0.564370361328125,0.2208843231201172,0.3686177730560303,-0.18498069047927856
1763690860778957000,0.57395703125,0.5457963943481445,0.196982741355896,-0.08839592337608337
1763690860788543000,0.58354296875,0.7622280120849609,0.03194570541381836,0.021101832389831543
1763690860798128000,0.593128173828125,1.1817951202392578,-0.04997372627258301,0.17237353324890137
1763690860807714000,0.602714111328125,1.4749565124511719,-0.10184264183044434,0.2973182201385498
1763690860817300700,0.61230078125,1.538919448852539,-0.11796820163726807,0.3211413621902466
1763690860826886700,0.62188671875,1.3568105697631836,-0.1005021333694458,0.274411678314209
1763690860836471800,0.631471923828125,0.9632701873779297,-0.05771172046661377,0.15723665058612823
1763690860846057700,0.6410576171875,0.5515012741088867,-0.019182682037353516,0.09741249680519104
1763690860855644400,0.65064453125,0.19155502319335938,0.00753021240234375,0.08096334338188171
1763690860865230300,0.660230224609375,-0.10153484344482422,0.053424954414367676,0.046859584748744965
1763690860874815500,0.6698154296875,-0.2632026672363281,0.09713852405548096,-0.015947332605719566
1763690860884401400,0.6794013671875,-0.2367725372314453,0.09064292907714844,-0.0626661628484726
1763690860893988000,0.688988037109375,-0.18725967407226562,0.015171527862548828,-0.052901491522789
1763690860903574000,0.698573974609375,-0.1593332290649414,-0.040789008140563965,-0.04072107747197151
1763690860913159200,0.7081591796875,-0.13374805450439453,-0.02368021011352539,-0.05219263210892677
1763690860922745000,0.7177451171875,-0.14593219757080078,0.0006084442138671875,-0.07771439105272293
1763690860932331800,0.727331787109375,-0.16728878021240234,0.0076743364334106445,-0.10143052041530609
1763690860941917700,0.736917724609375,-0.16487884521484375,-0.03903520107269287,-0.09389598667621613
1763690860951502800,0.7465029296875,-0.1108102798461914,-0.07542884349822998,-0.054680053144693375
1763690860961088800,0.7560888671875,-0.07642173767089844,-0.08825159072875977,-0.019223131239414215
1763690860970675500,0.765675537109375,-0.1389942169189453,-0.08777165412902832,0.019500497728586197
1763690860980261400,0.775261474609375,-0.2215127944946289,-0.07712399959564209,0.01820758730173111
1763690860989846500,0.784846435546875,-0.25055885314941406,-0.007549762725830078,-0.00971420481801033
1763690860999432400,0.794432373046875,-0.24581050872802734,0.06103646755218506,-0.07335864007472992
1763690861009019100,0.80401904296875,-0.21025562286376953,0.11757075786590576,-0.10024099051952362
1763690861018605000,0.81360498046875,-0.18685340881347656,0.12637150287628174,-0.09377219527959824
1763690861028190200,0.823190185546875,-0.15973567962646484,0.11720836162567139,-0.07090887427330017
1763690861037776100,0.832776123046875,-0.08940982818603516,0.07402241230010986,0.013194099068641663
1763690861047362800,0.84236279296875,-0.08059310913085938,0.019961953163146973,0.07771819084882736
1763690861056948700,0.85194873046875,-0.09902381896972656,0.008612751960754395,0.03067738562822342
1763690861066534000,0.861533935546875,-0.05639076232910156,-0.010990500450134277,-0.06342625617980957
1763690861076119800,0.871119873046875,0.06120109558105469,-0.07103419303894043,-0.11486122012138367
1763690861085706500,0.88070654296875,0.09055900573730469,-0.11819756031036377,-0.13465021550655365
1763690861095292400,0.89029248046875,0.08055305480957031,-0.1358931064605713,-0.13828986883163452
1763690861104877600,0.899877685546875,0.027042388916015625,-0.11945617198944092,-0.12229979038238525
1763690861114463500,0.90946337890625,-0.027217864990234375,-0.07213771343231201,-0.034769054502248764
1763690861124050200,0.91905029296875,0.004395484924316406,0.03907930850982666,0.0621713250875473
1763690861133636000,0.928635986328125,0.023482322692871094,0.13331735134124756,0.14524586498737335
1763690861143221200,0.93822119140625,-0.00305938720703125,0.18933403491973877,0.17816418409347534
1763690861152807200,0.94780712890625,-0.0957794189453125,0.2273787260055542,0.1767796277999878
1763690861162393900,0.957393798828125,-0.21111392974853516,0.19561707973480225,0.12472395598888397
1763690861171979800,0.966979736328125,-0.26129722595214844,0.14778590202331543,0.02390124648809433
1763690861181565000,0.97656494140625,-0.2022991180419922,0.0724942684173584,-0.031025469303131104
1763690861191150800,0.98615087890625,-0.16042804718017578,0.013252496719360352,-0.022231116890907288
1763690861200737500,0.995737548828125,-0.08353996276855469,-0.014172792434692383,-0.010897114872932434
1763690861210323500,1.005323486328125,0.09130477905273438,0.006057143211364746,0.037591785192489624
1763690861219908600,1.01490869140625,0.3953266143798828,0.044896721839904785,0.12816405296325684
1763690861229494500,1.02449462890625,0.4967002868652344,0.0270235538482666,0.20702195167541504
1763690861239081200,1.034081298828125,0.3751859664916992,0.024785280227661133,0.21951830387115479
1763690861248667100,1.043667236328125,0.1898326873779297,0.026935338973999023,0.11710700392723083
1763690861258252300,1.053252197265625,0.06186676025390625,0.0024666786193847656,0.0188530832529068
1763690861267838200,1.062838134765625,-0.0071620941162109375,-0.03965580463409424,-0.08099809288978577
1763690861277425000,1.0724248046875,-0.09580135345458984,-0.13276004791259766,-0.16005873680114746
1763690861287010800,1.0820107421875,-0.15425872802734375,-0.1701589822769165,-0.21946066617965698
1763690861296596000,1.091595947265625,-0.15254974365234375,-0.1874089241027832,-0.24208873510360718
1763690861306182000,1.101181884765625,-0.1437053680419922,-0.1670140027999878,-0.21987852454185486
1763690861315768600,1.1107685546875,-0.11409568786621094,-0.11924088001251221,-0.13236095011234283
1763690861325354500,1.1203544921875,-0.06684303283691406,-0.05642843246459961,-0.03677654266357422
1763690861334939600,1.129939697265625,-0.058920860290527344,-0.010897159576416016,-0.0022364407777786255
1763690861344525600,1.139525634765625,-0.10854339599609375,0.015501976013183594,0.0332212895154953
1763690861354112300,1.1491123046875,-0.04745006561279297,0.06925678253173828,0.03684598207473755
1763690861363698200,1.1586982421875,0.05930805206298828,0.09608566761016846,0.031861305236816406
1763690861373283300,1.168283447265625,0.07952308654785156,0.03310227394104004,0.013936161994934082
1763690861382869200,1.177869140625,0.0808877944946289,-0.037696242332458496,-0.025611653923988342
1763690861392456000,1.1874560546875,0.07337760925292969,-0.08938276767730713,-0.05249278247356415
1763690861402041900,1.197041748046875,0.07601547241210938,-0.10848402976989746,-0.04581940174102783
1763690861411627000,1.206626953125,0.09796333312988281,-0.0809704065322876,-0.04805673658847809
1763690861421213000,1.216212890625,0.12935924530029297,-0.02813398838043213,-0.04870213568210602
1763690861430799600,1.225799560546875,0.13226985931396484,0.014959216117858887,-0.007353037595748901
1763690861440385500,1.235385498046875,0.13063430786132812,0.03714478015899658,0.023906752467155457
1763690861449970700,1.244970703125,0.0891275405883789,0.0416874885559082,0.026542067527770996
1763690861459556600,1.254556640625,0.013127326965332031,0.0289994478225708,0.002201959490776062
1763690861469143300,1.264143310546875,-0.04739665985107422,-0.0002886056900024414,-0.021126538515090942
1763690861478729200,1.273729248046875,-0.07391643524169922,0.01800858974456787,-0.019952669739723206
1763690861488314400,1.283314453125,-0.07178401947021484,0.029399394989013672,-0.03197719156742096
1763690861497900300,1.292900390625,-0.08392143249511719,0.05798614025115967,0.011231839656829834
1763690861507487000,1.302487060546875,-0.06780147552490234,0.0850977897644043,0.057995304465293884
1763690861517073000,1.312072998046875,-0.04989814758300781,0.11120247840881348,0.10753472149372101
1763690861526658000,1.321657958984375,0.02622699737548828,0.1763291358947754,0.13991010189056396
1763690861536244000,1.331243896484375,0.05138397216796875,0.1968543529510498,0.13720838725566864
1763690861545830700,1.34083056640625,0.038161277770996094,0.19717812538146973,0.1097526103258133
1763690861555416600,1.35041650390625,-0.015189170837402344,0.20152223110198975,0.12069366872310638
1763690861565001700,1.360001708984375,-0.08678436279296875,0.17451190948486328,0.1187887191772461
1763690861574587600,1.369587646484375,-0.11727046966552734,0.18403232097625732,0.10227489471435547
1763690861584174300,1.37917431640625,-0.05274486541748047,0.19401848316192627,0.11408865451812744
1763690861593760300,1.38876025390625,0.020834922790527344,0.1739339828491211,0.09179039299488068
1763690861603345400,1.398345458984375,0.10120487213134766,0.127516508102417,0.06634995341300964
1763690861612931300,1.407931396484375,0.15526580810546875,0.020139217376708984,0.01677839457988739
1763690861622518000,1.41751806640625,0.2209463119506836,-0.08964133262634277,0.0011372566223144531
1763690861632104000,1.42710400390625,0.3213386535644531,-0.16284728050231934,0.0026682615280151367
1763690861641689000,1.436689208984375,0.4366722106933594,-0.179762601852417,-0.007511258125305176
1763690861651275000,1.44627490234375,0.40850162506103516,-0.2072134017944336,0.0062712132930755615
1763690861660861700,1.45586181640625,0.25061988830566406,-0.2192152738571167,-0.013354405760765076
1763690861670447600,1.465447509765625,0.0662221908569336,-0.18383383750915527,-0.028186529874801636
1763690861680032800,1.47503271484375,-0.0947723388671875,-0.12765848636627197,-0.03554093837738037
1763690861689618400,1.484618408203125,-0.22078323364257812,-0.059031009674072266,-0.03482683002948761
1763690861699205400,1.494205322265625,-0.3144073486328125,-0.005766868591308594,-0.04032374918460846
1763690861708791300,1.503791259765625,-0.34284496307373047,0.0350419282913208,-0.06857810914516449
1763690861718376400,1.51337646484375,-0.32567596435546875,0.078041672706604,-0.11988368630409241
1763690861727962400,1.52296240234375,-0.3411130905151367,0.048755645751953125,-0.13523882627487183
1763690861737549000,1.532549072265625,-0.36497020721435547,-0.005079388618469238,-0.10387791693210602
1763690861747135000,1.542135009765625,-0.31241321563720703,-0.028670549392700195,-0.0649760365486145
1763690861756720000,1.55172021484375,-0.2038106918334961,-0.011862039566040039,-0.015068843960762024
1763690861766305800,1.561305908203125,-0.11112213134765625,0.011375188827514648,0.008977144956588745
1763690861775892700,1.570892822265625,-0.1285877227783203,-0.0042421817779541016,0.06657849252223969
1763690861785478700,1.580478759765625,-0.20983123779296875,-0.040343403816223145,0.06361639499664307
1763690861795063600,1.5900634765625,-0.2384490966796875,-0.056441545486450195,0.03102262318134308
1763690861804649700,1.599649658203125,-0.2247018814086914,-0.060150861740112305,-0.019019678235054016
1763690861814236400,1.609236328125,-0.26114559173583984,-0.07722973823547363,-0.11096550524234772
1763690861823822000,1.618822021484375,-0.3093595504760742,-0.10677087306976318,-0.20602917671203613
1763690861833407500,1.628407470703125,-0.27030277252197266,-0.15068447589874268,-0.26440370082855225
1763690861842993200,1.6379931640625,-0.14762210845947266,-0.17912447452545166,-0.2430913746356964
1763690861852580000,1.647580078125,0.04105091094970703,-0.15153217315673828,-0.1838468611240387
1763690861862165800,1.657165771484375,0.13953685760498047,-0.1059577465057373,-0.1078045666217804
1763690861871751000,1.6667509765625,0.16141033172607422,-0.030173301696777344,-0.019570499658584595
1763690861881337000,1.676337158203125,0.16236209869384766,0.06451952457427979,0.010135099291801453
1763690861890923800,1.685923828125,0.15697479248046875,0.14671647548675537,0.05116559565067291
1763690861900509400,1.695509521484375,0.20429229736328125,0.2067352533340454,0.09215588867664337
1763690861910094600,1.705094482421875,0.28923702239990234,0.22867929935455322,0.11438952386379242
1763690861919680500,1.714680419921875,0.37561988830566406,0.1837061643600464,0.11659830808639526
1763690861929267500,1.724267333984375,0.38776683807373047,0.10277056694030762,0.12429115176200867
1763690861938853400,1.733853271484375,0.34305763244628906,0.00243222713470459,0.10027486085891724
1763690861948438300,1.743438232421875,0.3198375701904297,-0.08723783493041992,0.06462046504020691
1763690861958024400,1.7530244140625,0.3152332305908203,-0.12098217010498047,0.025668799877166748
1763690861967611000,1.76261083984375,0.23481178283691406,-0.16574978828430176,-0.0011129975318908691
1763690861977196800,1.77219677734375,0.11053943634033203,-0.18156039714813232,-0.02019442617893219
1763690861986782000,1.781781982421875,-0.0166473388671875,-0.1742877960205078,-0.04806165397167206
1763690861996368000,1.791367919921875,-0.1017465591430664,-0.14064013957977295,-0.0416562557220459
1763690862005954800,1.800954833984375,-0.19231700897216797,-0.09161913394927979,-0.024200275540351868
1763690862015540500,1.81054052734375,-0.2151203155517578,-0.04488503932952881,0.0198708176612854
1763690862025125600,1.820125732421875,-0.12641048431396484,0.012812018394470215,0.0951627641916275
1763690862034711800,1.8297119140625,0.0038003921508789062,0.07555687427520752,0.16818924248218536
1763690862044298200,1.83929833984375,0.06180095672607422,0.1195899248123169,0.18924367427825928
1763690862053884200,1.84888427734375,0.025011062622070312,0.13020312786102295,0.19923681020736694
1763690862063469300,1.85846923828125,-0.034694671630859375,0.14047622680664062,0.1866612732410431
1763690862073055200,1.86805517578125,-0.046588897705078125,0.14012277126312256,0.1786888837814331
1763690862082642200,1.87764208984375,-0.04941082000732422,0.12372541427612305,0.15917593240737915
1763690862092227800,1.887227783203125,-0.06938552856445312,0.07844877243041992,0.14910441637039185
1763690862101813000,1.89681298828125,-0.11322879791259766,0.032926321029663086,0.11827799677848816
1763690862111399000,1.90639892578125,-0.10035133361816406,0.014641761779785156,0.07600122690200806
1763690862120985600,1.915985595703125,-0.03611469268798828,0.019103169441223145,0.03926074504852295
1763690862130571500,1.925571533203125,-0.015318870544433594,0.00702214241027832,-0.003992035984992981
1763690862140156700,1.93515673828125,-0.027637481689453125,-0.017519474029541016,-0.026501938700675964
1763690862149742600,1.94474267578125,-0.05359458923339844,-0.02650892734527588,-0.019910916686058044
1763690862159329300,1.954329345703125,-0.04352569580078125,-0.02737903594970703,-0.0192490816116333
1763690862168915200,1.963915283203125,-0.009819984436035156,-0.017919421195983887,-0.002496182918548584
1763690862178500400,1.973500244140625,0.028206825256347656,0.00213778018951416,0.01659582555294037
1763690862188086300,1.983086181640625,-0.0049381256103515625,0.023644089698791504,0.007648661732673645
1763690862197673000,1.9926728515625,-0.042229652404785156,0.04006779193878174,-0.013118460774421692
1763690862207259000,2.0022587890625,-0.03171348571777344,0.0745851993560791,-0.027441784739494324
1763690862216844000,2.011843994140625,-0.009373664855957031,0.039111971855163574,-0.028569236397743225
1763690862226430000,2.021429931640625,-0.04348468780517578,-0.0026383399963378906,-0.04336161911487579
1763690862236016600,2.0310166015625,-0.05292797088623047,-0.041813015937805176,-0.07904703915119171
1763690862245602600,2.0406025390625,-0.016675949096679688,0.009647130966186523,-0.06476907432079315
1763690862255187700,2.050187744140625,-0.026910781860351562,0.15768682956695557,0.059276580810546875
1763690862264773600,2.059773681640625,-0.05892467498779297,0.18024706840515137,0.16873297095298767
1763690862274360300,2.0693603515625,-0.029432296752929688,0.04196155071258545,0.19727545976638794
1763690862283946200,2.0789462890625,-0.04487895965576172,-0.16196608543395996,0.12357306480407715
1763690862293531400,2.088531494140625,-0.06633186340332031,-0.4009835720062256,-0.026555657386779785
1763690862303117300,2.098117431640625,-0.023011207580566406,-0.5229020118713379,-0.278175413608551
1763690862312704000,2.1077041015625,-0.12376880645751953,-0.5323135852813721,-0.6819640398025513
1763690862322290000,2.1172900390625,-0.3272552490234375,-0.3591189384460449,-1.0049769878387451
1763690862331875000,2.126875,-0.47081851959228516,-0.567626953125,-0.8576406240463257
1763690862341461000,2.1364609375,-0.5060386657714844,-0.9156417846679688,-0.5396307110786438
1763690862351047700,2.146047607421875,-0.3497295379638672,-0.976593017578125,-0.3706270456314087
1763690862360633600,2.155633544921875,-0.10514259338378906,-1.4406445026397705,-0.7511432766914368
1763690862370218800,2.16521875,-0.6515607833862305,-2.2401397228240967,-0.9162337183952332
1763690862379804700,2.1748046875,-1.3351154327392578,-3.646094799041748,0.5511793494224548
1763690862389391400,2.184391357421875,-1.5986747741699219,-2.9650018215179443,1.2725069522857666
1763690862398977300,2.193977294921875,-0.9483299255371094,-1.8273710012435913,0.07693135738372803
1763690862408562400,2.2035625,-1.1162033081054688,-0.8526284694671631,0.3448164463043213
1763690862418148400,2.2131484375,-0.9316987991333008,-0.1509265899658203,0.5722345113754272
1763690862427735000,2.222735107421875,-0.8684415817260742,0.21766066551208496,0.27307045459747314
1763690862437321000,2.232321044921875,-1.0321922302246094,0.0027909278869628906,-0.3158719539642334
1763690862446906000,2.241906005859375,-0.9268159866333008,-0.49286365509033203,-0.8789547681808472
1763690862456492000,2.251491943359375,-0.3382854461669922,-0.5814316272735596,-0.992226779460907
1763690862466078700,2.26107861328125,0.24289894104003906,-0.40371084213256836,-0.8827557563781738
1763690862475664600,2.27066455078125,0.6088829040527344,-0.08645272254943848,-0.36676305532455444
1763690862485249800,2.280249755859375,0.7340335845947266,0.3508129119873047,0.5283675193786621
1763690862494835700,2.289835693359375,0.9737482070922852,0.7113699913024902,1.2035658359527588
1763690862504422400,2.29942236328125,1.4243698120117188,0.9300122261047363,0.7740041017532349
1763690862514008300,2.30900830078125,1.0477514266967773,1.6300350427627563,-0.046393394470214844
1763690862523593500,2.318593505859375,0.39878368377685547,2.100945472717285,-1.4051289558410645
1763690862533179400,2.328179443359375,-0.06927967071533203,1.7983474731445312,-2.6166794300079346
1763690862542766000,2.33776611328125,0.08932876586914062,1.0532370805740356,-2.460568904876709
1763690862552352000,2.34735205078125,0.7914905548095703,0.5311574935913086,-1.500012993812561
1763690862561937200,2.356937255859375,1.7783708572387695,0.42306745052337646,-0.42450034618377686
1763690862571523000,2.366523193359375,2.611166000366211,0.47196006774902344,0.3529449999332428
1763690862581109800,2.37610986328125,3.0270633697509766,0.5452876091003418,0.8404834270477295
1763690862590695700,2.38569580078125,2.600722312927246,0.7340002059936523,1.0598711967468262
1763690862600280800,2.39528076171875,1.652420997619629,0.641281008720398,0.888565182685852
1763690862609866800,2.40486669921875,0.9428386688232422,0.15446925163269043,0.9204187989234924
1763690862619453400,2.414453369140625,0.2421894073486328,0.6478829383850098,0.6931377649307251
1763690862629039400,2.424039306640625,-0.43002986907958984,1.1111501455307007,0.2316817045211792
1763690862638624500,2.43362451171875,-0.2829627990722656,1.06500244140625,0.04947108030319214
1763690862648210400,2.44321044921875,-0.27772045135498047,1.0420867204666138,-0.2963183522224426
1763690862657797000,2.452797119140625,-5.779420852661133,1.5715577602386475,0.3251250386238098
1763690862667383000,2.462383056640625,-2.190429210662842,0.8430157899856567,-0.5156638622283936
1763690862676968200,2.47196826171875,0.20766258239746094,0.650170087814331,-0.2604528069496155
1763690862686553900,2.481553955078125,-0.5865869522094727,0.13372981548309326,0.1666136384010315
1763690862696140800,2.491140869140625,-0.9643716812133789,-0.31710052490234375,0.490925133228302
1763690862705726500,2.5007265625,-0.48194313049316406,-0.12532413005828857,0.6478564143180847
1763690862715311600,2.5103115234375,-0.11646747589111328,-0.12143933773040771,0.5363784432411194
1763690862724897800,2.519897705078125,0.20491409301757812,0.06131947040557861,0.2870219945907593
1763690862734484500,2.529484375,0.5207986831665039,0.860771894454956,0.2662605047225952
1763690862744070100,2.539070068359375,1.6276073455810547,0.6404491662979126,0.2019416093826294
1763690862753655300,2.5486552734375,1.679128646850586,0.4207524061203003,0.4246664047241211
1763690862763241500,2.558241455078125,1.2334537506103516,0.07806336879730225,0.3089437484741211
1763690862772828200,2.567828125,1.2027397155761719,0.11728084087371826,0.3485819101333618
1763690862782413800,2.577413818359375,0.6230087280273438,0.10704374313354492,0.3059653043746948
1763690862791999000,2.5869990234375,0.05572223663330078,0.13112759590148926,0.06186079978942871
1763690862801585000,2.5965849609375,-0.3006000518798828,0.12643182277679443,-0.09662723541259766
1763690862811171800,2.606171875,-0.049602508544921875,0.2528703212738037,-0.10264468193054199
1763690862820757500,2.615757568359375,0.9555826187133789,0.4542807340621948,-0.2019209861755371
1763690862839928800,2.6349287109375,0.7172994613647461,0.6625128984451294,0.5409790277481079
1763690862849515300,2.644515380859375,3.275949478149414,0.2220776081085205,0.9217088222503662
1763690862859101200,2.65410107421875,0.3940916061401367,0.6447086334228516,1.3678388595581055
1763690862868686300,2.663686279296875,0.4173746109008789,0.4581869840621948,1.3595155477523804
1763690862878272300,2.673272216796875,-0.2564992904663086,0.45699965953826904,0.9540654420852661
1763690862887859000,2.68285888671875,-0.2944936752319336,0.34894466400146484,0.04594433307647705
1763690862897444900,2.69244482421875,0.061397552490234375,0.3276338577270508,-0.10148775577545166
1763690862907030000,2.702030029296875,0.022147178649902344,-0.019647836685180664,-0.022991657257080078
1763690862916616000,2.711615966796875,-0.17675113677978516,-0.5235242247581482,-0.026196718215942383
1763690862926202600,2.72120263671875,-0.13376617431640625,-0.6235203146934509,-0.14286446571350098
1763690862935788500,2.73078857421875,0.3488473892211914,-0.24407541751861572,-0.27194130420684814
1763690862945373700,2.740373779296875,0.6645174026489258,0.09709334373474121,-0.34590792655944824
1763690862954959600,2.749959716796875,1.1775875091552734,0.18812143802642822,-0.1690974235534668
1763690862964546300,2.75954638671875,1.3415184020996094,0.16436052322387695,0.0687708854675293
1763690862974132200,2.76913232421875,1.1285524368286133,0.0704500675201416,0.3407071828842163
1763690862983717400,2.77871728515625,0.5485324859619141,-0.04020333290100098,1.4569166898727417
1763690862993303300,2.78830322265625,0.5595817565917969,0.08998775482177734,1.107306718826294
1763690863002890000,2.797889892578125,0.8282394409179688,0.25889039039611816,0.4697566032409668
1763690863012476000,2.807475830078125,0.8249788284301758,0.17162466049194336,0.057117581367492676
1763690863022061000,2.81706103515625,0.6405487060546875,0.1016772985458374,-0.08983409404754639
1763690863031647000,2.82664697265625,-0.001552581787109375,-0.0015704631805419922,0.19708621501922607
1763690863041233700,2.836233642578125,0.20477294921875,-0.0034296512603759766,0.577271580696106
1763690863050819600,2.845819580078125,-0.12283515930175781,0.2100074291229248,0.6432246565818787
1763690863060404700,2.85540478515625,-0.19365692138671875,0.4044959545135498,0.7329167723655701
1763690863069990700,2.86499072265625,-0.47713565826416016,0.5142409801483154,0.7032989859580994
1763690863079577300,2.874577392578125,-0.8104972839355469,0.35419321060180664,0.477336049079895
1763690863089163300,2.884163330078125,-1.2050352096557617,0.0987544059753418,-0.08791911602020264
1763690863098748400,2.89374853515625,-0.531036376953125,-0.06728148460388184,-0.5574732422828674
1763690863108334300,2.903334228515625,-0.2789287567138672,-0.7756259441375732,-0.7364398241043091
1763690863117921000,2.912921142578125,0.04601287841796875,-1.3922430276870728,-0.884864091873169
1763690863127507000,2.9225068359375,0.19939804077148438,-1.3482649326324463,-0.8830583691596985
1763690863137092000,2.932092041015625,0.15099048614501953,-0.7978460788726807,-0.517168402671814
1763690863146678000,2.941677978515625,-0.15927886962890625,-0.13905024528503418,0.07949438691139221
1763690863156265000,2.951264892578125,-0.7083415985107422,0.200164794921875,0.5599917769432068
1763690863165851000,2.960850830078125,-0.8146486282348633,0.44094014167785645,0.8224477171897888
1763690863175436000,2.97043603515625,-0.4952831268310547,0.5965096950531006,1.0307385921478271
1763690863185022000,2.98002197265625,-0.47631072998046875,0.6822476387023926,0.9675921201705933
1763690863204194600,2.999194580078125,0.36675262451171875,0.513495922088623,0.7357354164123535
1763690863213779700,3.00877978515625,-0.28491878509521484,0.24704313278198242,0.38092729449272156
1763690863223365600,3.01836572265625,-0.3365039825439453,0.09575748443603516,0.005491346120834351
1763690863232952300,3.027952392578125,-0.1885356903076172,-0.13092541694641113,-0.4427976608276367
1763690863242538200,3.037538330078125,0.0055217742919921875,-0.36040735244750977,-0.8887266516685486
1763690863252123400,3.047123291015625,0.03094196319580078,-0.5857086181640625,-1.0230222940444946
1763690863261709300,3.056709228515625,0.04611015319824219,-0.6146857738494873,-0.8738760948181152
1763690863271296000,3.0662958984375,0.22341060638427734,-0.5794353485107422,-0.6949659585952759
1763690863280881700,3.075881591796875,0.42238521575927734,-0.3408811092376709,-0.44620317220687866
1763690863290467000,3.085467041015625,0.5102834701538086,-0.046855926513671875,-0.09285072982311249
1763690863300052700,3.095052734375,0.5858535766601562,0.13018202781677246,0.1992003321647644
1763690863309639700,3.1046396484375,0.6014986038208008,0.2871100902557373,0.37613701820373535
1763690863319225300,3.114225341796875,0.6190319061279297,0.42473721504211426,0.5400659441947937
1763690863328810500,3.123810546875,0.47293567657470703,0.5630619525909424,0.6275685429573059
1763690863338396700,3.133396728515625,0.43257617950439453,0.7056000232696533,0.6456601619720459
1763690863347983400,3.1429833984375,0.3683958053588867,0.7639153003692627,0.6359425783157349
1763690863357569000,3.152569091796875,0.04206085205078125,0.7001583576202393,0.46199125051498413
1763690863367154200,3.162154296875,-0.008544921875,0.526092529296875,0.349075049161911
1763690863376740400,3.171740234375,0.03406238555908203,0.27605366706848145,0.28312844038009644
1763690863386326800,3.181326904296875,0.009435653686523438,0.06605172157287598,0.24930822849273682
1763690863395912700,3.19091259765625,-0.04915904998779297,-0.016268014907836914,0.1960538923740387
1763690863405497900,3.200497802734375,-0.04880046844482422,-0.02983570098876953,0.1187998354434967
1763690863415083800,3.210083740234375,0.2393779754638672,-0.052016496658325195,0.1396094560623169
1763690863424670500,3.21967041015625,0.5830001831054688,0.1495213508605957,0.33006641268730164
1763690863434256400,3.22925634765625,0.7001838684082031,0.3474385738372803,0.4589845538139343
1763690863443841500,3.238841552734375,0.37252235412597656,0.39829444885253906,0.5059894323348999
1763690863453427500,3.248427490234375,-0.06175994873046875,0.39808034896850586,0.4649387001991272
1763690863463014100,3.25801416015625,-0.20863056182861328,0.28807616233825684,0.3396105170249939
1763690863472600000,3.26760009765625,-0.23826122283935547,0.15655183792114258,0.2927127182483673
1763690863482185200,3.277185302734375,-0.18398189544677734,0.0018112659454345703,0.20853759348392487
1763690863491771100,3.286771240234375,-0.28652191162109375,-0.13330936431884766,0.03443460166454315
1763690863501357800,3.29635791015625,-0.4136991500854492,-0.25114715099334717,-0.13293883204460144
1763690863510943700,3.30594384765625,-0.5365228652954102,-0.26289093494415283,-0.21249453723430634
1763690863520529000,3.31552880859375,-0.3328056335449219,-0.21252739429473877,-0.06682796776294708
1763690863530114800,3.32511474609375,-0.09974861145019531,-0.19268059730529785,0.1422673612833023
1763690863539701500,3.334701416015625,-0.02870941162109375,-0.17806613445281982,0.2988975942134857
1763690863549287400,3.344287353515625,-0.1287069320678711,-0.12311029434204102,0.3587265610694885
1763690863558872600,3.35387255859375,-0.34357166290283203,-0.0662153959274292,0.2150135487318039
1763690863568458500,3.36345849609375,-0.22107982635498047,0.06368494033813477,0.007096841931343079
1763690863578045200,3.373045166015625,0.03991889953613281,0.10533928871154785,-0.2479155957698822
1763690863587631000,3.382631103515625,0.09281063079833984,-0.011564970016479492,-0.32209640741348267
1763690863597216300,3.39221630859375,0.023688316345214844,-0.12129664421081543,-0.3133661150932312
1763690863606802200,3.40180224609375,-0.06273555755615234,-0.12946295738220215,-0.3103705644607544
1763690863616388900,3.411388916015625,-0.10998725891113281,-0.07300925254821777,-0.29050716757774353
1763690863625974800,3.420974853515625,0.031215667724609375,0.04396414756774902,-0.19459345936775208
1763690863635560000,3.430559814453125,0.3210010528564453,0.13312578201293945,0.010588288307189941
1763690863645145900,3.440145751953125,0.45954036712646484,0.14183998107910156,0.13797050714492798
1763690863654732500,3.449732666015625,0.4439811706542969,0.11084747314453125,0.22260844707489014
1763690863664318500,3.459318359375,0.34551334381103516,0.11214494705200195,0.18593043088912964
1763690863673903600,3.468903564453125,0.14490604400634766,0.15594244003295898,0.09637540578842163
1763690863683489500,3.478489501953125,-0.08581924438476562,0.17473268508911133,-0.06535917520523071
1763690863693076200,3.488076171875,-0.3130989074707031,0.19105267524719238,-0.19860437512397766
1763690863702662100,3.497662109375,-0.4255838394165039,0.23190832138061523,-0.26587438583374023
1763690863712247300,3.507247314453125,-0.4451179504394531,0.2675967216491699,-0.2903366684913635
1763690863721833200,3.516833251953125,-0.3505401611328125,0.3120841979980469,-0.31477639079093933
1763690863731420000,3.526419921875,-0.17722797393798828,0.3302342891693115,-0.2525632381439209
1763690863741005800,3.536005859375,0.07276248931884766,0.28008008003234863,-0.1307702511548996
1763690863750591000,3.545591064453125,0.30037975311279297,0.2249283790588379,-0.005432009696960449
1763690863760177000,3.555177001953125,0.4665098190307617,0.1350564956665039,0.16893270611763
1763690863769763600,3.564763671875,0.5581092834472656,0.06369137763977051,0.3627668023109436
1763690863779349500,3.574349609375,0.5644168853759766,0.010810375213623047,0.4702609181404114
1763690863788934400,3.583934326171875,0.5358543395996094,-0.03144717216491699,0.5178568363189697
1763690863798520600,3.5935205078125,0.4677162170410156,-0.04647326469421387,0.5349138379096985
1763690863808107300,3.603107177734375,0.38581180572509766,-0.054793357849121094,0.5209367275238037
1763690863817693000,3.61269287109375,0.20736312866210938,-0.05102968215942383,0.5111004710197449
1763690863827278000,3.622278076171875,-0.007668495178222656,-0.01846933364868164,0.44180411100387573
1763690863836864000,3.631864013671875,-0.1626119613647461,0.02837347984313965,0.34483712911605835
1763690863846451000,3.641450927734375,-0.2660503387451172,0.07746243476867676,0.2580908536911011
1763690863856036600,3.65103662109375,-0.3075895309448242,0.1589984893798828,0.19964271783828735
1763690863865621800,3.660621826171875,-0.2957735061645508,0.2198183536529541,0.1974029839038849
1763690863875207700,3.670207763671875,-0.321197509765625,0.25876331329345703,0.17383724451065063
1763690863884794600,3.679794677734375,-0.3549833297729492,0.28087949752807617,0.13833892345428467
1763690863894380300,3.68938037109375,-0.35205650329589844,0.2410440444946289,0.07536202669143677
1763690863903965400,3.69896533203125,-0.3103466033935547,0.16028141975402832,0.0451696515083313
1763690863913551400,3.70855126953125,-0.1528635025024414,0.030031919479370117,0.06518110632896423
1763690863923138000,3.718137939453125,0.08751583099365234,-0.1521766185760498,0.13795526325702667
1763690863932724000,3.727723876953125,0.42066192626953125,-0.20899605751037598,0.14098776876926422
1763690863942309000,3.73730908203125,0.7154293060302734,-0.2282710075378418,0.0020224153995513916
1763690863951895000,3.74689501953125,1.1146125793457031,-0.14519965648651123,0.1768992841243744
1763690863961481700,3.756481689453125,1.523641586303711,-0.03527843952178955,0.13730940222740173
1763690863971067600,3.766067626953125,1.673069953918457,-0.04187333583831787,-0.10810119658708572
1763690863980652800,3.77565283203125,1.7412242889404297,-0.044831156730651855,-0.2759808301925659
1763690863990238700,3.78523876953125,1.8677024841308594,-0.07828903198242188,-0.4050464630126953
1763690863999825400,3.794825439453125,1.900101661682129,-0.0733036994934082,-0.1795058250427246
1763690864009411300,3.804411376953125,1.7435951232910156,-0.24450898170471191,0.20172421634197235
1763690864018996500,3.81399658203125,1.5138092041015625,-0.5545622110366821,0.7470361590385437
1763690864028582400,3.82358251953125,1.8396263122558594,-0.5827105045318604,1.1857930421829224
1763690864038169000,3.833169189453125,1.677973747253418,-0.18757855892181396,2.225944995880127
1763690864047755000,3.842755126953125,1.4500417709350586,1.100667953491211,1.3771644830703735
1763690864057340200,3.852340087890625,0.8321781158447266,1.4576566219329834,1.0548828840255737
1763690864066926000,3.861926025390625,-0.5637655258178711,1.3739817142486572,1.2248194217681885
1763690864076512800,3.8715126953125,-1.9842543601989746,2.273592233657837,1.0561854839324951
1763690864086098700,3.8810986328125,-2.7244815826416016,3.88100004196167,0.9074772596359253
1763690864095683800,3.890683837890625,-1.5600767135620117,3.5647125244140625,1.063241958618164
1763690864105269800,3.900269775390625,-1.6252193450927734,2.360884666442871,1.2614659070968628
1763690864114856400,3.9098564453125,-1.4078559875488281,0.7954304218292236,1.1203720569610596
1763690864124442400,3.9194423828125,-1.0736255645751953,-1.0471147298812866,0.5522072315216064
1763690864134027500,3.929027587890625,-1.247732162475586,-2.1888632774353027,0.07612967491149902
1763690864143613400,3.938613525390625,-0.5122966766357422,-2.344148635864258,-0.43114137649536133
1763690864153200000,3.9482001953125,0.22118663787841797,-1.7180542945861816,-0.9683594703674316
1763690864162786000,3.9577861328125,0.3706855773925781,-1.596815824508667,-0.7758674621582031
1763690864172371000,3.967370849609375,0.24536991119384766,-1.9782993793487549,-0.6783146858215332
1763690864181957000,3.97695703125,-0.851130485534668,-2.6232142448425293,-0.94576096534729
1763690864191543800,3.986543701171875,-2.1879444122314453,-1.2711021900177002,-1.3271617889404297
1763690864201129700,3.996129638671875,-3.2625322341918945,0.4558756351470947,-1.0651652812957764
1763690864210714600,4.005714599609375,-4.158731937408447,1.282158374786377,-0.548907995223999
1763690864220300800,4.01530078125,-4.9844183921813965,1.7504805326461792,-0.44399380683898926
1763690864229888300,4.02488818359375,-4.44417142868042,1.7867560386657715,-0.30820202827453613
1763690864239473700,4.0344736328125,-2.6768388748168945,0.734565019607544,-0.07915496826171875
1763690864249058800,4.044058837890625,-0.8791284561157227,-0.697989821434021,-0.18804383277893066
1763690864268231400,4.0632314453125,1.9886388778686523,-1.0884082317352295,0.4450037479400635
1763690864277817300,4.0728173828125,2.3929224014282227,-0.739366888999939,0.9511852264404297
1763690864287402500,4.082402587890625,3.205486297607422,-0.2478187084197998,0.8922719955444336
1763690864296988400,4.091988525390625,3.03048038482666,-0.5623745918273926,0.5603252649307251
1763690864306575000,4.1015751953125,1.9503355026245117,-0.5816712379455566,0.42918431758880615
1763690864316161000,4.1111611328125,1.2910289764404297,0.377638578414917,-0.19850873947143555
1763690864325746200,4.12074609375,0.3957195281982422,0.4938325881958008,-0.3080862760543823
1763690864335332000,4.13033203125,-0.40575695037841797,0.3293001651763916,-0.08669471740722656
1763690864344918800,4.139918701171875,-0.2196369171142578,0.00868368148803711,-0.11638009548187256
1763690864354504700,4.149504638671875,0.20738792419433594,-0.3744466304779053,-0.36788034439086914
1763690864364089900,4.15908984375,-0.2069845199584961,0.10543942451477051,-0.34040164947509766
1763690864373675800,4.16867578125,-0.9151992797851562,0.944974422454834,0.03164839744567871
1763690864383262500,4.178262451171875,-1.280130386352539,1.0489336252212524,-0.032230257987976074
1763690864392848400,4.187848388671875,-1.1206083297729492,0.5041881799697876,-0.5612975358963013
1763690864402433500,4.19743359375,-0.5903682708740234,-0.14332365989685059,-0.9428741931915283
1763690864412019500,4.20701953125,-0.24489402770996094,-0.3863762617111206,-0.6064165830612183
1763690864421606100,4.216606201171875,0.11759471893310547,-0.22702646255493164,-0.2994574308395386
1763690864431192000,4.226192138671875,0.17441082000732422,0.03390955924987793,0.08853018283843994
1763690864440777200,4.235777099609375,0.09052085876464844,0.16079950332641602,0.029637813568115234
1763690864450363100,4.245363037109375,-0.03208351135253906,0.1720600128173828,-0.06893789768218994
1763690864459949800,4.25494970703125,-0.05585002899169922,0.09048891067504883,-0.366050124168396
1763690864469535700,4.26453564453125,0.13993453979492188,-0.20969295501708984,-0.6623534560203552
1763690864479120600,4.27412060546875,0.48345279693603516,-0.5260412693023682,-0.7418458461761475
1763690864488706800,4.283706787109375,0.8943929672241211,-0.5470850467681885,-0.5430254340171814
1763690864498293500,4.29329345703125,1.3405952453613281,-0.5620899200439453,-0.2402614951133728
1763690864507879200,4.302879150390625,1.042943000793457,-0.3652777671813965,0.06240963935852051
1763690864517464300,4.31246435546875,0.004184722900390625,0.24297714233398438,0.47881972789764404
1763690864527050500,4.322050537109375,-0.549250602722168,0.377211332321167,0.40918999910354614
1763690864536637000,4.331636962890625,-0.9902515411376953,0.1991424560546875,0.15913820266723633
1763690864546222800,4.341222900390625,-0.9782867431640625,0.13200926780700684,-0.19978147745132446
1763690864555808000,4.35080810546875,-0.8967123031616211,0.03612518310546875,-0.39682167768478394
1763690864565394000,4.360393798828125,-0.9081707000732422,-0.00004315376281738281,-0.4920060932636261
1763690864574980600,4.369980712890625,-0.7969026565551758,-0.0077669620513916016,-0.6135561466217041
1763690864584566500,4.37956640625,-0.4022226333618164,-0.3198666572570801,-0.7371859550476074
1763690864594151700,4.389151611328125,0.039122581481933594,-0.6070482730865479,-0.7373801469802856
1763690864603737600,4.398737548828125,0.41266822814941406,-0.4480922222137451,-0.4992106258869171
1763690864613324300,4.40832421875,0.7669076919555664,-0.4268016815185547,-0.20111244916915894
1763690864622910200,4.41791015625,0.8125343322753906,-0.32927417755126953,0.09694963693618774
1763690864632495400,4.427495361328125,0.5731954574584961,-0.0857231616973877,0.20181900262832642
1763690864642081300,4.437081298828125,0.4168119430541992,-0.01965808868408203,0.23061597347259521
1763690864651668000,4.44666796875,0.21375274658203125,-0.04562067985534668,0.05355137586593628
1763690864661254000,4.45625390625,0.05716514587402344,-0.11767959594726562,-0.09169135987758636
1763690864670839000,4.465839111328125,0.0473480224609375,-0.15008234977722168,-0.29091301560401917
1763690864680425000,4.475425048828125,-0.1431875228881836,-0.2360687255859375,-0.172618567943573
1763690864690011600,4.48501171875,-0.27216625213623047,-0.19364023208618164,-0.3348521590232849
1763690864699597600,4.49459765625,-0.45160484313964844,-0.10077953338623047,-0.3816583752632141
1763690864709182700,4.5041826171875,-0.6375541687011719,-0.06831789016723633,-0.3180972933769226
1763690864718768400,4.513768310546875,-0.14896297454833984,0.02438831329345703,-0.3734828531742096
1763690864728355300,4.523355224609375,0.16847610473632812,0.0046710968017578125,0.20803295075893402
1763690864737941000,4.53294091796875,0.11657524108886719,-0.05373835563659668,0.18109238147735596
1763690864747526100,4.542526123046875,-0.1637592315673828,0.03729748725891113,0.10237953066825867
1763690864757112000,4.552112060546875,-0.29763126373291016,0.053803443908691406,-0.09875598549842834
1763690864766699000,4.561698974609375,-0.3264331817626953,-0.08510422706604004,-0.25003236532211304
1763690864785869800,4.580869873046875,-0.0033054351806640625,-0.3766188621520996,-0.2942410111427307
1763690864795455700,4.590455810546875,-0.07218742370605469,-0.22788143157958984,-0.14833489060401917
1763690864805042400,4.60004248046875,-0.17784690856933594,-0.027052879333496094,0.0703386664390564
1763690864814628400,4.60962841796875,-0.3606081008911133,0.23150420188903809,0.19122189283370972
1763690864824213500,4.619213623046875,-0.5009374618530273,0.45451927185058594,0.3308136463165283
1763690864833799400,4.62879931640625,-0.41348838806152344,0.46275973320007324,0.42412519454956055
1763690864843386000,4.63838623046875,-0.31437110900878906,0.4710817337036133,0.47996556758880615
1763690864852972000,4.647971923828125,-0.24240398406982422,0.40760231018066406,0.3683316707611084
1763690864862557200,4.65755712890625,-0.1339397430419922,0.2821784019470215,0.16047918796539307
1763690864872143000,4.66714306640625,0.026401519775390625,0.09377288818359375,0.0062555670738220215
1763690864881729800,4.676729736328125,0.18969249725341797,-0.16855692863464355,-0.22914916276931763
1763690864891315700,4.686315673828125,0.6767387390136719,-0.4483070373535156,-0.44354259967803955
1763690864900900900,4.69590087890625,0.9041328430175781,-0.6935892105102539,-0.5442434549331665
1763690864910486800,4.70548681640625,0.7364654541015625,-0.7864699363708496,-0.5804620981216431
1763690864920073500,4.715073486328125,0.5065288543701172,-0.668170690536499,-0.4874992370605469
1763690864929659400,4.724659423828125,0.2762746810913086,-0.5113439559936523,-0.24904876947402954
1763690864939244500,4.73424462890625,0.17882537841796875,-0.38773369789123535,-0.05545234680175781
1763690864948830200,4.743830322265625,-0.08040428161621094,-0.18537068367004395,0.1364591121673584
1763690864958417200,4.753417236328125,-0.4638481140136719,-0.1196901798248291,-0.05825072526931763
1763690864968002800,4.7630029296875,-0.9005708694458008,-0.20930075645446777,-0.3380138874053955
1763690864977588000,4.772587890625,-1.3097305297851562,-0.2285327911376953,-0.7050971984863281
1763690864987174000,4.782173828125,-1.3388738632202148,0.022616147994995117,-1.0166738033294678
1763690864996760600,4.791760498046875,-1.8846149444580078,0.1766338348388672,-1.0654892921447754
1763690865006346500,4.801346435546875,-2.1871824264526367,0.20847225189208984,-0.8625171780586243
1763690865015931600,4.810931640625,-2.018615245819092,0.2689549922943115,-0.4329054355621338
1763690865025517600,4.820517578125,-1.6343231201171875,0.6672544479370117,0.015345454216003418
1763690865044690200,4.839690185546875,-0.9351186752319336,0.31064796447753906,0.37059831619262695
1763690865054275300,4.849275390625,-0.2510042190551758,0.057100772857666016,0.46294403076171875
1763690865063861200,4.858861328125,1.3357791900634766,-0.10221743583679199,0.3750598430633545
1763690865073448000,4.868447998046875,1.6285533905029297,-0.5116136074066162,0.5569267272949219
1763690865083033900,4.878033935546875,1.3162040710449219,-0.6834259033203125,0.49429750442504883
1763690865092619000,4.887618896484375,1.2821922302246094,-0.7951679229736328,0.8437507152557373
1763690865102205000,4.897204833984375,1.2331762313842773,-0.6886706352233887,1.0873510837554932
1763690865111791600,4.90679150390625,0.9612264633178711,-0.5165121555328369,1.128202199935913
1763690865121377500,4.91637744140625,0.6189384460449219,-0.29102492332458496,0.9672880172729492
1763690865130962700,4.925962646484375,0.2472085952758789,-0.12882518768310547,0.6651396751403809
1763690865140548600,4.935548583984375,-0.07819271087646484,0.025115013122558594,0.43222522735595703
1763690865150135300,4.94513525390625,-0.1849689483642578,0.12595677375793457,0.16322851181030273
1763690865159721200,4.95472119140625,-0.12085437774658203,0.23811626434326172,-0.08588457107543945
1763690865169306000,4.96430615234375,-0.1084909439086914,0.21648037433624268,-0.2523534297943115
1763690865178892300,4.973892333984375,-0.1134328842163086,0.14755964279174805,-0.3973958492279053
1763690865188479000,4.98347900390625,-0.012964248657226562,-0.0045632123947143555,-0.4614896774291992
1763690865198064600,4.993064697265625,0.5064258575439453,-0.1001737117767334,0.07521557807922363
1763690865207649800,5.00264990234375,0.8378973007202148,-0.07457995414733887,0.3316783905029297
1763690865217235700,5.012235595703125,0.6797056198120117,0.07457983493804932,0.5077195167541504
1763690865226822400,5.021822509765625,0.5345668792724609,0.4163130521774292,0.6541452407836914
1763690865236408300,5.031408203125,0.5876741409301758,0.7631229162216187,0.7060995101928711
1763690865245993500,5.040993408203125,0.4838848114013672,0.867435097694397,0.7120239734649658
1763690865255579400,5.050579345703125,0.4160938262939453,0.9218647480010986,0.577800989151001
1763690865265166000,5.060166015625,-0.1960468292236328,0.8401678800582886,0.19632172584533691
1763690865274752000,5.069751953125,-0.6438388824462891,0.6403528451919556,-0.37746238708496094
1763690865284337200,5.079337158203125,-0.6716890335083008,0.4194800853729248,-0.913640022277832
1763690865293923000,5.088923095703125,-0.34146785736083984,0.32167601585388184,-1.0072426795959473
1763690865303509800,5.098509765625,-0.13925552368164062,0.19403839111328125,-0.7417957782745361
1763690865313095700,5.108095703125,0.3912076950073242,0.1229708194732666,-0.3050832748413086
1763690865322680800,5.117680908203125,0.8580560684204102,0.22025561332702637,0.05921339988708496
1763690865332266800,5.127266845703125,1.450911521911621,0.3686532974243164,0.5650405883789062
1763690865341853400,5.136853515625,0.7550077438354492,0.6205105781555176,0.7067971229553223
1763690865351439400,5.146439453125,0.2830238342285156,0.7994074821472168,0.4856686592102051
1763690865361024500,5.1560244140625,0.2277994155883789,0.3711066246032715,0.15855622291564941
1763690865370610200,5.165610107421875,-0.03349781036376953,-0.5625710487365723,0.6209707260131836
1763690865380197000,5.175197021484375,-1.1814441680908203,-1.508000373840332,0.5077927112579346
1763690865389782800,5.18478271484375,-1.9570398330688477,-1.9934427738189697,-0.26531076431274414
1763690865399368000,5.194367919921875,-0.7963933944702148,-1.721682071685791,-1.041412115097046
1763690865408953900,5.203953857421875,-0.24849891662597656,-1.369704008102417,-0.8383474349975586
1763690865418540500,5.21354052734375,0.5370159149169922,-1.0596816539764404,-0.7405648231506348
1763690865428126500,5.22312646484375,-0.2496957778930664,-0.7703630924224854,-0.20782065391540527
1763690865437711600,5.232711669921875,-0.8546895980834961,-0.5690639019012451,0.45861005783081055
1763690865447297500,5.242297607421875,-0.7986373901367188,-0.21286797523498535,0.9030134677886963
1763690865456885000,5.251885009765625,0.21735191345214844,-0.1713094711303711,1.3094000816345215
1763690865466470400,5.261470458984375,-0.0259552001953125,0.44066596031188965,1.3339929580688477
1763690865485641500,5.280641357421875,-1.9032320976257324,0.6060905456542969,0.2818639278411865
1763690865495228200,5.290228271484375,-1.4707717895507812,0.07140541076660156,0.32759594917297363
1763690865504814000,5.29981396484375,-1.432002067565918,-0.05195653438568115,-0.10440337657928467
1763690865514399200,5.309399169921875,-0.9257125854492188,-0.0696936845779419,-0.12794339656829834
1763690865523985200,5.318985107421875,-0.922520637512207,-0.22796845436096191,-0.18514692783355713
1763690865533571800,5.32857177734375,-0.4393272399902344,-0.3979673385620117,-0.43510401248931885
1763690865543157800,5.33815771484375,0.09353446960449219,-0.4449503421783447,-0.6768409013748169
1763690865552742700,5.34774267578125,0.5743741989135742,-0.25801026821136475,-1.6011254787445068
1763690865562328800,5.357328857421875,0.5285434722900391,-0.2628450393676758,-2.506659984588623
1763690865571915500,5.36691552734375,0.18419647216796875,-0.46638643741607666,-2.470283031463623
1763690865581501200,5.376501220703125,0.302215576171875,-0.029956459999084473,-1.0611257553100586
1763690865591086300,5.38608642578125,0.6219034194946289,0.6245081424713135,0.36785292625427246
1763690865600672300,5.39567236328125,0.8151359558105469,0.9946548938751221,1.2862427234649658
1763690865610259200,5.40525927734375,0.9629783630371094,1.0159354209899902,2.0765881538391113
1763690865619844900,5.414844970703125,0.5587692260742188,0.6594877243041992,2.761871576309204
1763690865629430000,5.424429931640625,-0.6298437118530273,0.056249380111694336,3.016216516494751
1763690865639016000,5.434015869140625,-1.845139503479004,-0.4000527858734131,2.2809600830078125
1763690865648602600,5.4436025390625,1.8865041732788086,-1.7153054475784302,0.329343318939209
1763690865658188500,5.4531884765625,1.248763084411621,-2.3147411346435547,-0.5317293405532837
1763690865667773700,5.462773681640625,2.2847366333007812,-2.5453996658325195,-0.5286059379577637
1763690865677359600,5.472359619140625,2.812411308288574,-2.0159378051757812,-0.22929823398590088
1763690865686946300,5.4819462890625,3.1286439895629883,-0.7097616195678711,0.3452376127243042
1763690865696532200,5.4915322265625,3.0529632568359375,0.15263748168945312,0.5100076198577881
1763690865706117400,5.501117431640625,2.260025978088379,0.342387318611145,0.5788484215736389
1763690865715703300,5.510703369140625,0.866455078125,0.6549657583236694,1.0157439708709717
1763690865725290000,5.5202900390625,-1.5720090866088867,1.0641735792160034,0.9348744750022888
1763690865734876000,5.5298759765625,-4.668395042419434,1.175768256187439,0.7937754988670349
1763690865744460800,5.539460693359375,-4.662102699279785,1.2129435539245605,0.6269360780715942
1763690865754047000,5.549046875,-2.4970703125,1.512213945388794,0.47364169359207153
1763690865763633700,5.558633544921875,-0.5421533584594727,1.495985507965088,0.24776983261108398
1763690865773219300,5.56821923828125,0.2318124771118164,1.0514178276062012,0.14046061038970947
1763690865782804500,5.577804443359375,0.38791847229003906,0.5006960034370422,-0.08288657665252686
1763690865792390700,5.587390625,0.2704315185546875,0.07303428649902344,-0.3167574405670166
1763690865801977000,5.59697705078125,0.0686502456665039,-0.22754782438278198,-0.733269453048706
1763690865811563000,5.60656298828125,-0.37950706481933594,-0.34267306327819824,-1.1164968013763428
1763690865821148200,5.616148193359375,-0.8251886367797852,-0.30723506212234497,-1.3453198671340942
1763690865830734000,5.625734130859375,-1.0510177612304688,-0.15572130680084229,-1.3759136199951172
1763690865840320800,5.63532080078125,-0.9011220932006836,0.12212532758712769,-1.1604890823364258
1763690865849906700,5.64490673828125,-0.46086788177490234,0.40686625242233276,-0.8064718246459961
1763690865859491800,5.654491943359375,-0.09338569641113281,0.564701497554779,-0.4635947048664093
1763690865869077800,5.664077880859375,0.0844869613647461,0.6566311120986938,-0.3228948414325714
1763690865878664400,5.67366455078125,0.21386337280273438,0.706249475479126,-0.1585230976343155
1763690865888250400,5.68325048828125,0.7861299514770508,0.6701359748840332,0.25434496998786926
1763690865897835500,5.69283544921875,1.3117475509643555,0.5227415561676025,0.6073278188705444
1763690865907421400,5.70242138671875,1.534041404724121,0.22740447521209717,0.6924930810928345
1763690865917008100,5.712008056640625,1.5176563262939453,-0.11338645219802856,0.6000441312789917
1763690865926594000,5.721593994140625,1.3493890762329102,-0.3799170255661011,0.4029918313026428
1763690865936179200,5.73117919921875,0.989863395690918,-0.5482646226882935,0.19036738574504852
1763690865945764900,5.740764892578125,0.5000629425048828,-0.522838830947876,-0.008606337010860443
1763690865955351800,5.750351806640625,-0.13608169555664062,-0.4114660322666168,-0.20695944130420685
1763690865964937500,5.7599375,-0.2396860122680664,-0.22885137796401978,-0.2866818308830261
1763690865974522600,5.769522705078125,-0.14616012573242188,-0.07798773050308228,-0.2857199013233185
1763690865984108500,5.779108642578125,-0.02063274383544922,-0.019382178783416748,-0.2121136337518692
1763690865993695200,5.7886953125,0.22026348114013672,0.19281083345413208,-0.11427674442529678
1763690866003281200,5.79828125,0.4493227005004883,0.45271825790405273,0.02258901298046112
1763690866012866300,5.8078662109375,0.4012746810913086,0.6003764867782593,0.1933179497718811
1763690866022452200,5.8174521484375,0.16028499603271484,0.5891221165657043,0.3276980519294739
1763690866032039000,5.827038818359375,0.008475303649902344,0.42973142862319946,0.4161997437477112
1763690866041624800,5.836624755859375,0.2079143524169922,0.04741489887237549,0.49412429332733154
1763690866051210000,5.8462099609375,0.46114635467529297,-0.3506917953491211,0.5476140975952148
1763690866060796000,5.8557958984375,0.5649147033691406,-0.5597617626190186,0.4965556263923645
1763690866070382600,5.865382568359375,0.6319971084594727,-0.5616649389266968,0.356188029050827
1763690866079968500,5.874968505859375,0.6485300064086914,-0.4167638123035431,0.23087505996227264
1763690866089553700,5.8845537109375,0.6198654174804688,-0.19132232666015625,0.2097729593515396
1763690866099139600,5.8941396484375,0.5847177505493164,-0.025776565074920654,0.20589570701122284
1763690866108726300,5.903726318359375,0.5313863754272461,0.11089617013931274,0.1982591450214386
1763690866118312200,5.913312255859375,0.46239566802978516,0.21774965524673462,0.2235325574874878
1763690866127897000,5.92289697265625,0.34671688079833984,0.2641967535018921,0.19223304092884064
1763690866137483000,5.93248291015625,0.08874988555908203,0.29049545526504517,0.1897750049829483
1763690866147070000,5.942070068359375,-0.25896453857421875,0.32090920209884644,0.1954783797264099
1763690866156655600,5.951655517578125,-0.5150127410888672,0.33559709787368774,0.24474003911018372
1763690866166240800,5.96124072265625,-0.6869449615478516,0.26304906606674194,0.27827978134155273
1763690866175826700,5.97082666015625,-0.7869415283203125,0.19111013412475586,0.2661992013454437
1763690866185413400,5.980413330078125,-0.8294010162353516,0.1282779574394226,0.24663975834846497
1763690866194999300,5.989999267578125,-0.790440559387207,0.10083508491516113,0.2767960727214813
1763690866204584400,5.99958447265625,-0.6581535339355469,0.0901944637298584,0.35599255561828613
1763690866214170400,6.00917041015625,-0.5784196853637695,0.0593876838684082,0.4511319398880005
1763690866223757000,6.018757080078125,-0.5081710815429688,0.04329061508178711,0.5498716831207275
1763690866233343000,6.028343017578125,-0.4451179504394531,0.07680177688598633,0.6085188388824463
1763690866242928000,6.03792822265625,-0.3630533218383789,0.1462622880935669,0.6296935081481934
1763690866252514000,6.04751416015625,-0.27886295318603516,0.19254040718078613,0.6558406352996826
1763690866262100700,6.057100830078125,-0.18071269989013672,0.22545087337493896,0.6924591660499573
1763690866271686700,6.066686767578125,-0.09984493255615234,0.22181713581085205,0.714139461517334
1763690866281271800,6.076271728515625,-0.031571388244628906,0.2154848575592041,0.7427349090576172
1763690866290857700,6.085857666015625,0.048071861267089844,0.22474610805511475,0.7104467749595642
1763690866300444400,6.0954443359375,0.09859657287597656,0.24351835250854492,0.6499792337417603
1763690866310030300,6.1050302734375,0.10110092163085938,0.25163698196411133,0.5555983185768127
1763690866319617500,6.114617431640625,0.010379791259765625,0.2560410499572754,0.4516301453113556
1763690866329201200,6.124201171875,-0.12342548370361328,0.3637181520462036,0.41705870628356934
1763690866338787800,6.133787841796875,-0.10702037811279297,0.4587312936782837,0.42557018995285034
1763690866348373800,6.143373779296875,0.042263031005859375,0.3676021099090576,0.44136497378349304
1763690866367544800,6.162544921875,0.2817964553833008,0.027729272842407227,0.4838280975818634
1763690866377131500,6.172131591796875,0.23868465423583984,-0.05958354473114014,0.4021352529525757
1763690866396302300,6.19130224609375,0.0070056915283203125,-0.07687568664550781,0.05381655693054199
1763690866405888500,6.200888427734375,-0.06088066101074219,-0.0969998836517334,-0.10604232549667358
1763690866415475000,6.210474853515625,-0.019952774047851562,-0.10043764114379883,-0.18896594643592834
1763690866425060900,6.220060791015625,0.04846954345703125,-0.02131199836730957,-0.16917696595191956
1763690866434646000,6.22964599609375,0.038544654846191406,0.09924304485321045,-0.0972374975681305
1763690866444232000,6.23923193359375,-0.02692699432373047,0.2371063232421875,-0.0009888112545013428
1763690866453818600,6.248818603515625,-0.12382698059082031,0.37122583389282227,0.034250691533088684
1763690866463404500,6.258404541015625,-0.20000648498535156,0.46319031715393066,-0.05940692126750946
1763690866472989700,6.26798974609375,-0.2534494400024414,0.4764641523361206,-0.2215178906917572
1763690866482575600,6.27757568359375,-0.2406148910522461,0.42202842235565186,-0.4058721661567688
1763690866492162300,6.287162353515625,-0.14107894897460938,0.3280768394470215,-0.5177264213562012
1763690866501748200,6.296748291015625,0.03068828582763672,0.15313029289245605,-0.5577144622802734
1763690866511333400,6.30633349609375,0.1954936981201172,-0.03804123401641846,-0.5546051263809204
1763690866520919300,6.315919189453125,0.2645397186279297,-0.23448026180267334,-0.4977506399154663
1763690866530506000,6.325506103515625,0.22232913970947266,-0.36886167526245117,-0.4293699860572815
1763690866540092000,6.335091796875,0.1329050064086914,-0.42023396492004395,-0.40185022354125977
1763690866549676800,6.3446767578125,0.04646587371826172,-0.3709484338760376,-0.281650185585022
1763690866559263000,6.354262939453125,-0.004001617431640625,-0.26315033435821533,-0.1345674991607666
1763690866568849700,6.363849609375,-0.06361961364746094,-0.16229665279388428,-0.00921696424484253
1763690866578435300,6.373435302734375,-0.2049093246459961,-0.050348520278930664,0.038271188735961914
1763690866588020500,6.3830205078125,-0.3650989532470703,0.060785651206970215,0.024836480617523193
1763690866597606400,6.3926064453125,-0.5202999114990234,0.08733439445495605,-0.05849587917327881
1763690866607193000,6.402193115234375,-0.5670680999755859,0.06425654888153076,-0.1899251937866211
1763690866616779000,6.411779052734375,-0.5073709487915039,-0.004928112030029297,-0.30361729860305786
1763690866626364200,6.4213642578125,-0.4089374542236328,-0.11967992782592773,-0.33279627561569214
1763690866635950000,6.4309501953125,-0.2771282196044922,-0.18554556369781494,-0.2963693141937256
1763690866645536800,6.440536865234375,-0.12906646728515625,-0.2228003740310669,-0.18343496322631836
1763690866655122700,6.450122802734375,0.0066356658935546875,-0.17844116687774658,-0.06107693910598755
1763690866664707800,6.459707763671875,0.11125469207763672,-0.1437208652496338,0.02994459867477417
1763690866674293800,6.469293701171875,0.15938854217529297,-0.10469532012939453,0.1096908450126648
1763690866683880400,6.47888037109375,0.1286153793334961,-0.08285939693450928,0.17190521955490112
1763690866693466400,6.48846630859375,0.037016868591308594,-0.019301652908325195,0.10336190462112427
1763690866703051300,6.49805126953125,-0.06702327728271484,0.03326010704040527,-0.014125645160675049
1763690866712637200,6.50763720703125,-0.16180896759033203,0.08404326438903809,-0.11168408393859863
1763690866722224000,6.51722412109375,-0.2049236297607422,0.11408460140228271,-0.1796613335609436
1763690866731809800,6.526809814453125,-0.1902761459350586,0.13121116161346436,-0.19920122623443604
1763690866741395000,6.53639501953125,-0.14734172821044922,0.16468822956085205,-0.11319249868392944
1763690866750980900,6.54598095703125,-0.036873817443847656,0.24540746212005615,0.015254855155944824
1763690866760567600,6.555567626953125,0.05259990692138672,0.3236844539642334,0.16872084140777588
1763690866770153500,6.565153564453125,0.14232826232910156,0.3552287817001343,0.25233274698257446
1763690866779738600,6.574738525390625,0.24390697479248047,0.3502368927001953,0.2993922233581543
1763690866789324500,6.584324462890625,0.33368682861328125,0.36290442943573,0.29402726888656616
1763690866798911200,6.5939111328125,0.3649921417236328,0.36841893196105957,0.25792747735977173
1763690866808497200,6.6034970703125,0.3790149688720703,0.3589310646057129,0.20310097932815552
1763690866818082300,6.613082275390625,0.34097766876220703,0.2914687395095825,0.13374149799346924
1763690866827668200,6.622668212890625,0.2471914291381836,0.2091923952102661,0.034914374351501465
1763690866837255000,6.6322548828125,0.10577583312988281,0.12896478176116943,-0.07082974910736084
1763690866846840600,6.641840576171875,-0.061092376708984375,0.07445836067199707,-0.18089962005615234
1763690866856425700,6.65142578125,-0.19628047943115234,0.057232022285461426,-0.22010457515716553
1763690866866011600,6.66101171875,-0.30029869079589844,0.049010276794433594,-0.26874637603759766
1763690866875598300,6.670598388671875,-0.35970497131347656,0.01783013343811035,-0.24018800258636475
1763690866885184300,6.680184326171875,-0.4129009246826172,0.06605982780456543,-0.16783291101455688
1763690866894769400,6.689769287109375,-0.35407352447509766,0.14781343936920166,-0.13930606842041016
1763690866904355300,6.699355224609375,-0.22045421600341797,0.2594567537307739,-0.11391359567642212
1763690866913942000,6.70894189453125,0.00286102294921875,0.33898603916168213,-0.06643396615982056
1763690866923528000,6.71852783203125,0.24089622497558594,0.36105525493621826,-0.041986942291259766
1763690866933113000,6.728113037109375,0.34454917907714844,0.28498589992523193,-0.01807403564453125
1763690866942699000,6.737698974609375,0.3228311538696289,0.16785109043121338,-0.018213987350463867
1763690866952285700,6.74728564453125,0.1756000518798828,0.027832627296447754,-0.04743540287017822
1763690866961871600,6.75687158203125,-0.01920318603515625,-0.11608028411865234,-0.12825745344161987
1763690866971456800,6.766456787109375,-0.06490516662597656,-0.24453771114349365,-0.22771406173706055
1763690866981042700,6.776042724609375,0.052680015563964844,-0.4255732297897339,-0.23566287755966187
1763690866990629400,6.78562939453125,0.1307506561279297,-0.5810060501098633,-0.27091914415359497
1763690867000215300,6.79521533203125,0.20511627197265625,-0.6311866044998169,-0.31520670652389526
1763690867009800200,6.80480029296875,0.24518585205078125,-0.5733060836791992,-0.3065189719200134
1763690867019386400,6.814386474609375,0.2728605270385742,-0.4734499454498291,-0.3706221580505371
1763690867028973000,6.82397314453125,0.2555389404296875,-0.42005324363708496,-0.440704882144928
1763690867038558700,6.833558837890625,0.20593929290771484,-0.43871164321899414,-0.43763232231140137
1763690867048144000,6.843143798828125,0.1340494155883789,-0.43887126445770264,-0.4239630699157715
1763690867057729800,6.852729736328125,-0.06793212890625,-0.4370507001876831,-0.3213878870010376
1763690867067316500,6.86231640625,-0.30594635009765625,-0.4161198139190674,-0.2910615801811218
1763690867076902400,6.87190234375,-0.5298061370849609,-0.4021031856536865,-0.35943394899368286
1763690867086487600,6.881487548828125,-0.6876659393310547,-0.441994309425354,-0.35095351934432983
1763690867096073500,6.891073486328125,-0.801600456237793,-0.5232610702514648,-0.30856698751449585
1763690867105660200,6.90066015625,-0.8372640609741211,-0.6047104597091675,-0.27823424339294434
1763690867115246000,6.91024609375,-0.7893161773681641,-0.6455307006835938,-0.21217089891433716
1763690867124831200,6.919831298828125,-0.7442150115966797,-0.645770788192749,-0.14661377668380737
1763690867134417200,6.929417236328125,-0.6171951293945312,-0.6835116147994995,-0.03218531608581543
1763690867144003800,6.93900390625,-0.3672189712524414,-0.6804248094558716,0.15851056575775146
1763690867153589500,6.948589599609375,-0.1400127410888672,-0.6491122245788574,0.31925642490386963
1763690867163174700,6.958174560546875,0.029327392578125,-0.5666955709457397,0.3957740068435669
1763690867172760600,6.967760498046875,0.17928600311279297,-0.4178345203399658,0.47332000732421875
1763690867182347300,6.97734716796875,0.3102254867553711,-0.2208017110824585,0.5924749374389648
1763690867191933200,6.98693310546875,0.46703147888183594,0.021178007125854492,0.6571577787399292
1763690867201518300,6.996518310546875,0.5524005889892578,0.18066906929016113,0.5899361371994019
1763690867211104300,7.006104248046875,0.5811491012573242,0.2814592123031616,0.5428371429443359
1763690867220691000,7.01569091796875,0.5427770614624023,0.3093433380126953,0.486844539642334
1763690867230276900,7.02527685546875,0.44345855712890625,0.35527145862579346,0.3395944833755493
1763690867239862000,7.034862060546875,0.29810047149658203,0.32250547409057617,0.24462783336639404
1763690867249448000,7.044447998046875,0.1932811737060547,0.28842055797576904,0.18056094646453857
1763690867259034600,7.05403466796875,0.20305347442626953,0.2868070602416992,0.1937720775604248
1763690867268620500,7.06362060546875,0.3220500946044922,0.35520434379577637,0.30621886253356934
1763690867278205700,7.073205810546875,0.4566812515258789,0.42765891551971436,0.4873541593551636
1763690867287791400,7.082791259765625,0.525909423828125,0.5021524429321289,0.6047728061676025
1763690867297378300,7.09237841796875,0.5423259735107422,0.5189720392227173,0.634709358215332
1763690867306964000,7.1019638671875,0.4946861267089844,0.556962251663208,0.5840309858322144
1763690867316549000,7.111549072265625,0.4696044921875,0.5850732326507568,0.5386970043182373
1763690867326135000,7.121135009765625,0.4101123809814453,0.5754592418670654,0.48372411727905273
1763690867335721700,7.1307216796875,0.3618659973144531,0.49858975410461426,0.4835777282714844
1763690867345307600,7.1403076171875,0.36510467529296875,0.4504204988479614,0.5567046403884888
1763690867354892800,7.149892822265625,0.3544731140136719,0.4486011266708374,0.656356692314148
1763690867364478700,7.159478759765625,0.28633689880371094,0.4398972988128662,0.7058473825454712
1763690867374065400,7.1690654296875,0.151031494140625,0.4093838930130005,0.6833463907241821
1763690867383651300,7.1786513671875,-0.07036399841308594,0.37605953216552734,0.6077221632003784
1763690867393236500,7.188236572265625,-0.35333728790283203,0.34632229804992676,0.5269083976745605
1763690867402822400,7.197822509765625,-0.6208667755126953,0.2952232360839844,0.3787972927093506
1763690867412409000,7.2074091796875,-0.7746725082397461,0.24985885620117188,0.22411882877349854
1763690867421995000,7.2169951171875,-0.7815895080566406,0.1891639232635498,0.06686711311340332
1763690867431580000,7.226579833984375,-0.663604736328125,0.12246513366699219,-0.04393887519836426
1763690867441165800,7.236165771484375,-0.44774532318115234,0.08978414535522461,-0.10697293281555176
1763690867450752800,7.245752685546875,-0.18773651123046875,0.042886972427368164,-0.09685277938842773
1763690867460338400,7.25533837890625,-0.03262519836425781,-0.022600889205932617,0.024312615394592285
1763690867469923600,7.264923583984375,0.029581069946289062,-0.044236183166503906,0.24730157852172852
1763690867479509500,7.274509521484375,0.05423736572265625,-0.017433643341064453,0.39868152141571045
1763690867489096200,7.28409619140625,0.1417074203491211,0.028822898864746094,0.4862133264541626
1763690867498682000,7.29368212890625,0.17719745635986328,0.10622143745422363,0.5629032850265503
1763690867508267300,7.303267333984375,0.13756656646728516,0.1922159194946289,0.5166877508163452
1763690867517853200,7.312853271484375,0.08364105224609375,0.23505020141601562,0.3563941717147827
1763690867527440000,7.32243994140625,0.016198158264160156,0.21908164024353027,0.20869052410125732
1763690867537025800,7.33202587890625,0.004834175109863281,0.14351129531860352,0.0753016471862793
1763690867546611000,7.34161083984375,0.011028289794921875,0.0870351791381836,-0.018584728240966797
1763690867556196600,7.351196533203125,0.008245468139648438,0.047289371490478516,-0.10526835918426514
1763690867565783600,7.360783447265625,-0.07051467895507812,0.005644321441650391,-0.09852445125579834
1763690867575369200,7.370369140625,-0.12502574920654297,-0.03210091590881348,-0.015070557594299316
1763690867584954400,7.379954345703125,-0.1464366912841797,-0.04468989372253418,-0.012375473976135254
1763690867594540500,7.38954052734375,-0.15376567840576172,-0.06681990623474121,-0.03120601177215576
1763690867604127000,7.399126953125,-0.07889461517333984,-0.08581686019897461,-0.030369877815246582
1763690867613713000,7.408712890625,0.029752731323242188,-0.0948019027709961,-0.007851600646972656
1763690867623298000,7.418298095703125,0.1479473114013672,-0.10881400108337402,0.01663649082183838
1763690867632884000,7.427884033203125,0.2683725357055664,-0.07967591285705566,0.08318614959716797
1763690867642470700,7.437470703125,0.35794830322265625,-0.040021419525146484,0.1392890214920044
1763690867652056600,7.447056640625,0.3275575637817383,0.007054567337036133,0.18469476699829102
1763690867661641700,7.456641845703125,0.23099708557128906,0.035802602767944336,0.20991814136505127
1763690867671227600,7.4662275390625,0.07666873931884766,0.08515310287475586,0.2456049919128418
1763690867680814300,7.475814453125,-0.09413623809814453,0.16557049751281738,0.2147529125213623
1763690867690400300,7.485400146484375,-0.16064739227294922,0.2609131336212158,0.12139451503753662
1763690867699985200,7.494985107421875,-0.12901878356933594,0.25774121284484863,0.01651895046234131
1763690867709571300,7.5045712890625,0.060375213623046875,0.18681025505065918,-0.10033011436462402
1763690867719158000,7.514157958984375,0.25012969970703125,0.10010671615600586,-0.16032445430755615
1763690867728743700,7.52374365234375,-1.0717525482177734,0.0444331169128418,-0.049028635025024414
1763690867738328800,7.533328857421875,0.3087310791015625,-0.1785297393798828,-0.1146320104598999
1763690867747914800,7.542914794921875,0.5107393264770508,-0.06776821613311768,-0.3251405954360962
1763690867757501400,7.55250146484375,0.3982858657836914,0.005421757698059082,-0.20879793167114258
1763690867767087400,7.56208740234375,0.20101261138916016,-0.002592325210571289,0.0747368335723877
1763690867776672500,7.571672607421875,-0.08209228515625,0.04159510135650635,0.2745072841644287
1763690867786258400,7.581258544921875,-0.36981964111328125,0.13804864883422852,0.3182237148284912
1763690867795845000,7.59084521484375,-0.7611236572265625,0.3863602876663208,0.3142184019088745
1763690867805431000,7.60043115234375,-0.7894620895385742,0.5089700222015381,0.29826998710632324
1763690867815016200,7.61001611328125,-0.6467227935791016,0.6018809080123901,0.29707396030426025
1763690867824602000,7.61960205078125,-0.4179983139038086,0.6156744956970215,0.2735673189163208
1763690867834188800,7.629188720703125,-0.2367267608642578,0.5388996601104736,0.26629817485809326
1763690867843774700,7.638774658203125,-0.0318145751953125,0.4055212736129761,0.2733919620513916
1763690867853359600,7.648359619140625,0.13974475860595703,0.3201643228530884,0.11155116558074951
1763690867862945800,7.65794580078125,0.2310791015625,0.2742435932159424,0.06613409519195557
1763690867872532500,7.667532470703125,0.3912324905395508,0.21451187133789062,0.11838996410369873
1763690867882118100,7.6771181640625,0.5311384201049805,0.12110233306884766,0.1764622926712036
1763690867891703300,7.686703369140625,0.5776290893554688,0.040480852127075195,0.25627851486206055
1763690867901289200,7.696289306640625,0.44516468048095703,0.01794600486755371,0.30224597454071045
1763690867910876000,7.7058759765625,0.20546722412109375,0.05285203456878662,0.18901598453521729
1763690867920461800,7.7154619140625,-0.014203071594238281,0.031081676483154297,0.020716071128845215
1763690867930047000,7.725046875,-0.12899398803710938,-0.006607532501220703,-0.14320659637451172
1763690867939633000,7.7346328125,-0.1593761444091797,-0.03160679340362549,-0.25193583965301514
1763690867949219600,7.744219482421875,-0.1444683074951172,-0.02717721462249756,-0.26427721977233887
1763690867958805500,7.753805419921875,-0.10174751281738281,-0.0025489330291748047,-0.18328559398651123
1763690867968390700,7.763390625,-0.0345306396484375,0.04544210433959961,-0.07183539867401123
1763690867977976600,7.7729765625,0.009363174438476562,-0.03098928928375244,0.0003870725631713867
1763690867987563300,7.782563232421875,0.08657646179199219,-0.09014475345611572,0.01893138885498047
1763690867997149000,7.79214892578125,0.1303882598876953,-0.1246190071105957,-0.056012511253356934
1763690868006734000,7.801734130859375,0.15038776397705078,-0.13589942455291748,-0.04414165019989014
1763690868016320000,7.811320068359375,0.13214588165283203,-0.13449859619140625,0.0835425853729248
1763690868025906700,7.82090673828125,0.0672311782836914,-0.12756550312042236,0.24238252639770508
1763690868035492600,7.83049267578125,0.18192481994628906,-0.12658357620239258,0.3436124324798584
1763690868045077800,7.840077880859375,4.347835540771484,0.16869068145751953,0.7063286304473877
1763690868054663700,7.84966357421875,-1.7457256317138672,-0.48997408151626587,-0.010015010833740234
1763690868064250400,7.85925048828125,0.3161888122558594,-0.10621809959411621,-0.5276765823364258
1763690868073836300,7.868836181640625,-0.8193082809448242,0.006808161735534668,-0.5058227181434631
1763690868083421400,7.87842138671875,-0.4335813522338867,0.19481432437896729,-0.18083512783050537
1763690868093007400,7.88800732421875,-0.03242206573486328,0.35723137855529785,0.41436904668807983
1763690868102594000,7.897593994140625,0.7952737808227539,0.267447829246521,0.9428057074546814
1763690868112180000,7.907179931640625,1.5983171463012695,-0.06421995162963867,1.1887247562408447
1763690868121765000,7.91676513671875,1.9708328247070312,-0.3864917755126953,0.7717879414558411
1763690868131350800,7.926350830078125,1.812429428100586,-0.10949409008026123,0.5655344128608704
1763690868140937700,7.935937744140625,1.2795743942260742,0.025963783264160156,0.3825746774673462
1763690868150523400,7.9455234375,0.5973234176635742,-0.06988310813903809,0.03754538297653198
1763690868160108500,7.955108642578125,-0.17825031280517578,-0.1944636106491089,-0.29029297828674316
1763690868169694500,7.964694580078125,-0.8179950714111328,-0.1858454942703247,-0.5240269303321838
1763690868179281200,7.97428125,-1.2060022354125977,-0.033089399337768555,-0.577729344367981
1763690868188867000,7.9838671875,-1.2075042724609375,0.1818324327468872,-0.4545779526233673
1763690868198452200,7.9934521484375,-1.122572898864746,0.48565971851348877,-0.2431839555501938
1763690868208038100,8.0030380859375,-0.9851675033569336,0.7519458532333374,-0.07144825160503387
1763690868217624800,8.012624755859376,-0.7693281173706055,0.931182861328125,0.03620346635580063
1763690868227210800,8.022210693359375,-0.36302852630615234,0.9309282302856445,0.23830074071884155
1763690868236796000,8.0317958984375,0.09696102142333984,0.6171600818634033,0.39483463764190674
1763690868246381800,8.0413818359375,0.62249755859375,0.12726140022277832,0.35550153255462646
1763690868255968500,8.050968505859375,1.1874618530273438,-0.431331992149353,0.2764935791492462
1763690868265554400,8.060554443359376,1.6682109832763672,-0.8546050190925598,0.09378083050251007
1763690868275139300,8.070139404296874,1.6068735122680664,-0.8186994194984436,-0.0732337236404419
1763690868284725200,8.079725341796875,1.337143898010254,-0.4686393737792969,-0.19351792335510254
1763690868294312200,8.089312255859374,0.9194917678833008,-0.1520177125930786,-0.41354894638061523
1763690868303897900,8.09889794921875,0.3872833251953125,-0.01199197769165039,-0.6531440019607544
1763690868313483000,8.10848291015625,-0.20749187469482422,0.013462066650390625,-0.622754693031311
1763690868323069000,8.11806884765625,-0.8037137985229492,0.08070516586303711,-0.6313769817352295
1763690868332655600,8.127655517578125,-5.884803771972656,0.05415487289428711,-0.4676048159599304
1763690868342241500,8.137241455078126,-2.8524794578552246,0.33193278312683105,0.39621222019195557
1763690868351826700,8.14682666015625,-2.738248348236084,1.3075045347213745,1.3625574111938477
1763690868361412600,8.15641259765625,-1.9982719421386719,0.9538160562515259,1.4149291515350342
1763690868370999300,8.165999267578124,-1.3762035369873047,0.21930158138275146,1.0663557052612305
1763690868380585200,8.175585205078125,-0.24820423126220703,-0.55689537525177,0.6563465595245361
1763690868390170400,8.18517041015625,0.4136810302734375,-0.9335421323776245,0.5742287635803223
1763690868399756300,8.19475634765625,0.47273731231689453,-0.9032957553863525,0.6010300517082214
1763690868409343000,8.204343017578125,0.3329448699951172,-0.633966326713562,0.48719143867492676
1763690868418928600,8.2139287109375,-0.031882286071777344,-0.3562990427017212,0.32201868295669556
1763690868428514000,8.22351416015625,-1.1513853073120117,-0.31768107414245605,0.04382503032684326
1763690868438099700,8.233099609375,-2.2668404579162598,0.3167344331741333,0.5494748950004578
1763690868447686400,8.242686279296874,-1.7870330810546875,0.9133062362670898,2.089390993118286
1763690868457272300,8.252272216796875,-1.737375259399414,0.4024221897125244,1.2955793142318726
1763690868466857500,8.261857421875,-2.094447135925293,-0.2580995559692383,-0.09998339414596558
1763690868476443400,8.271443359375,-1.7359466552734375,-0.29609978199005127,-0.49404406547546387
1763690868486030000,8.281030029296875,-0.5240106582641602,-0.25515830516815186,-0.6161192655563354
1763690868495616000,8.290615966796874,0.36460113525390625,-0.21588051319122314,-0.26621028780937195
1763690868505201200,8.300201171875,0.5294647216796875,-0.00041300058364868164,0.3690415620803833
1763690868514787000,8.309787109375,0.6653423309326172,0.24241840839385986,0.44817811250686646
1763690868524373800,8.319373779296875,1.1310396194458008,0.3501327633857727,0.5834642648696899
1763690868533959700,8.328959716796875,0.8366718292236328,0.24299412965774536,1.705505132675171
1763690868543544800,8.338544921875,0.33507537841796875,0.31381934881210327,1.4143792390823364
1763690868553130800,8.348130859375,-0.0038118362426757812,0.6233562231063843,1.0733489990234375
1763690868562717400,8.357717529296876,-0.25716209411621094,0.5173381567001343,0.5250924825668335
1763690868572303400,8.367303466796875,-0.3937854766845703,0.24480676651000977,-0.38117656111717224
1763690868581888300,8.37688818359375,-0.17569541931152344,-0.3649919927120209,-0.7926823496818542
1763690868591474200,8.38647412109375,-0.8236293792724609,-0.3684130907058716,-0.40355736017227173
1763690868601060900,8.396060791015625,-0.9458694458007812,-0.1388440877199173,0.06622308492660522
1763690868610646800,8.405646728515626,-0.6373805999755859,0.22212451696395874,0.6397430300712585
1763690868620232000,8.41523193359375,-0.33790111541748047,0.4544692635536194,1.0707459449768066
1763690868629817900,8.42481787109375,-0.21518325805664062,0.4074324369430542,1.3783645629882812
1763690868639404500,8.434404541015626,0.30423831939697266,0.07024362683296204,2.1571691036224365
1763690868648990500,8.443990478515625,1.1690483093261719,-1.1376103162765503,3.3373165130615234
1763690868658575600,8.45357568359375,1.7266387939453125,-1.4122921228408813,2.8640756607055664
1763690868668161500,8.46316162109375,1.719552993774414,-1.3753774166107178,1.5736534595489502
1763690868677748200,8.472748291015625,1.245396614074707,-0.5129349231719971,0.0982208251953125
1763690868687334100,8.482334228515626,0.7230739593505859,0.0340614914894104,-0.5664210319519043
1763690868696919300,8.491919189453125,0.13770675659179688,0.2874637246131897,-0.37734103202819824
1763690868706505000,8.5015048828125,-0.36192989349365234,0.07094523310661316,0.2669503688812256
1763690868716092000,8.511091796875,-0.5781526565551758,-0.34745484590530396,0.6160539388656616
1763690868725677600,8.520677490234375,-0.6352319717407227,-0.6685765385627747,0.6466512680053711
1763690868735262700,8.5302626953125,-0.415252685546875,-0.6651889681816101,0.21314740180969238
1763690868744848600,8.5398486328125,-0.06698799133300781,-0.5663426518440247,0.4731159210205078
1763690868754435300,8.549435302734375,-0.0077190399169921875,-0.5940926671028137,0.9365148544311523
1763690868764021200,8.559021240234374,0.14297008514404297,-0.44351595640182495,0.49375247955322266
1763690868773606400,8.5686064453125,0.13576602935791016,0.3158697485923767,0.8213703632354736
1763690868783192300,8.5781923828125,0.4969806671142578,0.9663612246513367,0.47113680839538574
1763690868792779000,8.587779052734374,0.705317497253418,0.9545902013778687,-0.11660051345825195
1763690868802365000,8.597364990234375,1.5544767379760742,-0.5640125274658203,-0.2922251224517822
1763690868811950000,8.6069501953125,1.847916603088379,-0.8740845918655396,0.01825237274169922
1763690868821536000,8.616535888671875,1.9049654006958008,0.0726015567779541,0.2093641757965088
1763690868831122700,8.626122802734375,2.1143293380737305,-0.44878101348876953,0.7172195911407471
1763690868840708600,8.63570849609375,-0.3338747024536133,-0.659963846206665,0.5981671810150146
1763690868850293500,8.64529345703125,-2.6860146522521973,-0.5922727584838867,0.24554848670959473
1763690868859879700,8.654879638671876,-1.6566815376281738,-0.42016303539276123,-0.8771839141845703
1763690868869466400,8.66446630859375,-1.6937212944030762,0.31074970960617065,-1.1945176124572754
1763690868879052000,8.674052001953125,-1.273244857788086,0.5100836157798767,-0.41082239151000977
1763690868888637200,8.68363720703125,-0.4736328125,0.7050344347953796,-0.49459171295166016
1763690868898223000,8.69322314453125,0.6130161285400391,0.49809759855270386,-0.8064188957214355
1763690868907809800,8.702809814453126,1.205897331237793,-0.10689675807952881,-0.8196873664855957
1763690868917395700,8.712395751953125,1.4492549896240234,-0.39670491218566895,-0.5737667083740234
1763690868926980900,8.72198095703125,1.3535404205322266,-0.7376750707626343,0.1628255844116211
1763690868936566800,8.73156689453125,1.167165756225586,-1.0630109310150146,0.75783371925354
1763690868946153500,8.741153564453125,1.0875520706176758,-1.3085843324661255,0.88163161277771
1763690868955739400,8.750739501953126,1.2444305419921875,-1.097783088684082,0.7105498313903809
1763690868965324500,8.760324462890624,1.0098896026611328,-0.9476021528244019,0.5262775421142578
1763690868974910500,8.769910400390625,0.6620769500732422,-1.2751879692077637,0.20421504974365234
1763690868984497200,8.7794970703125,0.2584190368652344,-0.5132758021354675,-0.07662677764892578
1763690868994083000,8.7890830078125,-0.39819812774658203,-0.3283061385154724,0.5301780700683594
1763690869003668000,8.79866796875,-0.48558521270751953,-0.4299144744873047,1.046370267868042
1763690869013254000,8.80825390625,-1.1816062927246094,0.010969877243041992,1.0401277542114258
1763690869022840800,8.8178408203125,-1.0949797630310059,0.39155951142311096,0.7061319351196289
1763690869032426500,8.827426513671876,-0.5994472503662109,0.4008106291294098,0.6643133163452148
1763690869042011600,8.83701171875,-0.23302173614501953,0.23806995153427124,0.344423770904541
1763690869051597600,8.84659765625,0.1344919204711914,0.4858670234680176,0.5542826652526855
1763690869061184300,8.856184326171874,0.4615287780761719,0.5336058139801025,1.4742329120635986
1763690869070770200,8.865770263671875,0.48502063751220703,-0.09935319423675537,2.0937466621398926
1763690869080355300,8.875355224609375,0.4089384078979492,-0.6936757564544678,2.333404541015625
1763690869089941200,8.884941162109374,0.6262292861938477,-1.0350732803344727,2.4113733768463135
1763690869099528000,8.89452783203125,0.9826574325561523,-1.2148597240447998,2.354694128036499
1763690869109113900,8.90411376953125,0.9481477737426758,-1.4200432300567627,2.2755179405212402
1763690869118699000,8.913698974609375,0.7230367660522461,-1.4207093715667725,2.1158266067504883
1763690869128285000,8.923284912109375,0.8812370300292969,-1.3823150396347046,1.6267364025115967
1763690869137871600,8.93287158203125,1.2503833770751953,-1.3001126050949097,1.513826847076416
1763690869147457500,8.94245751953125,1.3465156555175781,-1.0963413715362549,1.7852835655212402
1763690869157042700,8.952042724609376,0.15203094482421875,-1.3465465307235718,0.9239711761474609
1763690869166628400,8.96162841796875,-1.0226221084594727,-1.4013371467590332,0.8908247947692871
1763690869176215300,8.97121533203125,-1.2211699485778809,-1.4397257566452026,1.5611703395843506
1763690869185801000,8.980801025390624,-1.0423469543457031,-1.270822525024414,1.6775176525115967
1763690869195386000,8.99038623046875,-1.023397445678711,-1.4752923250198364,1.311302661895752
1763690869204972000,8.999971923828125,-1.0613551139831543,-1.6176813840866089,0.8151340484619141
1763690869214558700,9.009558837890625,-0.7372479438781738,-1.5318231582641602,0.008988380432128906
1763690869224144600,9.01914453125,-0.19408416748046875,-1.3134855031967163,-1.0341496467590332
1763690869233729800,9.028729736328126,-0.07389640808105469,-1.6406490802764893,-2.2203803062438965
1763690869243315700,9.038315673828125,-0.026792526245117188,-2.2127151489257812,-2.8056983947753906
1763690869252902400,9.04790234375,0.040081024169921875,-2.87874174118042,-2.196474552154541
1763690869262488300,9.05748828125,-0.27550601959228516,-3.000555992126465,-0.9130392074584961
1763690869272073500,9.067073486328125,-0.9246840476989746,-2.808570384979248,0.9508333206176758
1763690869281659400,9.076659423828126,-1.1469635963439941,-1.843677282333374,2.287811279296875
1763690869291246000,9.08624609375,-1.596208095550537,-0.9250211715698242,1.6177184581756592
1763690869300832000,9.09583203125,-1.7045221328735352,-0.44782555103302,0.26284074783325195
1763690869310417000,9.1054169921875,-1.487459659576416,-0.37054443359375,-0.7751379013061523
1763690869320003000,9.115003173828125,-0.8991422653198242,-0.29064130783081055,-1.3736448287963867
1763690869329589800,9.12458984375,-0.3219585418701172,-0.17631268501281738,-1.8565101623535156
1763690869339175400,9.134175537109375,-0.5222883224487305,0.16421771049499512,-2.4577689170837402
1763690869348760600,9.143760498046875,-0.4920530319213867,0.2099142074584961,-2.7351651191711426
1763690869358346500,9.153346435546876,-0.4512166976928711,-0.3063352108001709,-2.563476085662842
1763690869367933200,9.16293310546875,-0.5946540832519531,-1.0511744022369385,-1.236743450164795
1763690869377519000,9.17251904296875,-0.9886555671691895,-0.9316375255584717,0.3137550354003906
1763690869387104300,9.182104248046874,-1.7250919342041016,-0.024895906448364258,0.9053544998168945
1763690869396690200,9.191690185546875,-1.8599958419799805,0.6843705177307129,0.43368005752563477
1763690869406276900,9.20127685546875,-1.6254782676696777,0.8045425415039062,-0.6019096374511719
1763690869415862800,9.21086279296875,-1.1603569984436035,0.4078202247619629,-1.6395173072814941
1763690869425448000,9.220447998046875,-0.5519075393676758,-0.04996514320373535,-2.5670995712280273
1763690869435033900,9.230033935546874,-0.007613182067871094,-0.12444448471069336,-3.5013933181762695
1763690869444620500,9.23962060546875,0.3859710693359375,-0.21148157119750977,-3.9947924613952637
1763690869454206500,9.24920654296875,0.5150914192199707,-0.20055103302001953,-3.6141357421875
1763690869463791400,9.258791259765625,0.44137096405029297,0.08660769462585449,-2.730510711669922
1763690869473377300,9.268377197265625,0.16845273971557617,0.30753087997436523,-1.6689929962158203
1763690869482964200,9.277964111328124,-0.08935260772705078,0.5195369720458984,-0.8317594528198242
1763690869492550000,9.2875498046875,-0.2579536437988281,0.8186371326446533,-0.2429656982421875
1763690869502135000,9.297135009765626,-0.3526120185852051,1.0976860523223877,-0.03837156295776367
1763690869511721000,9.306720947265624,-0.09888219833374023,1.2627480030059814,-0.46949291229248047
1763690869521307600,9.3163076171875,0.3042111396789551,1.28900146484375,-1.166994571685791
1763690869530893600,9.3258935546875,0.8223233222961426,1.5236845016479492,-1.5623559951782227
1763690869540478700,9.335478759765625,1.2043185234069824,1.9379284381866455,-1.7094125747680664
1763690869550064600,9.345064697265625,1.2975077629089355,2.097874641418457,-1.794701099395752
1763690869559651300,9.3546513671875,1.2495980262756348,1.9653024673461914,-1.6882171630859375
1763690869569237200,9.3642373046875,1.1124749183654785,1.6340432167053223,-1.0377531051635742
1763690869578822400,9.373822509765626,0.8614010810852051,1.5416066646575928,-0.3245687484741211
1763690869588408300,9.383408203125,0.6050944328308105,1.6069836616516113,-0.10048818588256836
1763690869597995000,9.3929951171875,0.460996150970459,1.5726091861724854,-0.3810744285583496
1763690869607580700,9.40258056640625,0.47316741943359375,1.3350512981414795,-0.7311511039733887
1763690869617166000,9.412166015625,0.49637651443481445,1.0857913494110107,-0.6579732894897461
1763690869626751700,9.421751708984376,0.785820484161377,1.057755470275879,-0.4058232307434082
1763690869636338400,9.43133837890625,0.8286223411560059,1.0943069458007812,-0.3543105125427246
1763690869645924400,9.44092431640625,1.0113439559936523,1.1040241718292236,-0.46481800079345703
1763690869655509500,9.450509521484374,1.4456262588500977,1.0576345920562744,-0.8102850914001465
1763690869665095400,9.460095458984375,1.5474042892456055,1.0816826820373535,-0.806818962097168
1763690869674682000,9.46968212890625,1.6173481941223145,1.2195210456848145,-0.30767107009887695
1763690869684268000,9.47926806640625,1.4279794692993164,1.4508178234100342,0.400148868560791
1763690869693853200,9.488853271484375,1.2881011962890625,1.57499098777771,1.300736427307129
1763690869703439000,9.498439208984376,1.190871238708496,1.637714147567749,1.990971565246582
1763690869713025800,9.50802587890625,1.1101746559143066,1.59708833694458,2.364358901977539
1763690869722611700,9.51761181640625,1.0583362579345703,1.608736515045166,2.629157543182373
1763690869732196900,9.52719677734375,1.0902528762817383,1.581617832183838,2.8553996086120605
1763690869741782800,9.53678271484375,1.4292187690734863,1.38248872756958,2.8653042316436768
1763690869751369500,9.546369384765624,1.8576507568359375,1.011378288269043,2.71212100982666
1763690869760955400,9.555955322265625,2.2269797325134277,0.6807699203491211,2.3454041481018066
1763690869770540500,9.56554052734375,2.5885009765625,0.3873929977416992,1.8190226554870605
1763690869780126200,9.575126220703124,2.7532482147216797,0.1841731071472168,1.4359722137451172
1763690869789713200,9.584713134765625,2.663940906524658,0.13634443283081055,1.2165112495422363
1763690869799298800,9.594298828125,2.6023664474487305,0.1863117218017578,1.1118221282958984
1763690869808884000,9.603884033203125,2.613645076751709,0.25879359245300293,1.121997356414795
1763690869818470000,9.613469970703125,2.5770392417907715,0.27414727210998535,1.1838808059692383
1763690869828056600,9.623056640625,2.4333033561706543,0.25022363662719727,1.4284906387329102
1763690869837642500,9.632642578125,2.2721948623657227,0.20108985900878906,1.6262431144714355
1763690869847227600,9.6422275390625,1.9936928749084473,0.0854651927947998,1.5522165298461914
1763690869856813600,9.6518134765625,1.4925918579101562,-0.04961895942687988,1.1901884078979492
1763690869866400300,9.661400146484375,1.109034538269043,-0.30728697776794434,0.7312150001525879
1763690869875986200,9.670986083984374,0.6762847900390625,-0.5558156967163086,0.21527481079101562
1763690869885571300,9.6805712890625,0.1978440284729004,-0.7778844833374023,-0.3803267478942871
1763690869895157200,9.6901572265625,-0.35762453079223633,-0.8683078289031982,-1.013918399810791
1763690869904744000,9.699743896484375,-0.6297860145568848,-0.9196395874023438,-1.6146888732910156
1763690869914329900,9.709329833984375,-0.7386379241943359,-0.8511357307434082,-2.177888870239258
1763690869923915000,9.7189150390625,-0.9014286994934082,-0.6440026760101318,-2.4702391624450684
1763690869933500700,9.728500732421875,-0.9585061073303223,-0.5065510272979736,-2.5318360328674316
1763690869943087600,9.738087646484376,-1.148390769958496,-0.2993001937866211,-2.537075996398926
1763690869952673300,9.74767333984375,-1.3459930419921875,-0.04405093193054199,-2.444418430328369
1763690869962258400,9.757258544921875,-1.542285442352295,0.1656017303466797,-2.2544350624084473
1763690869971844400,9.76684423828125,-1.946446418762207,0.37706685066223145,-2.029384136199951
1763690869981431000,9.77643115234375,-2.335981845855713,0.7085666656494141,-1.8627266883850098
1763690869991017000,9.786016845703125,-2.3947925567626953,0.9071965217590332,-1.8643836975097656
1763690870000602000,9.79560205078125,-2.282947540283203,0.7742753028869629,-1.974195957183838
1763690870010188000,9.80518798828125,-2.2679200172424316,0.5070738792419434,-2.028186798095703
1763690870019774700,9.814774658203126,-2.495415210723877,0.3529343605041504,-1.9674882888793945
1763690870029360600,9.824360595703125,-2.8075194358825684,0.2788662910461426,-1.8201045989990234
1763690870038945800,9.83394580078125,-3.0028257369995117,0.3030221462249756,-1.7386479377746582
1763690870048531700,9.84353173828125,-2.9918456077575684,0.1670694351196289,-1.6845669746398926
1763690870058118400,9.853118408203125,-2.936398506164551,-0.05144500732421875,-1.5463013648986816
1763690870067704300,9.862704345703126,-2.883828639984131,-0.2693793773651123,-1.2791557312011719
1763690870077289200,9.872289306640624,-2.8489890098571777,-0.4328196048736572,-0.7697415351867676
1763690870086875400,9.88187548828125,-2.6015257835388184,-0.7423248291015625,-0.06441402435302734
1763690870096462000,9.891462158203124,-2.152923583984375,-1.1150786876678467,0.47321414947509766
1763690870106047700,9.9010478515625,-1.634629249572754,-1.2110674381256104,0.9229922294616699
1763690870115633000,9.9106328125,-1.3097772598266602,-0.9870700836181641,1.1726231575012207
1763690870125218800,9.92021875,-1.0224857330322266,-0.746431827545166,1.3706564903259277
1763690870134805800,9.9298056640625,-0.6041789054870605,-0.7118532657623291,1.5316367149353027
1763690870144391400,9.939391357421876,-0.2865467071533203,-0.8049993515014648,1.771127700805664
1763690870153976600,9.9489765625,-0.05224418640136719,-0.8705782890319824,1.946263313293457
1763690870163562500,9.9585625,0.2911357879638672,-0.824213981628418,1.7295913696289062
1763690870173149200,9.968149169921874,0.6577482223510742,-0.8808026313781738,1.4338064193725586
1763690870182735000,9.977735107421875,1.0366411209106445,-1.165998935699463,1.2651009559631348
1763690870192320300,9.9873203125,4.463974952697754,-1.0926456451416016,1.6086487770080566
1763690870201906200,9.99690625,8.218717575073242,3.450355052947998,9.890241622924805
1763690870211492900,10.006492919921875,4.3299689292907715,7.122122764587402,11.868707656860352
1763690870221078800,10.016078857421874,3.326479434967041,-0.7829570770263672,0.16504859924316406
1763690870230664000,10.025663818359375,3.0859322547912598,-1.0017304420471191,0.6759591102600098
1763690870240249900,10.035249755859375,2.16237735748291,-1.6747348308563232,-0.055527687072753906
1763690870249836500,10.04483642578125,1.1951570510864258,-3.0832040309906006,-1.4143519401550293
1763690870259422500,10.05442236328125,-0.004115104675292969,-4.571669578552246,-2.433840274810791
1763690870269007400,10.06400732421875,-0.7427840232849121,-5.007504463195801,-2.099459648132324
1763690870278593300,10.07359326171875,-0.7727468013763428,-3.9151480197906494,-0.40547657012939453
1763690870288180200,10.08318017578125,-0.4380521774291992,-2.9747233390808105,0.1152033805847168
1763690870297766000,10.092765869140624,0.18587398529052734,-1.8219316005706787,0.38030529022216797
1763690870307351000,10.10235107421875,0.9810280799865723,-0.7310903072357178,0.7647347450256348
1763690870316937000,10.11193701171875,1.6350822448730469,0.17034077644348145,0.8332757949829102
1763690870326523600,10.121523681640625,1.926621913909912,0.9651334285736084,0.8400940895080566
1763690870336109600,10.131109619140625,1.91517972946167,1.6355516910552979,0.6860208511352539
1763690870345694700,10.14069482421875,1.8984689712524414,2.0568535327911377,0.28475236892700195
1763690870355280600,10.15028076171875,1.978846549987793,2.1523854732513428,-0.20619916915893555
1763690870364867300,10.159867431640626,1.9074416160583496,2.2465200424194336,-0.6877284049987793
1763690870374453200,10.169453369140625,1.6279640197753906,2.240861415863037,-0.9765372276306152
1763690870384038400,10.179038330078125,1.1575336456298828,2.2175467014312744,-1.1944942474365234
1763690870393624300,10.188624267578126,0.6631832122802734,2.126347780227661,-1.357344627380371
1763690870403211000,10.1982109375,0.3281393051147461,1.898315191268921,-1.52490234375
1763690870412797000,10.207796875,-0.05385255813598633,1.490861177444458,-1.6439719200134277
1763690870422381800,10.2173818359375,-0.4496021270751953,1.211484670639038,-1.685610294342041
1763690870431967700,10.2269677734375,-0.7447547912597656,1.063664436340332,-1.8155288696289062
1763690870441554700,10.2365546875,-0.8130283355712891,0.8573203086853027,-2.074613571166992
1763690870451140400,10.246140380859375,-0.8158993721008301,0.5467464923858643,-2.360316276550293
1763690870460725500,10.2557255859375,-0.7325139045715332,0.21229958534240723,-2.5795698165893555
1763690870470311400,10.2653115234375,-0.6949334144592285,-0.15423870086669922,-2.65012264251709
1763690870479898000,10.274898193359375,-0.7966980934143066,-0.4127192497253418,-2.6213159561157227
1763690870489484000,10.284484130859376,-0.9101839065551758,-0.6511590480804443,-2.513373374938965
1763690870499069200,10.294069091796874,-0.9934477806091309,-0.9185342788696289,-2.2898597717285156
1763690870508655000,10.303655029296875,-1.1154851913452148,-1.1066548824310303,-2.003127098083496
1763690870518241800,10.31324169921875,-1.1355407238006592,-1.287008285522461,-1.7240667343139648
1763690870527827700,10.32282763671875,-1.1762688159942627,-1.403111219406128,-1.4530792236328125
1763690870537412900,10.332412841796875,-1.3219473361968994,-1.4763147830963135,-1.020298957824707
1763690870546998800,10.341998779296874,-1.3480913639068604,-1.589125633239746,-0.5211677551269531
1763690870556585500,10.35158544921875,-1.3354432582855225,-1.7181819677352905,0.05475425720214844
1763690870566171100,10.361171142578126,-1.0597968101501465,-1.7318334579467773,0.7317323684692383
1763690870594928600,10.3899287109375,-0.8305838108062744,-1.7368948459625244,1.6702375411987305
1763690870604514600,10.3995146484375,-0.7380061149597168,-1.715897560119629,1.915595531463623
1763690870633272300,10.428272216796875,-0.8383710384368896,-1.4228787422180176,2.641695022583008
1763690870642858200,10.437858154296874,-0.6694614887237549,-1.401811122894287,2.7372641563415527
1763690870652443100,10.447443115234375,-0.5723931789398193,-1.278580904006958,2.6524434089660645
1763690870662029300,10.457029296875,-0.5794820785522461,-1.1010823249816895,2.4825315475463867
1763690870671616000,10.466615966796875,-0.5698044300079346,-0.9559332132339478,2.320551872253418
1763690870681201700,10.47620166015625,-0.47028183937072754,-0.8082460165023804,2.298232078552246
1763690870690786800,10.485786865234376,-0.35814619064331055,-0.7089178562164307,2.389857769012451
1763690870700372700,10.495372802734375,-0.36266303062438965,-0.5351742506027222,2.5132827758789062
1763690870709959400,10.50495947265625,-0.1667041778564453,-0.23466026782989502,2.696329116821289
1763690870719545300,10.51454541015625,1.4362919330596924,0.022156357765197754,2.9084243774414062
1763690870729130500,10.524130615234375,1.2242498397827148,0.6714200973510742,2.5644235610961914
1763690870738716400,10.53371630859375,-1.2007242441177368,0.9458096027374268,2.0662403106689453
1763690870748303000,10.54330322265625,-0.7424540519714355,0.24799823760986328,1.9244065284729004
1763690870757889000,10.552888916015625,-0.6064243316650391,0.02732253074645996,1.935692310333252
1763690870767474200,10.56247412109375,-0.7124123573303223,-0.049227237701416016,1.8041610717773438
1763690870777060000,10.57206005859375,-1.024969220161438,-0.10059571266174316,1.771677017211914
1763690870786646800,10.581646728515626,-1.2187668085098267,-0.059400320053100586,1.782055377960205
1763690870796232700,10.591232666015625,-1.3259021043777466,-0.05363178253173828,1.6277742385864258
1763690870805817600,10.600817626953125,-1.3712610006332397,-0.11596870422363281,1.1916861534118652
1763690870815403800,10.61040380859375,-1.469814419746399,-0.33124494552612305,0.6838788986206055
1763690870824990500,10.619990478515625,-1.7017552852630615,-0.5523595809936523,0.11434745788574219
1763690870834576400,10.629576416015626,-1.686213731765747,-0.6982557773590088,-0.648503303527832
1763690870844161300,10.639161376953124,-1.3308519124984741,-0.7668471336364746,-1.3802690505981445
1763690870853747200,10.648747314453125,-0.5197596549987793,-0.6534328460693359,-1.6640033721923828
1763690870863334100,10.658334228515624,0.11829662322998047,-0.29493069648742676,-1.3872861862182617
1763690870872919800,10.667919921875,0.6085867881774902,0.32611989974975586,-1.2262639999389648
1763690870882505000,10.6775048828125,1.6137843132019043,1.1205594539642334,-0.9568490982055664
1763690870892091000,10.6870908203125,2.368492841720581,2.1568243503570557,-0.5905551910400391
1763690870901677600,10.696677490234375,2.4188644886016846,3.008866310119629,-0.01397705078125
1763690870911263500,10.706263427734376,1.8753576278686523,3.457125425338745,0.3893766403198242
1763690870920848600,10.7158486328125,1.4288990497589111,2.991166591644287,-0.07422637939453125
1763690870930434600,10.7254345703125,0.7995376586914062,2.373270034790039,-0.3661956787109375
1763690870940021200,10.735021240234374,0.23451614379882812,0.09545302391052246,-3.486867904663086
1763690870949607200,10.744607177734375,-0.09980607032775879,-0.9737663269042969,-4.783292770385742
1763690870959192300,10.7541923828125,-0.5124552249908447,-0.8411016464233398,-4.356689453125
1763690870968778200,10.7637783203125,-0.1536388397216797,-1.758561134338379,-4.856178283691406
1763690870978365000,10.773364990234375,-0.1284959316253662,-1.457247257232666,-3.5571718215942383
1763690870987950800,10.782950927734374,0.6065022945404053,-0.5411543846130371,-1.6255674362182617
1763690870997535700,10.79253564453125,1.1654181480407715,-0.25795841217041016,-0.8985433578491211
1763690871007122000,10.802121826171875,1.2704317569732666,-0.240447998046875,0.10622406005859375
1763690871016708600,10.81170849609375,0.39554810523986816,-0.10935783386230469,0.9571337699890137
1763690871026294300,10.821294189453125,-0.37788844108581543,-0.020049571990966797,1.2088499069213867
1763690871035879400,10.83087939453125,-0.16738176345825195,-0.5083041191101074,1.556450366973877
1763690871045465300,10.84046533203125,0.03532600402832031,-0.8214664459228516,2.0458807945251465
1763690871055052000,10.850052001953125,-0.07003545761108398,-2.0630736351013184,0.9287862777709961
1763690871064638000,10.859637939453124,-0.7967804670333862,-2.015477180480957,1.1427650451660156
1763690871074223000,10.86922314453125,-1.6597884893417358,-1.3983616828918457,1.8936166763305664
1763690871083809000,10.87880908203125,-2.1393401622772217,-0.31920576095581055,3.0498337745666504
1763690871093395700,10.888395751953125,-2.3653035163879395,1.5709190368652344,4.034452438354492
1763690871102981600,10.897981689453125,-2.8513550758361816,1.2872014045715332,3.7666702270507812
1763690871112566800,10.90756689453125,-2.588221549987793,1.2252702713012695,1.467545509338379
1763690871122152700,10.917152587890625,-1.0879379510879517,1.8938803672790527,0.9817509651184082
1763690871131739400,10.926739501953126,0.578589916229248,2.8113040924072266,0.5736994743347168
1763690871141325300,10.9363251953125,1.943532943725586,2.975605010986328,0.2012953758239746
1763690871150910500,10.945910400390625,2.0019021034240723,2.5107598304748535,-0.7313270568847656
1763690871160496400,10.955496337890626,1.1263282299041748,2.0495214462280273,-2.4794440269470215
1763690871170083000,10.9650830078125,0.6021982431411743,1.9493460655212402,-2.8031973838806152
1763690871179669000,10.9746689453125,0.6156606078147888,1.1105637550354004,-3.34214448928833
1763690871189254000,10.98425390625,0.31423303484916687,2.1413016319274902,-1.9719514846801758
1763690871198840000,10.993840087890625,0.8179320096969604,3.0754270553588867,-1.2886085510253906
1763690871208426800,11.0034267578125,1.7413153648376465,2.3145251274108887,-1.490710735321045
1763690871218012400,11.013012451171875,1.2660253047943115,2.045602321624756,-1.4227705001831055
1763690871227597600,11.02259765625,1.0386031866073608,1.621403694152832,-1.8873400688171387
1763690871237183500,11.03218359375,0.03298604488372803,1.9928817749023438,-2.299177646636963
1763690871246770200,11.041770263671875,0.4757553040981293,2.2527332305908203,-1.879770278930664
1763690871256356000,11.051356201171876,0.9095043540000916,2.5463500022888184,-1.6749510765075684
1763690871265941200,11.060941162109375,0.631038248538971,2.9016599655151367,-1.3294143676757812
1763690871275527200,11.070527099609375,0.43177685141563416,1.8566946983337402,-0.5464057922363281
1763690871285113900,11.08011376953125,0.34553366899490356,0.4769134521484375,0.5228309631347656
1763690871304285000,11.099284912109376,0.11222949624061584,-0.9042434692382812,0.3944127559661865
1763690871313870800,11.108870849609374,-1.2185783386230469,-1.1679773330688477,0.6217844486236572
1763690871323457500,11.11845751953125,-3.091433048248291,-1.7492971420288086,0.8088269233703613
1763690871333043500,11.12804345703125,-1.811739444732666,-2.224921226501465,1.3992953300476074
1763690871342628600,11.137628662109375,0.37161386013031006,-1.111405372619629,2.1474921703338623
1763690871352214300,11.14721435546875,1.893994688987732,2.249602794647217,2.17311429977417
1763690871361801200,11.15680126953125,0.2793993353843689,2.910571575164795,2.315538167953491
1763690871371387000,11.166386962890625,0.4309225082397461,1.4432368278503418,3.1460139751434326
1763690871380972000,11.175971923828126,0.0033990144729614258,-0.3052682876586914,1.6675984859466553
1763690871390558200,11.18555810546875,-0.7757697105407715,-2.4920568466186523,0.03918051719665527
1763690871400144600,11.19514453125,-1.1894716024398804,-4.573768615722656,-1.1133246421813965
1763690871409730600,11.20473046875,-0.7269018292427063,-6.809232711791992,-1.6575169563293457
1763690871419315700,11.214315673828125,-0.05837106704711914,-7.407057762145996,-1.7599892616271973
1763690871428901600,11.223901611328126,0.575928807258606,-6.054218292236328,-1.3004019260406494
1763690871438488300,11.23348828125,0.6699438095092773,-3.413180351257324,0.154571533203125
1763690871448074200,11.24307421875,0.6815528869628906,-1.554081916809082,0.8986301422119141
1763690871457659400,11.252659423828124,0.8067148923873901,-0.8834943771362305,0.6999845504760742
1763690871467245300,11.262245361328125,0.8365973830223083,-0.628758430480957,0.14435482025146484
1763690871476832000,11.27183203125,0.7134125232696533,-0.25244808197021484,-0.4507272243499756
1763690871486418000,11.28141796875,0.7527688145637512,0.14512157440185547,-0.8824658393859863
1763690871496003000,11.291003173828125,0.7911549210548401,1.2212896347045898,-1.373201847076416
1763690871505589000,11.300589111328126,0.4134889245033264,2.6550960540771484,-1.5133764743804932
1763690871515175700,11.31017578125,0.3190435767173767,2.581397533416748,-0.9326834678649902
1763690871524761600,11.31976171875,0.2311829924583435,3.2888879776000977,0.1439216136932373
1763690871534346800,11.3293466796875,0.3239990472793579,3.828669548034668,0.40956950187683105
1763690871543932400,11.338932373046875,-0.08610376715660095,1.3400449752807617,-0.8602745532989502
1763690871553519400,11.348519287109376,-0.9067584276199341,0.0040435791015625,-1.6230196952819824
1763690871563105000,11.35810498046875,-0.734740138053894,-0.045685768127441406,-1.0917713642120361
1763690871572690200,11.367690185546875,-1.0178462266921997,-0.7115774154663086,-0.9048006534576416
1763690871582276000,11.377276123046874,-0.9522675275802612,-1.0758132934570312,-1.3505563735961914
1763690871591862800,11.38686279296875,-0.16317693889141083,-0.44927215576171875,-0.24724960327148438
1763690871601448700,11.39644873046875,-0.442682147026062,0.46240234375,0.40586817264556885
1763690871611033900,11.406033935546875,2.364091157913208,0.4789304733276367,-0.0002970695495605469
1763690871620619800,11.415619873046875,1.1397351026535034,0.5551309585571289,-0.3664233684539795
1763690871630206500,11.42520654296875,1.8862557411193848,0.47056007385253906,-0.3001534938812256
1763690871639792400,11.43479248046875,0.7781229615211487,0.33481502532958984,-0.316713809967041
1763690871649377500,11.44437744140625,-0.2225038707256317,0.5822439193725586,-0.3690459728240967
1763690871658963500,11.45396337890625,-1.3239474296569824,0.8216094970703125,0.0049211978912353516
1763690871668550100,11.463550048828125,-2.574270486831665,0.8532094955444336,0.06492507457733154
1763690871678136000,11.473135986328124,-1.0134495496749878,0.07814884185791016,0.14569091796875
1763690871687721200,11.48272119140625,-0.296415776014328,-1.2662391662597656,0.48717713356018066
1763690871697307000,11.492306884765625,-0.3988959789276123,-0.7809848785400391,1.0049363374710083
1763690871706893800,11.501893798828124,-0.12472203373908997,-0.44016170501708984,0.8600656986236572
1763690871716479500,11.5114794921875,0.014577940106391907,-0.3305702209472656,0.6690508127212524
1763690871726064600,11.521064697265626,0.10723400115966797,-0.19479942321777344,0.48032593727111816
1763690871735650800,11.53065087890625,0.2178783118724823,0.09414291381835938,0.20997989177703857
1763690871745237200,11.5402373046875,0.34124353528022766,0.19295120239257812,0.06101536750793457
1763690871754823200,11.5498232421875,0.30850598216056824,0.34574222564697266,-0.026473164558410645
1763690871764408300,11.559408203125,0.342140257358551,0.5882644653320312,0.17149674892425537
1763690871773994200,11.568994140625,0.113884836435318,0.4535484313964844,0.4395533800125122
1763690871783581000,11.578580810546875,-0.1270417720079422,0.7315359115600586,0.2762237787246704
1763690871793166800,11.588166748046875,-0.2863965332508087,1.0149354934692383,-0.058240652084350586
1763690871802752000,11.597751953125,-0.42389288544654846,1.5425310134887695,-0.33641791343688965
1763690871812338000,11.607337890625,-0.8543437123298645,6.0504560470581055,-1.1377140283584595
1763690871821924600,11.616924560546876,-1.3426438570022583,8.450363159179688,-1.100579023361206
1763690871831510500,11.626510498046875,0.26669809222221375,2.1979737281799316,0.4033668041229248
1763690871841095700,11.636095703125,0.07368284463882446,1.1504087448120117,1.5931332111358643
1763690871850681600,11.645681640625,-0.7398242950439453,2.422619342803955,1.7626782655715942
1763690871860268300,11.655268310546875,-0.8432756662368774,2.3370895385742188,1.9183146953582764
1763690871869854000,11.66485400390625,-0.6619227528572083,1.8329310417175293,1.9408552646636963
1763690871879439000,11.674439208984374,-0.04598701000213623,2.6020169258117676,1.3555221557617188
1763690871889025300,11.684025390625,-0.093097984790802,2.9010729789733887,1.0198605060577393
1763690871898611700,11.69361181640625,-0.1710662841796875,3.4657092094421387,0.5488369464874268
1763690871908197600,11.70319775390625,-0.32062071561813354,4.969306468963623,0.6114971041679382
1763690871917782800,11.71278271484375,0.42138671875,4.077251434326172,0.5389026403427124
1763690871927368700,11.72236865234375,1.1081583499908447,2.7732901573181152,0.5829331874847412
1763690871936955400,11.731955322265625,0.6400517821311951,1.4934720993041992,0.722154974937439
1763690871946541300,11.741541259765626,0.2591950297355652,1.4648942947387695,0.47422415018081665
1763690871956126500,11.75112646484375,-0.32596564292907715,1.0434637069702148,0.5534420013427734
1763690871965712400,11.76071240234375,-0.48764699697494507,0.40161609649658203,0.733462929725647
1763690871975299000,11.770299072265624,-0.8310366868972778,-0.08422565460205078,0.8984436392784119
1763690871984885000,11.779885009765625,-0.3730613589286804,0.6289100646972656,0.7649199962615967
1763690871994470000,11.789469970703125,-0.2711005210876465,-0.8113784790039062,1.0599861145019531
1763690872004056000,11.79905615234375,-0.7745252847671509,0.11007308959960938,1.2835218906402588
1763690872013642800,11.808642822265625,-0.245073601603508,0.7684097290039062,1.306847095489502
1763690872023228400,11.818228515625,0.674959123134613,0.5497646331787109,0.8122576475143433
1763690872032813600,11.8278134765625,0.2709709107875824,0.2759513854980469,1.2688260078430176
1763690872042399500,11.8373994140625,-0.10093581676483154,-0.5398168563842773,1.8500628471374512
1763690872051986200,11.846986083984374,-1.249922513961792,-2.1015138626098633,2.1741783618927
1763690872061572000,11.856572021484375,-0.12531328201293945,-2.0153026580810547,1.704309344291687
1763690872071157200,11.8661572265625,0.31679999828338623,-1.6673698425292969,1.0453912019729614
1763690872080743200,11.8757431640625,-0.18243291974067688,-1.2899065017700195,0.7506855726242065
1763690872090329900,11.885329833984375,-1.1510816812515259,-0.7089424133300781,0.6959920525550842
1763690872099915800,11.894915771484374,-1.7559396028518677,-1.2695188522338867,0.529507040977478
1763690872109501000,11.9045009765625,0.42120474576950073,-1.0047988891601562,-1.2013087272644043
1763690872119086800,11.9140869140625,1.2183504104614258,-0.4551668167114258,-1.456813931465149
1763690872128673500,11.923673583984375,0.9182993173599243,-5.988513946533203,0.05253976583480835
1763690872138259500,11.933259521484375,0.632922887802124,-5.418739318847656,0.8091414570808411
1763690872147844600,11.9428447265625,0.15927308797836304,-6.472468376159668,1.7315627336502075
1763690872157430300,11.95243017578125,-1.803175926208496,-3.4118099212646484,-0.5351420044898987
1763690872167017200,11.962017333984376,-1.5447371006011963,-3.898606300354004,-0.23915404081344604
1763690872176603000,11.971602783203124,-0.46180373430252075,-2.1207847595214844,0.052289485931396484
1763690872186188000,11.98118798828125,0.5065856575965881,-1.677037239074707,0.5069265365600586
1763690872195774000,11.99077392578125,1.035660982131958,-0.7105264663696289,0.8348262310028076
1763690872205360600,12.000360595703125,0.7734388113021851,-0.0037746429443359375,1.0833897590637207
1763690872214946600,12.009946533203125,0.2326033115386963,0.42897605895996094,1.3388310670852661
1763690872224531700,12.01953173828125,-0.3201916217803955,0.7187309265136719,1.3865143060684204
1763690872234117600,12.02911767578125,-0.5342710614204407,0.4764738082885742,1.4597046375274658
1763690872243704300,12.038704345703126,-0.27092528343200684,0.5783119201660156,1.6618047952651978
1763690872253290200,12.048290283203125,-0.06840229034423828,0.864109992980957,2.100468873977661
1763690872262875400,12.05787548828125,-0.05792546272277832,0.9400577545166016,2.1627697944641113
1763690872272461300,12.06746142578125,-0.23241007328033447,2.121645450592041,2.540919303894043
1763690872282048000,12.077048095703125,-0.5488726496696472,2.3524975776672363,2.0686964988708496
1763690872291634000,12.086634033203126,-0.14354008436203003,1.6813302040100098,1.9069926738739014
1763690872301218800,12.09621875,0.46070727705955505,1.028146743774414,1.8353904485702515
1763690872310805000,12.105804931640625,0.685420036315918,-0.15570831298828125,1.5328409671783447
1763690872320391700,12.1153916015625,0.5978270173072815,-0.9119844436645508,1.1720530986785889
1763690872329977300,12.124977294921875,0.34883344173431396,-1.7745494842529297,0.6863389015197754
1763690872339562500,12.1345625,0.5300081968307495,-1.5996055603027344,0.3219876289367676
1763690872349148400,12.1441484375,0.7180606126785278,-1.1293306350708008,0.057648420333862305
1763690872358735000,12.153735107421875,0.8265144228935242,-0.6507186889648438,-0.02433156967163086
1763690872368321000,12.163321044921876,0.7941932678222656,-0.28081512451171875,0.06392049789428711
1763690872377906200,12.17290625,0.7982927560806274,0.18969154357910156,0.2235426902770996
1763690872387492000,12.1824921875,0.8630051612854004,0.4469137191772461,0.32891690731048584
1763690872397078800,12.192078857421874,0.5760217905044556,1.3892860412597656,0.49704599380493164
1763690872406664700,12.201664794921875,0.32513731718063354,1.5397953987121582,0.6229829788208008
1763690872416249900,12.211249755859376,0.21336770057678223,1.32550048828125,1.0402499437332153
1763690872425835800,12.220835693359374,0.0954587459564209,1.2219839096069336,1.5235099792480469
1763690872435422500,12.23042236328125,-0.10692363977432251,1.0682373046875,1.8362360000610352
