time,seconds_elapsed,z,y,x
1763691410145968600,0.04596875,9.448643786570429,2.6211978134065865,-0.1511302169376984
1763691410155916800,0.055916748046875,9.456433125272392,2.5930215202361344,-0.15000664713471196
1763691410165865700,0.06586572265625,9.462323936876654,2.572007081519067,-0.13994606643198057
1763691410175814700,0.075814697265625,9.464659101825951,2.5640309880733487,-0.12790146317202597
1763691410185763600,0.085763671875,9.463027701231837,2.5706691109135744,-0.11469625516748055
1763691410195712500,0.09571240234375,9.458585919392108,2.58780816950202,-0.09376223387601784
1763691410205661400,0.105661376953125,9.453087906497716,2.6087624024644493,-0.0622124365513213
1763691410215610600,0.115610595703125,9.44787747837305,2.6281787583351135,-0.025826688703848046
1763691410225559800,0.125559814453125,9.443822650024295,2.6428242465421556,0.008904275961456005
1763691410235508700,0.1355087890625,9.441638291722535,2.650356395612657,0.03829887885926291
1763691410245457700,0.145457763671875,9.441517295691371,2.6504376441553235,0.05761399371200241
1763691410255406600,0.155406494140625,9.442558913698791,2.6464710786119103,0.06820724738617427
1763691410265355500,0.16535546875,9.443618651884794,2.6425238022908566,0.07429300617380068
1763691410275304400,0.175304443359375,9.444513554897904,2.6392253452673553,0.07769205576125532
1763691410285253600,0.185253662109375,9.445793073314428,2.634477858479321,0.08305688899634406
1763691410295202600,0.19520263671875,9.447596323344111,2.627692436122894,0.092402170169726
1763691410305150500,0.205150390625,9.449674298661947,2.619797883480787,0.1034330846088007
1763691410315099600,0.215099609375,9.451635369601846,2.6123297395572065,0.11271819656016305
1763691410325048600,0.225048583984375,9.453117132592201,2.606750478120148,0.11754621037165634
1763691410334997200,0.234997314453125,9.453891624096036,2.6038272841498253,0.1200075133181177
1763691410344946200,0.2449462890625,9.453919096624851,2.603520117896795,0.12442392325457184
1763691410354895000,0.25489501953125,9.453169155040383,2.6058932767689225,0.13151514189084992
1763691410364844300,0.26484423828125,9.45168154683113,2.610801799337566,0.14076649770308286
1763691410374793200,0.274793212890625,9.449940840643643,2.61648218306154,0.1517249588273
1763691410384742100,0.2847421875,9.44856721420288,2.6207258119806647,0.16357744618179276
1763691410394691300,0.29469140625,9.44795229717493,2.6222853163823485,0.17377066768771035
1763691410404640300,0.30464013671875,9.448022439801692,2.6215409277558326,0.18103749861922114
1763691410414589200,0.314589111328125,9.448478366875648,2.619555891418457,0.18593816667497157
1763691410424538000,0.3245380859375,9.449090945816039,2.6170792721718548,0.18964622741267084
1763691410434487300,0.3344873046875,9.449892909848689,2.6138454048171638,0.1942273994567804
1763691410444436200,0.344436279296875,9.450608364641665,2.610845930740237,0.19968758282512425
1763691410454384400,0.35438427734375,9.450931020724774,2.6092040087521076,0.2057752321757376
1763691410464333300,0.364333251953125,9.45082346869707,2.6090187153130766,0.2129456535280682
1763691410474282200,0.3742822265625,9.45056569454372,2.609216283711791,0.22178068362437187
1763691410484231200,0.384231201171875,9.450537637493014,2.608408182199299,0.23221511174133047
1763691410494180000,0.39418017578125,9.451156646174192,2.6051608708411456,0.2432288193172775
1763691410504129300,0.40412939453125,9.452786293202639,2.598348852738738,0.25257594538787376
1763691410514078200,0.414078125,9.455736375179887,2.587130416370928,0.2572639570736326
1763691410524027100,0.424027099609375,9.46005482290089,2.5713340045630932,0.2568716515541076
1763691410533976300,0.433976318359375,9.465480355080961,2.5516908541992307,0.2528544335356913
1763691410543925200,0.44392529296875,9.471423189133406,2.5301141054242846,0.24707449842737986
1763691410553874200,0.453874267578125,9.477094805029035,2.5093834520846605,0.2409466449305415
1763691410563823000,0.463822998046875,9.481984330636262,2.4913091584727165,0.2360943643274717
1763691410573772300,0.473772216796875,9.485875492855905,2.47659703477025,0.23456622317843137
1763691410583721200,0.48372119140625,9.488618069562316,2.4657427555397153,0.23794760924503205
1763691410593670100,0.493670166015625,9.490219659540056,2.4587486588686702,0.24631609954182057
1763691410603618000,0.5036181640625,9.490893028756975,2.4548463907331226,0.258975802492816
1763691410613567200,0.513567138671875,9.49099707365334,2.4528180997759104,0.2739462666042149
1763691410623516400,0.523516357421875,9.491398055669665,2.4494931931369006,0.28936407262431457
1763691410633465300,0.53346533203125,9.492896769794822,2.441955198847502,0.30355690342672165
1763691410643414300,0.543414306640625,9.49612683775723,2.4279985696874555,0.31429267084412277
1763691410653363200,0.55336328125,9.50146235356629,2.406209054944664,0.32054628787878897
1763691410663312100,0.56331201171875,9.508808624675869,2.3766285940647123,0.3233824246201664
1763691410673261000,0.573260986328125,9.5175010496974,2.341431754607707,0.3244339794997126
1763691410683210200,0.583210205078125,9.526109303566813,2.305928187289089,0.3260613249732181
1763691410693159400,0.593159423828125,9.533435116410255,2.273989326714724,0.33611835287883873
1763691410703108400,0.6031083984375,9.538830837973952,2.2471987888142464,0.3622053456198424
1763691410713057300,0.613057373046875,9.541945755124091,2.2261730980508028,0.40719292672909796
1763691410723006200,0.623006103515625,9.542858778315782,2.209902931251377,0.46963316242061554
1763691410732955100,0.632955078125,9.54230289799869,2.196154830275476,0.5401321648726239
1763691410742903300,0.6429033203125,9.541270632341504,2.1819442263543603,0.6112796943612396
1763691410752852200,0.652852294921875,9.540435350561141,2.1666879127725958,0.6752309922028332
1763691410762801200,0.66280126953125,9.540206217980383,2.1524952828995882,0.7222254561550915
1763691410772750000,0.67275,9.540631165394187,2.1405074695944784,0.7516471462767571
1763691410782699300,0.68269921875,9.541482813787459,2.1299952817998826,0.7704623213838785
1763691410792648200,0.692648193359375,9.54269394314289,2.119381679457426,0.7846014675039797
1763691410802597400,0.702597412109375,9.544587209543586,2.1062441115953026,0.7968521695289761
1763691410812546300,0.71254638671875,9.547287700673937,2.088967398101836,0.8098715178389102
1763691410822495200,0.7224951171875,9.550552839949727,2.0680681101970375,0.8248718838982284
1763691410832444200,0.732444091796875,9.553964109697937,2.044632581812888,0.8435794339124113
1763691410842393000,0.74239306640625,9.557436169722676,2.020476776330173,0.8622470903076231
1763691410852342000,0.752342041015625,9.560743979096411,1.9988893600307405,0.8757855671208351
1763691410862291500,0.76229150390625,9.5635274723351,1.9823757398642599,0.8829025595191866
1763691410872240400,0.772240478515625,9.565643441575766,1.9708466301120817,0.8857849830877035
1763691410882189300,0.782189208984375,9.567160860401392,1.962328392613679,0.8883056606717408
1763691410892137200,0.79213720703125,9.568366729059814,1.9540172219946979,0.8936211566060781
1763691410902086100,0.802086181640625,9.569181552574038,1.9445505977302788,0.9054697806362062
1763691410912035300,0.812035400390625,9.569264554682373,1.9354113057240843,0.9239818811435252
1763691410921984300,0.821984375,9.569967734515666,1.9234248075932263,0.9415605732582509
1763691410931933200,0.83193310546875,9.574453355497122,1.9032140864744782,0.9370185459144413
1763691410941882000,0.841882080078125,9.582790391209722,1.8737411776222288,0.9108270698856562
1763691410951831300,0.851831298828125,9.59376128255725,1.8375059350281953,0.8681608443960547
1763691410961780200,0.8617802734375,9.606616087955237,1.7973599487312137,0.8079640767823905
1763691410971729200,0.871729248046875,9.620376317760348,1.753861583266407,0.7366867469016463
1763691410981678300,0.88167822265625,9.634047700238227,1.7082886034846305,0.6612543431680649
1763691410991627300,0.891627197265625,9.646917703205347,1.6633840244837104,0.5835383220093324
1763691411001576200,0.901576171875,9.65810194504261,1.6211588938251136,0.513123527242057
1763691411011525000,0.911525146484375,9.666955698105692,1.5851106982357799,0.45581988725401457
1763691411021474000,0.92147412109375,9.673564887112379,1.5580984804086386,0.4060256365153938
1763691411031422200,0.931422119140625,9.678193715956807,1.5392109707176684,0.36576278237309306
1763691411041371400,0.941371337890625,9.68137585312426,1.52558912646994,0.3375223744578659
1763691411051320300,0.9513203125,9.683795189225673,1.5131540077887475,0.3238280860284343
1763691411061269200,0.961269287109375,9.686072486507893,1.49852269423753,0.3237578338038176
1763691411071218200,0.97121826171875,9.688884036797285,1.4789352195836603,0.3296305617621168
1763691411081167000,0.9811669921875,9.692948802018165,1.4546014271855354,0.3182145204629749
1763691411091116300,0.9911162109375,9.698462597003578,1.4277761102326214,0.26769253997169434
1763691411101065200,1.001065185546875,9.70401613947749,1.4022554461374879,0.19009039098359642
1763691411111014100,1.01101416015625,9.70793535874784,1.3841761840894817,0.10212617586185224
1763691411120963300,1.02096337890625,9.709681325632333,1.3752508270949124,0.03407333815267775
1763691411130912300,1.030912353515625,9.710586165517569,1.3692482256792484,0.007726287398868589
1763691411140861200,1.040861083984375,9.712795073738693,1.3533226345337928,0.022588533333106897
1763691411150810400,1.050810302734375,9.717181325998903,1.3204118601873516,0.057304987128335046
1763691411160759300,1.06075927734375,9.72298445931971,1.2759360279925167,0.07710306775900534
1763691411170707200,1.070707275390625,9.729096220198272,1.2301684024214743,0.0419679227608256
1763691411180656000,1.08065625,9.733938984054326,1.190524374297261,-0.05893604066257831
1763691411190605000,1.09060498046875,9.735383337643743,1.1613733908757566,-0.2095296710721217
1763691411200554200,1.10055419921875,9.73216028394401,1.143478618549183,-0.3845806608939543
1763691411210503400,1.11050341796875,9.725313779050111,1.1330841388501227,-0.5520654715115204
1763691411220452400,1.120452392578125,9.718642630723119,1.1228769984167069,-0.6764027393959462
1763691411230401300,1.1304013671875,9.713452660864592,1.1103802857413887,-0.7656909422636031
1763691411240350200,1.14035009765625,9.705943892669676,1.0986881674472242,-0.8705886560648679
1763691411250299100,1.150299072265625,9.689131874078512,1.0990366886239498,-1.040781921923533
1763691411260248000,1.160248046875,9.658403558337687,1.11986846425049,-1.277308193128556
1763691411270197200,1.170197265625,9.609383799102902,1.1665990165695548,-1.5713602591723204
1763691411280146200,1.180146240234375,9.536824758848548,1.2382976406022905,-1.919888596291095
1763691411290095400,1.190095458984375,9.43732218208909,1.322635235325247,-2.3147290411211547
1763691411300044300,1.200044189453125,9.312364261555672,1.40736606714949,-2.7330527989998457
1763691411309992200,1.2099921875,9.18504078093469,1.4821552045434712,-3.099778617718816
1763691411319941400,1.21994140625,9.07414762611091,1.5387226026788352,-3.3856410936966537
1763691411329890300,1.229890380859375,8.976287555861473,1.5730574184790254,-3.622449615909159
1763691411339839700,1.23983984375,8.886744063058496,1.5845060103408992,-3.83216788662225
1763691411349788700,1.24978857421875,8.812606229180098,1.5752869310967623,-4.003352136279642
1763691411359737600,1.259737548828125,8.762883290112018,1.5498969076439737,-4.120689352676272
1763691411369686500,1.2696865234375,8.726154857173562,1.5166905113518236,-4.210018618206679
1763691411379635500,1.279635498046875,8.691995397940278,1.4851282290048897,-4.2911528868436815
1763691411389584600,1.289584716796875,8.655690743371844,1.4643020063363015,-4.370951815223694
1763691411399533600,1.299533447265625,8.612196469560265,1.4636182618558407,-4.456262492762506
1763691411409482800,1.309482666015625,8.557314540293813,1.4896201335966586,-4.55233860220462
1763691411419431700,1.319431640625,8.491424894800781,1.5416834983110428,-4.657176987034082
1763691411429380600,1.329380615234375,8.41531839119792,1.6121094720594584,-4.770104862555861
1763691411439328800,1.339328857421875,8.327730708637834,1.6899559511974453,-4.895236386090517
1763691411449277700,1.349277587890625,8.228675291123986,1.7659354674197731,-5.0339609661698335
1763691411459226600,1.3592265625,8.12062875790298,1.8326210855960845,-5.183365345695615
1763691411469175600,1.369175537109375,8.003329827690123,1.8838231573060154,-5.344932456701994
1763691411479124500,1.37912451171875,7.87215259425044,1.917073392739892,-5.524891548967362
1763691411489073400,1.389073486328125,7.721247747033834,1.936136551258713,-5.727485082367062
1763691411499022600,1.399022705078125,7.55109108685851,1.9514856576904653,-5.945007304829359
1763691411508971800,1.4089716796875,7.379065710201859,1.9810889149241149,-6.14776801148951
1763691411518920700,1.418920654296875,7.21770376637876,2.0324017535321413,-6.320165144068002
1763691411528869600,1.42886962890625,7.064705161753296,2.0948605477936564,-6.470849042010307
1763691411538818600,1.438818603515625,6.928121685355901,2.1528110708504915,-6.598251433086395
1763691411548767500,1.448767578125,6.815610573941469,2.197923008991778,-6.69977353297472
1763691411558716400,1.45871630859375,6.725490742555261,2.230652873813361,-6.779553172132372
1763691411568664600,1.46866455078125,6.654145169743895,2.25651782130152,-6.841115017554164
1763691411578613500,1.478613525390625,6.597430764353275,2.2836612642928955,-6.886884835082292
1763691411588562400,1.4885625,6.550678365528583,2.31885021270439,-6.91967651309371
1763691411598511600,1.49851171875,6.511044274276495,2.363888501087576,-6.941810018968582
1763691411608460500,1.50846044921875,6.475123066067695,2.4136747146502135,-6.958257295900583
1763691411618409700,1.51840966796875,6.441475648009777,2.4602830288290978,-6.973147991040348
1763691411628358700,1.528358642578125,6.410763698881865,2.498639647491276,-6.9877961095958945
1763691411638307600,1.5383076171875,6.38076369741559,2.528041975325346,-7.004658397069573
1763691411648256500,1.548256591796875,6.349421049168706,2.5505720793023703,-7.024942475685477
1763691411658205400,1.558205322265625,6.305825068548321,2.5662805205658077,-7.058410445523261
1763691411668154600,1.568154541015625,6.245248727032542,2.5703914630159734,-7.110580193221568
1763691411678103800,1.578103759765625,6.172742878270149,2.5562992247775194,-7.178647182753681
1763691411688052700,1.588052734375,6.0946805644243955,2.51683406035155,-7.258843586018681
1763691411698001700,1.598001708984375,5.998342589175701,2.456854807946086,-7.358949973890185
1763691411707949600,1.607949462890625,5.885452707576752,2.3968368309654293,-7.46906980625391
1763691411717898500,1.6178984375,5.736095674324035,2.3621111161515116,-7.595262821540236
1763691411727847700,1.62784765625,5.545906279945373,2.3682240460738537,-7.733357287022471
1763691411737796600,1.637796630859375,5.332496168977022,2.4124318749822673,-7.8686115606427185
1763691411747745500,1.64774560546875,5.108763401436805,2.480357848608494,-7.994920895785093
1763691411757694700,1.65769482421875,4.883351887029409,2.554737382288277,-8.111509047380089
1763691411767643600,1.6676435546875,4.670155711072683,2.623300046382844,-8.214519339999557
1763691411777592600,1.677592529296875,4.473762785878777,2.6849156678184865,-8.30343680985868
1763691411787541500,1.68754150390625,4.292494364580512,2.746333136333525,-8.378694003155827
1763691411797490700,1.69749072265625,4.12427480994761,2.817708812022209,-8.439268006584047
1763691411807439600,1.707439697265625,3.965121774345636,2.908800995571911,-8.484519937717915
1763691411817388500,1.717388427734375,3.818246621036529,3.0234479499712585,-8.511764502996206
1763691411827337500,1.72733740234375,3.6880069607079027,3.1578634346798062,-8.520380940172076
1763691411837286700,1.73728662109375,3.573470773206651,3.3043457892790435,-8.513635557565092
1763691411847234600,1.747234619140625,3.482133967246115,3.4564743330717085,-8.491049631747602
1763691411857183700,1.757183837890625,3.423574810771644,3.608808336308598,-8.451390990576147
1763691411867132700,1.767132568359375,3.4020287493959067,3.7567046493589875,-8.395460429039597
1763691411877081600,1.77708154296875,3.417265481494367,3.9004897276982664,-8.32339180265069
1763691411887030500,1.787030517578125,3.4670208615273235,4.042203552721441,-8.234727430769802
1763691411896979500,1.7969794921875,3.545986553953588,4.181250204361975,-8.131022141623497
1763691411906928600,1.8069287109375,3.643963820841908,4.3145992288827895,-8.017241448664665
1763691411916877600,1.816877685546875,3.7544741138279436,4.437532073329389,-7.898267863237858
1763691411926826800,1.82682666015625,3.8758079986453056,4.545155704963207,-7.777535451444983
1763691411936775700,1.836775634765625,3.9996550353273745,4.632399980913102,-7.66250797329545
1763691411946724600,1.846724609375,4.126547723315656,4.699225153690576,-7.553758260241151
1763691411956673500,1.856673583984375,4.24528399285525,4.751175997941195,-7.454816239973902
1763691411966622500,1.86662255859375,4.340917911487818,4.788852525384724,-7.375207865729927
1763691411976570600,1.876570556640625,4.409554225340485,4.814049510483444,-7.317865099307895
1763691411986519600,1.88651953125,4.451992560358345,4.831327685281634,-7.2806877535581584
1763691411996468500,1.896468505859375,4.469025235962867,4.839743631449341,-7.264646719339489
1763691412006417400,1.90641748046875,4.468086786068976,4.835486850787699,-7.2680579890877
1763691412016366800,1.916366943359375,4.456065508885682,4.816908699306845,-7.287746439898013
1763691412026315800,1.926315673828125,4.434994663806259,4.783453004428744,-7.32255296486318
1763691412036264700,1.9362646484375,4.406085087925195,4.735452943630516,-7.371043147265911
1763691412046213600,1.946213623046875,4.366252843752503,4.677328379181027,-7.431608382865786
1763691412056162600,1.95616259765625,4.308165396443009,4.614608595895767,-7.504364991518854
1763691412066111500,1.966111572265625,4.233250440712273,4.551085095012188,-7.585354590988159
1763691412076060400,1.976060302734375,4.150593200291693,4.491080415904522,-7.666365233245491
1763691412086009600,1.986009521484375,4.067190402200818,4.438842279145121,-7.741126167458296
1763691412095958800,1.995958740234375,3.9904964540988206,4.396421187523007,-7.804985768428445
1763691412105906400,2.005906494140625,3.9268919969335196,4.365174693126976,-7.854626289910078
1763691412115855600,2.015855712890625,3.8792867806717752,4.346856069365144,-7.888367815992235
1763691412125804500,2.025804443359375,3.8518256500333545,4.342222856606543,-7.90436150393784
1763691412135753700,2.035753662109375,3.845110662564635,4.349641608430445,-7.903551941120624
1763691412145702700,2.04570263671875,3.850778186807036,4.365017164477706,-7.892308078050613
1763691412155651600,2.055651611328125,3.8558658653348683,4.383411483824252,-7.879619276869296
1763691412165600500,2.0656005859375,3.8558167654961344,4.400601395817101,-7.870055914232134
1763691412175549400,2.075549560546875,3.8492859024226664,4.415040255536138,-7.865164050537348
1763691412185498600,2.08549853515625,3.837019126045704,4.4263861176759,-7.864780604177713
1763691412195447800,2.09544775390625,3.8213852113232014,4.436405115126073,-7.866746351292729
1763691412205396700,2.105396728515625,3.8059783833548426,4.446631033325195,-7.868442633816599
1763691412215345700,2.115345703125,3.7933819366320964,4.457397926533222,-7.868434450510144
1763691412225294600,2.125294677734375,3.7781302992254493,4.470021553523838,-7.86860980707705
1763691412235243500,2.135243408203125,3.7546994470164177,4.485542655521631,-7.870992902821302
1763691412245191700,2.145191650390625,3.7250109957173465,4.50421228467822,-7.874436321273445
1763691412255140600,2.155140625,3.694691845299303,4.525461116673052,-7.876537677466869
1763691412265089500,2.165089599609375,3.6698660316005345,4.54930084194392,-7.87441001778841
1763691412275038700,2.175038818359375,3.6552187898278232,4.57627740393579,-7.865586075341701
1763691412284987600,2.184987548828125,3.6495135639235374,4.606130690407753,-7.850795917966962
1763691412294936600,2.1949365234375,3.6494314385980364,4.63847345560789,-7.831769145935773
1763691412304885500,2.204885498046875,3.652039283008873,4.673290209706128,-7.80982444063127
1763691412314834700,2.214834716796875,3.6532469052329657,4.708824464423954,-7.787884411501884
1763691412324783600,2.22478369140625,3.64899596979022,4.741755843167007,-7.769874707558751
1763691412334732300,2.234732177734375,3.63380570718199,4.768955107998847,-7.760342324581742
1763691412344681200,2.24468115234375,3.6063343474105,4.788678337861597,-7.7610121866673225
1763691412354630100,2.254630126953125,3.577222819216549,4.805856851677596,-7.763865822532773
1763691412364579300,2.264579345703125,3.523258004795015,4.829356677469611,-7.773953501304984
1763691412374527200,2.27452734375,3.469994908902049,4.845155719625949,-7.788066782331466
1763691412384476200,2.28447607421875,3.421731228731572,4.853989306683838,-7.803905571976304
1763691412394425000,2.294425048828125,3.3762083717018365,4.860069211119413,-7.81993257766962
1763691412404374300,2.304374267578125,3.3401346032798287,4.863047934669256,-7.833558951961994
1763691412414323500,2.314323486328125,3.315749226824939,4.865153090254962,-7.842607350814342
1763691412424272400,2.3242724609375,3.302608005701005,4.870225278952717,-7.845002721518278
1763691412434221300,2.33422119140625,3.299392843046784,4.881384678609669,-7.839419368427992
1763691412444170200,2.344170166015625,3.3001515524595972,4.896950788792967,-7.829383127582073
1763691412454119200,2.354119140625,3.299841171336174,4.914031687453389,-7.818807373031974
1763691412464068000,2.364068115234375,3.299378229999542,4.929259067201614,-7.809411768177151
1763691412474017300,2.374017333984375,3.3013077367573973,4.939793905219435,-7.80193397964239
1763691412483966500,2.383966552734375,3.3157556565657256,4.946304310026765,-7.791677374044061
1763691412493915400,2.393915283203125,3.3404864854574203,4.953353644016385,-7.776621259209513
1763691412503864300,2.4038642578125,3.3773569572150706,4.961619952580333,-7.755396100351214
1763691412513812200,2.413812255859375,3.424342580273747,4.9725996117562055,-7.7277108055680985
1763691412523761200,2.42376123046875,3.474913076081872,4.987240716049075,-7.695635166871547
1763691412533710300,2.43371044921875,3.523065112571418,5.006481423091888,-7.661171171733737
1763691412543659300,2.4436591796875,3.5696819023177024,5.0289703182756895,-7.624775331750512
1763691412553608200,2.453608154296875,3.614892916919291,5.053504455551505,-7.58716134814918
1763691412563557400,2.463557373046875,3.6517341625824566,5.078517900776863,-7.552740023109316
1763691412573506300,2.47350634765625,3.670434479138255,5.100534502273797,-7.528800929117202
1763691412583455200,2.483455322265625,3.653602294541895,5.1143075915604825,-7.527645329341292
1763691412593404400,2.493404296875,3.631022506204247,5.117015096953511,-7.536724123331904
1763691412603353300,2.503353271484375,3.608351824712753,5.109625571224093,-7.5526096747279166
1763691412613302300,2.51330224609375,3.5884339490607378,5.092933379620313,-7.573345004242658
1763691412623251200,2.523251220703125,3.5722295409739013,5.069463656705618,-7.596717112001777
1763691412633200000,2.5332001953125,3.5601010040238497,5.042954419964552,-7.6200184926122425
1763691412643148300,2.543148193359375,3.5504429488405584,5.016939688742161,-7.641665676274895
1763691412653097200,2.55309716796875,3.539441954615712,4.994721427193284,-7.661298597505688
1763691412663046400,2.56304638671875,3.5277883417010307,4.98081506691575,-7.675714076349139
1763691412672995300,2.572995361328125,3.515780508521199,4.976773682570458,-7.683840684181451
1763691412682944300,2.5829443359375,3.504510634227097,4.981252289289236,-7.686085832759738
1763691412692893200,2.59289306640625,3.491358307187259,4.987964938670396,-7.687717817875742
1763691412702842000,2.602842041015625,3.4740655193418264,4.991384976246953,-7.693329812538623
1763691412712791300,2.612791259765625,3.4548628062218425,4.989407538694143,-7.703253825181722
1763691412722740200,2.622740234375,3.433767118962109,4.984390587314963,-7.715923337140679
1763691412732689400,2.632689453125,3.4084608282700177,4.978729492813349,-7.7307836371421805
1763691412742638300,2.642638427734375,3.3832170814201232,4.9693613604873415,-7.747880317893624
1763691412752587300,2.652587158203125,3.3639769588991997,4.952907653814554,-7.766771480846405
1763691412762536200,2.6625361328125,3.3448312366634605,4.929964585122466,-7.789604659423231
1763691412772484400,2.672484375,3.328292189794779,4.907030868780613,-7.811140199404955
1763691412782433300,2.682433349609375,3.3115462221771477,4.885837566365302,-7.831516047957539
1763691412792382200,2.69238232421875,3.287377118821442,4.8666804459527135,-7.8535951932966706
1763691412802331100,2.7023310546875,3.267750335070491,4.852793667158484,-7.87036161918044
1763691412812280000,2.712280029296875,3.2435224872648716,4.84437304481566,-7.885556850224733
1763691412822229500,2.7222294921875,3.2138705685839053,4.8399601968094705,-7.900392015784979
1763691412832178400,2.732178466796875,3.17943404597491,4.839142158424854,-7.914814508891105
1763691412842127400,2.74212744140625,3.1309950092375276,4.84102461117059,-7.932952807649969
1763691412852076300,2.752076171875,3.0636665631130335,4.843239364610612,-7.95784993301928
1763691412862025200,2.762025146484375,2.986040594857931,4.8424280482277275,-7.9877938203841445
1763691412871974100,2.77197412109375,2.8984979204833508,4.830881987340748,-8.026934575161338
1763691412881923000,2.781923095703125,2.799526966382563,4.787815875813365,-8.08763600436151
1763691412891872300,2.791872314453125,2.706545608085394,4.736226558351516,-8.14942581332028
1763691412901820200,2.801820068359375,2.634412976549566,4.705748125718534,-8.190614732798933
1763691412911769000,2.81176904296875,2.5900910197421907,4.700800147922337,-8.207576388993859
1763691412921718300,2.82171826171875,2.5735005349472164,4.712438271006942,-8.20611976044476
1763691412931667200,2.831667236328125,2.575175482422113,4.725846034112572,-8.197880339887737
1763691412941616400,2.841616455078125,2.5820062052249906,4.73159597594142,-8.1924133066535
1763691412951565300,2.8515654296875,2.5986063346311448,4.728469076092541,-8.188969303679466
1763691412961514200,2.86151416015625,2.623787245377898,4.711618479056656,-8.190650973156094
1763691412971463200,2.871463134765625,2.6394655837640166,4.683973808544874,-8.201462290027736
1763691412981412000,2.881412109375,2.644641525097191,4.656196451564133,-8.215599536451696
1763691412991361300,2.891361328125,2.643166484108567,4.642813238377869,-8.223645480263233
1763691413001310500,2.901310546875,2.6378052493363615,4.645910327610373,-8.223618592256306
1763691413011259400,2.91125927734375,2.6299109889551997,4.660314992798865,-8.217993153589964
1763691413021208300,2.921208251953125,2.6171058679178354,4.676487252181768,-8.212892031058669
1763691413031157200,2.9311572265625,2.6013220233306287,4.685175293289125,-8.212956328466534
1763691413041105200,2.941105224609375,2.5912358058631417,4.68270335021764,-8.21755417765081
1763691413051054300,2.951054443359375,2.5935636642888187,4.669933008232713,-8.224081533592939
1763691413061003300,2.961003173828125,2.608104523077607,4.650423128859699,-8.230537577864528
1763691413070952200,2.9709521484375,2.6253286296010017,4.628173595389724,-8.237598602291941
1763691413080901400,2.9809013671875,2.633110077257454,4.6057308774352075,-8.247687450107932
1763691413090850300,2.990850341796875,2.6202348135933278,4.583804000048339,-8.263988596567511
1763691413100799200,3.00079931640625,2.5823069417372344,4.564368354955315,-8.286654017361998
1763691413110748400,3.01074853515625,2.5251608669310808,4.5497512160599225,-8.312264259436725
1763691413120697300,3.020697265625,2.459386956772208,4.540317909543216,-8.337104101660847
1763691413130646300,3.030646240234375,2.3974777592174705,4.5339223632872105,-8.358590541803837
1763691413140595200,3.04059521484375,2.357957941994816,4.524453108674288,-8.374948386886716
1763691413150544100,3.050544189453125,2.3423311876654624,4.50188121138215,-8.391480419492721
1763691413160493300,3.060493408203125,2.3448706430152058,4.462770559482276,-8.411638241380453
1763691413170441200,3.070441162109375,2.365390868474543,4.403428728197515,-8.437128656467795
1763691413180390400,3.080390380859375,2.3920520809069274,4.32386682344377,-8.470693656939268
1763691413190339300,3.09033935546875,2.4073067870534954,4.226898733597993,-8.515197400054335
1763691413200288300,3.100288330078125,2.3996302610762417,4.1147172925293445,-8.572121064281463
1763691413210237200,3.1102373046875,2.366350068895519,3.994045086491108,-8.638192496082187
1763691413220186000,3.12018603515625,2.304503853574395,3.8712703552156684,-8.710505452620982
1763691413230135300,3.13013525390625,2.2228367932349444,3.7515593954250215,-8.783801574978233
1763691413240084200,3.140084228515625,2.1302615315206346,3.6383982956692575,-8.854062275162338
1763691413250033400,3.150033447265625,2.0349390169247985,3.5309643413886427,-8.919735647556186
1763691413259982300,3.159982421875,1.946358377804607,3.4265006350904703,-8.98004310900271
1763691413269931300,3.16993115234375,1.8699819712191819,3.3230463980957863,-9.03498349045813
1763691413279880200,3.179880126953125,1.8025595632009208,3.220358469298482,-9.085728758311271
1763691413289829400,3.189829345703125,1.7417944211147725,3.121947194907069,-9.131811295050381
1763691413299777300,3.19977734375,1.6922468386135994,3.030711803494394,-9.171777394735813
1763691413309726200,3.209726318359375,1.6539719068855046,2.947131018488109,-9.20593042422831
1763691413319675100,3.219675048828125,1.6291497464485465,2.8740143443509933,-9.233433932703733
1763691413329624000,3.2296240234375,1.6215060998275874,2.814258379307389,-9.253163300046324
1763691413339573500,3.239573486328125,1.6334075500234961,2.7689214002385736,-9.264741509637236
1763691413349522700,3.249522705078125,1.6610935754589735,2.73885388649404,-9.268755421453713
1763691413359471600,3.2594716796875,1.7007076468363402,2.7252625835150477,-9.265577960461378
1763691413369420500,3.269420654296875,1.7499416333436966,2.7278505541816354,-9.255642841902375
1763691413379369500,3.279369384765625,1.8069390934593974,2.744335825036466,-9.239802883213757
1763691413389318700,3.289318603515625,1.868030837151408,2.77206086730808,-9.219355138468742
1763691413399267600,3.299267578125,1.9339526313483715,2.8095430412232876,-9.19438319429755
1763691413409216800,3.309216796875,2.008395293392241,2.8498294589042663,-9.165980691155792
1763691413419165700,3.319165771484375,2.091688932020217,2.884983482132852,-9.136305099338292
1763691413429113600,3.329113525390625,2.18398260031417,2.9114672921717166,-9.106260089686513
1763691413439062500,3.3390625,2.285881862951815,2.931931403529644,-9.074629272148012
1763691413449011500,3.349011474609375,2.3940518764220178,2.949199349194765,-9.041080053767562
1763691413458960600,3.358960693359375,2.506207452397048,2.9649352629870176,-9.005470395725965
1763691413468909600,3.36890966796875,2.621853062444925,2.9789313473746177,-8.96784530620873
1763691413478858800,3.378858642578125,2.7361756071954964,2.989742371985316,-8.930015049508214
1763691413488807700,3.3888076171875,2.8459438496425746,2.994098521368205,-8.89417625888586
1763691413498756600,3.398756591796875,2.9558430249929426,2.987213438029587,-8.860584370407462
1763691413508705500,3.40870556640625,3.0709441529005765,2.965648379692435,-8.828625636088848
1763691413518654500,3.418654541015625,3.187766990034282,2.9276357521623373,-8.799856637722254
1763691413528603600,3.428603759765625,3.30252500359267,2.8729885084345934,-8.775514223626255
1763691413538552600,3.438552490234375,3.4144653293818235,2.8057068240612746,-8.754417075061797
1763691413548501500,3.44850146484375,3.5240398028224704,2.7316595910757777,-8.734389601555467
1763691413558450700,3.45845068359375,3.625916122975945,2.6542902279302476,-8.716528950694203
1763691413568398600,3.468398681640625,3.713062199248373,2.5745544279143213,-8.703748379576206
1763691413578347800,3.47834765625,3.781212483149767,2.4913413071766493,-8.698622122603654
1763691413588296700,3.488296630859375,3.830748375213146,2.402206541305035,-8.702019948348402
1763691413598245600,3.49824560546875,3.8660911990121005,2.3047392697654665,-8.712743586936593
1763691413608194600,3.508194580078125,3.891553557048738,2.197603860040009,-8.729074544012546
1763691413618143500,3.5181435546875,3.911070742945373,2.079540521325916,-8.749253408688306
1763691413628092400,3.528092529296875,3.92787983892709,1.9504969389140605,-8.771414387091994
1763691413638041600,3.53804150390625,3.9425925471514462,1.812624445619434,-8.794358040305971
1763691413647990800,3.54799072265625,3.9554847619503732,1.6675636482559144,-8.817241487765312
1763691413657939700,3.557939697265625,3.9654593357369303,1.5174857533827424,-8.839838519498706
1763691413667888600,3.567888671875,3.968510247740149,1.3665190929763018,-8.86306683487296
1763691413677837600,3.577837646484375,3.963537135502696,1.218468685342744,-8.886849861520528
1763691413687786500,3.587786376953125,3.951147609528899,1.0764838613584637,-8.910667959481477
1763691413697734700,3.597734619140625,3.9318528342112895,0.9430668861679732,-8.93429082713127
1763691413707683600,3.60768359375,3.9082249981254336,0.8197492071222513,-8.956794335362314
1763691413717632500,3.617632568359375,3.8831872952416537,0.7090327971048652,-8.97710997816026
1763691413727581400,3.62758154296875,3.8597950214773413,0.6116981755016371,-8.994342267990111
1763691413737530600,3.637530517578125,3.842410463695228,0.5247518230523914,-9.00726838505864
1763691413747479600,3.6474794921875,3.8316146366536614,0.4444548089571297,-9.01618468196392
1763691413757428700,3.6574287109375,3.824806417943537,0.3677363109357655,-9.022528498032688
1763691413767377700,3.667377685546875,3.821310100260377,0.29166992014758286,-9.026788493564725
1763691413777326600,3.67732666015625,3.8228994152784344,0.21471450809780507,-9.028273179164529
1763691413787275500,3.687275634765625,3.8302331191673873,0.13688060531360097,-9.026680941537021
1763691413797224400,3.697224365234375,3.842033739337325,0.05915424999052193,-9.02250862428844
1763691413807173400,3.70717333984375,3.8567707052201032,-0.015667363759310684,-9.016399786019324
1763691413817122800,3.717122802734375,3.8719714892223474,-0.08351424997556023,-9.009509441983699
1763691413827070700,3.72707080078125,3.884305485616624,-0.1410820299256593,-9.003479514169692
1763691413837019600,3.73701953125,3.889835647214949,-0.18731036834362894,-9.000248277163506
1763691413846968600,3.746968505859375,3.8875609802812336,-0.22231128336973488,-9.000435324168205
1763691413856917500,3.75691748046875,3.8776033576294777,-0.24780438360450788,-9.004064036059379
1763691413866866700,3.76686669921875,3.8570737798199057,-0.2676470933947712,-9.012309886357187
1763691413876815600,3.776815673828125,3.825205354133248,-0.2850754720523022,-9.025348231628536
1763691413886764500,3.7867646484375,3.7828076433867213,-0.3031286863435991,-9.042614423727988
1763691413896713500,3.79671337890625,3.731306004208326,-0.3245071178011596,-9.063246877390146
1763691413906662700,3.80666259765625,3.674529639497399,-0.34911709679216146,-9.085501963818073
1763691413916611600,3.816611572265625,3.6131107096776365,-0.3776839601827785,-9.108961165338755
1763691413926560800,3.826560791015625,3.548217089484632,-0.4118001647962257,-9.132959880563616
1763691413936509700,3.836509765625,3.4806127490282055,-0.4509318229515105,-9.157095373910664
1763691413946458600,3.846458740234375,3.4047111203476783,-0.49197881320882586,-9.183478938445448
1763691413956407600,3.856407470703125,3.318024478280544,-0.5311685947595164,-9.212978589174151
1763691413966355500,3.86635546875,3.2237270689487456,-0.5653843142246827,-9.244365661084652
1763691413976304600,3.8763046875,3.1254584178984164,-0.5926372089399025,-9.276350114366412
1763691413986253600,3.886253662109375,3.0264053384721277,-0.6121421198768541,-9.307875717964768
1763691413996202800,3.89620263671875,2.929590685622394,-0.6246589620247482,-9.337970996499061
1763691414006151700,3.906151611328125,2.8381840292960403,-0.632638343406096,-9.365621804490685
1763691414016100600,3.9161005859375,2.751773866082728,-0.640036563898623,-9.390871396559476
1763691414026049500,3.926049560546875,2.6665581733509898,-0.6511093081854283,-9.414664360079168
1763691414035998500,3.93599853515625,2.5813924572408196,-0.6678602442391216,-9.437201186057925
1763691414045947600,3.94594775390625,2.4964181720495224,-0.6898946005884558,-9.45845323292315
1763691414055896600,3.955896484375,2.409870207800716,-0.7161042698610574,-9.47893020376265
1763691414065845500,3.965845458984375,2.317861055536568,-0.7451801422197372,-9.49961175726354
1763691414075794700,3.975794677734375,2.218816597808152,-0.776403401870653,-9.520737547400593
1763691414085743600,3.98574365234375,2.114027897339314,-0.8080510974787175,-9.541924127814173
1763691414095691800,3.99569189453125,2.0040148863509297,-0.8377279314052313,-9.563081482133269
1763691414105640700,4.005640625,1.8897531318768859,-0.86447448403351,-9.583938392201066
1763691414115589600,4.015589599609375,1.7732574808709323,-0.8883190316099673,-9.604000352498888
1763691414125538600,4.02553857421875,1.6576076330393552,-0.9095152566347271,-9.622654784086347
1763691414135487500,4.035487548828125,1.5452489357076584,-0.9277256707817315,-9.63960124271214
1763691414145436400,4.0454365234375,1.4384350130215287,-0.9431349099028855,-9.654625208842754
1763691414155385600,4.055385498046875,1.3370965991370378,-0.9550883825469761,-9.668007837507128
1763691414165334800,4.065334716796875,1.2410403634391725,-0.9618579497471451,-9.680137251240014
1763691414175283700,4.07528369140625,1.1506372581321744,-0.961344958723709,-9.691348381084204
1763691414185232600,4.085232666015625,1.0674410885293035,-0.9495190579820424,-9.702030518618226
1763691414195181600,4.095181640625,0.9904143282763659,-0.9239238673459738,-9.712664725357293
1763691414205130500,4.105130615234375,0.9148784641683101,-0.884878535767272,-9.723701083156467
1763691414215079400,4.115079345703125,0.8383497896306216,-0.8361055909004061,-9.734910459434985
1763691414225027600,4.125027587890625,0.7603047922458499,-0.782602183445543,-9.745760939273238
1763691414234976500,4.1349765625,0.6785016113713384,-0.7283383130121975,-9.756001178258657
1763691414244925400,4.144925537109375,0.5945889640621841,-0.67507390194498,-9.765303259611128
1763691414254874600,4.15487451171875,0.5118619463410228,-0.6227719061691314,-9.773460847103594
1763691414264823600,4.164823486328125,0.4331949811330065,-0.570965256162174,-9.78042659446299
1763691414274772700,4.174772705078125,0.35894312895350156,-0.5190124026175588,-9.786325004851818
1763691414284721700,4.1847216796875,0.2877487463821657,-0.4664219087565317,-9.791323836052417
1763691414294670600,4.194670654296875,0.22199085577633232,-0.41245139524657276,-9.79545757485628
1763691414304619500,4.20461962890625,0.16477845600200816,-0.3584082548918202,-9.798713361781836
1763691414314568400,4.214568359375,0.11270857934844679,-0.3040509522876702,-9.801287596184014
1763691414324517400,4.224517333984375,0.06481263651181943,-0.24936611649589613,-9.803264449214934
1763691414334466800,4.234466796875,0.020296447190421167,-0.19690933201713487,-9.80465268870294
1763691414344415700,4.244415771484375,-0.020570245463389435,-0.14718545223413965,-9.805524795362352
1763691414354364700,4.25436474609375,-0.05409098438473884,-0.09995972767611964,-9.805991828352212
1763691414364312600,4.2643125,-0.07941051358431578,-0.05676886639106087,-9.80616426230967
1763691414374261500,4.274261474609375,-0.09896604959680698,-0.01929128188600298,-9.806132698127627
1763691414384210700,4.284210693359375,-0.11413591787097975,0.013273067342676222,-9.805976046261192
1763691414394159600,4.29415966796875,-0.12502082970179618,0.0440269741824828,-9.805754512464999
1763691414404108500,4.304108642578125,-0.12635542104011402,0.07564761282026301,-9.805544084584712
1763691414414057500,4.314057373046875,-0.1148801603670232,0.10983090502028353,-9.80536229827702
1763691414424006700,4.324006591796875,-0.09518801976228132,0.14882316383803262,-9.805058346894382
1763691414433955600,4.33395556640625,-0.07625168879379052,0.19294430084368214,-9.804455704826117
1763691414443904500,4.343904541015625,-0.06724059431110509,0.24092136435881256,-9.803461433091758
1763691414453853700,4.353853759765625,-0.0722446405429393,0.29028944384092464,-9.802087222129106
1763691414463802600,4.363802734375,-0.09004861104721203,0.3416274351565167,-9.800283972099423
1763691414473751600,4.37375146484375,-0.12045283679966814,0.3899625000627711,-9.798154558855295
1763691414483700500,4.383700439453125,-0.159953428732045,0.4272883143724873,-9.796031575351954
1763691414493648600,4.393648681640625,-0.20438602457335217,0.44765557775981724,-9.794294960817695
1763691414503597600,4.40359765625,-0.2569900172367692,0.446302482650429,-9.793118902775644
1763691414513546800,4.413546630859375,-0.31575507154688237,0.4237630628557876,-9.79240110989511
1763691414523495700,4.42349560546875,-0.3743926270198077,0.3862586771087721,-9.791887315154074
1763691414533444600,4.433444580078125,-0.42526630702558904,0.34155385846365244,-9.791470551046729
1763691414543393500,4.4433935546875,-0.4640967172119766,0.29414416477400807,-9.79124492559731
1763691414553342500,4.453342529296875,-0.49090223348587747,0.24291915057990698,-9.791341956230998
1763691414563291600,4.463291748046875,-0.5112107158906758,0.18035848511280492,-9.79165584448576
1763691414573240600,4.473240478515625,-0.5374646626964211,0.09881985519230366,-9.791412683379649
1763691414583189500,4.483189453125,-0.5816034814892337,-0.0019061682658131757,-9.789389653119445
1763691414593138700,4.493138671875,-0.6444309264000505,-0.1164669089686591,-9.784760824275017
1763691414603087600,4.503087646484375,-0.7271842476062477,-0.23627584010791033,-9.776796713528036
1763691414613036500,4.51303662109375,-0.83016319523938,-0.35482517224065957,-9.765005737969279
1763691414622984700,4.522984619140625,-0.9513233309250324,-0.4750942043054849,-9.748828510150313
1763691414632933600,4.53293359375,-1.0894638275060802,-0.6064703213181346,-9.727057407847047
1763691414642882600,4.542882568359375,-1.2464100737787782,-0.7579110289771109,-9.697547235724329
1763691414652831500,4.55283154296875,-1.4146182302348316,-0.9318176162704825,-9.659241178205608
1763691414662780400,4.562780517578125,-1.5762578219555317,-1.1222297865543513,-9.61386474390924
1763691414672729600,4.5727294921875,-1.72000183763206,-1.3169304478123782,-9.564393733775615
1763691414682678800,4.5826787109375,-1.838760026742518,-1.5087997581019996,-9.51382440701127
1763691414692627700,4.592627685546875,-1.9234099022850393,-1.6971557995736597,-9.465226672580838
1763691414702576600,4.60257666015625,-1.9753752134524285,-1.8825259571023285,-9.41936216250658
1763691414712525600,4.612525634765625,-1.9994740280508994,-2.0151772086173296,-9.386775067156552
1763691414722474500,4.622474609375,-2.0088183411099014,-2.0690603361047804,-9.373048739621042
1763691414732423400,4.63242333984375,-2.0271429562211036,-2.0988578007362784,-9.362471816027163
1763691414742372600,4.64237255859375,-2.0836153695493937,-2.152918330617249,-9.337765244793891
1763691414752320500,4.652320556640625,-2.1853113646999,-2.257252711447328,-9.289757877472043
1763691414762269400,4.66226953125,-2.3279076716460287,-2.4034233697488903,-9.218177326861023
1763691414772218600,4.672218505859375,-2.484182667593658,-2.567923611597717,-9.13263371734917
1763691414782167600,4.68216748046875,-2.618975753442943,-2.7251307738289237,-9.049035396686195
1763691414792116700,4.69211669921875,-2.7102652131304144,-2.8616271564647553,-8.979752601623535
1763691414802065700,4.702065673828125,-2.753039355973899,-2.97771495732218,-8.928850681903958
1763691414812014600,4.7120146484375,-2.7575688160970806,-3.082817838306725,-8.891704900336265
1763691414821963500,4.721963623046875,-2.7336931427299973,-3.1882728937298057,-8.861839338904618
1763691414831912400,4.731912353515625,-2.689659647475183,-3.299024301995337,-8.83473681244552
1763691414841861400,4.741861328125,-2.638761819408834,-3.4145138446986674,-8.806158952736855
1763691414851810800,4.751810791015625,-2.584927937890589,-3.5338872430980204,-8.774975294443964
1763691414861759700,4.761759765625,-2.5274630063936114,-3.6516172582045194,-8.743454367020727
1763691414871708700,4.771708740234375,-2.4731647222340105,-3.7601203030213712,-8.712941155335306
1763691414881657600,4.78165771484375,-2.4155462076105176,-3.838762462581694,-8.694794673269987
1763691414891605500,4.79160546875,-2.3313206949599086,-3.8742987631261347,-8.702019948348402
1763691414901554700,4.8015546875,-2.2216787092410026,-3.89981168230623,-8.719289063057303
1763691414911503600,4.811503662109375,-2.103928089737892,-3.934709392686188,-8.732809638887643
1763691414921452500,4.82145263671875,-1.9803598699972031,-3.972455478234589,-8.744605875143408
1763691414931401500,4.8314013671875,-1.860405895230919,-4.009579340231419,-8.75400206452012
1763691414941350700,4.8413505859375,-1.7539827254280447,-4.051163396507501,-8.756828227856754
1763691414951299600,4.851299560546875,-1.6568037693105637,-4.108863013543188,-8.748864701631664
1763691414961248500,4.86124853515625,-1.5718784378275275,-4.196291998410224,-8.722999608013033
1763691414971197700,4.87119775390625,-1.5003455257505178,-4.318663117320836,-8.675742766797542
1763691414981146600,4.881146728515625,-1.4406336921095848,-4.4779719280064105,-8.604808112874627
1763691414991095600,4.891095458984375,-1.3843170538648961,-4.6686298166796565,-8.51222276815772
1763691415001044500,4.90104443359375,-1.3240063775479793,-4.8711266117066145,-8.40770616262853
1763691415010993700,4.91099365234375,-1.2518152938231826,-5.062184021091461,-8.30527922285497
1763691415020941600,4.920941650390625,-1.164318285221234,-5.234830159994959,-8.210438792687654
1763691415030890800,4.930890869140625,-1.0651385106753557,-5.3983349610656495,-8.117502734836936
1763691415040839700,4.940839599609375,-0.9517911676324904,-5.5519239327996965,-8.027493378087877
1763691415050788600,4.95078857421875,-0.8320554387267678,-5.692535349538922,-7.941859167683124
1763691415060737500,4.960737548828125,-0.714822851748392,-5.816158222076297,-7.863316961365938
1763691415070686500,4.9706865234375,-0.5943662612222135,-5.924571835044026,-7.792081863191723
1763691415080635600,4.9806357421875,-0.4657453612018376,-6.026825756338239,-7.722099395427107
1763691415090584600,4.99058447265625,-0.33192937675639983,-6.127478087654709,-7.649459691151976
1763691415100533500,5.000533447265625,-0.19910181882642208,-6.227196352991461,-7.573162633413076
1763691415110482700,5.010482666015625,-0.07236159515322652,-6.318638957414031,-7.499331673526764
1763691415120431600,5.020431640625,0.04190196311883628,-6.399894514343142,-7.430341139408946
1763691415130380500,5.030380615234375,0.1423894409961067,-6.480770716565847,-7.358649529638886
1763691415140329500,5.04032958984375,0.22787565776491536,-6.570149374195933,-7.276785485422611
1763691415150278700,5.050278564453125,0.2992794635695405,-6.669567195281386,-7.183153846523165
1763691415160226600,5.0602265625,0.3516147222941741,-6.778057965138554,-7.0784665606021875
1763691415170175500,5.070175537109375,0.3841473840432241,-6.889075038602948,-6.9687494638204575
1763691415180124400,5.08012451171875,0.39868221495002504,-6.998227487239241,-6.85829820754528
1763691415190073600,5.090073486328125,0.39605811352413145,-7.1052440928906195,-6.747519034489989
1763691415200022800,5.100022705078125,0.3764185068242252,-7.209388942497968,-6.637274114441872
1763691415209971700,5.1099716796875,0.34511907666455954,-7.310378542944789,-6.527606702020764
1763691415219920600,5.119920654296875,0.3068910893507302,-7.409522807785868,-6.416790119564533
1763691415229869600,5.12986962890625,0.2641216226823628,-7.508977453750371,-6.3020554868817324
1763691415239818500,5.139818603515625,0.22042336899759246,-7.607674559345841,-6.184262635672092
1763691415249767400,5.149767333984375,0.1806862009635195,-7.701674447035789,-6.068110537406802
1763691415259716600,5.159716552734375,0.15150906018745153,-7.789739683979749,-5.955449788388609
1763691415269665800,5.169665771484375,0.13452520129387266,-7.872407445794344,-5.846152378323674
1763691415279613400,5.179613525390625,0.1330472924947273,-7.954087950137257,-5.734559550797939
1763691415289562600,5.189562744140625,0.1468652347032912,-8.039044699671864,-5.614497585612535
1763691415299511600,5.199511474609375,0.17054916662424802,-8.126836964893341,-5.485965313723683
1763691415309460700,5.209460693359375,0.20172323510488493,-8.21680598963201,-5.3491883605808015
1763691415319409700,5.21940966796875,0.24240115458779035,-8.304949552509187,-5.209554264441132
1763691415329358600,5.229358642578125,0.29113508261851967,-8.389643851715325,-5.069467163836956
1763691415339307500,5.2393076171875,0.34623313885368406,-8.466478085070849,-4.936525843334198
1763691415349256400,5.24925634765625,0.4044195530256256,-8.533445004406571,-4.815302725414932
1763691415359205400,5.259205322265625,0.46349352715443815,-8.591986040702462,-4.704607723511756
1763691415369154800,5.26915478515625,0.5278300249213352,-8.642907834166287,-4.603469069983065
1763691415379103700,5.279103759765625,0.6043572016216814,-8.688104820242524,-4.507988880607486
1763691415389052700,5.289052734375,0.6885942585796118,-8.729106108194589,-4.415756294851005
1763691415399001600,5.299001708984375,0.7626568352647125,-8.767594536542893,-4.3264337513223285
1763691415408949500,5.308949462890625,0.8080097425550222,-8.806592667979002,-4.2380937890902155
1763691415418898700,5.318898681640625,0.8171547336496412,-8.848904454007744,-4.14723249168694
1763691415428847600,5.32884765625,0.7940835085332393,-8.897835365915299,-4.045779073120653
1763691415438796500,5.338796630859375,0.7542034796960652,-8.955158843114972,-3.925136969959736
1763691415448745500,5.348745361328125,0.7096725563131272,-9.018003714084625,-3.787129890500009
1763691415458694700,5.358694580078125,0.6690333066064864,-9.081540074449777,-3.639836804039776
1763691415468643600,5.3686435546875,0.6357680197339505,-9.139297266891598,-3.498491812328994
1763691415478592500,5.378592529296875,0.6014463556762785,-9.188516932612657,-3.373398867239058
1763691415488541700,5.388541748046875,0.5570751528996974,-9.228622733029722,-3.269954274855554
1763691415498490600,5.39849072265625,0.49966264570970087,-9.25990108386874,-3.189823922564089
1763691415508439600,5.408439453125,0.43201066671926525,-9.281710764616728,-3.1358608617082235
1763691415518388500,5.418388427734375,0.3600964637070894,-9.296784415107965,-3.10008782979846
1763691415528337700,5.428337646484375,0.2836839994275942,-9.309633375287055,-3.0693066148266195
1763691415538286600,5.43828662109375,0.19789306409116833,-9.321697907090186,-3.0392692039594054
1763691415548234800,5.44823486328125,0.10217983314469456,-9.332375952970981,-3.011094372093677
1763691415558183700,5.45818359375,-0.0010329348034611029,-9.340949720048904,-2.9861417171448466
1763691415568132600,5.468132568359375,-0.10695880191638134,-9.349694752040504,-2.9567104554772374
1763691415578081500,5.47808154296875,-0.21452687657121566,-9.358605203726887,-2.9224764697030183
1763691415588030500,5.488030517578125,-0.32389318715389814,-9.366423768523335,-2.8871406601667404
1763691415597979600,5.497979736328125,-0.42031628340277816,-9.37314577025473,-2.8526950774684545
1763691415607928600,5.507928466796875,-0.4808049101024866,-9.380165878149867,-2.8198788495376705
1763691415617877800,5.517877685546875,-0.5200581488108262,-9.389189142560959,-2.7826351605534554
1763691415627826700,5.52782666015625,-0.5368758299577981,-9.4033953625679,-2.730992067077756
1763691415637775600,5.537775634765625,-0.5139348801575601,-9.421202237415313,-2.6734271823376416
1763691415647724500,5.547724609375,-0.45678643073122943,-9.431920615306495,-2.6458734049797057
1763691415657673500,5.557673583984375,-0.3817666263865307,-9.433841354236007,-2.650902923579514
1763691415667622700,5.56762255859375,-0.31097528992444273,-9.431394545605778,-2.6687965999275445
1763691415677570600,5.577570556640625,-0.26411364030530676,-9.428640862983464,-2.6835379497244953
1763691415687519500,5.58751953125,-0.2471997322422452,-9.427327442297338,-2.689750832889974
1763691415697468400,5.597468505859375,-0.25164944166010245,-9.42725320801735,-2.68959973398149
1763691415707417600,5.60741748046875,-0.26092677216380833,-9.42596550629437,-2.693225231002271
1763691415717366800,5.61736669921875,-0.26500392194222655,-9.423127652519941,-2.702738617017865
1763691415727315700,5.627315673828125,-0.2614299907119013,-9.420235438209772,-2.713152459004521
1763691415737264600,5.6372646484375,-0.2536723623224534,-9.418679440939426,-2.719281755539775
1763691415747213600,5.647213623046875,-0.2478109046768397,-9.418622157794237,-2.7200223447740077
1763691415757162500,5.65716259765625,-0.24921222284212707,-9.418980469712615,-2.718651348681748
1763691415767111400,5.667111328125,-0.26035753917479887,-9.418826740455627,-2.7181428146377202
1763691415777060600,5.677060546875,-0.2797746987630613,-9.418474858278035,-2.717432328280806
1763691415787009800,5.687009765625,-0.3034019320607185,-9.418742569303513,-2.713969912867248
1763691415796957400,5.69695751953125,-0.3264250437190756,-9.42001624250114,-2.7068691409513352
1763691415806906600,5.70690673828125,-0.343832763181068,-9.422236256638168,-2.696967924661934
1763691415816855600,5.71685546875,-0.3524909206068143,-9.425276939508318,-2.6851976996302604
1763691415826804700,5.7268046875,-0.35447595694418993,-9.429196743300556,-2.6711387791395187
1763691415836753700,5.736753662109375,-0.3563004689576104,-9.433958258613943,-2.654028654384613
1763691415846702600,5.74670263671875,-0.3622969694260508,-9.438867657965421,-2.635697171141207
1763691415856651500,5.756651611328125,-0.37499618240352717,-9.44342166800797,-2.617550981336832
1763691415866600400,5.766600341796875,-0.3987402287475765,-9.44785818915069,-2.597961022464931
1763691415876549600,5.776549560546875,-0.4328196084819734,-9.452046288490294,-2.577182438330352
1763691415886498800,5.786498779296875,-0.47147283547054974,-9.45576618579626,-2.556677118179202
1763691415896447700,5.79644775390625,-0.5092929726358503,-9.459559732860326,-2.5352970610201355
1763691415906396700,5.806396728515625,-0.5447861646909267,-9.46399157782793,-2.5112667816132306
1763691415916345600,5.816345703125,-0.5798926955159753,-9.468949492496252,-2.4845707901284095
1763691415926294500,5.82629443359375,-0.6169760063067078,-9.473885779854655,-2.4566619157224894
1763691415936242700,5.83624267578125,-0.6557279809620231,-9.478848955219984,-2.427308687727153
1763691415946191600,5.846191650390625,-0.6914147958930581,-9.48474678108692,-2.3941420389235017
1763691415956140500,5.856140625,-0.7245512687541544,-9.491169507610797,-2.358625465992838
1763691415966089500,5.86608935546875,-0.7510843978274613,-9.499274488133192,-2.3173355703577396
1763691415976038700,5.87603857421875,-0.7725029603660106,-9.510805935972929,-2.2623425819322467
1763691415985987600,5.885987548828125,-0.8014224731191992,-9.525991814666986,-2.187143256302178
1763691415995936500,5.8959365234375,-0.8371303308382629,-9.544807574295998,-2.0895576190799474
1763691416005885700,5.9058857421875,-0.8805920175544917,-9.559862520086766,-2.0009940772250294
1763691416015834600,5.915834716796875,-0.9261467310272157,-9.569379705494642,-1.93381497644335
1763691416025783600,5.925783447265625,-0.9642283321402967,-9.576323825544119,-1.8800730109922588
1763691416035732500,5.935732421875,-1.0014834193013609,-9.579804068875312,-1.8424992132708429
1763691416045681700,5.945681640625,-1.0520355026699602,-9.578080898344517,-1.8231812032081185
1763691416055630600,5.955630615234375,-1.115889477616921,-9.572014145651458,-1.8170662274591625
1763691416065578800,5.965578857421875,-1.1798105264507233,-9.564538110682367,-1.8160547123290598
1763691416075527700,5.975527587890625,-1.2373003001280127,-9.556959784382581,-1.8176843593575058
1763691416085476600,5.9854765625,-1.2815399854794143,-9.549400162783265,-1.826747225126624
1763691416095425500,5.995425537109375,-1.2949239293180406,-9.542541967451571,-1.8529528027459978
1763691416105374500,6.00537451171875,-1.266695467568934,-9.539532848763466,-1.8876376010276377
1763691416115323600,6.01532373046875,-1.2016358431592582,-9.541287583476304,-1.9210076634489
1763691416125272600,6.0252724609375,-1.1218395451277494,-9.543954756858945,-1.9557028369940817
1763691416135221800,6.0352216796875,-1.0521596405062823,-9.54403600540161,-1.9936732328176496
1763691416145170700,6.045170654296875,-1.005148809941113,-9.541507363706826,-2.0297011162713168
1763691416155119600,6.05511962890625,-0.9764061881247907,-9.538574232864379,-2.0573292740397155
1763691416165068500,6.065068603515625,-0.9566417494688183,-9.536108135011792,-2.077943899784237
1763691416175017500,6.075017578125,-0.939725174524635,-9.534575518617034,-2.0926403875261546
1763691416184966700,6.084966552734375,-0.913434256709367,-9.535545824953914,-2.0998564563848077
1763691416194914600,6.09491455078125,-0.8700623671684413,-9.540892446678876,-2.0939875643514094
1763691416204863500,6.104863525390625,-0.8064869899671524,-9.55015594958663,-2.0771298069223763
1763691416214812400,6.1148125,-0.7209633272647857,-9.561734159177542,-2.0552010298393664
1763691416224761600,6.12476171875,-0.6154250505376607,-9.574835048291087,-2.0283385957464573
1763691416234710800,6.134710693359375,-0.49628436491563915,-9.588063947698473,-1.9982756120465694
1763691416244659700,6.14465966796875,-0.36478571750186384,-9.599901100486516,-1.9695735414363442
1763691416254608600,6.154608642578125,-0.21902113751685245,-9.608189036360383,-1.9506715648286044
1763691416264557600,6.1645576171875,-0.06555538117052055,-9.61097136055529,-1.9481575361810624
1763691416274506500,6.174506591796875,0.10639304865924641,-9.605581484210491,-1.9727881195686756
1763691416284455400,6.184455322265625,0.3155682072052732,-9.59321592363417,-2.0102236778631806
1763691416294404600,6.194404541015625,0.5570713535074144,-9.575419570180774,-2.042398100759089
1763691416304353800,6.204353759765625,0.7990554517269134,-9.554770749905705,-2.0586996856100854
1763691416314302700,6.214302734375,1.0091500814717262,-9.535622397321463,-2.0552144738428293
1763691416324250600,6.224250732421875,1.1747864146783946,-9.520638763201235,-2.036592044828832
1763691416334199600,6.234199462890625,1.2947408278360961,-9.509636892193555,-2.0151564580902455
1763691416344148200,6.244148193359375,1.3805644233331082,-9.501098780950903,-1.998385648292303
1763691416354097200,6.25409716796875,1.4410698915697633,-9.49405587670207,-1.9891240450806915
1763691416364046000,6.264046142578125,1.4803762121722102,-9.488062189245223,-1.9888548727504909
1763691416373995000,6.2739951171875,1.5075561877816914,-9.482153257462382,-1.9965978880926964
1763691416383944000,6.28394384765625,1.540351665185392,-9.472823703581094,-2.015767575725913
1763691416393893000,6.29389306640625,1.585188001255691,-9.4585467564255,-2.047796598801762
1763691416403842300,6.30384228515625,1.6425792829945682,-9.440233101099729,-2.086703252562135
1763691416413791200,6.313791259765625,1.712256338071823,-9.419244673606753,-2.125180574994534
1763691416423740200,6.323740234375,1.7883264551870524,-9.397380632323026,-2.159050988153368
1763691416433689000,6.333689208984375,1.8630678079165517,-9.377495782157778,-2.182183880329132
1763691416443638000,6.343637939453125,1.9357412683308124,-9.359014953571558,-2.1982081095434722
1763691416453587000,6.3535869140625,1.9981622147999702,-9.341449486264587,-2.2169892362505195
1763691416463535000,6.36353515625,2.0451813017368314,-9.32462051653862,-2.2447870514973998
1763691416473484000,6.373484130859375,2.0804490144729613,-9.308850700476764,-2.2775920273818073
1763691416483433200,6.38343310546875,2.1046872375421226,-9.295018574479222,-2.3115622476533053
1763691416493382100,6.393382080078125,2.1164478179626167,-9.284414762878418,-2.3432218528948723
1763691416503331000,6.4033310546875,2.115021438421309,-9.277516820058226,-2.371655774088204
1763691416513280300,6.4132802734375,2.1029116061717272,-9.274460355097055,-2.3942745792619884
1763691416523229200,6.423229248046875,2.0813760661900043,-9.275603679913281,-2.4086156776949763
1763691416533178000,6.43317822265625,2.0492389065645633,-9.281057853665947,-2.415156331510097
1763691416543127000,6.443126953125,2.0068381270781157,-9.289300781354308,-2.4190691210396587
1763691416553076000,6.453075927734375,1.956813428584486,-9.299324747240544,-2.4215381415016948
1763691416563025200,6.463025146484375,1.9008447269946336,-9.3121415587157,-2.416854075338691
1763691416572974000,6.47297412109375,1.8419734358310698,-9.328029448199272,-2.401124445156753
1763691416582922200,6.482922119140625,1.7864255900017916,-9.346616075247526,-2.370617224820703
1763691416592871200,6.49287109375,1.7379849458292125,-9.366715444946289,-2.3268925032541152
1763691416602820000,6.502820068359375,1.696784335912764,-9.387536699178815,-2.2727632920511067
1763691416612769000,6.51276904296875,1.6641021096251905,-9.408481872051954,-2.2094347292177376
1763691416622718200,6.52271826171875,1.638018258689344,-9.428666581946612,-2.141853769636899
1763691416632667100,6.532667236328125,1.614239762086421,-9.44756008298695,-2.0756258321002123
1763691416642616000,6.542615966796875,1.592307624002546,-9.466094103065133,-2.006989664378017
1763691416652565200,6.552565185546875,1.5739619661033153,-9.484359243074058,-1.9339054312057793
1763691416662514200,6.56251416015625,1.5558477788724003,-9.503321133175492,-1.8538083966620265
1763691416672463000,6.572463134765625,1.5344797044120728,-9.5232819711864,-1.7671558029949663
1763691416682412000,6.582412109375,1.5078203916758297,-9.543463173949718,-1.6790354748629033
1763691416692361200,6.592361328125,1.479059138224274,-9.56166109394133,-1.5991934379935264
1763691416702310100,6.60231005859375,1.4522900815032422,-9.576594459179043,-1.5329973568998276
1763691416712259000,6.612259033203125,1.4314331714354456,-9.587619711062311,-1.482882934296131
1763691416722207000,6.62220703125,1.4179730936206876,-9.594451018387078,-1.4512982939869166
1763691416732156200,6.63215625,1.409993785304576,-9.59774713732302,-1.43721555422917
1763691416742105300,6.642105224609375,1.3962433462411163,-9.600338322860003,-1.4333255610533058
1763691416752054300,6.65205419921875,1.3626137561008334,-9.605874914199113,-1.428579973961413
1763691416762003200,6.662003173828125,1.3037730062060058,-9.616604398006201,-1.411194977787882
1763691416771952000,6.6719521484375,1.2201796539790928,-9.633014850059151,-1.373528533346951
1763691416781901000,6.681901123046875,1.126219367647171,-9.653469024544954,-1.3086464574612677
1763691416791850000,6.69185009765625,1.0461563084382564,-9.67520388649106,-1.210934198184684
1763691416801799200,6.701799072265625,0.996608945132792,-9.696462947618961,-1.0750653728626667
1763691416811748000,6.711748046875,0.9933842109326273,-9.714459792080522,-0.9015833676569164
1763691416821697300,6.721697265625,1.0433073487479239,-9.726343706619739,-0.6929317763272672
1763691416831646200,6.731646240234375,1.1190486723002047,-9.731872114652395,-0.4569465897290036
1763691416841595100,6.74159521484375,1.1751665000371634,-9.733867087861896,-0.20295557164512573
1763691416851543300,6.751543212890625,1.2003778059221804,-9.732854695948959,0.03166424488406628
1763691416861492200,6.7614921875,1.177318198178336,-9.733022453731298,0.22929752552788704
1763691416871441200,6.771441162109375,1.1083843626838177,-9.735756847131253,0.39612080349680034
1763691416881390000,6.78139013671875,1.0125555060010403,-9.739024324494599,0.5445510407608002
1763691416891339000,6.791339111328125,0.9034756842095404,-9.740857969662546,0.6854324335478246
1763691416901288000,6.801287841796875,0.8033904121913016,-9.737360190674663,0.8418886312812566
1763691416911237000,6.811237060546875,0.7457585996948182,-9.723630940529704,1.0320945384033025
1763691416921186300,6.821186279296875,0.7230862377028912,-9.70351403517425,1.2203900087941437
1763691416931135200,6.83113525390625,0.6854291456121951,-9.688439800161122,1.3545099446222186
1763691416941084200,6.841084228515625,0.630564094415307,-9.68184230159223,1.4264225036665796
1763691416951033000,6.851033203125,0.5734162295108661,-9.678515202996135,1.4723852134183049
1763691416960982000,6.86098193359375,0.5107322847239673,-9.674278588339686,1.5224511207051574
1763691416970931000,6.870930908203125,0.43673188655488193,-9.667246205484867,1.5887142756856978
1763691416980879000,6.880879150390625,0.35002047537267206,-9.656922379869222,1.670841354752332
1763691416990828000,6.890828125,0.26071749506099146,-9.64292074252367,1.7653540142700075
1763691417000777200,6.900777099609375,0.17153485319335013,-9.625848611691593,1.8665468822039664
1763691417010726100,6.91072607421875,0.08523042450998909,-9.605855040454864,1.9724740851834415
1763691417020675000,6.920675048828125,0.007759447599665145,-9.583884031665324,2.078341666930169
1763691417030624300,6.930624267578125,-0.04665340456278063,-9.560497895380854,2.1829069339066742
1763691417040573200,6.9405732421875,-0.08165018226988613,-9.53629927366972,2.285329343635589
1763691417050522000,6.950522216796875,-0.09770610353043302,-9.513337500277162,2.378491611457616
1763691417060471000,6.960470947265625,-0.09367364227711222,-9.493172664126753,2.457906070564687
1763691417070420000,6.970419921875,-0.08388256269814447,-9.475314351353049,2.526217390246689
1763691417080369200,6.980369140625,-0.08170826913267373,-9.458843693545461,2.5872733319729564
1763691417090318000,6.990318115234375,-0.09520276980684138,-9.444827443152665,2.637530231787264
1763691417100267300,7.000267333984375,-0.12311980011975392,-9.433435111522675,2.6768527728721496
1763691417110216200,7.01021630859375,-0.16284346935143693,-9.42639220727384,2.699445420691371
1763691417120164000,7.0201640625,-0.21185119108855724,-9.422789214345812,2.70860370965898
1763691417130113000,7.030113037109375,-0.26727482601627706,-9.421094685387612,2.709598565915227
1763691417140062200,7.040062255859375,-0.3164505795303732,-9.418422251307964,2.7135940652921793
1763691417150011100,7.05001123046875,-0.3695208197323605,-9.412522087353468,2.727323315437138
1763691417159960000,7.0599599609375,-0.42757812763191755,-9.4059514767915,2.74146553029716
1763691417169909200,7.0699091796875,-0.48554326373599466,-9.3992183691442,2.7548700785323974
1763691417179858200,7.079858154296875,-0.5429750236157328,-9.392192416030168,2.7680855339363215
1763691417189807000,7.08980712890625,-0.6016889322604984,-9.38442821176946,2.78224323862642
1763691417199756000,7.099756103515625,-0.6620616409629583,-9.375220238441228,2.7995152759447692
1763691417209705200,7.109705322265625,-0.7242746437698602,-9.363902725613118,2.8219033411025998
1763691417219654100,7.119654052734375,-0.7886130412328988,-9.349353391256928,2.852728395216167
1763691417229603000,7.12960302734375,-0.8542004889089614,-9.32896643678844,2.900195664311945
1763691417239552300,7.13955224609375,-0.9197780727781355,-9.303010742276907,2.9628365371420977
1763691417249500200,7.149500244140625,-0.9928704161915928,-9.276000570276379,3.0233114641100167
1763691417259449300,7.159449462890625,-1.0715114067081362,-9.249165170320868,3.0781764422416686
1763691417269398300,7.169398193359375,-1.1484189244955778,-9.222228063556551,3.1308143919736144
1763691417279347200,7.17934716796875,-1.2223733646310866,-9.195462221705913,3.1811434802412983
1763691417289296100,7.189296142578125,-1.294422263406217,-9.169257520869374,3.2279382569029926
1763691417299245000,7.1992451171875,-1.3637246399521827,-9.144071641686558,3.27056773057878
1763691417309194000,7.209194091796875,-1.4270137475579976,-9.120200352233647,3.309980872556567
1763691417319143200,7.21914306640625,-1.4819621661894022,-9.098032359567284,3.3466368247807026
1763691417329092000,7.229092041015625,-1.5248535056717694,-9.077474140185117,3.3829984702333804
1763691417339041500,7.23904150390625,-1.5542423895023763,-9.058962331938742,3.419052072650194
1763691417348990500,7.248990478515625,-1.5759062320388852,-9.044847881868481,3.446394545345008
1763691417358939400,7.258939453125,-1.5899363648265599,-9.035418374744058,3.4646319205641745
1763691417368888300,7.268888427734375,-1.5931223013862967,-9.028802171474695,3.4803853700131175
1763691417378836500,7.27883642578125,-1.5882847982272505,-9.02394245648384,3.49517026669085
1763691417388785400,7.288785400390625,-1.5802045137546956,-9.020186318820715,3.5085026264727115
1763691417398734600,7.298734619140625,-1.5681354519069195,-9.01775120062828,3.5201585774749518
1763691417408683500,7.30868359375,-1.5509718433991073,-9.016180005788803,3.5317689357697963
1763691417418632400,7.318632568359375,-1.5293302126944064,-9.014868338668347,3.544529633143544
1763691417428581400,7.328581298828125,-1.4999055268980561,-9.014321810701489,3.5584696034297343
1763691417438530600,7.338530517578125,-1.4557153797768057,-9.015807665345072,3.5730239062219855
1763691417448479500,7.3484794921875,-1.3927245244652031,-9.019732729834317,3.5881960486516356
1763691417458428400,7.358428466796875,-1.3089195753142238,-9.025943274912237,3.6040918291807174
1763691417468377600,7.368377685546875,-1.2009903117973357,-9.03517170650661,3.618518121679127
1763691417478326500,7.378326416015625,-1.06315617775172,-9.048643182498216,3.6279631186336276
1763691417488275500,7.388275390625,-0.8842146650310605,-9.068992143043875,3.6251825480043887
1763691417498224400,7.398224365234375,-0.6545916704084723,-9.097243255016208,3.603061609350145
1763691417508172500,7.408172607421875,-0.38801589603964237,-9.130629976311326,3.55688350328207
1763691417518121500,7.41812158203125,-0.11604681125991045,-9.165379802653193,3.4860736447826026
1763691417528070400,7.4280703125,0.16421901375465095,-9.200378050798177,3.3906434320285914
1763691417538019300,7.438019287109375,0.4600089729743078,-9.233677093809842,3.2707787429809567
1763691417547968500,7.447968505859375,0.7498151085440069,-9.26270094372034,3.1321760357156396
1763691417557917700,7.457917724609375,1.017227224139124,-9.28271146609187,2.9944807986840605
1763691417567866600,7.46786669921875,1.26539724445194,-9.291647636741398,2.8695708089455962
1763691417577815600,7.477815673828125,1.5032622899800538,-9.290328955358266,2.7568790802672503
1763691417587764500,7.487764404296875,1.7320063098110257,-9.282061477750538,2.6483769122332332
1763691417597713400,7.49771337890625,1.951222184448689,-9.269610576978325,2.537214292818308
1763691417607662300,7.507662353515625,2.158988590441644,-9.253924347546697,2.4236413973912594
1763691417617611500,7.517611572265625,2.3541084269598125,-9.236080647820234,2.3072454073674975
1763691417627559400,7.527559326171875,2.5386507553622124,-9.216736480402947,2.18573075915575
1763691417637508400,7.53750830078125,2.7134467657759784,-9.196281136873363,2.058160610297322
1763691417647457300,7.547457275390625,2.8767186348736287,-9.175514243176579,1.924791565901786
1763691417657406500,7.557406494140625,3.024109044228494,-9.155889505252242,1.7874125552125275
1763691417667355600,7.567355712890625,3.1601614824891087,-9.13373671015501,1.6609056516714393
1763691417677304600,7.5773046875,3.2906641776680945,-9.105580290728806,1.558945598757267
1763691417687253500,7.58725341796875,3.417527639561891,-9.072650081029535,1.475782308510691
1763691417697202400,7.597202392578125,3.5373058193698523,-9.038480684924124,1.4013260563328862
1763691417707151400,7.6071513671875,3.6455361847251653,-9.006370559436082,1.3288146546125412
1763691417717100300,7.617100341796875,3.740132869264483,-8.978477174860238,1.2524990383036434
1763691417727049500,7.627049560546875,3.8206919683620333,-8.955703617516159,1.1696542394217102
1763691417736998700,7.63699853515625,3.8860581745028493,-8.938640839034319,1.0814955520406364
1763691417746947600,7.646947509765625,3.937182797062397,-8.926613716632128,0.9922416898339986
1763691417756896500,7.656896484375,3.976889953550696,-8.918041703119874,0.9073407621398568
1763691417766844400,7.666844482421875,4.005963195560872,-8.912570578232407,0.8299074669126421
1763691417776793600,7.676793701171875,4.022846233561634,-8.911047314187885,0.7618025565229356
1763691417786742500,7.686742431640625,4.024818702678382,-8.914743246096371,0.7060866606503725
1763691417796691500,7.69669140625,4.010215884569287,-8.92464796951711,0.6627338411360979
1763691417806640400,7.706640380859375,3.978909768940508,-8.940940348148345,0.6310656141966581
1763691417816589600,7.716589599609375,3.9325858246609564,-8.962737753936647,0.6119700877781957
1763691417826538500,7.72653857421875,3.874953135381639,-8.988194266754387,0.6061942443231121
1763691417836487400,7.7364873046875,3.8097488418042658,-9.015541123363375,0.6133693601168692
1763691417846436600,7.7464365234375,3.7400925372540947,-9.043480100646615,0.6305354528427124
1763691417856385500,7.756385498046875,3.667004504689574,-9.071616646328568,0.6551599718157202
1763691417866334500,7.76633447265625,3.5920492169484493,-9.099311293461918,0.6856465146899223
1763691417876283400,7.776283447265625,3.516283781868219,-9.126237878832221,0.7196738719761371
1763691417886231300,7.786231201171875,3.438508176009357,-9.152978586241602,0.7550146499484777
1763691417896180500,7.796180419921875,3.3561037413060664,-9.18037804982066,0.7922245097283274
1763691417906129400,7.80612939453125,3.268919378849864,-9.208182002547384,0.8330374355014413
1763691417916078600,7.81607861328125,3.182089821180701,-9.234974147883056,0.8717440366450697
1763691417926027500,7.826027587890625,3.103027974903583,-9.259505947071313,0.896186111723259
1763691417935976400,7.8359765625,3.0373274222418662,-9.280795987859367,0.9010170390110462
1763691417945925400,7.84592529296875,2.9899235737711187,-9.297357246559859,0.8887621722675859
1763691417955874600,7.85587451171875,2.9673265420377253,-9.307250864064693,0.8604859258539974
1763691417965823500,7.865823486328125,2.976907440331578,-9.308477775511145,0.8128053062684834
1763691417975772400,7.8757724609375,3.0051261113390324,-9.304485491004586,0.752431063196063
1763691417985721600,7.8857216796875,3.0230206644698976,-9.303145182311534,0.6951316244591027
1763691417995670500,7.89567041015625,3.0184520413801073,-9.30751915961206,0.655312751224637
1763691418005619500,7.905619384765625,2.9889895077913997,-9.317976840740442,0.6415932918213307
1763691418015567600,7.915567626953125,2.933128212098777,-9.334756710627675,0.6553294100984931
1763691418025516500,7.9255166015625,2.847103541071713,-9.358523955184221,0.6945576239634305
1763691418035465500,7.935465576171875,2.7234023426011205,-9.39108825418055,0.748955276844278
1763691418045414400,7.945414306640625,2.5524036786437034,-9.434643318268655,0.8019511731684208
1763691418055363300,7.95536328125,2.3412970223121343,-9.485361698114872,0.8465395988922566
1763691418065312500,7.9653125,2.12412551298365,-9.53245545772314,0.8892586505476385
1763691418075261700,7.97526171875,1.9452222133815287,-9.565528875285386,0.9418879055164754
1763691418085210600,7.985210693359375,1.8336181338094173,-9.581640636652708,1.0001954253174363
1763691418095159600,7.99515966796875,1.7785417048841714,-9.587806173545122,1.0397807820569722
1763691418105108500,8.0051083984375,1.7543069889463483,-9.592939444780349,1.0335924488108605
1763691418115057400,8.015057373046876,1.7321898496843873,-9.600273440930247,1.002324911626801
1763691418125006300,8.02500634765625,1.6817485332138835,-9.610455812248587,0.9905777752097695
1763691418134955500,8.03495556640625,1.5969005047507583,-9.62098597409129,1.0280779231730848
1763691418144903400,8.0449033203125,1.4992982086546718,-9.625281625458598,1.129789700414613
1763691418154852400,8.054852294921876,1.4172902259230613,-9.618707507765292,1.2814561065882444
1763691418164801300,8.06480126953125,1.3508733416855334,-9.606507951405645,1.4354573123849927
1763691418174750500,8.07475048828125,1.2718567958548663,-9.596842297437787,1.5663240185707807
1763691418184699600,8.08469970703125,1.1649878550458699,-9.591254268172383,1.6795869712658225
1763691418194648600,8.094648681640624,1.0455314545381813,-9.588445640492438,1.7717064520366488
1763691418204597500,8.104597412109374,0.9310969738457351,-9.58739817726612,1.839900282818824
1763691418214546400,8.11454638671875,0.8194380222812294,-9.588674773073196,1.885790511856228
1763691418224495400,8.124495361328124,0.7059029746465385,-9.592890344941615,1.9101082299023866
1763691418234444300,8.1344443359375,0.5986788637243211,-9.598434535065293,1.918860714548081
1763691418244393500,8.1443935546875,0.5039565069787204,-9.602903789433837,1.9237080084487794
1763691418254342700,8.1543427734375,0.42591684335619207,-9.605328970754146,1.9304459384016692
1763691418264291600,8.16429150390625,0.36496670009195803,-9.606681554406881,1.9362001180142163
1763691418274239500,8.174239501953124,0.3172851306583732,-9.607792145997285,1.9390826877132057
1763691418284188400,8.1841884765625,0.2782226104828529,-9.608871757927536,1.9397335528373718
1763691418294137600,8.1941376953125,0.2446319458471611,-9.609307226735353,1.942101451012492
1763691418304086500,8.20408642578125,0.2157973166321404,-9.608333413267134,1.9503247972175477
1763691418314035500,8.214035400390625,0.1817585611690767,-9.604607670742272,1.9720155277609823
1763691418323984400,8.223984375,0.13747552073313854,-9.597485271516442,2.0099103741303086
1763691418333933600,8.23393359375,0.09011418709671125,-9.590462825533747,2.04579490359053
1763691418343882200,8.24388232421875,0.03749295103754848,-9.583899813756346,2.0779408310443164
1763691418353831200,8.2538310546875,-0.02170979600350838,-9.575897124564648,2.1147415985666216
1763691418363780400,8.2637802734375,-0.0879894500277005,-9.565632335659862,2.159008025794476
1763691418373729500,8.2737294921875,-0.16037094175806269,-9.55380862687528,2.2066779778555032
1763691418383678500,8.283678466796875,-0.2383697436472401,-9.540816458833216,2.2553023080319163
1763691418393627400,8.29362744140625,-0.3214757507486269,-9.526297519615293,2.305796523733437
1763691418403575300,8.3035751953125,-0.40951406315304334,-9.509802311888336,2.3593070185162124
1763691418413524500,8.3135244140625,-0.5020969236519187,-9.49108884359002,2.4160925894469023
1763691418423473400,8.323473388671875,-0.598734283705987,-9.470776707923411,2.4731094849154354
1763691418433422300,8.33342236328125,-0.6968048183683305,-9.44994610134065,2.5265263100653885
1763691418443371300,8.343371337890625,-0.7937540573831647,-9.428998590379953,2.5757214258670804
1763691418453320200,8.3533203125,-0.8857044651973992,-9.407615026089548,2.6234844630390404
1763691418463269000,8.36326904296875,-0.9670271690785884,-9.386173009610175,2.671143747575581
1763691418473218600,8.373218505859375,-1.0349272045459599,-9.36544410983622,2.718046953047812
1763691418483167500,8.38316748046875,-1.0883251057997345,-9.345420143461228,2.765699223321676
1763691418493116400,8.393116455078125,-1.1265058564383537,-9.326342518025637,2.8143735301196573
1763691418503065300,8.4030654296875,-1.1510988112293183,-9.309594212320446,2.8595085568755865
1763691418513014300,8.41301416015625,-1.1645299552105366,-9.29718539712429,2.8942341255590316
1763691418522962400,8.42296240234375,-1.1702603155560791,-9.289963044655323,2.915036382830143
1763691418532911400,8.432911376953125,-1.1692224238757043,-9.28810192695856,2.9213775685504078
1763691418542860300,8.4428603515625,-1.159782687618211,-9.291469357565045,2.9144267264991996
1763691418552809200,8.452809326171876,-1.1405940760888158,-9.299262203398346,2.8970898072510956
1763691418562758400,8.46275830078125,-1.110523858930543,-9.310720001479982,2.871864765101671
1763691418572707300,8.472707275390626,-1.0735513881031422,-9.324962461844086,2.839534859383106
1763691418582656300,8.48265625,-1.0356943164609371,-9.340710066074132,2.8015757156059142
1763691418592605400,8.49260546875,-0.9917638431891799,-9.355748645251989,2.767083371156454
1763691418602554400,8.502554443359376,-0.9193122818972915,-9.367823698449135,2.751206003066897
1763691418612503300,8.51250341796875,-0.7995381937425583,-9.376375838217138,2.7594755265012383
1763691418622452200,8.5224521484375,-0.6322203371897339,-9.384164007875322,2.7763571031972765
1763691418632401400,8.5324013671875,-0.4270938512463122,-9.396582759943604,2.7734809632390736
1763691418642350300,8.542350341796874,-0.1933573751566,-9.418792838186025,2.723843656627834
1763691418652298500,8.552298583984374,0.060750729968305675,-9.451820078518987,2.6133845093071457
1763691418662247400,8.562247314453124,0.34228743343520907,-9.489010868272185,2.451911798585951
1763691418672196400,8.5721962890625,0.6677711046509445,-9.519813418293,2.257787110584974
1763691418682145300,8.582145263671874,1.027706459512189,-9.53532721376717,2.047368582648039
1763691418692094200,8.59209423828125,1.3851010438494384,-9.531015195786953,1.8470567304447292
1763691418702043400,8.60204345703125,1.7109006856791673,-9.507086623188853,1.6907058927819132
1763691418711992300,8.611992431640624,2.001716984672099,-9.46654652300775,1.5962532928884028
1763691418721941500,8.62194140625,2.2651883267521855,-9.414013787215948,1.5542339139349757
1763691418731890400,8.631890380859375,2.504535719792545,-9.355841584232449,1.538146848617494
1763691418741839400,8.64183935546875,2.721439225834608,-9.297750045269726,1.5218421950265764
1763691418751788300,8.651788330078125,2.9191920412048695,-9.244114316672086,1.4815768201336263
1763691418761737500,8.661737548828125,3.096433691205084,-9.198390676373243,1.404309309927374
1763691418771686400,8.671686279296875,3.253227596460283,-9.159857239839434,1.2976464861497283
1763691418781634300,8.68163427734375,3.3928912109553813,-9.124750270622968,1.1822028284147381
1763691418791583200,8.691583251953125,3.5205972611531613,-9.089914519563317,1.0720170912079512
1763691418801532200,8.7015322265625,3.6413673746079205,-9.053357936060427,0.9734086137440056
1763691418811481300,8.7114814453125,3.7555598632380365,-9.014821576917171,0.8939495848428457
1763691418821430500,8.721430419921875,3.858844004362821,-8.976528378880024,0.8376452946230769
1763691418831379500,8.73137939453125,3.946415904831886,-8.942017037469148,0.7978074244271963
1763691418841328400,8.741328369140625,4.016499494883418,-8.914108455324172,0.7594589160062373
1763691418851277300,8.75127734375,4.068412637472153,-8.894759611731768,0.708270945886895
1763691418861226200,8.761226318359375,4.103572505919635,-8.882775743949413,0.6537259204246103
1763691418871175200,8.771175048828125,4.122869327063858,-8.877285914361476,0.6050812415799126
1763691418881124400,8.781124267578125,4.126273874810337,-8.878374294120073,0.5645523569125682
1763691418891073500,8.791073486328125,4.117621781799197,-8.884444553944467,0.5312546656077728
1763691418901021200,8.801021240234375,4.100615409679711,-8.893713317549228,0.5071477773007005
1763691418910970400,8.810970458984375,4.075761831191182,-8.905734594732522,0.49643100684471425
1763691418920919300,8.820919189453125,4.041357457286119,-8.921253066381812,0.49905298937875775
1763691418930868500,8.830868408203125,3.996621658980846,-8.940607755193113,0.5127723391842097
1763691418940817400,8.8408173828125,3.9418274079978466,-8.96364843904078,0.5341987562356516
1763691418950766300,8.850766357421875,3.877347921563685,-8.990239508846402,0.5586895658263936
1763691418960715300,8.86071533203125,3.8024075391307472,-9.020785453757643,0.5809598498234525
1763691418970664200,8.870664306640625,3.7160958678558464,-9.055619451251625,0.5973031914569437
1763691418980613400,8.88061328125,3.620544951331615,-9.093540308845043,0.6079123002873733
1763691418990562600,8.8905625,3.5203196132555603,-9.132379450327157,0.6143198657747357
1763691419000511500,8.900511474609376,3.4192809129700064,-9.170340639930963,0.6194829476263374
1763691419010460400,8.91046044921875,3.3192794467777014,-9.206578074482083,0.6258564281810075
1763691419020409300,8.920409423828126,3.224162830017507,-9.239959535080194,0.6311223128199577
1763691419030357200,8.930357177734376,3.138037328964472,-9.269424114495516,0.6331485579505562
1763691419040306400,8.940306396484376,3.0617960930660364,-9.294564985492825,0.6378452643994241
1763691419050255400,8.95025537109375,3.0001337098792193,-9.313399449822306,0.6558712618902325
1763691419060204300,8.960204345703126,2.9653078956916925,-9.322046282136439,0.6904981194395572
1763691419070153200,8.9701533203125,2.967925969235599,-9.318301834911107,0.7287396603547036
1763691419080102400,8.980102294921876,3.005675561915338,-9.303848946666717,0.758082951477915
1763691419090051300,8.99005126953125,3.056726534716785,-9.285411372700333,0.7797136954624205
1763691419100000300,9.000000244140624,3.091967359445989,-9.272042772561312,0.7995924081478267
1763691419109949400,9.009949462890624,3.0908626130744814,-9.270559840527177,0.8207686132978648
1763691419119898400,9.0198984375,3.048488575464487,-9.282233327186107,0.8469097473789006
1763691419129847300,9.029847412109374,2.9690520506560802,-9.304910438418387,0.8796249260880052
1763691419139796200,9.039796142578124,2.8510706911370156,-9.338875251862406,0.9094956751514226
1763691419149745400,9.049745361328124,2.69407600261271,-9.382850587189196,0.9351176807291806
1763691419159693300,9.059693359375,2.5118250000178812,-9.430089308226108,0.9667156189113855
1763691419169642500,9.069642578125,2.333777002070844,-9.471552368471025,1.0067650129660963
1763691419179591400,9.07959130859375,2.187893344017118,-9.501674535012244,1.0496154359161853
1763691419189540400,9.089540283203124,2.0750641065642235,-9.523639698582887,1.0792528876803815
1763691419199489300,9.0994892578125,1.9896850399643182,-9.541616669300199,1.081254509826377
1763691419209438200,9.109438232421875,1.9286784903377294,-9.556544189319014,1.0597510454833508
1763691419219387400,9.119387451171875,1.874002605037391,-9.570431260374187,1.0321607355073095
1763691419229336300,9.12933642578125,1.799155599976331,-9.585870821568369,1.0220138738937676
1763691419239285500,9.139285400390625,1.6952563956931233,-9.602792145752906,1.0406081727918237
1763691419249234400,9.149234375,1.5736137371875345,-9.61783657014966,1.0914745828066021
1763691419259183400,9.159183349609375,1.4511337510749698,-9.627300564065575,1.174592061150074
1763691419269132300,9.16913232421875,1.3373431212440132,-9.630894789165257,1.2758373899236322
1763691419279080400,9.17908056640625,1.2254369899854063,-9.631572834557295,1.3789470512643456
1763691419289029400,9.189029296875,1.1074388254620133,-9.6311531478405,1.478122734156996
1763691419298978300,9.198978271484375,0.9817418500643222,-9.630599605610966,1.5678433370925484
1763691419308927200,9.20892724609375,0.8505247230056673,-9.630582654476164,1.6428202521435915
1763691419318876200,9.218876220703125,0.7160087005320936,-9.632018824759125,1.6976276548691094
1763691419328825300,9.228825439453125,0.5807947589222341,-9.635209729754925,1.7308379966840146
1763691419338774500,9.2387744140625,0.4503401406686753,-9.63915291442275,1.7476650667138396
1763691419348723700,9.2487236328125,0.33178229643590745,-9.642204703208803,1.75732969776839
1763691419358672600,9.258672607421875,0.22943737238999454,-9.64396469861865,1.7640020151391624
1763691419368621600,9.26862158203125,0.1476370501928497,-9.644754972213507,1.7684176396243274
1763691419378570500,9.278570556640625,0.08774627065528183,-9.64476607812941,1.7723397815041242
1763691419388519400,9.28851953125,0.042190844796504826,-9.644456866049765,1.7756854386702179
1763691419398468600,9.298468505859375,0.005106894684955478,-9.643658993670345,1.7805109591305255
1763691419408416500,9.30841650390625,-0.027599717125203458,-9.641721888127922,1.790767564728856
1763691419418365700,9.31836572265625,-0.060233829954732206,-9.638130585637688,1.8092048464342951
1763691419428314600,9.328314697265625,-0.09685621783598325,-9.632636079874635,1.836666123203188
1763691419438263600,9.338263671875,-0.13897975128362886,-9.62520154595971,1.872590692412853
1763691419448212700,9.348212646484376,-0.18649048506179824,-9.61593395139873,1.9155726327881215
1763691419458161700,9.35816162109375,-0.23861803758619352,-9.605288638743758,1.9626181693404912
1763691419468110600,9.368110595703126,-0.29438610203741117,-9.593877017891407,2.0102825684435666
1763691419478059500,9.3780595703125,-0.35385282007716595,-9.582014146140217,2.056741975671053
1763691419488008400,9.388008544921876,-0.4182823298897594,-9.569462123081088,2.1025759444765746
1763691419497957600,9.39795751953125,-0.48861488973367956,-9.555565115153788,2.1500744854934513
1763691419507906600,9.407906494140626,-0.5647665476525202,-9.539496608406305,2.2021416496001183
1763691419517855700,9.417855712890624,-0.646272462613508,-9.52039034139812,2.2616068150036037
1763691419527803600,9.4278037109375,-0.732917019104585,-9.498107782441377,2.3279092790812252
1763691419537752600,9.437752685546876,-0.824310669818893,-9.472847668978572,2.399181348264962
1763691419547701500,9.447701416015626,-0.9176466137073933,-9.444378530341385,2.4762980518236755
1763691419557650700,9.457650634765624,-1.0108580544333905,-9.412876307618617,2.5585727226674555
1763691419567599600,9.467599609375,-1.1041253900650887,-9.379116661357878,2.6426214174464344
1763691419577548500,9.477548583984374,-1.194907777013257,-9.344153484526275,2.72568753092885
1763691419587497700,9.487497802734374,-1.2801404939450323,-9.309575507619977,2.8041771302759644
1763691419597446700,9.49744677734375,-1.356483144391328,-9.276977306354045,2.8754224575832485
1763691419607395600,9.5073955078125,-1.4189175348639487,-9.247412189173698,2.939803744339943
1763691419617344500,9.517344482421874,-1.4632644799821077,-9.221803700664639,2.9979329849645495
1763691419627293700,9.527293701171875,-1.4897760548107326,-9.200219645366072,3.0507223258659244
1763691419637242600,9.53724267578125,-1.502091638765484,-9.182075501388312,3.098963501943648
1763691419647191600,9.547191650390625,-1.5048267628178,-9.16710005057454,3.1416815306857226
1763691419657139500,9.557139404296874,-1.501619637339562,-9.155515995764732,3.1767960986867547
1763691419667088400,9.56708837890625,-1.4949940817199647,-9.14714271969497,3.203923467326164
1763691419677037800,9.577037841796875,-1.4869674271307884,-9.141132665625214,3.224750274516642
1763691419686986800,9.58698681640625,-1.4797871602378785,-9.136960932898521,3.2398367844894524
1763691419696935700,9.596935791015625,-1.4715570920310914,-9.133021839883924,3.254657337002456
1763691419706884600,9.606884521484375,-1.4560554253861306,-9.128116532185674,3.2753295381531116
1763691419716833500,9.61683349609375,-1.4338158287882805,-9.120985949653386,3.304871274457872
1763691419726782500,9.626782470703125,-1.4063706263713538,-9.11208309675157,3.3410221997693177
1763691419736731600,9.636731689453125,-1.3708759730115532,-9.103625649529695,3.378623908410966
1763691419746680600,9.6466806640625,-1.3175507716678083,-9.097957540765405,3.4149110273227095
1763691419756629800,9.656629638671875,-1.2389014517143369,-9.095458709686994,3.450821129615605
1763691419766578700,9.66657861328125,-1.1334826366484165,-9.096325555649399,3.484605033534765
1763691419776526600,9.676526611328125,-0.9998609326660632,-9.101408558002113,3.512125200884044
1763691419786475800,9.686475830078125,-0.8288905449550599,-9.112230980789661,3.52853536067605
1763691419796424700,9.6964248046875,-0.6074105613103136,-9.130356420066953,3.5267610444799065
1763691419806373600,9.70637353515625,-0.3364636591851711,-9.154956608316303,3.4991347864076494
1763691419816322600,9.716322509765625,-0.03928208577691111,-9.182827781060338,3.4415859760195016
1763691419826271500,9.726271484375,0.2642912070956081,-9.212983849871158,3.349843219606578
1763691419836220400,9.736220458984375,0.575635659126006,-9.244185043820739,3.2224288458317516
1763691419846169600,9.746169677734375,0.890059737797454,-9.273048150211572,3.0641064158350226
1763691419856118800,9.756118896484375,1.1875651591654866,-9.295235432100295,2.8911349904999137
1763691419866067700,9.766067626953125,1.4552141522563993,-9.308739056795835,2.7203157747626303
1763691419876016600,9.7760166015625,1.6923671039924024,-9.315106253740192,2.556380473320186
1763691419885965600,9.785965576171876,1.9030676637411117,-9.316558206114172,2.398014350312203
1763691419895913700,9.795913818359375,2.0879345479227602,-9.314988764840363,2.2454215500086545
1763691419905862700,9.805862548828125,2.2520262089706957,-9.311427272966503,2.096683963828534
1763691419915811600,9.8158115234375,2.4046150637514887,-9.305675577571987,1.947461516740918
1763691419925760500,9.825760498046876,2.551563428427279,-9.296969708546996,1.7961831600368021
1763691419935709700,9.835709716796876,2.6967548664331433,-9.283678265297413,1.6465798969380556
1763691419945658600,9.84565869140625,2.8427698957815766,-9.263954158651828,1.506060980787873
1763691419955607600,9.855607666015626,2.99076060911715,-9.236747587296366,1.3813900605022906
1763691419965556700,9.865556640625,3.137606244070828,-9.20328254006803,1.2749125301636755
1763691419975505700,9.875505615234376,3.2788696949779985,-9.16583222259581,1.1861373183194548
1763691419985454600,9.88545458984375,3.4070696661725637,-9.128416391915083,1.1109777401778846
1763691419995403500,9.895403564453124,3.5173218927443024,-9.094568482849,1.0429042478397488
1763691420005352400,9.9053525390625,3.612332126520574,-9.06497297053039,0.973498922375962
1763691420015301600,9.915301513671874,3.696127431060374,-9.038958823829889,0.8979112550154328
1763691420025249800,9.925249755859374,3.7719349517166614,-9.015387978628278,0.8158838369309902
1763691420035198700,9.93519873046875,3.8412101479947567,-8.993458470892906,0.7301971656866372
1763691420045147600,9.945147705078124,3.905335414163768,-8.972184796717762,0.647022769524157
1763691420055096600,9.9550966796875,3.964623761695623,-8.951167143130302,0.5733702349446713
1763691420065045500,9.96504541015625,4.0183322632685305,-8.930772589877247,0.5144762570252642
1763691420074994700,9.97499462890625,4.063308592331409,-8.91269683496058,0.4730251794790849
1763691420084943600,9.984943603515624,4.095631191526353,-8.899196717396379,0.44776937686521556
1763691420094892500,9.994892578125,4.111254584854841,-8.892655917450785,0.4343489734737202
1763691420104841700,10.004841796875,4.10600645506829,-8.895417198857665,0.4273754081340506
1763691420114790700,10.014790771484375,4.080473077622056,-8.907343783494829,0.42350331594105806
1763691420124739600,10.024739501953125,4.037568586397171,-8.926842264690995,0.42416093959957357
1763691420134688500,10.0346884765625,3.980980437734723,-8.95184343495667,0.4320758409099653
1763691420144636700,10.04463671875,3.9143203923910854,-8.980532938346267,0.4455579844260588
1763691420154585600,10.054585693359375,3.8402836807996032,-9.011720688292383,0.45990595099125053
1763691420164534500,10.064534423828125,3.761152276417613,-9.044427026107908,0.47164702299367633
1763691420174483500,10.0744833984375,3.6790924173682926,-9.077585783866047,0.4817489129543304
1763691420184432400,10.084432373046875,3.5955811904668806,-9.11029153715968,0.4947444785298779
1763691420194381800,10.0943818359375,3.508838726559281,-9.143022424894571,0.5134102717615664
1763691420204330800,10.104330810546875,3.4182667674914002,-9.176199887353182,0.5321533680131658
1763691420214279700,10.11427978515625,3.3279224796995517,-9.208650204581021,0.5441234629984945
1763691420224228600,10.124228515625,3.2443858260959386,-9.238105431646108,0.5493218353591859
1763691420234177500,10.134177490234375,3.1728593437597152,-9.262827784970403,0.5507790118975564
1763691420244126500,10.14412646484375,3.117942343179881,-9.281550605618953,0.5492335725538432
1763691420254075600,10.15407568359375,3.0891669150725005,-9.291312705698608,0.5467540306977927
1763691420264023600,10.1640234375,3.089981446325779,-9.291193463233112,0.5441763987621292
1763691420273972500,10.173972412109375,3.1039824991494416,-9.286713687470554,0.5409333982529119
1763691420283921700,10.183921630859375,3.108661304615438,-9.285122034364939,0.541399956318736
1763691420293870600,10.19387060546875,3.0887367069616913,-9.291064283895492,0.5533743986856192
1763691420303819800,10.20381982421875,3.0392405623868104,-9.305368119058013,0.5861229316750541
1763691420313768700,10.213768798828125,2.9586592514574526,-9.328155120405555,0.6342203519005328
1763691420323717600,10.223717529296875,2.835195076613128,-9.363360289299488,0.6778887401700019
1763691420333666600,10.23366650390625,2.669508547589183,-9.409302540785074,0.7135254323489963
1763691420343615200,10.243615234375,2.4933053007259964,-9.454584867057203,0.7514266353938728
1763691420353564200,10.253564208984375,2.3506840054690836,-9.487749470034242,0.7920094787381589
1763691420363513300,10.263513427734376,2.252581212504953,-9.508422255706787,0.8283557074259966
1763691420373462300,10.273462158203126,2.1785751883126796,-9.523730299475789,0.8501523825619369
1763691420383410200,10.28341015625,2.119354645320028,-9.537340307155251,0.8472729546681046
1763691420393359000,10.293359130859375,2.0599464708007873,-9.552254967692495,0.8254786176197231
1763691420403308000,10.30330810546875,1.9798042819410562,-9.570362871313094,0.8117462987348437
1763691420413257500,10.313257568359376,1.876907240437716,-9.589473814496397,0.8304327328957617
1763691420423206400,10.323206298828126,1.759595889134705,-9.607042788934708,0.8825879406120628
1763691420433155300,10.3331552734375,1.6368366476893423,-9.621094695162773,0.9621358168404549
1763691420443104300,10.343104248046876,1.5211480752825737,-9.629607671964168,1.0616833287201821
1763691420453053200,10.35305322265625,1.415657071763277,-9.63381739861369,1.1644134161587805
1763691420463002000,10.363002197265626,1.3011511332698165,-9.637676996651292,1.261964493524283
1763691420472951300,10.372951416015624,1.1625447727426885,-9.642615622097253,1.356033354797214
1763691420482900500,10.382900390625,1.004963735697791,-9.647285367473959,1.4457863986976445
1763691420492849400,10.392849365234374,0.84270287027359,-9.650237787538765,1.5274609116911888
1763691420502797300,10.40279736328125,0.6824900964856148,-9.651903090402483,1.5954235640659928
1763691420512746200,10.412746337890624,0.5280547370553016,-9.653156889855861,1.6456301949977874
1763691420522695400,10.4226953125,0.3849006135633215,-9.654543960300087,1.676908838097751
1763691420532644400,10.432644287109374,0.2637672745530493,-9.65591758674085,1.6923564364679158
1763691420542593300,10.44259326171875,0.17195448511121794,-9.656789693400263,1.6991837982699274
1763691420552542200,10.452542236328124,0.10759951097271404,-9.65673942451775,1.7047605754889548
1763691420562491100,10.4624912109375,0.0652777378394967,-9.655451722794771,1.714161733301729
1763691420572440300,10.4724404296875,0.03447323104032548,-9.653425185403227,1.7264350855499504
1763691420582389200,10.48238916015625,0.005842518908058991,-9.650718264532088,1.7418363605603575
1763691420592338400,10.49233837890625,-0.02688090133136138,-9.64702291714549,1.761990675316751
1763691420602287400,10.502287353515625,-0.06720817617911379,-9.641678048986195,1.7899520105622708
1763691420612236300,10.512236328125,-0.11707812706902622,-9.634044777628779,1.8280678062058984
1763691420622184200,10.52218408203125,-0.1771561636738479,-9.624030748614668,1.875367755910754
1763691420632133000,10.532133056640625,-0.24458891042303293,-9.611882630181311,1.9293235102429984
1763691420642082300,10.542082275390625,-0.31769710899274795,-9.597849428653717,1.9876481273092328
1763691420652031200,10.55203125,-0.3955049000881612,-9.5827179104954,2.045846633777767
1763691420661980200,10.561980224609375,-0.47896520051993424,-9.566916530251502,2.1012145929954946
1763691420671929300,10.571929443359375,-0.5689118672963231,-9.549877717167139,2.1555868191741405
1763691420681878300,10.581878173828125,-0.666410629952699,-9.53101987196207,2.210423594124615
1763691420691827200,10.5918271484375,-0.7714213026091455,-9.509254614877701,2.2692269346185028
1763691420701776400,10.6017763671875,-0.8801583753775805,-9.483866491121054,2.3349502836339173
1763691420711725300,10.611725341796875,-0.9873996566303074,-9.454252274101972,2.4109242468982934
1763691420721674200,10.62167431640625,-1.0911437434170395,-9.419978833100199,2.4987550905644893
1763691420731623200,10.631623046875,-1.1927938535992055,-9.381641211399435,2.5946900379702447
1763691420741572400,10.641572265625,-1.2894661023035645,-9.340894774991273,2.6935750673532484
1763691420751520300,10.651520263671875,-1.3767397504784167,-9.299750279176235,2.7909859325304627
1763691420761469400,10.661469482421875,-1.450602859068662,-9.260397342953086,2.8829139823824166
1763691420771418400,10.67141845703125,-1.5082384709574281,-9.224614081910252,2.9668390507817266
1763691420781367300,10.6813671875,-1.551046516070515,-9.193160374504327,3.0414550235658884
1763691420791316200,10.691316162109375,-1.5826752877824009,-9.165930422273277,3.106644704096019
1763691420801265200,10.70126513671875,-1.6040804793827235,-9.142832455280423,3.1632188242331147
1763691420811214300,10.71121435546875,-1.6149107932157813,-9.123493548560141,3.213153067964315
1763691420821163300,10.721163330078125,-1.6169181875154375,-9.108152187043428,3.25538652805984
1763691420831112400,10.731112548828126,-1.6157409604296087,-9.097409843754768,3.285866421997547
1763691420841061400,10.741061279296876,-1.6176676907084881,-9.090424222651123,3.304197320719063
1763691420851010300,10.75101025390625,-1.6185301527567206,-9.085770843887328,3.3165523599013684
1763691420860958500,10.76095849609375,-1.6101785039968788,-9.08192468985319,3.3311236138284204
1763691420870907400,10.770907470703126,-1.5954739790789783,-9.077664109799265,3.349761386542022
1763691420880856300,10.780856201171876,-1.5787576759472488,-9.073601682665943,3.3686300454020497
1763691420890805200,10.79080517578125,-1.5477653024427591,-9.072972737112641,3.384667280228436
1763691420900754200,10.800754150390626,-1.486598886079341,-9.077612671872973,3.3996082442507145
1763691420910703000,10.810703125,-1.3959348648138343,-9.086524292603135,3.41421047783792
1763691420920652000,10.820652099609376,-1.279263857240975,-9.099441057321428,3.4255005181372162
1763691420930601500,10.8306015625,-1.122277132827416,-9.11901961801648,3.428464920900762
1763691420940550400,10.84055029296875,-0.9044072659712284,-9.147877463710307,3.4159567369833588
1763691420950499300,10.850499267578124,-0.6232230840027332,-9.18312062652707,3.384118706434965
1763691420960448300,10.8604482421875,-0.3061650400985032,-9.21965908985138,3.327840062113106
1763691420970397200,10.870397216796874,0.014619653937820111,-9.254299610599874,3.2447029292210936
1763691420980345300,10.880345458984374,0.34537232077326624,-9.286202230817079,3.1332989022657274
1763691420990294300,10.890294189453124,0.6903435133997351,-9.314262204131483,2.989705254845321
1763691421000243200,10.9002431640625,1.0258916651751846,-9.334572586232424,2.8255428666487337
1763691421010192100,10.910192138671874,1.334781892453879,-9.342996715706587,2.6640496976613997
1763691421020141300,10.920141357421874,1.6143459989398716,-9.340323697105049,2.514480775223672
1763691421030090200,10.93009033203125,1.868896514070034,-9.330095733079313,2.372113308597356
1763691421040039400,10.940039306640625,2.1028078535363077,-9.3152021153301,2.230606112062186
1763691421049988400,10.94998828125,2.3160569287240502,-9.297413360661269,2.089112505660951
1763691421059937300,10.959937255859375,2.5105977963104844,-9.278372560104728,1.9439887260638176
1763691421069886200,10.96988623046875,2.691115691502392,-9.258274359449743,1.792389174581319
1763691421079835100,10.979835205078125,2.86304549883008,-9.235663883712887,1.6358070123806594
1763691421089784300,10.989784423828125,3.0289257968604564,-9.209430541303753,1.477285114289075
1763691421099732200,10.999732177734375,3.1913635532215237,-9.178388921830058,1.3201412265524268
1763691421109681400,11.009681396484375,3.3478000233411787,-9.142712628293037,1.1719364320747554
1763691421119630300,11.01963037109375,3.492087790505588,-9.104282067611813,1.0429543705917894
1763691421129579300,11.029579345703125,3.624443127813935,-9.063879330074787,0.9380245080865919
1763691421139528200,11.039528076171875,3.7495883876129983,-9.02147869671881,0.8508271400183439
1763691421149477000,11.04947705078125,3.868402690824866,-8.978273761242628,0.772304149858281
1763691421159426300,11.05942626953125,3.979444021947682,-8.935786034125089,0.6972417484808713
1763691421169375200,11.069375244140625,4.081272703567147,-8.895501370009779,0.6193937349729239
1763691421179324400,11.079324462890625,4.172148614017665,-8.858588228154183,0.5375796673782169
1763691421189273300,11.0892734375,4.2507331981718535,-8.82569192072451,0.4569616777002811
1763691421199222300,11.09922216796875,4.317171417458355,-8.79682296911478,0.3851043194418773
1763691421209171200,11.109171142578125,4.372034934285283,-8.77197903523743,0.32875414425376803
1763691421219119400,11.119119384765625,4.413945153775811,-8.752307535561918,0.2908509501812048
1763691421229068300,11.129068359375,4.439361626844108,-8.740111486333609,0.2700135485314764
1763691421239017200,11.139017333984375,4.4444273858010765,-8.73779619512856,0.26150208783373236
1763691421248966100,11.148966064453125,4.426578717638552,-8.746827058324218,0.2623332962271757
1763691421258915000,11.1589150390625,4.386926213946938,-8.766462317642569,0.27276244538081806
1763691421268864300,11.1688642578125,4.32880048045367,-8.79467777377963,0.2924399364056997
1763691421278813400,11.1788134765625,4.25523401672244,-8.829525799798965,0.32071017320360984
1763691421288762400,11.188762451171876,4.16924880092293,-8.869159891051053,0.3546337047891691
1763691421298711300,11.198711181640626,4.07665235029012,-8.910555146756767,0.3915458967966959
1763691421308660200,11.20866015625,3.98274832419008,-8.95122617984116,0.4285283410288393
1763691421318609200,11.218609130859376,3.8888609569638963,-8.990579116064309,0.4654403503732755
1763691421328557300,11.228557373046876,3.7874072461366652,-9.03155293148756,0.5069386645946652
1763691421338506200,11.23850634765625,3.6712352741271257,-9.076613723963499,0.554526673993282
1763691421348455000,11.248454833984376,3.545904428628087,-9.123457892724872,0.5995566694721579
1763691421358403800,11.25840380859375,3.424132444654405,-9.167591048961878,0.6332203080125153
1763691421368353000,11.26835302734375,3.318578020510077,-9.204826262378692,0.6546664892103523
1763691421378302200,11.27830224609375,3.239529618236422,-9.231953338757156,0.6684803488988429
1763691421388251100,11.288251220703126,3.1988480637580152,-9.245568022611737,0.6761820823825896
1763691421398200000,11.298199951171876,3.202879218970239,-9.244505946338176,0.6716138976842164
1763691421408149000,11.30814892578125,3.2299136486291884,-9.236198136720061,0.6562757510378956
1763691421418098000,11.318097900390624,3.2457603293195363,-9.231710762172938,0.6410457409411668
1763691421428046800,11.328046875,3.2322686873227355,-9.236840526276826,0.6352895155020057
1763691421437996000,11.33799609375,3.188331638179719,-9.250997646445036,0.6511392649322748
1763691421447944000,11.34794384765625,3.109974140779674,-9.275077610212564,0.6865691094275563
1763691421457893000,11.35789306640625,2.975876051457226,-9.316054348245263,0.725035983531177
1763691421467842000,11.367842041015624,2.78531168628633,-9.371217432540655,0.7698674972958862
1763691421477791000,11.377791015625,2.5879244893580675,-9.422676401621104,0.8283688591685145
1763691421487740200,11.387740234375,2.439220220925659,-9.456768640837073,0.8888756425794213
1763691421497689000,11.397689208984374,2.348286881199479,-9.474298452308773,0.9453181722261011
1763691421507638000,11.407637939453124,2.2889571787439285,-9.484947856616973,0.9832807500693946
1763691421517587000,11.4175869140625,2.24686166581437,-9.495178743252158,0.9816144242923707
1763691421527535900,11.427535888671875,2.2001361549966036,-9.509543953213095,0.9478175878264009
1763691421537485000,11.437485107421875,2.127499811722338,-9.528850711229444,0.9193035871341824
1763691421547434000,11.44743408203125,2.026843096491694,-9.550147181758284,0.9257379310306161
1763691421557382100,11.457382080078125,1.9065009991906583,-9.569995791566372,0.9750914522644132
1763691421567331000,11.4673310546875,1.7821571189023553,-9.583344517961145,1.0741551261499525
1763691421577280000,11.477280029296875,1.6718788811065255,-9.586651158291101,1.2129754216887056
1763691421587229000,11.48722900390625,1.5793449743159114,-9.582627309602499,1.3598947064004838
1763691421597177900,11.497177734375,1.481964796537906,-9.577613865354657,1.497829451276362
1763691421607127000,11.507126953125,1.3617017558224498,-9.575191606643795,1.6222976885966955
1763691421617076000,11.517075927734375,1.224538579840958,-9.575523030555248,1.7263367397420106
1763691421627025200,11.527025146484375,1.080267106224224,-9.5784105686903,1.8048462128333747
1763691421636974000,11.53697412109375,0.9323669207163154,-9.584625789943336,1.8536580284059048
1763691421646923000,11.546923095703125,0.7833139119114726,-9.593972879481315,1.874166855688393
1763691421656872000,11.556871826171875,0.6406858215875924,-9.604504794889689,1.874404317706078
1763691421666821000,11.566821044921875,0.5186189463205635,-9.614078678920864,1.863044280910492
1763691421676769000,11.57676904296875,0.42636897103786464,-9.621441316643356,1.8483651826947927
1763691421686718000,11.586718017578125,0.3622391017589718,-9.626708443391323,1.834568274141103
1763691421696667000,11.5966669921875,0.31775647449716926,-9.630206222379208,1.824431787791103
1763691421706615800,11.60661572265625,0.2851446465646848,-9.631381111377477,1.8236188639730213
1763691421716565200,11.616565185546875,0.25723250248944385,-9.629594812482594,1.8371503995887934
1763691421726514200,11.62651416015625,0.2254780951038934,-9.624852001869678,1.865953446355462
1763691421736463000,11.636463134765625,0.18265558307403698,-9.61729471835792,1.909102998382598
1763691421746412000,11.646412109375,0.12736011370378544,-9.606989597442746,1.9646720331303775
1763691421756361000,11.65636083984375,0.06233825032149907,-9.59404009949863,2.030004483132064
1763691421766310000,11.666309814453125,-0.010091970213194145,-9.578955343091486,2.1009303692266346
1763691421776259000,11.676259033203126,-0.08908116338769904,-9.56272433925867,2.1718081783957777
1763691421786208000,11.6862080078125,-0.17509634506721047,-9.54612450211346,2.238579429028928
1763691421796156000,11.696156005859375,-0.267459169607237,-9.529186811316013,2.3007456700846554
1763691421806105000,11.70610498046875,-0.36567784403599796,-9.511256602349876,2.3606474733397365
1763691421816054000,11.716053955078126,-0.4701588667951524,-9.491216269361972,2.4220120426237584
1763691421826003200,11.726003173828126,-0.5807228992624208,-9.467961065980791,2.488140173047781
1763691421835952000,11.7359521484375,-0.6946141764562577,-9.44077261480391,2.561197810474038
1763691421845901000,11.745901123046876,-0.8084498875379562,-9.409304294350743,2.6423136666715146
1763691421855850000,11.75585009765625,-0.9196352302413433,-9.37409854093492,2.7296391911640763
1763691421865799000,11.765798828125,-1.02597948958911,-9.336579249879717,2.818868503451347
1763691421875747800,11.775747802734376,-1.1230972901038825,-9.298908567655086,2.905047488257289
1763691421885697000,11.785697021484374,-1.205878814491257,-9.263245133599638,2.984714022429287
1763691421895646200,11.795646240234374,-1.2708949650853871,-9.23086788160801,3.0571649261340497
1763691421905594000,11.805593994140626,-1.3170895838968455,-9.202232738754153,3.1232316817596555
1763691421915543000,11.81554296875,-1.34586764235273,-9.177510385429859,3.183132608231902
1763691421925492000,11.825491943359374,-1.3597577821478246,-9.15654592333436,3.2371456457093357
1763691421935441000,11.83544091796875,-1.362648973544687,-9.139919782704114,3.2825977755904194
1763691421945390000,11.84539013671875,-1.3617071626499295,-9.127957542231679,3.3161008167415855
1763691421955339000,11.855339111328124,-1.3622589513137935,-9.119850223621725,3.3381118652805686
1763691421965288000,11.865287841796874,-1.3646002537429331,-9.114373838037253,3.3520790158346294
1763691421975237000,11.875237060546874,-1.3693033168673514,-9.11025471228063,3.3613436877861615
1763691421985186000,11.88518603515625,-1.3757817191012203,-9.106635937261581,3.36849911249876
1763691421995135000,11.895135009765625,-1.3817400429837405,-9.102956371966004,3.3760026199966666
1763691422005084200,11.905084228515625,-1.384903037059307,-9.098901543617249,3.385614790211618
1763691422015032000,11.915031982421874,-1.3754789367623625,-9.094522305619716,3.4011975592687724
1763691422024981000,11.92498095703125,-1.3388117324918507,-9.090395581078528,3.426756655678153
1763691422034930000,11.934929931640625,-1.2725326492898166,-9.087121089452504,3.4605279923766847
1763691422044878800,11.94487890625,-1.1848889256935566,-9.08472338066101,3.4977474237024784
1763691422054828000,11.954828125,-1.0766109948694704,-9.085015057083965,3.531828849263489
1763691422064777200,11.964777099609375,-0.9338111281752586,-9.091285807916522,3.5562539732068776
1763691422074726100,11.97472607421875,-0.7408445241682231,-9.105064157900214,3.566422315999865
1763691422084675000,11.984675048828125,-0.4919763289907947,-9.126171243336795,3.5554674990043043
1763691422094624000,11.9946240234375,-0.20498963475599885,-9.153142252370715,3.514023727981746
1763691422104573000,12.004572998046875,0.09005952516687102,-9.182403418168425,3.441767762327194
1763691422114521900,12.01452197265625,0.3934998073434457,-9.21029738726616,3.3445401447623966
1763691422124471000,12.024470947265625,0.7153579815384,-9.23651670114994,3.2164252215027807
1763691422134419000,12.0344189453125,1.0362629101291299,-9.260541135337949,3.055966656260192
1763691422144367900,12.044367919921875,1.3356130825810133,-9.277487009441852,2.88353211428076
1763691422154316800,12.05431689453125,1.6149426496587693,-9.282651260337232,2.7193273482471705
1763691422164266000,12.064265869140625,1.8799894243620334,-9.276543006590009,2.565499891582131
1763691422174215200,12.074215087890625,2.1288189314968884,-9.262823108795285,2.4163301975950597
1763691422184164000,12.0841640625,2.356295561740547,-9.244602392449975,2.2705906241871414
1763691422194113000,12.094113037109375,2.560999949814379,-9.224087427687644,2.1278791664287446
1763691422204062000,12.10406201171875,2.741591787025332,-9.203888689267634,1.985569859730452
1763691422214011000,12.114010986328125,2.900268729548156,-9.18565686700642,1.839162762324512
1763691422223959800,12.123959716796875,3.0470272707402706,-9.168324623933433,1.6816205229200423
1763691422233909200,12.1339091796875,3.1892350167602297,-9.149263365110754,1.513327172398567
1763691422243857000,12.14385693359375,3.327013840422034,-9.126543583780526,1.344457775554806
1763691422253806000,12.15380615234375,3.4602503444790838,-9.09887933178544,1.186360605681315
1763691422263755000,12.163755126953125,3.5871421556845307,-9.0666330126971,1.0483144363202155
1763691422273704000,12.173703857421875,3.705028530396521,-9.0319983371675,0.9306771409984678
1763691422283653000,12.183653076171876,3.812225461050868,-8.997593963262439,0.8250015016272664
1763691422293602000,12.19360205078125,3.9093165927544233,-8.964534574225544,0.7243851914722472
1763691422303551000,12.203551025390626,3.997399657616019,-8.933013062280416,0.6264618467282503
1763691422313500000,12.2135,4.076878268000483,-8.903268496879935,0.5303370027735829
1763691422323449000,12.223448974609376,4.148101383475959,-8.875371020650864,0.4375257038136944
1763691422333398000,12.23339794921875,4.211165742415189,-8.849396036916971,0.35307138737589117
1763691422343347200,12.24334716796875,4.265713325160742,-8.82574978839159,0.2832405847753398
1763691422353295400,12.25329541015625,4.312395581358671,-8.804519368836283,0.23254070870019494
1763691422363244300,12.263244384765626,4.350243958237767,-8.786608449092506,0.2031675521616824
1763691422373193200,12.273193115234376,4.3763951753214,-8.773844829109311,0.19285987396324053
1763691422383142100,12.28314208984375,4.386175687840581,-8.768892759659886,0.19586493753073736
1763691422393091300,12.29309130859375,4.376158151695132,-8.773594653740524,0.20893817145237698
1763691422403040300,12.303040283203124,4.345601100867986,-8.78826147699654,0.2293658597900532
1763691422412989200,12.3129892578125,4.296495124654472,-8.811660472762584,0.2552775690293871
1763691422422938400,12.3229384765625,4.232630847509205,-8.841537724632024,0.28709764379598196
1763691422432887300,12.33288720703125,4.157838641375303,-8.875690754124522,0.32382034111339597
1763691422442836200,12.342836181640624,4.078322913850844,-8.91098009417057,0.36347350239213555
1763691422452785200,12.35278515625,3.9976276211529966,-8.94576382278204,0.40331663328502326
1763691422462734300,12.362734375,3.9162183349668975,-8.979800532418489,0.4436210250141099
1763691422472682200,12.37268212890625,3.8300364275515077,-9.01459945859909,0.48804713631570334
1763691422482631200,12.382631103515624,3.732724346573651,-9.052394643986224,0.5397328633567318
1763691422492580000,12.392580078125,3.627787177544832,-9.091500911971925,0.5951075080435723
1763691422502529000,12.402529052734375,3.528015428455174,-9.12760156840086,0.6406075687196106
1763691422512478200,12.412478271484375,3.4389836845666166,-9.159376178324223,0.6705146312054246
1763691422522427400,12.422427490234375,3.3560064184114333,-9.1888091935575,0.6880367708273232
1763691422532376300,12.432376220703125,3.2898578297212717,-9.211625420999527,0.702261403273791
1763691422542325200,12.4423251953125,3.265627351567149,-9.219481395196913,0.7122043398130685
1763691422552274200,12.452274169921875,3.2824688885137436,-9.2137466509372,0.7089902000721544
1763691422562223000,12.46222314453125,3.30747619625926,-9.205454623410105,0.7004414213050156
1763691422572172300,12.47217236328125,3.311142609812319,-9.204095025494695,0.7009706328108907
1763691422582120200,12.4821201171875,3.2816017502903936,-9.213362035533786,0.7179393763337284
1763691422592069000,12.492069091796875,3.218194277001917,-9.232610925883055,0.7566465619992464
1763691422602018000,12.50201806640625,3.110607470247149,-9.265532952275871,0.8027606629204005
1763691422611967200,12.51196728515625,2.9431349345892666,-9.316725379374622,0.8408082156334072
1763691422621916400,12.52191650390625,2.734803149798512,-9.376252504098415,0.8815449343651532
1763691422631865300,12.531865234375,2.537773388005793,-9.42640915840864,0.9342905091900378
1763691422641814300,12.541814208984375,2.3949127310350535,-9.457138058671354,0.9986482689406723
1763691422651763200,12.55176318359375,2.304027322103828,-9.472210540118812,1.067277276269719
1763691422661712100,12.561712158203125,2.2411916573539377,-9.482405770918726,1.1096988062832505
1763691422671661000,12.5716611328125,2.191792543412745,-9.494813417071104,1.1022530933871864
1763691422681610200,12.5816103515625,2.1350489119276403,-9.511821250495315,1.0663991051957011
1763691422691558100,12.59155810546875,2.055777222292125,-9.531639465165137,1.0449972015310078
1763691422701507300,12.60150732421875,1.9561035267494618,-9.55181716079712,1.0520537689790128
1763691422711456300,12.611456298828125,1.8437280244134366,-9.570646948951483,1.083401824053377
1763691422721405200,12.6214052734375,1.7312433626145123,-9.58450654747784,1.144733513981104
1763691422731354000,12.63135400390625,1.628770684003085,-9.59038216151297,1.2417948350682855
1763691422741303300,12.64130322265625,1.532220819569379,-9.59055108833909,1.357940795853734
1763691422751252200,12.651252197265626,1.4273168221578,-9.589108488315343,1.4772110261395572
1763691422761201200,12.661201171875,1.3089324347957967,-9.587394670134783,1.5934068174161016
1763691422771150000,12.671150146484376,1.1789333052247761,-9.585985387858749,1.699819319694489
1763691422781099300,12.681099365234376,1.0401505652174352,-9.585666823428868,1.7898166937448083
1763691422791048200,12.691048095703126,0.8957270428441464,-9.58794178262353,1.854572366771847
1763691422800996400,12.700996337890626,0.751308854233101,-9.593120646566152,1.8915452759906648
1763691422810945300,12.7109453125,0.6127058547068387,-9.600041385740042,1.9063596910238265
1763691422820894200,12.720894287109376,0.48975872600656,-9.606832361054419,1.9076953235417604
1763691422830843100,12.730843017578126,0.3885009030776098,-9.61268576325774,1.9015059673823416
1763691422840792000,12.7407919921875,0.31170996087454256,-9.616974984884262,1.8939413773469627
