time,seconds_elapsed,z,y,x
1763699999172586200,0.200586181640625,-0.10918894410133362,0.20081603527069092,0.0010689827613532543
1763699999191759400,0.21975927734375,-0.16538690030574799,0.2655658423900604,0.04993676394224167
1763699999201347000,0.22934716796875,-0.18737739324569702,0.2826695740222931,0.07681404054164886
1763699999210933800,0.238933837890625,-0.19348587095737457,0.26067906618118286,0.0988045409321785
1763699999220520000,0.24852001953125,-0.18126893043518066,0.2044811248779297,0.0988045409321785
1763699999230107000,0.25810693359375,-0.16538690030574799,0.12018419802188873,0.0719272643327713
1763699999239694600,0.267694580078125,-0.15439164638519287,0.052990999072790146,0.026724567636847496
1763699999249281500,0.277281494140625,-0.15683503448963165,0.021226942539215088,-0.030695075169205666
1763699999258867700,0.28686767578125,-0.17027367651462555,-0.021532366052269936,-0.09666658192873001
1763699999268454700,0.29645458984375,-0.19470755755901337,-0.08261708915233612,-0.15652960538864136
1763699999278042400,0.30604248046875,-0.23868857324123383,-0.14858859777450562,-0.20051060616970062
1763699999287629300,0.31562939453125,-0.2851129472255707,-0.20600824058055878,-0.22005772590637207
1763699999297215200,0.32521533203125,-0.3095468580722809,-0.23288552463054657,-0.22005772590637207
1763699999306804700,0.3348046875,-0.3107685446739197,-0.22433365881443024,-0.21883602440357208
1763699999316391200,0.34439111328125,-0.293664813041687,-0.1644706279039383,-0.22494450211524963
1763699999325978000,0.35397802734375,-0.25945737957954407,-0.055739812552928925,-0.23716144263744354
1763699999335564000,0.36356396484375,-0.20692451298236847,0.06032116711139679,-0.254265159368515
1763699999345151200,0.373151123046875,-0.14339639246463776,0.14706148207187653,-0.2713688910007477
1763699999354739000,0.382739013671875,-0.06520794332027435,0.18371231853961945,-0.30068957805633545
1763699999364325600,0.39232568359375,0.03008422814309597,0.18737739324569702,-0.35322242975234985
1763699999373911800,0.401911865234375,0.12171131372451782,0.2154763638973236,-0.41919392347335815
1763699999383498800,0.411498779296875,0.18279604613780975,0.25090551376342773,-0.48272204399108887
1763699999393086500,0.42108642578125,0.19501298666000366,0.26190075278282166,-0.543806791305542
1763699999402673400,0.43067333984375,0.1754658818244934,0.2985515892505646,-0.6048914790153503
1763699999412259600,0.440259521484375,0.14003673195838928,0.4109475016593933,-0.6720846891403198
1763699999421846500,0.449846435546875,0.10338589549064636,0.5795413255691528,-0.7417212724685669
1763699999431434200,0.459434326171875,0.07528692483901978,0.7860077023506165,-0.7954758405685425
1763699999441021200,0.469021240234375,0.07406523078680038,0.9961391687393188,-0.8321266770362854
1763699999450607000,0.478607177734375,0.10582929104566574,1.1708414554595947,-0.862669050693512
1763699999460194000,0.488194091796875,0.15347537398338318,1.1989405155181885,-0.862669050693512
1763699999469781800,0.49778173828125,0.2170034945011139,1.4078502655029297,-0.8431219458580017
1763699999479368700,0.50736865234375,0.3318427801132202,1.6827315092086792,-0.8553388714790344
1763699999488955000,0.516954833984375,0.43568679690361023,1.7523680925369263,-0.8883246183395386
1763699999498541800,0.526541748046875,0.462564080953598,1.5153592824935913,-0.8968765139579773
1763699999508129500,0.536129638671875,0.4283566474914551,1.1256388425827026,-0.8565605878829956
1763699999517716500,0.545716552734375,0.3868190348148346,0.7530219554901123,-0.7844805717468262
1763699999527302400,0.555302490234375,0.3501681983470917,0.5111264586448669,-0.6928535103797913
1763699999536889300,0.564889404296875,0.30130040645599365,0.3901786804199219,-0.5804576277732849
1763699999546477000,0.57447705078125,0.24876753985881805,0.3889569938182831,-0.435075968503952
1763699999556064000,0.58406396484375,0.20722992718219757,0.48302745819091797,-0.2579302489757538
1763699999565650200,0.593650146484375,0.20234315097332,0.6015318632125854,-0.05024218559265137
1763699999575237000,0.603237060546875,0.24510246515274048,0.6723901033401489,0.18187977373600006
1763699999584824800,0.612824951171875,0.3232909142971039,0.6345176100730896,0.4249969720840454
1763699999594411800,0.622411865234375,0.39048412442207336,0.44637662172317505,0.6792621612548828
1763699999603998000,0.631998046875,0.4161396920681,0.27656111121177673,0.9443698525428772
1763699999613585000,0.6415849609375,0.3990359604358673,0.111632339656353,1.1935955286026
1763699999623172600,0.651172607421875,0.35505497455596924,-0.08017370104789734,1.41594398021698
1763699999632759300,0.66075927734375,0.3061871826648712,-0.1754658818244934,1.6175235509872437
1763699999642345500,0.670345458984375,0.2279987335205078,-0.12048961967229843,1.8032211065292358
1763699999651932400,0.679932373046875,0.12171131372451782,0.004123218823224306,1.9486027956008911
1763699999661520100,0.68952001953125,0.020310672000050545,0.12018419802188873,2.0243477821350098
1763699999671107000,0.699107177734375,-0.04321744292974472,0.27533939480781555,1.9547111988067627
1763699999680693200,0.708693359375,-0.0859767496585846,0.48791423439979553,1.7592401504516602
1763699999690280200,0.7182802734375,-0.14461809396743774,0.6345176100730896,1.502684235572815
1763699999699868000,0.727867919921875,-0.19837264716625214,0.6442911624908447,1.2131426334381104
1763699999709454800,0.737454833984375,-0.2289150059223175,0.5758762359619141,0.9455915689468384
1763699999719040800,0.747040771484375,-0.2289150059223175,0.5050179958343506,0.7379034757614136
1763699999728628000,0.7566279296875,-0.1898207813501358,0.4940227270126343,0.556939959526062
1763699999738215400,0.76621533203125,-0.11651911586523056,0.5001311898231506,0.36879903078079224
1763699999747802400,0.77580224609375,-0.07498150318861008,0.534338653087616,0.1635543555021286
1763699999757388500,0.785388427734375,-0.1238492801785469,0.603975236415863,-0.06490252166986465
1763699999766975500,0.7949755859375,0.0007635590736754239,1.8232263326644897,-1.1302201747894287
1763699999776563200,0.804563232421875,0.04352286830544472,1.511694312095642,-2.0037317276000977
1763699999786150100,0.814150146484375,-0.164165198802948,-0.21333840489387512,-1.777718186378479
1763699999795736000,0.823736083984375,-0.35108447074890137,-0.9549070000648499,-1.4661861658096313
1763699999805323300,0.8333232421875,-0.376740038394928,-0.5004366040229797,-1.44053053855896
1763699999814911000,0.842910888671875,-0.2655658423900604,-0.04107947647571564,-1.478403091430664
1763699999824498000,0.852497802734375,-0.09452861547470093,0.10430216789245605,-1.4270919561386108
1763699999834083800,0.862083740234375,-0.021226942539215088,0.19715094566345215,-1.242616057395935
1763699999843670800,0.8716708984375,0.009315420873463154,0.23624517023563385,-0.9762866497039795
1763699999853258500,0.881258544921875,0.04352286830544472,0.3449759781360626,-0.6904101371765137
1763699999862845400,0.890845458984375,0.10582929104566574,0.45615020394325256,-0.43263256549835205
1763699999872431600,0.900431640625,0.18523943424224854,0.22280654311180115,-0.362995982170105
1763699999882018600,0.9100185546875,0.20356485247612,-0.36849361658096313,-0.2848075330257416
1763699999891606300,0.919606201171875,0.1388150453567505,0.031000498682260513,0.35169529914855957
1763699999901193200,0.929193115234375,0.08017370104789734,-0.008093725889921188,0.3993414044380188
1763699999910779100,0.938779052734375,0.039857782423496246,-0.06917845457792282,0.3883461356163025
1763699999920366000,0.948365966796875,0.03497100621461868,-0.09239064902067184,0.31260108947753906
1763699999929953800,0.957953857421875,0.0068720318377017975,-0.1388150453567505,0.20753535628318787
1763699999939540700,0.967540771484375,-0.033443886786699295,-0.1889045089483261,0.12201674282550812
1763699999949127000,0.977126953125,-0.03955236077308655,-0.20234315097332,0.0719272643327713
1763699999958713900,0.9867138671875,-0.03833066672086716,-0.18279604613780975,0.0328330397605896
1763699999968301600,0.996301513671875,-0.04199574887752533,-0.1375933438539505,-0.01969982497394085
1763699999977888300,1.00588818359375,-0.050547610968351364,-0.0716218426823616,-0.08078455179929733
1763699999987474400,1.015474365234375,-0.05421269312500954,-0.004428642801940441,-0.125987246632576
1763699999997061400,1.025061279296875,-0.0456608310341835,0.06765133142471313,-0.13453911244869232
1763700000006649000,1.034649169921875,-0.02367033064365387,0.12751436233520508,-0.08933641016483307
1763700000016236000,1.044236083984375,0.0007635590736754239,0.1495048701763153,0.01695101149380207
1763700000025822200,1.053822265625,0.012980503961443901,0.10430216789245605,0.14767232537269592
1763700000035409200,1.0634091796875,0.038636088371276855,0.11896250396966934,0.26373329758644104
1763700000044996900,1.072996826171875,0.038636088371276855,0.22524993121623993,0.33947837352752686
1763700000054583800,1.082583740234375,0.005650337319821119,0.39506545662879944,0.3455868363380432
1763700000064170000,1.092169921875,-0.04932591691613197,0.6051968932151794,0.28572380542755127
1763700000073757000,1.1017568359375,-0.10063708573579788,0.7591304183006287,0.1916533261537552
1763700000083344600,1.1113447265625,-0.15316994488239288,0.8189934492111206,0.11835165321826935
1763700000092931300,1.120931396484375,-0.1910424828529358,0.8055548071861267,0.08780929446220398
1763700000102517500,1.130517578125,-0.19959434866905212,0.7530219554901123,0.09147437661886215
1763700000112104400,1.1401044921875,-0.19226416945457458,0.5917583107948303,0.14400723576545715
1763700000121692200,1.149692138671875,-0.18493400514125824,0.2985515892505646,0.2564031481742859
1763700000131279000,1.159279052734375,-0.18126893043518066,0.007788302376866341,0.37857258319854736
1763700000140865300,1.168865234375,-0.18004722893238068,-0.13270656764507294,0.4543176591396332
1763700000150452200,1.1784521484375,-0.20814619958400726,-0.17302247881889343,0.4628695249557495
1763700000160040000,1.1880400390625,-0.2716743052005768,-0.16080553829669952,0.44820916652679443
1763700000169627000,1.197626953125,-0.39262208342552185,-0.14858859777450562,0.453095942735672
1763700000179212800,1.207212890625,-0.5025745630264282,-0.19989976286888123,0.4885250926017761
1763700000188799700,1.2167998046875,-0.09941539168357849,-0.31473904848098755,0.5691569447517395
1763700000198387500,1.226387451171875,0.12048961967229843,-0.19256959855556488,0.6621584296226501
1763700000207974400,1.235974365234375,0.13514995574951172,-0.22555534541606903,0.7525638341903687
1763700000217560600,1.245560546875,0.2573194205760956,-0.18646112084388733,0.7965448498725891
1763700000227147500,1.2551474609375,0.3721587061882019,-0.04230117425322533,0.7721109390258789
1763700000236735200,1.2647353515625,0.465007483959198,0.13973131775856018,0.6988092660903931
1763700000246322200,1.274322265625,0.5358657836914062,0.35230615735054016,0.5996993184089661
1763700000255908000,1.283908203125,0.5163186192512512,0.5489989519119263,0.49585527181625366
1763700000265495300,1.293495361328125,0.41858309507369995,0.7127060294151306,0.39201122522354126
1763700000275082800,1.303082763671875,0.3184041380882263,0.8568660020828247,0.2832804024219513
1763700000284669700,1.312669677734375,0.2573194205760956,0.9717052578926086,0.17088451981544495
1763700000294255900,1.322255859375,0.21822518110275269,1.0743275880813599,0.04871506989002228
1763700000303842800,1.3318427734375,0.19745637476444244,1.1806150674819946,-0.0978882759809494
1763700000313430500,1.341430419921875,0.18035265803337097,1.2588034868240356,-0.23838314414024353
1763700000323017500,1.351017578125,0.14736689627170563,1.2893458604812622,-0.3605526089668274
1763700000332603600,1.360603759765625,0.10949437320232391,1.324774980545044,-0.4558447599411011
1763700000342190600,1.370190673828125,0.07528692483901978,1.3345485925674438,-0.5376983284950256
1763700000351778300,1.3797783203125,0.054518118500709534,1.362647533416748,-0.6281036734580994
1763700000361365200,1.389365234375,-0.0016798300202935934,1.3675342798233032,-0.7099572420120239
1763700000370951200,1.398951171875,-0.09575030952692032,1.3040062189102173,-0.7246175408363342
1763700000380538000,1.4085380859375,-0.16905197501182556,1.2441431283950806,-0.6610894203186035
1763700000390125800,1.418125732421875,-0.1910424828529358,1.1060916185379028,-0.538919985294342
1763700000399712800,1.427712646484375,-0.1238492801785469,0.8874083757400513,-0.39109495282173157
1763700000409299000,1.437298828125,-0.0016798300202935934,0.695602297782898,-0.26037365198135376
1763700000418886000,1.446885986328125,0.10216420143842697,0.5832064151763916,-0.17363333702087402
1763700000428473600,1.4564736328125,0.1375933438539505,0.5184566378593445,-0.13453911244869232
1763700000438060500,1.466060546875,0.06551336497068405,0.5123481154441833,-0.13942588865756989
1763700000447646500,1.475646484375,-0.11651911586523056,0.5416688323020935,-0.17118994891643524
1763700000457233400,1.4852333984375,-0.3694098889827728,0.5661026835441589,-0.20906247198581696
1763700000466821000,1.494821044921875,-0.6320741772651672,0.5746545791625977,-0.23349636793136597
1763700000476408000,1.504407958984375,-0.8373188972473145,0.5489989519119263,-0.23593975603580475
1763700000485994200,1.513994140625,-0.9252808690071106,0.43415969610214233,-0.21394924819469452
1763700000495581200,1.523581298828125,-0.8703046441078186,0.19470755755901337,-0.16141638159751892
1763700000505169000,1.5331689453125,-0.6797202825546265,-0.08139539510011673,-0.09177979826927185
1763700000514755800,1.542755859375,-0.4158342778682709,-0.3220692276954651,-0.03680354729294777
1763700000524341800,1.552341796875,-0.16538690030574799,-0.5212054252624512,-0.03436015918850899
1763700000533929000,1.561928955078125,-0.01511846948415041,-0.6067240238189697,-0.0978882759809494
1763700000543516700,1.5715166015625,-0.02367033064365387,-0.5651864409446716,-0.2029540091753006
1763700000553103400,1.581103271484375,-0.16783028841018677,-0.47355934977531433,-0.3239017724990845
1763700000562689500,1.590689453125,-0.3840702176094055,-0.35505497455596924,-0.44484952092170715
1763700000572276500,1.6002763671875,-0.6027535200119019,-0.23410721123218536,-0.5572454333305359
1763700000581864200,1.6098642578125,-0.7615737915039062,-0.16080553829669952,-0.6623111367225647
1763700000591451100,1.619451171875,-0.8177717924118042,-0.1510319858789444,-0.7527165412902832
1763700000601037300,1.629037353515625,-0.7579087615013123,-0.15836215019226074,-0.8223531246185303
1763700000610624300,1.638624267578125,-0.6381826996803284,-0.09972081333398819,-0.8736643195152283
1763700000620212000,1.6482119140625,-0.5502206683158875,0.016340164467692375,-0.8980981707572937
1763700000629799000,1.657798828125,-0.5172349214553833,0.13240113854408264,-0.8907679915428162
1763700000639384800,1.667384765625,-0.5086830258369446,0.2570139765739441,-0.8699992299079895
1763700000648971800,1.6769716796875,-0.5001311898231506,0.37796175479888916,-0.8431219458580017
1763700000658559500,1.6865595703125,-0.4756973087787628,0.4647020399570465,-0.8101361989974976
1763700000668146400,1.696146484375,-0.402395635843277,0.48547086119651794,-0.774707019329071
1763700000677732600,1.705732666015625,-0.25090551376342773,0.42194274067878723,-0.756381630897522
1763700000687319600,1.715319580078125,-0.07620319724082947,0.3840702176094055,-0.774707019329071
1763700000696907300,1.7249072265625,0.017867282032966614,0.39140036702156067,-0.8040276765823364
1763700000706494200,1.734494140625,0.025197450071573257,0.4268295168876648,-0.834570050239563
1763700000716080000,1.744080078125,-0.034665580838918686,0.5722111463546753,-0.8541171550750732
1763700000725667000,1.7536669921875,-0.16050012409687042,0.8116632699966431,-0.8431219458580017
1763700000735254800,1.7632548828125,-0.33031564950942993,1.057223916053772,-0.7966975569725037
1763700000744841700,1.772841796875,-0.4915793240070343,1.223374366760254,-0.7148439884185791
1763700000754428000,1.782427978515625,-0.5770979523658752,1.2856807708740234,-0.6061131954193115
1763700000764014800,1.792014892578125,-0.5441122055053711,1.238034725189209,-0.49493899941444397
1763700000773602600,1.8016025390625,-0.40361732244491577,1.0914313793182373,-0.4008685052394867
1763700000783189500,1.811189453125,-0.2032594233751297,0.9081771373748779,-0.33001023530960083
1763700000792775700,1.820775634765625,0.001985253533348441,0.7493568658828735,-0.2786990702152252
1763700000802362600,1.830362548828125,0.1901262104511261,0.6051968932151794,-0.23960483074188232
1763700000811950000,1.8399501953125,0.3599417507648468,0.45737189054489136,-0.21272756159305573
1763700000821537000,1.849537109375,0.5187620520591736,0.32542887330055237,-0.2017323076725006
1763700000831123200,1.859123291015625,0.6653653979301453,0.20936790108680725,-0.2151709496974945
1763700000840710100,1.868710205078125,0.8046385645866394,0.10430216789245605,-0.254265159368515
1763700000850297900,1.8782978515625,0.9439117312431335,0.0065666078589856625,-0.31168481707572937
1763700000859884800,1.887884765625,1.0550858974456787,-0.03374931216239929,-0.39353835582733154
1763700000869471000,1.897470947265625,1.1100621223449707,0.013896775431931019,-0.49860408902168274
1763700000879058000,1.907057861328125,1.0917367935180664,0.1238492801785469,-0.6109999418258667
1763700000888645600,1.916645751953125,1.0086615085601807,0.2716743052005768,-0.7075138092041016
1763700000898232600,1.926232666015625,0.8852704167366028,0.4243861436843872,-0.7722636461257935
1763700000907818500,1.935818603515625,0.7643226385116577,0.5404471158981323,-0.7966975569725037
1763700000917405400,1.945405517578125,0.7032378911972046,0.5832064151763916,-0.7808154821395874
1763700000926993200,1.9549931640625,0.7484406232833862,0.5147915482521057,-0.7527165412902832
1763700000936580000,1.964580078125,0.8864920735359192,0.3486410677433014,-0.7527165412902832
1763700000946166300,1.974166259765625,1.0453124046325684,0.16905197501182556,-0.7966975569725037
1763700000955753200,1.983753173828125,1.1430479288101196,0.03588727489113808,-0.8675557971000671
1763700000965341000,1.9933408203125,1.1638166904449463,-0.037414394319057465,-0.9457442760467529
1763700000974928000,2.002927978515625,1.0941801071166992,-0.09727742522954941,-0.9310839176177979
1763700000984513800,2.012513671875,0.983005940914154,-0.11315945535898209,-0.7673768401145935
1763700000994101000,2.02210107421875,0.8999307155609131,-0.09361234307289124,-0.5853443741798401
1763700001003688400,2.0316884765625,0.8510629534721375,-0.10705098509788513,-0.4534013867378235
1763700001013275400,2.041275390625,0.8205205798149109,-0.14003673195838928,-0.41675055027008057
1763700001022861600,2.050861572265625,0.7875348329544067,-0.19989976286888123,-0.4766135811805725
1763700001032448500,2.060448486328125,0.7398887276649475,-0.2951919436454773,-0.5767925381660461
1763700001042036200,2.0700361328125,0.6812474131584167,-0.3196258246898651,-0.6464291214942932
1763700001051623200,2.079623046875,0.594507098197937,-0.2658712565898895,-0.6671979427337646
1763700001061209000,2.089208984375,0.4637857675552368,-0.16813570261001587,-0.6537593007087708
1763700001070796300,2.09879638671875,0.30740886926651,-0.03374931216239929,-0.6317687630653381
1763700001080384000,2.108384033203125,0.14492350816726685,0.04199574887752533,-0.6024481058120728
1763700001089970700,2.117970703125,0.025197450071573257,0.020005248486995697,-0.5841227173805237
1763700001099556900,2.127556884765625,-0.037108972668647766,0.09697200357913971,-0.4766135811805725
1763700001109143800,2.137143798828125,-0.12751436233520508,0.3071034550666809,-0.1785201132297516
1763700001118731500,2.1467314453125,-0.25945737957954407,0.3718532621860504,-0.12232216447591782
1763700001128318500,2.156318359375,-0.43049460649490356,0.39140036702156067,-0.35200074315071106
1763700001137904600,2.165904541015625,-0.6027535200119019,0.4121691882610321,-0.7343910932540894
1763700001147491600,2.17549169921875,-0.7456917762756348,0.39140036702156067,-1.0764656066894531
1763700001157079300,2.185079345703125,-0.844649076461792,0.2985515892505646,-1.2865970134735107
1763700001166666200,2.194666259765625,-0.876413106918335,0.14095300436019897,-1.3354648351669312
1763700001176252200,2.204252197265625,-0.8458707332611084,-0.054518118500709534,-1.260941505432129
1763700001185839000,2.213839111328125,-0.770125687122345,-0.2560977041721344,-1.102121114730835
1763700001195426800,2.2234267578125,-0.6772769093513489,-0.41980478167533875,-0.8956547975540161
1763700001205013800,2.233013671875,-0.5856497883796692,-0.511431872844696,-0.6781931519508362
1763700001214600000,2.242599853515625,-0.5050179958343506,-0.5419742465019226,-0.4790569543838501
1763700001224187000,2.252186767578125,-0.44637662172317505,-0.4943281412124634,-0.3202366828918457
1763700001233774600,2.261774658203125,-0.4268295168876648,-0.35505497455596924,-0.2041756957769394
1763700001243361500,2.271361572265625,-0.4500417113304138,-0.18401773273944855,-0.12232216447591782
1763700001252947500,2.280947509765625,-0.49768781661987305,-0.0325276181101799,-0.06978929787874222
1763700001262534400,2.290534423828125,-0.5465555787086487,0.08231166750192642,-0.03924693539738655
1763700001272122000,2.3001220703125,-0.5868715047836304,0.15316994488239288,-0.023364907130599022
1763700001281709000,2.309708984375,-0.6100836992263794,0.16538690030574799,-0.012369656935334206
1763700001291295200,2.319295166015625,-0.5942016839981079,0.1519482582807541,0.007177455350756645
1763700001300882200,2.328882080078125,-0.5404471158981323,0.14583978056907654,0.05115845799446106
1763700001310470000,2.338469970703125,-0.4818057715892792,0.14706148207187653,0.1366770714521408
1763700001320056800,2.348056884765625,-0.4390464723110199,0.16783028841018677,0.2539597451686859
1763700001329643000,2.35764306640625,-0.4133908748626709,0.19592925906181335,0.372464120388031
1763700001339230000,2.36722998046875,-0.38040512800216675,0.21425467729568481,0.45676103234291077
1763700001348817400,2.3768173828125,-0.3180987238883972,0.22402822971343994,0.4946335554122925
1763700001358404400,2.386404296875,-0.2301367074251175,0.21791976690292358,0.4885250926017761
1763700001367990500,2.395990478515625,-0.12629267573356628,0.20081603527069092,0.453095942735672
1763700001377577500,2.405577392578125,-0.012675080448389053,0.16660858690738678,0.4005630910396576
1763700001387165200,2.415165283203125,0.0984991192817688,0.12751436233520508,0.346808522939682
1763700001396752100,2.424752197265625,0.16813570261001587,0.09330692142248154,0.31382277607917786
1763700001406338300,2.43433837890625,0.1754658818244934,0.10185877978801727,0.30404922366142273
1763700001415925200,2.44392529296875,0.1241547018289566,0.1495048701763153,0.3101576864719391
1763700001425513000,2.453512939453125,0.0594048947095871,0.20081603527069092,0.32848310470581055
1763700001435100000,2.463099853515625,0.036192700266838074,0.2276933193206787,0.3455868363380432
1763700001444685800,2.472685791015625,0.07773031294345856,0.20692451298236847,0.3578037917613983
1763700001454272800,2.482272705078125,0.1889045089483261,0.1495048701763153,0.36513394117355347
1763700001463860500,2.491860595703125,0.3623851239681244,0.06032116711139679,0.3639122545719147
1763700001473447400,2.501447509765625,0.5774033665657043,-0.04963133856654167,0.346808522939682
1763700001483033600,2.51103369140625,0.775317907333374,-0.14370182156562805,0.31504446268081665
1763700001492620500,2.52062060546875,0.8999307155609131,-0.20356485247612,0.2832804024219513
1763700001502208300,2.530208251953125,0.9439117312431335,-0.2145601063966751,0.26006820797920227
1763700001511795200,2.539795166015625,0.9219212532043457,-0.18523943424224854,0.23807771503925323
1763700001521381000,2.549381103515625,0.8449544906616211,-0.13148486614227295,0.22586077451705933
1763700001530968300,2.55896826171875,0.7191199064254761,-0.056961506605148315,0.23929941654205322
1763700001540555800,2.5685556640625,0.5566345453262329,0.06642963737249374,0.2832804024219513
1763700001550142700,2.578142822265625,0.3880407214164734,0.23746687173843384,0.346808522939682
1763700001559729000,2.58772900390625,0.23655059933662415,0.3889569938182831,0.4140017330646515
1763700001569315800,2.59731591796875,0.13392825424671173,0.5050179958343506,0.4543176591396332
1763700001578903600,2.606903564453125,0.10216420143842697,0.5844281315803528,0.45676103234291077
1763700001588490500,2.616490478515625,0.16080553829669952,0.5942016839981079,0.42133188247680664
1763700001598076400,2.626076416015625,0.31596073508262634,0.534338653087616,0.3590254783630371
1763700001607663600,2.63566357421875,0.5505260825157166,0.39506545662879944,0.27595025300979614
1763700001617251300,2.645251220703125,0.8290724158287048,0.2032594233751297,0.1525591015815735
1763700001626838300,2.65483837890625,1.0868499279022217,-0.004428642801940441,-0.029473381116986275
1763700001636424200,2.664424072265625,1.2749909162521362,-0.20845162868499756,-0.25060009956359863
1763700001646011100,2.67401123046875,1.3617312908172607,-0.37704548239707947,-0.4656183123588562
1763700001655598800,2.683598876953125,1.3641746044158936,-0.4784461259841919,-0.6317687630653381
1763700001665185800,2.693185791015625,1.3238587379455566,-0.5138752460479736,-0.7319477200508118
1763700001674772000,2.70277197265625,1.26399564743042,-0.5334223508834839,-0.7710419297218323
1763700001684359000,2.71235888671875,1.2261232137680054,-0.5627430081367493,-0.7734853625297546
1763700001693946600,2.721946533203125,1.2273448705673218,-0.5749599933624268,-0.7404996156692505
1763700001703533600,2.731533447265625,1.261552333831787,-0.6421532034873962,-0.6549809575080872
1763700001713119500,2.741119384765625,1.2859861850738525,-0.6751389503479004,-0.5010474920272827
1763700001722706400,2.75070654296875,1.261552333831787,-0.6299362182617188,-0.30435463786125183
1763700001732294100,2.760294189453125,1.190693974494934,-0.5358657836914062,-0.0587940476834774
1763700001741881000,2.769881103515625,1.0599727630615234,-0.41980478167533875,0.2673983871936798
1763700001751467300,2.77946728515625,0.8449544906616211,-0.28786176443099976,0.6413896083831787
1763700001761054200,2.78905419921875,0.5896202921867371,-0.14492350816726685,0.994459331035614
1763700001770642000,2.798641845703125,0.335507869720459,0.07620319724082947,1.2424633502960205
1763700001780228600,2.808228515625,0.12904147803783417,0.2655658423900604,1.391510009765625
1763700001789814800,2.817814697265625,0.02764083817601204,0.35474956035614014,1.4489296674728394
1763700001799402000,2.827402099609375,-0.01511846948415041,0.38040512800216675,1.41594398021698
1763700001808989400,2.836989501953125,0.017867282032966614,0.4268295168876648,1.3096565008163452
1763700001818576400,2.846576416015625,0.13270656764507294,0.43293800950050354,1.1826002597808838
1763700001828162600,2.85616259765625,0.3061871826648712,0.3596363365650177,1.0616525411605835
1763700001837749500,2.86574951171875,0.4931064546108246,0.19715094566345215,0.9211576581001282
1763700001847337200,2.875337158203125,0.6128324866294861,-0.01175880990922451,0.7220214605331421
1763700001856924200,2.884924072265625,0.6250494718551636,-0.23410721123218536,0.525175929069519
1763700001866510300,2.89451025390625,0.5602996349334717,-0.39292749762535095,0.372464120388031
1763700001876097300,2.90409716796875,0.4808894991874695,-0.5089884996414185,0.27717193961143494
1763700001885685000,2.91368505859375,0.40514445304870605,-0.6274928450584412,0.22219568490982056
1763700001895271700,2.923271728515625,0.27686652541160583,-0.6751389503479004,0.1892099380493164
1763700001904857900,2.93285791015625,0.03130592033267021,-0.5993938446044922,0.21853061020374298
1763700001914444800,2.94244482421875,-0.32665055990219116,-0.43446511030197144,0.30160582065582275
1763700001924032500,2.952032470703125,-0.7346965670585632,-0.19989976286888123,0.39201122522354126
1763700001933619500,2.961619384765625,-1.1720632314682007,0.14461809396743774,0.5129590034484863
1763700001943205600,2.97120556640625,-1.6424155235290527,0.6247440576553345,0.6450546979904175
1763700001952792600,2.98079248046875,-2.0932209491729736,1.1940536499023438,0.7733326554298401
1763700001962380300,2.99038037109375,-2.407196283340454,1.7132738828659058,0.869846522808075
1763700001971967000,2.999967041015625,-2.4401819705963135,2.0199191570281982,0.8344173431396484
1763700001981553200,3.00955322265625,-2.1188764572143555,1.9417307376861572,0.6328377723693848
1763700001991140000,3.01914013671875,-1.566670536994934,1.6192033290863037,0.3480302393436432
1763700002000727800,3.028727783203125,-1.0388984680175781,1.2026054859161377,0.1513374149799347
1763700002010314800,3.038314697265625,-0.7029324769973755,0.8898517489433289,0.1769929975271225
1763700002019901000,3.04790087890625,-0.6760551929473877,0.6809419989585876,0.35536038875579834
1763700002029487900,3.05748779296875,-0.8641961812973022,0.5037962794303894,0.49829864501953125
1763700002039074600,3.067074462890625,-1.143964171409607,0.3975088596343994,0.49829864501953125
1763700002048661500,3.07666162109375,-1.4420576095581055,0.26190075278282166,0.4249969720840454
1763700002067834400,3.09583447265625,-1.811009407043457,0.19348587095737457,0.31382277607917786
1763700002087009000,3.115009033203125,-2.2373807430267334,0.07009471952915192,0.19898349046707153
1763700002096595200,3.12459521484375,-2.3876492977142334,0.16172181069850922,0.04016320779919624
1763700002106182100,3.13418212890625,-2.430408477783203,0.23258009552955627,-0.05390727147459984
1763700002115769900,3.143769775390625,-2.0846688747406006,0.164165198802948,-0.16630317270755768
1763700002125356800,3.153356689453125,-1.3919682502746582,0.07986827939748764,-0.08322793990373611
1763700002134942700,3.162942626953125,-0.6772769093513489,-0.08994726091623306,0.14522893726825714
1763700002144530000,3.172530029296875,-0.32665055990219116,-0.10827267915010452,0.18310146033763885
1763700002154117600,3.18211767578125,-0.4366030693054199,0.034665580838918686,0.06581879407167435
1763700002163704300,3.191704345703125,-0.6601731777191162,0.2166980654001236,0.023059483617544174
1763700002173290500,3.20129052734375,-0.8800781965255737,0.423164427280426,0.07314895838499069
1763700002182877400,3.21087744140625,-1.1048699617385864,0.658951461315155,0.14645062386989594
1763700002192465200,3.220465087890625,-1.173284888267517,0.7285880446434021,0.26373329758644104
1763700002202052000,3.230052001953125,-1.0938746929168701,0.5709894895553589,0.3993414044380188
1763700002211638300,3.23963818359375,-0.8666395545005798,0.3217637836933136,0.5349494814872742
1763700002221225200,3.24922509765625,-0.49768781661987305,0.0981936976313591,0.6438329815864563
1763700002230813000,3.25881298828125,-0.08353336155414581,-0.2573194205760956,0.6865923404693604
1763700002240400000,3.26839990234375,0.39414918422698975,-0.7435538172721863,0.6389462351799011
1763700002249985800,3.27798583984375,0.8926005363464355,-1.1393828392028809,0.6277982592582703
1763700002259572700,3.28757275390625,1.2603305578231812,-1.5046695470809937,0.6939224600791931
1763700002269160400,3.297160400390625,1.261552333831787,-1.5877447128295898,0.8038749694824219
1763700002278747400,3.306747314453125,0.830294132232666,-1.4313678741455078,0.9969027042388916
1763700002288333600,3.31633349609375,0.33917292952537537,-0.9097042679786682,1.1459494829177856
1763700002297920500,3.32592041015625,0.017867282032966614,-0.18279604613780975,1.1215155124664307
1763700002307508200,3.33550830078125,-0.2777827978134155,0.5832064151763916,0.9407047629356384
1763700002317095000,3.345094970703125,-0.6223006248474121,1.0792144536972046,0.7928797602653503
1763700002326681000,3.35468115234375,-0.9631534218788147,1.1574028730392456,0.6646018028259277
1763700002336268000,3.36426806640625,-1.1574028730392456,0.7982246279716492,0.5654918551445007
1763700002345855700,3.373855712890625,-1.1696197986602783,0.09941539168357849,0.5080721974372864
1763700002355442700,3.383442626953125,-1.1048699617385864,-0.6323796510696411,0.5007420182228088
1763700002365028900,3.39302880859375,-1.0633323192596436,-1.0306520462036133,0.5227325558662415
1763700002374615800,3.40261572265625,-1.0352333784103394,-1.0734113454818726,0.5935907959938049
1763700002384203500,3.41220361328125,-0.9949174523353577,-0.9549070000648499,0.6927008032798767
1763700002393790500,3.42179052734375,-0.9423846006393433,-0.8021951913833618,0.7513421177864075
1763700002403376600,3.431376708984375,-0.8935168385505676,-0.6861341595649719,0.7171346545219421
1763700002412963600,3.440963623046875,-0.793337881565094,-0.649483323097229,0.553274929523468
1763700002422551300,3.45055126953125,-0.6161921620368958,-0.6140542030334473,0.2686200737953186
1763700002432138000,3.460137939453125,-0.3962871730327606,-0.4821111857891083,-0.007482878863811493
1763700002441724200,3.46972412109375,-0.17271706461906433,-0.26098448038101196,-0.14675605297088623
1763700002451311000,3.47931103515625,-0.018783552572131157,-0.04963133856654167,-0.20784078538417816
1763700002460898800,3.48889892578125,0.14248012006282806,0.10674555599689484,-0.2408265322446823
1763700002470485800,3.49848583984375,0.31596073508262634,0.19592925906181335,-0.256708562374115
1763700002480072000,3.508072021484375,0.48455458879470825,0.2570139765739441,-0.29091599583625793
1763700002489659000,3.517658935546875,0.6140542030334473,0.26434415578842163,-0.34100547432899475
1763700002499246600,3.52724658203125,0.6812474131584167,0.22647161781787872,-0.42041563987731934
1763700002508833500,3.53683349609375,0.6946860551834106,0.18126893043518066,-0.5095993280410767
1763700002518419500,3.54641943359375,0.724006712436676,0.19470755755901337,-0.5719057321548462
1763700002528006400,3.55600634765625,0.7020162343978882,0.25945737957954407,-0.5963396430015564
1763700002537594000,3.565593994140625,0.6910209655761719,0.33886751532554626,-0.6024481058120728
1763700002547181000,3.57518115234375,0.695907711982727,0.474475622177124,-0.5719057321548462
1763700002556767200,3.584767333984375,0.6653653979301453,0.5416688323020935,-0.5095993280410767
1763700002566354200,3.594354248046875,0.4772244095802307,0.3840702176094055,-0.4362976551055908
1763700002575942000,3.60394189453125,0.1754658818244934,0.010231691412627697,-0.3092414140701294
1763700002585528800,3.61352880859375,-0.005344913341104984,-0.37826716899871826,-0.07956285774707794
1763700002595114800,3.62311474609375,-0.11896250396966934,-0.45523393154144287,0.12934690713882446
1763700002604702000,3.632701904296875,-0.2716743052005768,-0.35383328795433044,0.24785128235816956
1763700002614289700,3.64228955078125,-0.39506545662879944,-0.2805316150188446,0.29061058163642883
1763700002623876400,3.65187646484375,-0.40972578525543213,-0.25121092796325684,0.23807771503925323
1763700002633462500,3.661462646484375,-0.4366030693054199,-0.19745637476444244,0.1525591015815735
1763700002643049500,3.671049560546875,-0.3596363365650177,-0.16813570261001587,0.0719272643327713
1763700002652637200,3.68063720703125,-0.17393875122070312,-0.15836215019226074,-0.01969982497394085
1763700002662224100,3.69022412109375,-0.02733541466295719,-0.18401773273944855,-0.09910997003316879
1763700002671810300,3.699810302734375,0.09483403712511063,-0.12659808993339539,-0.11743538826704025
1763700002681397200,3.709397216796875,0.09361234307289124,-0.1241547018289566,-0.09666658192873001
1763700002690985000,3.71898486328125,0.09727742522954941,0.0016798300202935934,-0.046577103435993195
1763700002700572000,3.728572021484375,0.23288552463054657,0.30099499225616455,0.03649812191724777
1763700002710157800,3.73815771484375,0.37826716899871826,0.48791423439979553,0.12690351903438568
1763700002719744800,3.747744873046875,0.3978142738342285,0.5233433842658997,0.2026485800743103
1763700002729332500,3.75733251953125,0.32939937710762024,0.4146125912666321,0.24785128235816956
1763700002738919400,3.76691943359375,0.20356485247612,0.22647161781787872,0.24052110314369202
1763700002748505600,3.776505615234375,0.06429167091846466,0.050547610968351364,0.1916533261537552
1763700002758092500,3.786092529296875,-0.031000498682260513,-0.08261708915233612,0.11712995916604996
1763700002767680300,3.79568017578125,-0.09697200357913971,-0.06184828653931618,0.06459710001945496
1763700002777267200,3.80526708984375,-0.1507265567779541,-0.021532366052269936,0.05604523420333862
1763700002786853000,3.81485302734375,-0.18371231853961945,-0.06429167091846466,0.06337540596723557
1763700002796440000,3.824440185546875,-0.18737739324569702,-0.09239064902067184,0.07559234648942947
1763700002806027800,3.83402783203125,-0.16783028841018677,-0.08994726091623306,0.07314895838499069
1763700002815614700,3.84361474609375,-0.12873606383800507,-0.08628217875957489,0.03649812191724777
1763700002825201000,3.853200927734375,-0.06642963737249374,-0.039857782423496246,-0.014813045971095562
1763700002834787800,3.862787841796875,-0.06154286116361618,0.02244863659143448,-0.028251685202121735
1763700002844375600,3.87237548828125,-0.05665608495473862,0.13362284004688263,0.04504998400807381
1763700002853962500,3.88196240234375,-0.004123218823224306,0.21058958768844604,0.1366770714521408
1763700002863548400,3.89154833984375,0.01175880990922451,0.19470755755901337,0.17332790791988373
1763700002873135600,3.901135498046875,0.017867282032966614,0.15683503448963165,0.15988926589488983
1763700002882723300,3.910723388671875,0.039857782423496246,0.1360662281513214,0.11957334727048874
1763700002892310000,3.92031005859375,0.13270656764507294,0.14583978056907654,0.03161134570837021
1763700002901896200,3.929896240234375,0.20845162868499756,0.2814478874206543,-0.030695075169205666
1763700002911483100,3.939483154296875,0.2585411071777344,0.5099047422409058,0.09025268256664276
1763700002921070800,3.94907080078125,0.3110739588737488,0.603975236415863,0.2832804024219513
1763700002930657800,3.95865771484375,0.26464956998825073,0.4805840849876404,0.39445462822914124
1763700002940244000,3.968243896484375,0.13148486614227295,0.3315373361110687,0.3199312388896942
1763700002949831000,3.977830810546875,-0.004123218823224306,0.21425467729568481,0.10369132459163666
1763700002959418600,3.987418701171875,-0.005344913341104984,0.14461809396743774,-0.06856760382652283
1763700002969005600,3.997005615234375,0.14736689627170563,0.14339639246463776,-0.0844496339559555
1763700002978591500,4.006591552734375,0.3318427801132202,0.21791976690292358,0.03649812191724777
1763700002988178400,4.016178466796875,0.45767730474472046,0.26067906618118286,0.20997874438762665
1763700002997766100,4.02576611328125,0.5578562617301941,0.22036315500736237,0.3382566571235657
1763700003007353000,4.03535302734375,0.6152759194374084,0.10918894410133362,0.3455868363380432
1763700003016939300,4.044939208984375,0.6531484127044678,-0.04840964451432228,0.2527380585670471
1763700003026526200,4.054526123046875,0.6592568755149841,-0.15591876208782196,0.10857810080051422
1763700003036114000,4.064114013671875,0.6397097706794739,-0.18523943424224854,0.005955760832875967
1763700003045700600,4.07370068359375,0.6006155610084534,-0.2683146595954895,-0.00992626789957285
1763700003055286800,4.083286865234375,0.5004366040229797,-0.37826716899871826,0.019394399598240852
1763700003064873700,4.092873779296875,0.41858309507369995,-0.38071054220199585,0.09025268256664276
1763700003074461400,4.10246142578125,0.35138988494873047,-0.24876753985881805,0.22097399830818176
1763700003084048400,4.11204833984375,0.24021568894386292,-0.04107947647571564,0.34314343333244324
1763700003093634600,4.121634521484375,0.14248012006282806,0.06887302547693253,0.3077143132686615
1763700003103221500,4.131221435546875,0.16080553829669952,0.04077405482530594,0.17210622131824493
1763700003112809200,4.140809326171875,0.15347537398338318,0.050547610968351364,0.03161134570837021
1763700003122396200,4.150396240234375,0.0594048947095871,0.11285403370857239,-0.12354385852813721
1763700003131982000,4.159982177734375,0.02641914412379265,0.13240113854408264,-0.2554868757724762
1763700003141569000,4.169569091796875,0.07773031294345856,0.15561333298683167,-0.2811424434185028
1763700003151156700,4.17915673828125,0.13026317954063416,0.16538690030574799,-0.22372281551361084
1763700003160743700,4.18874365234375,0.1363716572523117,0.17149536311626434,-0.14553436636924744
1763700003170329900,4.198329833984375,0.09972081333398819,0.14095300436019897,-0.13576079905033112
1763700003189504500,4.21750439453125,-0.0456608310341835,-0.12659808993339539,-0.3348970115184784
1763700003199091500,4.227091552734375,-0.18004722893238068,-0.32939937710762024,-0.4534013867378235
1763700003208677600,4.236677734375,-0.2301367074251175,-0.48455458879470825,-0.5022691488265991
1763700003218264600,4.2462646484375,-0.2289150059223175,-0.566408097743988,-0.5144860744476318
1763700003227852300,4.255852294921875,-0.2973299026489258,-0.44301697611808777,-0.5132644176483154
1763700003237439000,4.26543896484375,-0.3339807391166687,-0.03497100621461868,-0.4888305068016052
1763700003247025200,4.275025146484375,-0.39384377002716064,0.11285403370857239,-0.47050508856773376
1763700003256612000,4.284612060546875,-0.4622586667537689,0.2582356929779053,-0.3874298632144928
1763700003266199800,4.29419970703125,-0.43293800950050354,0.4378247857093811,-0.1772984117269516
1763700003275786800,4.303786865234375,-0.3852919042110443,0.3315373361110687,-0.03680354729294777
1763700003285373000,4.313373046875,-0.4647020399570465,-0.0032069480512291193,-0.05268557742238045
1763700003294959900,4.3229599609375,-0.6675033569335938,-0.27320143580436707,-0.2298312783241272
1763700003304547600,4.332547607421875,-0.844649076461792,-0.44668206572532654,-0.4815003573894501
1763700003314134500,4.342134521484375,-0.969261884689331,-0.4503471553325653,-0.7136223316192627
1763700003323720400,4.351720458984375,-1.0511153936386108,-0.3721587061882019,-0.8712208867073059
1763700003333307400,4.361307373046875,-1.0315682888031006,-0.40514445304870605,-1.0104941129684448
1763700003342895000,4.37089501953125,-0.8654178380966187,-0.333064466714859,-1.0923476219177246
1763700003352482000,4.38048193359375,-0.7676823139190674,-0.016645587980747223,-1.0593618154525757
1763700003362068200,4.390068115234375,-0.8043331503868103,0.3217637836933136,-0.932305634021759
1763700003371655200,4.3996552734375,-0.7212579250335693,0.12629267573356628,-0.5792359113693237
1763700003381243000,4.409242919921875,-0.5306735634803772,-0.32695600390434265,-0.12110047042369843
1763700003390829600,4.41882958984375,-0.45737189054489136,-0.30007871985435486,0.11590826511383057
1763700003400415700,4.428415771484375,-0.376740038394928,-0.13026317954063416,0.2148655205965042
1763700003410002700,4.438002685546875,-0.2667875289916992,-0.21333840489387512,0.18187977373600006
1763700003419590400,4.44759033203125,-0.34375429153442383,-0.4136963188648224,0.11957334727048874
1763700003429177300,4.45717724609375,-0.5245651006698608,-0.3978142738342285,0.10124793648719788
1763700003438763500,4.466763427734375,-0.695602297782898,-0.39170581102371216,0.10613471269607544
1763700003448350500,4.4763505859375,-0.8238802552223206,-0.4112529158592224,0.10857810080051422
1763700003457938200,4.485938232421875,-0.8971819281578064,-0.35138988494873047,0.13545538485050201
1763700003467524900,4.49552490234375,-0.982700526714325,-0.32939937710762024,0.08903098851442337
1763700003477111000,4.505111083984375,-1.1476292610168457,-0.3831539452075958,-0.0050394898280501366
1763700003486698000,4.514697998046875,-1.3846380710601807,-0.3220692276954651,-0.011147962883114815
1763700003496285700,4.52428564453125,-1.631420373916626,-0.18646112084388733,0.01817270554602146
1763700003505872600,4.53387255859375,-1.8036792278289795,-0.09239064902067184,-0.01725643500685692
1763700003515458800,4.543458740234375,-1.8158961534500122,-0.04474456235766411,-0.20906247198581696
1763700003525045800,4.553045654296875,-1.6595193147659302,-0.05207473039627075,-0.3434488773345947
1763700003534633500,4.562633544921875,-1.5129159688949585,0.021226942539215088,-0.411863774061203
1763700003544220400,4.572220458984375,-1.3724210262298584,0.13484452664852142,-0.48516544699668884
1763700003553806300,4.581806396484375,-1.1561810970306396,0.19592925906181335,-0.567018985748291
1763700003563393500,4.5913935546875,-0.7835643291473389,-0.03130592033267021,-0.6537593007087708
1763700003572981200,4.600981201171875,-0.41827765107154846,-0.34283801913261414,-0.7392778992652893
1763700003582568000,4.61056787109375,-0.2423536479473114,-0.5322006940841675,-0.7576032876968384
1763700003592154000,4.620154052734375,-0.16783028841018677,-0.6702521443367004,-0.7539382576942444
1763700003601741000,4.629740966796875,-0.08108997344970703,-0.8645015954971313,-0.8504521250724792
1763700003611328800,4.639328857421875,0.14736689627170563,-1.4069339036941528,-0.9591829180717468
1763700003620915700,4.648915771484375,0.4100312292575836,-1.3397407531738281,-1.2768235206604004
1763700003630501600,4.658501708984375,0.30252209305763245,-0.4161396920681,-1.5150538682937622
1763700003640088800,4.6680888671875,-0.13484452664852142,-0.2927485406398773,-0.8699992299079895
1763700003649676500,4.677676513671875,-0.26434415578842163,-0.19745637476444244,-0.21150586009025574
1763700003659263500,4.687263427734375,-0.20081603527069092,0.05787777900695801,-0.006261184345930815
1763700003668849400,4.696849365234375,-0.24601873755455017,0.032222192734479904,0.10735640674829483
1763700003678436400,4.706436279296875,-0.2826695740222931,0.0456608310341835,0.013285927474498749
1763700003688024000,4.716024169921875,-0.33886751532554626,0.017561858519911766,-0.04169032722711563
1763700003697611000,4.725611083984375,-0.3706315755844116,-0.11438114941120148,0.062153708189725876
1763700003707197200,4.735197265625,-0.21791976690292358,-0.14248012006282806,0.2148655205965042
1763700003716784000,4.7447841796875,-0.03833066672086716,-0.056961506605148315,0.2673983871936798
1763700003726371800,4.754371826171875,-0.03833066672086716,0.028557108715176582,0.3480302393436432
1763700003735958800,4.763958740234375,-0.1104106456041336,0.07375980913639069,0.5239542126655579
1763700003745544700,4.773544677734375,-0.1238492801785469,0.15316994488239288,0.6058077812194824
1763700003755131600,4.783131591796875,-0.0725381150841713,0.2044811248779297,0.5728220343589783
1763700003764719400,4.79271923828125,0.016645587980747223,0.17271706461906433,0.5948125123977661
1763700003774306300,4.802306396484375,0.0716218426823616,0.05787777900695801,0.8283088803291321
1763700003783892500,4.811892578125,-0.04077405482530594,0.03955236077308655,0.7427902817726135
1763700003793479400,4.8214794921875,-0.13973131775856018,0.029778804630041122,0.561826765537262
1763700003803067100,4.831067138671875,-0.1763821393251419,-0.14248012006282806,0.525175929069519
1763700003812653800,4.84065380859375,-0.2545706033706665,-0.2829749882221222,0.5667135715484619
1763700003822240000,4.850239990234375,-0.32787227630615234,-0.358720064163208,0.6155813336372375
1763700003831827000,4.859826904296875,-0.32665055990219116,-0.3758237659931183,0.6119162440299988
1763700003841414700,4.86941455078125,-0.2655658423900604,-0.3208475112915039,0.576487123966217
1763700003851001600,4.879001708984375,-0.17882554233074188,-0.2145601063966751,0.5581616759300232
1763700003860587800,4.888587890625,-0.08964183181524277,-0.12048961967229843,0.5825955867767334
1763700003870174700,4.8981748046875,-0.020005248486995697,-0.06306997686624527,0.6253548860549927
1763700003879762400,4.907762451171875,0.03374931216239929,-0.06673506647348404,0.6511631608009338
1763700003889349000,4.91734912109375,0.09239064902067184,-0.12781979143619537,0.6474980711936951
1763700003898935300,4.926935302734375,0.1388150453567505,-0.2292204350233078,0.6119162440299988
1763700003908522200,4.936522216796875,0.16080553829669952,-0.26342788338661194,0.5386145710945129
1763700003918110000,4.94610986328125,0.15836215019226074,-0.2585411071777344,0.4237752854824066
1763700003927697000,4.95569677734375,0.14736689627170563,-0.22433365881443024,0.2673983871936798
1763700003937283000,4.965282958984375,0.1388150453567505,-0.13270656764507294,0.0719272643327713
1763700003946870000,4.9748701171875,0.14370182156562805,-0.11926792562007904,0.2673983871936798
1763700003956457700,4.984457763671875,0.13514995574951172,-0.12904147803783417,0.22463907301425934
1763700003966044700,4.994044677734375,0.06429167091846466,0.010231691412627697,0.11957334727048874
1763700003975630600,5.003630615234375,0.010537114925682545,0.2557922899723053,0.1122431829571724
1763700003985217500,5.013217529296875,-0.052990999072790146,0.4146125912666321,0.15744587779045105
1763700003994805200,5.02280517578125,-0.1104106456041336,0.44515493512153625,0.20753535628318787
1763700004004392200,5.03239208984375,-0.1360662281513214,0.45737189054489136,0.25029465556144714
1763700004013978400,5.041978271484375,-0.1372879147529602,0.4818057715892792,0.2820587158203125
1763700004023565300,5.0515654296875,-0.12873606383800507,0.4928010404109955,0.29916244745254517
1763700004033153000,5.061153076171875,-0.11285403370857239,0.5245651006698608,0.3077143132686615
1763700004042740000,5.070739990234375,-0.08231166750192642,0.5599942207336426,0.30404922366142273
1763700004052326000,5.080325927734375,-0.03955236077308655,0.6051968932151794,0.323596328496933
1763700004061912800,5.089912841796875,0.014202198944985867,0.6723901033401489,0.372464120388031
1763700004071500500,5.09950048828125,0.07040014863014221,0.7530219554901123,0.4286620616912842
1763700004081087500,5.10908740234375,0.10949437320232391,0.7994463443756104,0.4750864505767822
1763700004090673700,5.118673583984375,0.14248012006282806,0.8141067028045654,0.5276193022727966
1763700004100260600,5.128260498046875,0.18035265803337097,0.793337881565094,0.6119162440299988
1763700004109848300,5.137848388671875,0.21089501678943634,0.7261446714401245,0.7098045349121094
1763700004119435000,5.14743505859375,0.22677704691886902,0.6442911624908447,0.786771297454834
1763700004129021200,5.157021240234375,0.23166382312774658,0.6174138784408569,0.8502993583679199
1763700004138608000,5.166608154296875,0.2548760175704956,0.6650599241256714,0.9040539264678955
1763700004148195800,5.17619580078125,0.2829749882221222,0.6345176100730896,0.9407047629356384
1763700004157782800,5.18578271484375,0.31229567527770996,0.5538857579231262,0.9602518677711487
1763700004167369000,5.195368896484375,0.3465031087398529,0.5001311898231506,0.9834640622138977
1763700004176956000,5.204955810546875,0.37704548239707947,0.4781406819820404,1.0103414058685303
1763700004186543600,5.214543701171875,0.4027010500431061,0.4695888161659241,1.0396620035171509
1763700004196130600,5.224130615234375,0.4283566474914551,0.448820024728775,1.0738694667816162
1763700004205716500,5.233716552734375,0.44668206572532654,0.40361732244491577,1.1276240348815918
1763700004215303400,5.243303466796875,0.4637857675552368,0.3315373361110687,1.1997040510177612
1763700004224891100,5.25289111328125,0.47355934977531433,0.2411319613456726,1.2693406343460083
1763700004234478000,5.26247802734375,0.4491254389286041,0.11407572776079178,1.30476975440979
1763700004244064300,5.272064208984375,0.3892624080181122,-0.0594048947095871,1.290109395980835
1763700004253651200,5.281651123046875,0.30740886926651,-0.23899398744106293,1.225359559059143
1763700004263239000,5.291239013671875,0.23166382312774658,-0.36605021357536316,1.1300674676895142
1763700004272825900,5.300825927734375,0.17302247881889343,-0.3990359604358673,1.0286667346954346
1763700004282411800,5.310411865234375,0.13270656764507294,-0.37704548239707947,0.948034942150116
1763700004291998700,5.319998779296875,0.10705098509788513,-0.34161633253097534,0.8942803740501404
1763700004301586400,5.32958642578125,0.0716218426823616,-0.31229567527770996,0.856407880783081
1763700004311173400,5.33917333984375,0.025197450071573257,-0.30130040645599365,0.8234221339225769
1763700004320759600,5.348759521484375,-0.029778804630041122,-0.30374380946159363,0.7941014170646667
1763700004330346500,5.358346435546875,-0.10308047384023666,-0.3196258246898651,0.7611156702041626
1763700004339934200,5.367934326171875,-0.18615570664405823,-0.3489464819431305,0.712247908115387
1763700004349521000,5.37752099609375,-0.2655658423900604,-0.38071054220199585,0.6499415040016174
1763700004359107000,5.387107177734375,-0.32542887330055237,-0.3843756318092346,0.5716003179550171
1763700004368694000,5.396694091796875,-0.3608580231666565,-0.35261157155036926,0.46897798776626587
1763700004378281700,5.40628173828125,-0.37918344140052795,-0.30252209305763245,0.3578037917613983
1763700004387868700,5.41586865234375,-0.3828485310077667,-0.24876753985881805,0.26495498418807983
1763700004397454800,5.425454833984375,-0.3730749487876892,-0.20234315097332,0.21975229680538177
1763700004407041800,5.435041748046875,-0.35108447074890137,-0.16080553829669952,0.24540787935256958
1763700004416629500,5.44462939453125,-0.3571929335594177,-0.12293300777673721,0.35658207535743713
1763700004426216400,5.454216552734375,-0.41827765107154846,-0.07406523078680038,0.5080721974372864
1763700004435802400,5.46380224609375,-0.4915793240070343,-0.0068720318377017975,0.6070294380187988
1763700004445389300,5.473389404296875,-0.5404471158981323,0.018783552572131157,0.6058077812194824
1763700004454977000,5.48297705078125,-0.5697677731513977,-0.025197450071573257,0.5117372870445251
1763700004464564000,5.49256396484375,-0.5758762359619141,-0.09239064902067184,0.3590254783630371
1763700004474150100,5.502150146484375,-0.5856497883796692,-0.19256959855556488,0.18432316184043884
1763700004483737000,5.511737060546875,-0.5954233407974243,-0.32817769050598145,0.0010689827613532543
1763700004493324500,5.521324462890625,-0.5758762359619141,-0.43080002069473267,-0.17974179983139038
1763700004502911500,5.530911376953125,-0.529451847076416,-0.4760027229785919,-0.3190149664878845
1763700004512497700,5.54049755859375,-0.48791423439979553,-0.4637857675552368,-0.36666107177734375
1763700004522084600,5.550084716796875,-0.4683671295642853,-0.40636613965034485,-0.2921377122402191
1763700004531672300,5.55967236328125,-0.48669254779815674,-0.30007871985435486,-0.11743538826704025
1763700004541259300,5.56925927734375,-0.5428904891014099,-0.14736689627170563,0.09391776472330093
1763700004550845200,5.57884521484375,-0.6051968932151794,0.032222192734479904,0.27350685000419617
1763700004560432400,5.588432373046875,-0.6210789680480957,0.18615570664405823,0.40422818064689636
1763700004570020000,5.59802001953125,-0.580763041973114,0.2851129472255707,0.4909684956073761
1763700004579606800,5.607606689453125,-0.5209000110626221,0.29977330565452576,0.533727765083313
1763700004589193000,5.61719287109375,-0.4158342778682709,0.22036315500736237,0.50196373462677
1763700004598780000,5.62677978515625,-0.31199023127555847,0.06642963737249374,0.40422818064689636
1763700004608367600,5.63636767578125,-0.27656111121177673,-0.11315945535898209,0.27717193961143494
1763700004617954600,5.64595458984375,-0.2582356929779053,-0.24510246515274048,0.1525591015815735
1763700004627540500,5.65554052734375,-0.22158484160900116,-0.28908345103263855,0.06337540596723557
1763700004637127400,5.66512744140625,-0.14461809396743774,-0.2170034945011139,0.012064233422279358
1763700004646715100,5.674715087890625,-0.07742489129304886,-0.11438114941120148,-0.00015271181473508477
1763700004656302000,5.684302001953125,-0.04688252881169319,-0.04718795046210289,0.014507622458040714
1763700004665888300,5.69388818359375,-0.0456608310341835,-0.02764083817601204,0.041384901851415634
1763700004675475200,5.70347509765625,-0.06276455521583557,-0.036192700266838074,0.0719272643327713
1763700004685063000,5.71306298828125,-0.08108997344970703,-0.06062658876180649,0.10246963053941727
1763700004694649600,5.722649658203125,-0.09086353331804276,-0.09361234307289124,0.12812520563602448
1763700004704235800,5.73223583984375,-0.09208522737026215,-0.12048961967229843,0.14767232537269592
1763700004713822700,5.74182275390625,-0.08353336155414581,-0.14003673195838928,0.1635543555021286
1763700004723410400,5.751410400390625,-0.06765133142471313,-0.14858859777450562,0.16966283321380615
1763700004732997400,5.760997314453125,-0.04810422286391258,-0.15958385169506073,0.16111096739768982
1763700004742583600,5.77058349609375,-0.02733541466295719,-0.1754658818244934,0.13301199674606323
1763700004752170500,5.78017041015625,-0.010231691412627697,-0.18035265803337097,0.0988045409321785
1763700004761758200,5.78975830078125,0.0007635590736754239,-0.17424418032169342,0.06337540596723557
1763700004771345000,5.799344970703125,0.008093725889921188,-0.15591876208782196,0.03161134570837021
1763700004780931000,5.80893115234375,0.012980503961443901,-0.13392825424671173,0.005955760832875967
1763700004790518000,5.81851806640625,0.001985253533348441,-0.14370182156562805,0.007177455350756645
1763700004800105700,5.828105712890625,0.001985253533348441,-0.1375933438539505,0.010842538438737392
1763700004809692700,5.837692626953125,0.004428642801940441,-0.12659808993339539,0.01572931744158268
1763700004819278800,5.84727880859375,0.009315420873463154,-0.12048961967229843,0.020616095513105392
1763700004828865800,5.85686572265625,0.015423892997205257,-0.11315945535898209,0.023059483617544174
1763700004838453500,5.86645361328125,0.022754060104489326,-0.10582929104566574,0.023059483617544174
1763700004848040400,5.87604052734375,0.02886253222823143,-0.09972081333398819,0.020616095513105392
1763700004857626400,5.88562646484375,0.03374931216239929,-0.09483403712511063,0.01695101149380207
1763700004867213300,5.89521337890625,0.036192700266838074,-0.08994726091623306,0.013285927474498749
1763700004876801000,5.904801025390625,0.036192700266838074,-0.08628217875957489,0.009620844386518002
1763700004886388000,5.914387939453125,0.036192700266838074,-0.08750387281179428,0.005955760832875967
1763700004895974100,5.92397412109375,0.036192700266838074,-0.08750387281179428,0.0022906772792339325
1763700004905561000,5.93356103515625,0.03497100621461868,-0.09483403712511063,-0.001374406274408102
1763700004915148800,5.943148681640625,0.03374931216239929,-0.10216420143842697,-0.0050394898280501366
1763700004924735500,5.952735595703125,0.03374931216239929,-0.10582929104566574,-0.008704573847353458
1763700004934321700,5.96232177734375,0.0325276181101799,-0.10460758954286575,-0.00992626789957285
1763700004943908600,5.97190869140625,0.03008422814309597,-0.10094250738620758,-0.012369656935334206
1763700004953496300,5.981496337890625,0.02641914412379265,-0.08872556686401367,-0.016034740954637527
1763700004963083300,5.991083251953125,0.020310672000050545,-0.0716218426823616,-0.02092151902616024
1763700004972669200,6.000669189453125,0.012980503961443901,-0.04963133856654167,-0.024586603045463562
1763700004982256400,6.01025634765625,0.004428642801940441,-0.03130592033267021,-0.027029991149902344
1763700004991843800,6.01984375,-0.0029015245381742716,-0.016645587980747223,-0.025808297097682953
1763700005001430800,6.0294306640625,-0.012675080448389053,-0.0068720318377017975,-0.02214321307837963
1763700005011017000,6.039016845703125,-0.018783552572131157,-0.0032069480512291193,-0.016034740954637527
1763700005020604000,6.04860400390625,-0.02367033064365387,-0.004428642801940441,-0.008704573847353458
1763700005030191600,6.058191650390625,-0.0261137206107378,-0.008093725889921188,-0.00015271181473508477
1763700005039778300,6.0677783203125,-0.0261137206107378,-0.009315420873463154,0.005955760832875967
1763700005049364500,6.077364501953125,-0.0261137206107378,-0.014202198944985867,0.010842538438737392
1763700005058951400,6.086951416015625,-0.02367033064365387,-0.016645587980747223,0.012064233422279358
1763700005068539100,6.0965390625,-0.02244863659143448,-0.016645587980747223,0.012064233422279358
1763700005078126000,6.1061259765625,-0.021226942539215088,-0.019088976085186005,0.012064233422279358
1763700005087712300,6.115712158203125,-0.020005248486995697,-0.019088976085186005,0.009620844386518002
1763700005097299200,6.12529931640625,-0.020005248486995697,-0.019088976085186005,0.009620844386518002
1763700005106887000,6.134886962890625,-0.018783552572131157,-0.017867282032966614,0.009620844386518002
1763700005116473900,6.144473876953125,-0.021226942539215088,-0.021532366052269936,0.013285927474498749
1763700005126059800,6.154059814453125,-0.02244863659143448,-0.022754060104489326,0.01572931744158268
1763700005135646700,6.163646728515625,-0.02367033064365387,-0.02764083817601204,0.01695101149380207
1763700005145234400,6.173234375,-0.02367033064365387,-0.03008422814309597,0.01817270554602146
1763700005154821400,6.1828212890625,-0.02489202655851841,-0.03130592033267021,0.019394399598240852
1763700005164407600,6.192407470703125,-0.02244863659143448,-0.0325276181101799,0.01695101149380207
1763700005173994500,6.201994384765625,-0.021226942539215088,-0.03008422814309597,0.01572931744158268
1763700005183582200,6.211582275390625,-0.020005248486995697,-0.025197450071573257,0.012064233422279358
1763700005193169000,6.2211689453125,-0.018783552572131157,-0.017867282032966614,0.008399149402976036
1763700005202755000,6.230755126953125,-0.016340164467692375,-0.005650337319821119,0.007177455350756645
1763700005212342000,6.240342041015625,-0.01511846948415041,0.0065666078589856625,0.007177455350756645
1763700005221929700,6.2499296875,-0.013896775431931019,0.01511846948415041,0.0035123717971146107
1763700005231516700,6.2595166015625,-0.012675080448389053,0.020005248486995697,-0.00015271181473508477
1763700005241102800,6.269102783203125,-0.010231691412627697,0.02244863659143448,-0.00259610079228878
1763700005250689800,6.278689697265625,-0.009009997360408306,0.02367033064365387,-0.00259610079228878
1763700005260277200,6.28827734375,-0.009009997360408306,0.02244863659143448,-0.001374406274408102
1763700005269864200,6.2978642578125,-0.009009997360408306,0.020005248486995697,-0.001374406274408102
1763700005279450400,6.307450439453125,-0.009009997360408306,0.018783552572131157,-0.00015271181473508477
1763700005289037300,6.317037353515625,-0.010231691412627697,0.020005248486995697,-0.00015271181473508477
1763700005298625000,6.326625,-0.010231691412627697,0.02244863659143448,0.0010689827613532543
1763700005308212000,6.3362119140625,-0.007788302376866341,0.0261137206107378,-0.00015271181473508477
1763700005317798000,6.3457978515625,-0.005344913341104984,0.031000498682260513,-0.001374406274408102
1763700005327384800,6.355384765625,-0.0029015245381742716,0.03588727489113808,-0.00259610079228878
1763700005336972500,6.36497265625,-0.0016798300202935934,0.03955236077308655,-0.0050394898280501366
1763700005346559500,6.3745595703125,-0.0016798300202935934,0.04199574887752533,-0.008704573847353458
1763700005356145700,6.384145751953125,-0.0004581354442052543,0.0456608310341835,-0.011147962883114815
1763700005365732600,6.393732666015625,-0.0004581354442052543,0.04932591691613197,-0.011147962883114815
1763700005375320300,6.4033203125,-0.0004581354442052543,0.051769305020570755,-0.011147962883114815
1763700005384907300,6.4129072265625,-0.0016798300202935934,0.05421269312500954,-0.00992626789957285
1763700005394493200,6.4224931640625,-0.0029015245381742716,0.05543438717722893,-0.007482878863811493
1763700005404080000,6.432080078125,-0.005344913341104984,0.05421269312500954,-0.0038177953101694584
1763700005413667800,6.441667724609375,-0.009009997360408306,0.050547610968351364,-0.001374406274408102
1763700005423254800,6.4512548828125,-0.010231691412627697,0.050547610968351364,0.0010689827613532543
1763700005432841000,6.460841064453125,-0.010231691412627697,0.051769305020570755,0.0022906772792339325
1763700005442428000,6.470427978515625,-0.010231691412627697,0.050547610968351364,0.0022906772792339325
1763700005452015600,6.480015625,-0.010231691412627697,0.050547610968351364,0.0022906772792339325
1763700005461602300,6.489602294921875,-0.011453386396169662,0.04443913698196411,0.0022906772792339325
1763700005471188500,6.4991884765625,-0.013896775431931019,0.04321744292974472,0.0022906772792339325
1763700005480775400,6.508775390625,-0.01511846948415041,0.04321744292974472,0.004734066314995289
1763700005490363100,6.518363037109375,-0.017561858519911766,0.04077405482530594,0.005955760832875967
1763700005499950000,6.5279501953125,-0.016340164467692375,0.037108972668647766,0.007177455350756645
1763700005509536000,6.537535888671875,-0.016340164467692375,0.03588727489113808,0.009620844386518002
1763700005519123000,6.547123046875,-0.017561858519911766,0.03588727489113808,0.012064233422279358
1763700005528710700,6.556710693359375,-0.016340164467692375,0.037108972668647766,0.013285927474498749
1763700005538297600,6.566297607421875,-0.01511846948415041,0.03955236077308655,0.013285927474498749
1763700005547883800,6.5758837890625,-0.013896775431931019,0.04199574887752533,0.010842538438737392
1763700005557470700,6.585470703125,-0.011453386396169662,0.04321744292974472,0.009620844386518002
1763700005567058400,6.595058349609375,-0.009009997360408306,0.04443913698196411,0.007177455350756645
1763700005576645400,6.604645263671875,-0.0065666078589856625,0.0456608310341835,0.004734066314995289
1763700005586231300,6.614231201171875,-0.005344913341104984,0.04443913698196411,0.0035123717971146107
1763700005595818200,6.623818359375,-0.005344913341104984,0.04199574887752533,0.0022906772792339325
1763700005605406000,6.633406005859375,-0.0065666078589856625,0.03833066672086716,0.0022906772792339325
1763700005614993000,6.642992919921875,-0.0065666078589856625,0.03955236077308655,0.0035123717971146107
1763700005624579000,6.6525791015625,-0.005344913341104984,0.04077405482530594,0.004734066314995289
1763700005634166000,6.662166015625,-0.005344913341104984,0.04199574887752533,0.004734066314995289
1763700005643753700,6.671753662109375,-0.005344913341104984,0.04199574887752533,0.005955760832875967
1763700005653340400,6.68134033203125,-0.0029015245381742716,0.04321744292974472,0.005955760832875967
1763700005662926600,6.690926513671875,-0.0004581354442052543,0.04321744292974472,0.005955760832875967
1763700005672513500,6.700513427734375,0.001985253533348441,0.04199574887752533,0.007177455350756645
1763700005682101200,6.710101318359375,0.001985253533348441,0.03955236077308655,0.007177455350756645
1763700005691688200,6.719688232421875,0.0032069480512291193,0.03833066672086716,0.008399149402976036
1763700005701274000,6.729274169921875,0.001985253533348441,0.03588727489113808,0.008399149402976036
1763700005710861000,6.738861083984375,0.001985253533348441,0.034665580838918686,0.008399149402976036
1763700005720448800,6.74844873046875,0.0007635590736754239,0.034665580838918686,0.008399149402976036
1763700005730035700,6.75803564453125,-0.0004581354442052543,0.032222192734479904,0.005955760832875967
1763700005739622000,6.767621826171875,-0.0004581354442052543,0.031000498682260513,0.0035123717971146107
1763700005749208800,6.777208740234375,-0.0004581354442052543,0.031000498682260513,0.0022906772792339325
1763700005758796500,6.786796630859375,-0.0016798300202935934,0.029778804630041122,0.0035123717971146107
1763700005768383500,6.796383544921875,-0.0004581354442052543,0.029778804630041122,0.0022906772792339325
1763700005777969400,6.805969482421875,-0.0004581354442052543,0.028557108715176582,0.0010689827613532543
1763700005787556400,6.815556396484375,-0.0004581354442052543,0.028557108715176582,-0.00015271181473508477
1763700005797144000,6.82514404296875,0.0007635590736754239,0.029778804630041122,-0.00015271181473508477
1763700005806731000,6.83473095703125,0.001985253533348441,0.028557108715176582,-0.00015271181473508477
1763700005816317200,6.844317138671875,0.001985253533348441,0.028557108715176582,-0.00015271181473508477
1763700005825904000,6.853904052734375,0.001985253533348441,0.02733541466295719,-0.00015271181473508477
1763700005835491800,6.863491943359375,0.001985253533348441,0.0261137206107378,-0.001374406274408102
1763700005845078500,6.87307861328125,0.0007635590736754239,0.02489202655851841,-0.00259610079228878
1763700005854664700,6.882664794921875,-0.0004581354442052543,0.02367033064365387,-0.001374406274408102
1763700005864251600,6.892251708984375,-0.004123218823224306,0.021226942539215088,-0.001374406274408102
1763700005873839400,6.90183935546875,-0.005344913341104984,0.021226942539215088,-0.00015271181473508477
1763700005883426300,6.91142626953125,-0.009009997360408306,0.016340164467692375,-0.00015271181473508477
1763700005893012200,6.92101220703125,-0.010231691412627697,0.016340164467692375,-0.00015271181473508477
1763700005902599400,6.930599365234375,-0.010231691412627697,0.01511846948415041,-0.00015271181473508477
1763700005912187000,6.940186767578125,-0.010231691412627697,0.01511846948415041,-0.00015271181473508477
1763700005921773800,6.94977392578125,-0.012675080448389053,0.013896775431931019,-0.001374406274408102
1763700005931360000,6.959360107421875,-0.013896775431931019,0.010231691412627697,-0.001374406274408102
1763700005940947000,6.968947021484375,-0.01511846948415041,0.009009997360408306,-0.00015271181473508477
1763700005950534700,6.97853466796875,-0.016340164467692375,0.009009997360408306,-0.001374406274408102
1763700005960121300,6.988121337890625,-0.017561858519911766,0.009009997360408306,-0.001374406274408102
1763700005969707500,6.99770751953125,-0.017561858519911766,0.010231691412627697,-0.001374406274408102
1763700005979294500,7.00729443359375,-0.017561858519911766,0.012675080448389053,-0.001374406274408102
1763700005988882200,7.016882080078125,-0.01511846948415041,0.01511846948415041,-0.001374406274408102
1763700005998469000,7.02646923828125,-0.013896775431931019,0.018783552572131157,-0.001374406274408102
1763700006008055300,7.03605517578125,-0.012675080448389053,0.018783552572131157,-0.001374406274408102
1763700006017642200,7.045642333984375,-0.011453386396169662,0.018783552572131157,-0.00015271181473508477
1763700006027229700,7.055229736328125,-0.009009997360408306,0.018783552572131157,0.0010689827613532543
1763700006036816600,7.064816650390625,-0.005344913341104984,0.017561858519911766,0.0035123717971146107
1763700006046402800,7.07440283203125,-0.0029015245381742716,0.016340164467692375,0.004734066314995289
1763700006055989800,7.08398974609375,-0.0016798300202935934,0.01511846948415041,0.004734066314995289
1763700006065577500,7.093577392578125,0.0007635590736754239,0.016340164467692375,0.0035123717971146107
1763700006075164400,7.103164306640625,0.0007635590736754239,0.016340164467692375,0.0035123717971146107
1763700006084750300,7.112750244140625,0.0032069480512291193,0.018783552572131157,0.0022906772792339325
1763700006094337300,7.122337158203125,0.004428642801940441,0.020005248486995697,0.0022906772792339325
1763700006103925000,7.131925048828125,0.0068720318377017975,0.020005248486995697,0.0022906772792339325
1763700006113512000,7.141511962890625,0.0068720318377017975,0.021226942539215088,0.0022906772792339325
1763700006123098000,7.15109814453125,0.008093725889921188,0.018783552572131157,0.0022906772792339325
1763700006132685000,7.16068505859375,0.009315420873463154,0.017561858519911766,0.0022906772792339325
1763700006142272800,7.170272705078125,0.009315420873463154,0.017561858519911766,0.0022906772792339325
1763700006151859500,7.179859375,0.008093725889921188,0.018783552572131157,-0.00015271181473508477
1763700006161445600,7.189445556640625,0.004428642801940441,0.017561858519911766,-0.001374406274408102
1763700006171032600,7.199032470703125,0.0007635590736754239,0.018783552572131157,-0.00259610079228878
1763700006180620300,7.208620361328125,-0.004123218823224306,0.020005248486995697,-0.0050394898280501366
1763700006190207200,7.218207275390625,-0.009009997360408306,0.02367033064365387,-0.0050394898280501366
1763700006199793200,7.227793212890625,-0.011453386396169662,0.02489202655851841,-0.0038177953101694584
1763700006209380400,7.23738037109375,-0.012675080448389053,0.0261137206107378,-0.0038177953101694584
1763700006218967800,7.2469677734375,-0.013896775431931019,0.028557108715176582,-0.0038177953101694584
1763700006228554800,7.2565546875,-0.012675080448389053,0.02733541466295719,-0.00259610079228878
1763700006238141000,7.266140869140625,-0.012675080448389053,0.02733541466295719,-0.001374406274408102
1763700006247727900,7.275727783203125,-0.011453386396169662,0.02489202655851841,-0.00015271181473508477
1763700006257315600,7.285315673828125,-0.009009997360408306,0.02244863659143448,0.0010689827613532543
1763700006266902300,7.29490234375,-0.007788302376866341,0.021226942539215088,0.0022906772792339325
1763700006276488400,7.304488525390625,-0.0065666078589856625,0.021226942539215088,0.0022906772792339325
1763700006286075400,7.314075439453125,-0.005344913341104984,0.02244863659143448,0.0035123717971146107
1763700006295663000,7.3236630859375,-0.004123218823224306,0.02244863659143448,0.004734066314995289
1763700006305250000,7.33325,-0.0029015245381742716,0.02367033064365387,0.005955760832875967
1763700006314836200,7.342836181640625,-0.0016798300202935934,0.02489202655851841,0.005955760832875967
1763700006324423200,7.352423095703125,-0.0016798300202935934,0.02489202655851841,0.005955760832875967
1763700006334011000,7.362010986328125,-0.0004581354442052543,0.0261137206107378,0.004734066314995289
1763700006343597600,7.37159765625,-0.0004581354442052543,0.02733541466295719,0.0035123717971146107
1763700006353183700,7.381183837890625,-0.0004581354442052543,0.02489202655851841,0.0022906772792339325
1763700006362770700,7.390770751953125,-0.0004581354442052543,0.0261137206107378,0.0010689827613532543
1763700006372358400,7.4003583984375,-0.0016798300202935934,0.028557108715176582,0.0010689827613532543
1763700006381945300,7.4099453125,-0.0029015245381742716,0.028557108715176582,0.0010689827613532543
1763700006391531300,7.41953125,-0.004123218823224306,0.0261137206107378,0.0022906772792339325
1763700006401118200,7.4291181640625,-0.004123218823224306,0.02489202655851841,0.0022906772792339325
1763700006410706000,7.438705810546875,-0.004123218823224306,0.02244863659143448,0.0035123717971146107
1763700006420292900,7.44829296875,-0.0029015245381742716,0.021226942539215088,0.004734066314995289
1763700006429879000,7.457879150390625,-0.0029015245381742716,0.021226942539215088,0.004734066314995289
1763700006439466000,7.467466064453125,-0.0016798300202935934,0.021226942539215088,0.005955760832875967
1763700006449053700,7.4770537109375,-0.0029015245381742716,0.020005248486995697,0.005955760832875967
1763700006458640400,7.486640380859375,-0.004123218823224306,0.021226942539215088,0.005955760832875967
1763700006468226600,7.4962265625,-0.005344913341104984,0.021226942539215088,0.004734066314995289
1763700006477813500,7.5058134765625,-0.0065666078589856625,0.021226942539215088,0.004734066314995289
1763700006487401200,7.515401123046875,-0.007788302376866341,0.020005248486995697,0.005955760832875967
1763700006496988200,7.52498828125,-0.009009997360408306,0.020005248486995697,0.005955760832875967
1763700006506574000,7.534573974609375,-0.007788302376866341,0.020005248486995697,0.005955760832875967
1763700006516161000,7.5441611328125,-0.007788302376866341,0.018783552572131157,0.007177455350756645
1763700006525748700,7.553748779296875,-0.007788302376866341,0.01511846948415041,0.007177455350756645
1763700006535335700,7.563335693359375,-0.009009997360408306,0.011453386396169662,0.008399149402976036
1763700006544921900,7.572921875,-0.007788302376866341,0.010231691412627697,0.009620844386518002
1763700006554508800,7.5825087890625,-0.007788302376866341,0.007788302376866341,0.009620844386518002
1763700006564096500,7.592096435546875,-0.007788302376866341,0.0065666078589856625,0.010842538438737392
1763700006573683500,7.601683349609375,-0.007788302376866341,0.007788302376866341,0.010842538438737392
1763700006583269400,7.611269287109375,-0.007788302376866341,0.0065666078589856625,0.009620844386518002
1763700006592856300,7.620856201171875,-0.010231691412627697,0.009009997360408306,0.009620844386518002
1763700006602444000,7.630444091796875,-0.011453386396169662,0.012675080448389053,0.008399149402976036
1763700006612031000,7.640031005859375,-0.012675080448389053,0.013896775431931019,0.007177455350756645
1763700006621617000,7.649616943359375,-0.011453386396169662,0.016340164467692375,0.004734066314995289
1763700006631204000,7.6592041015625,-0.012675080448389053,0.016340164467692375,0.0035123717971146107
1763700006640791600,7.66879150390625,-0.011453386396169662,0.013896775431931019,0.0022906772792339325
1763700006650378500,7.67837841796875,-0.010231691412627697,0.011453386396169662,0.0022906772792339325
1763700006659964700,7.687964599609375,-0.007788302376866341,0.011453386396169662,0.0035123717971146107
1763700006669551600,7.697551513671875,-0.007788302376866341,0.010231691412627697,0.0035123717971146107
1763700006679139300,7.707139404296875,-0.009009997360408306,0.011453386396169662,0.0022906772792339325
1763700006688726000,7.71672607421875,-0.009009997360408306,0.012675080448389053,0.0022906772792339325
1763700006698312200,7.726312255859375,-0.010231691412627697,0.016340164467692375,0.0022906772792339325
1763700006707899100,7.735899169921875,-0.011453386396169662,0.018783552572131157,0.0010689827613532543
1763700006717486800,7.74548681640625,-0.011453386396169662,0.02244863659143448,-0.00015271181473508477
1763700006727073800,7.75507373046875,-0.011453386396169662,0.02489202655851841,-0.00015271181473508477
1763700006736660000,7.764659912109375,-0.011453386396169662,0.02733541466295719,-0.00015271181473508477
1763700006746247000,7.774246826171875,-0.012675080448389053,0.028557108715176582,-0.00015271181473508477
1763700006755834600,7.783834716796875,-0.01511846948415041,0.02733541466295719,0.0010689827613532543
1763700006765421300,7.79342138671875,-0.016340164467692375,0.02733541466295719,0.0022906772792339325
1763700006775007500,7.803007568359375,-0.016340164467692375,0.028557108715176582,0.0022906772792339325
1763700006784594400,7.812594482421875,-0.017561858519911766,0.028557108715176582,0.0022906772792339325
1763700006794182100,7.82218212890625,-0.016340164467692375,0.028557108715176582,-0.00015271181473508477
1763700006803768800,7.831768798828125,-0.016340164467692375,0.031000498682260513,-0.001374406274408102
1763700006813355000,7.84135498046875,-0.017561858519911766,0.031000498682260513,-0.00259610079228878
1763700006822942000,7.85094189453125,-0.017561858519911766,0.032222192734479904,-0.0038177953101694584
1763700006832529700,7.86052978515625,-0.020005248486995697,0.029778804630041122,-0.0050394898280501366
1763700006842116600,7.87011669921875,-0.021226942539215088,0.029778804630041122,-0.0050394898280501366
1763700006851702800,7.879702880859375,-0.02244863659143448,0.028557108715176582,-0.006261184345930815
1763700006861289700,7.889289794921875,-0.02489202655851841,0.028557108715176582,-0.008704573847353458
1763700006870877400,7.89887744140625,-0.02733541466295719,0.028557108715176582,-0.011147962883114815
1763700006880464100,7.908464111328125,-0.029778804630041122,0.028557108715176582,-0.011147962883114815
1763700006890050300,7.91805029296875,-0.029778804630041122,0.028557108715176582,-0.011147962883114815
1763700006899637200,7.92763720703125,-0.031000498682260513,0.02733541466295719,-0.008704573847353458
1763700006909225000,7.937224853515625,-0.031000498682260513,0.02489202655851841,-0.007482878863811493
1763700006918812000,7.94681201171875,-0.029778804630041122,0.02367033064365387,-0.006261184345930815
1763700006928397800,7.956397705078125,-0.028557108715176582,0.021226942539215088,-0.0038177953101694584
1763700006937984800,7.96598486328125,-0.0261137206107378,0.017561858519911766,-0.0038177953101694584
1763700006947572500,7.975572509765625,-0.02489202655851841,0.016340164467692375,-0.0038177953101694584
1763700006957159400,7.985159423828125,-0.02244863659143448,0.013896775431931019,-0.001374406274408102
1763700006966745600,7.99474560546875,-0.021226942539215088,0.013896775431931019,0.0010689827613532543
1763700006976332500,8.00433251953125,-0.018783552572131157,0.011453386396169662,0.005955760832875967
1763700006985920300,8.013920166015625,-0.017561858519911766,0.007788302376866341,0.009620844386518002
1763700006995507000,8.0235068359375,-0.016340164467692375,0.0065666078589856625,0.013285927474498749
1763700007005093000,8.033093017578125,-0.01511846948415041,0.0065666078589856625,0.013285927474498749
1763700007014680000,8.04268017578125,-0.013896775431931019,0.007788302376866341,0.012064233422279358
1763700007024267800,8.052267822265625,-0.011453386396169662,0.005344913341104984,0.009620844386518002
1763700007033854700,8.061854736328126,-0.010231691412627697,0.0029015245381742716,0.007177455350756645
1763700007043440600,8.071440673828125,-0.007788302376866341,0.0004581354442052543,0.005955760832875967
1763700007053027600,8.081027587890626,-0.0065666078589856625,-0.0007635590736754239,0.004734066314995289
1763700007062615300,8.090615234375,-0.004123218823224306,-0.0007635590736754239,0.0035123717971146107
1763700007072202200,8.1002021484375,-0.0029015245381742716,-0.001985253533348441,0.0022906772792339325
1763700007091375400,8.119375244140626,-0.005344913341104984,-0.0007635590736754239,-0.001374406274408102
1763700007100963000,8.128963134765625,-0.005344913341104984,0.0016798300202935934,-0.0038177953101694584
1763700007110549800,8.1385498046875,-0.005344913341104984,0.004123218823224306,-0.006261184345930815
1763700007120136000,8.148135986328125,-0.005344913341104984,0.0065666078589856625,-0.007482878863811493
1763700007129723000,8.157722900390626,-0.004123218823224306,0.007788302376866341,-0.00992626789957285
1763700007139310600,8.167310546875,-0.0016798300202935934,0.012675080448389053,-0.00992626789957285
1763700007148897500,8.1768974609375,0.0007635590736754239,0.013896775431931019,-0.00992626789957285
1763700007158483500,8.1864833984375,0.004428642801940441,0.016340164467692375,-0.011147962883114815
1763700007168070400,8.1960703125,0.004428642801940441,0.016340164467692375,-0.011147962883114815
1763700007177658000,8.205658203125,0.0068720318377017975,0.016340164467692375,-0.00992626789957285
1763700007187245000,8.2152451171875,0.0068720318377017975,0.017561858519911766,-0.008704573847353458
1763700007196831200,8.224831298828125,0.0068720318377017975,0.018783552572131157,-0.007482878863811493
1763700007206418200,8.234418212890626,0.008093725889921188,0.021226942539215088,-0.006261184345930815
1763700007216006000,8.244005859375,0.009315420873463154,0.021226942539215088,-0.006261184345930815
1763700007225592600,8.253592529296874,0.009315420873463154,0.02489202655851841,-0.006261184345930815
1763700007235178800,8.2631787109375,0.009315420873463154,0.0261137206107378,-0.007482878863811493
1763700007244765700,8.272765625,0.010537114925682545,0.029778804630041122,-0.008704573847353458
1763700007254353400,8.282353515625,0.01175880990922451,0.031000498682260513,-0.008704573847353458
1763700007263940400,8.2919404296875,0.01175880990922451,0.034665580838918686,-0.008704573847353458
1763700007273526300,8.3015263671875,0.01175880990922451,0.03833066672086716,-0.008704573847353458
1763700007283113200,8.31111328125,0.010537114925682545,0.03955236077308655,-0.00992626789957285
1763700007292701000,8.320700927734375,0.009315420873463154,0.03955236077308655,-0.011147962883114815
1763700007302288000,8.330287841796874,0.0068720318377017975,0.03833066672086716,-0.012369656935334206
1763700007311874000,8.3398740234375,0.004428642801940441,0.03588727489113808,-0.013591351918876171
1763700007321461000,8.3494609375,0.0032069480512291193,0.034665580838918686,-0.013591351918876171
1763700007331048700,8.359048583984375,0.0007635590736754239,0.029778804630041122,-0.012369656935334206
1763700007340635400,8.368635498046874,-0.0016798300202935934,0.028557108715176582,-0.00992626789957285
1763700007350221600,8.3782216796875,-0.004123218823224306,0.028557108715176582,-0.0050394898280501366
1763700007359808500,8.38780859375,-0.005344913341104984,0.029778804630041122,-0.00259610079228878
1763700007369396200,8.397396240234375,-0.0065666078589856625,0.033443886786699295,-0.00015271181473508477
1763700007378983200,8.406983154296874,-0.0065666078589856625,0.034665580838918686,-0.00015271181473508477
1763700007388569000,8.416569091796875,-0.005344913341104984,0.03833066672086716,0.0010689827613532543
1763700007398156000,8.426156005859376,-0.004123218823224306,0.04077405482530594,-0.00015271181473508477
1763700007407743700,8.43574365234375,-0.005344913341104984,0.04321744292974472,-0.00259610079228878
1763700007417330700,8.44533056640625,-0.0065666078589856625,0.04443913698196411,-0.0050394898280501366
1763700007426916900,8.454916748046875,-0.0065666078589856625,0.0456608310341835,-0.006261184345930815
1763700007436503800,8.46450390625,-0.007788302376866341,0.04810422286391258,-0.0050394898280501366
1763700007446091500,8.474091552734375,-0.007788302376866341,0.051769305020570755,-0.0050394898280501366
1763700007455678200,8.48367822265625,-0.010231691412627697,0.05421269312500954,-0.0038177953101694584
1763700007465264400,8.493264404296875,-0.011453386396169662,0.05543438717722893,-0.0050394898280501366
1763700007474851300,8.502851318359374,-0.013896775431931019,0.05665608495473862,-0.0038177953101694584
1763700007484439000,8.51243896484375,-0.01511846948415041,0.0590994730591774,-0.00259610079228878
1763700007494026000,8.52202587890625,-0.016340164467692375,0.05787777900695801,-0.001374406274408102
1763700007503612000,8.53161181640625,-0.01511846948415041,0.05787777900695801,0.0010689827613532543
1763700007513198800,8.54119873046875,-0.01511846948415041,0.05665608495473862,0.0022906772792339325
1763700007522786600,8.55078662109375,-0.01511846948415041,0.05665608495473862,0.0022906772792339325
1763700007532373500,8.56037353515625,-0.013896775431931019,0.05421269312500954,0.004734066314995289
1763700007541959700,8.569959716796875,-0.012675080448389053,0.050547610968351364,0.007177455350756645
1763700007551546600,8.579546630859374,-0.011453386396169662,0.04688252881169319,0.007177455350756645
1763700007561134300,8.58913427734375,-0.011453386396169662,0.04688252881169319,0.007177455350756645
1763700007570721000,8.598720947265624,-0.010231691412627697,0.04688252881169319,0.007177455350756645
1763700007580307200,8.60830712890625,-0.010231691412627697,0.04810422286391258,0.007177455350756645
1763700007589894100,8.61789404296875,-0.009009997360408306,0.04688252881169319,0.007177455350756645
1763700007599481900,8.62748193359375,-0.007788302376866341,0.04810422286391258,0.005955760832875967
1763700007609068800,8.63706884765625,-0.007788302376866341,0.04932591691613197,0.004734066314995289
1763700007618654700,8.64665478515625,-0.0065666078589856625,0.04932591691613197,0.005955760832875967
1763700007628241700,8.65624169921875,-0.005344913341104984,0.04810422286391258,0.005955760832875967
1763700007637829400,8.665829345703125,-0.005344913341104984,0.0456608310341835,0.008399149402976036
1763700007647416300,8.675416259765624,-0.0065666078589856625,0.04077405482530594,0.009620844386518002
1763700007657002500,8.68500244140625,-0.0065666078589856625,0.037108972668647766,0.009620844386518002
1763700007666589400,8.69458935546875,-0.0065666078589856625,0.03588727489113808,0.009620844386518002
1763700007676177200,8.70417724609375,-0.0065666078589856625,0.032222192734479904,0.007177455350756645
1763700007685763800,8.713763916015624,-0.005344913341104984,0.032222192734479904,0.0035123717971146107
1763700007695350000,8.72335009765625,-0.0065666078589856625,0.028557108715176582,0.0035123717971146107
1763700007704937000,8.73293701171875,-0.0065666078589856625,0.0261137206107378,0.0022906772792339325
1763700007714524700,8.742524658203125,-0.009009997360408306,0.02489202655851841,0.0035123717971146107
1763700007724111600,8.752111572265624,-0.010231691412627697,0.021226942539215088,0.005955760832875967
1763700007733697500,8.761697509765625,-0.010231691412627697,0.021226942539215088,0.005955760832875967
1763700007743284500,8.771284423828124,-0.011453386396169662,0.02244863659143448,0.007177455350756645
1763700007752872200,8.7808720703125,-0.012675080448389053,0.021226942539215088,0.007177455350756645
1763700007762459100,8.790459228515624,-0.011453386396169662,0.021226942539215088,0.005955760832875967
1763700007772045300,8.80004541015625,-0.010231691412627697,0.02367033064365387,0.004734066314995289
1763700007781632300,8.80963232421875,-0.0065666078589856625,0.02733541466295719,0.0010689827613532543
1763700007791219700,8.8192197265625,-0.004123218823224306,0.029778804630041122,-0.001374406274408102
1763700007800806700,8.828806640625,-0.0029015245381742716,0.029778804630041122,-0.001374406274408102
1763700007810392800,8.838392822265625,-0.0004581354442052543,0.029778804630041122,0.0010689827613532543
1763700007819979800,8.847979736328124,-0.0004581354442052543,0.028557108715176582,0.0022906772792339325
1763700007829567500,8.8575673828125,0.0007635590736754239,0.028557108715176582,0.0035123717971146107
1763700007839154400,8.867154541015625,0.001985253533348441,0.02733541466295719,0.0035123717971146107
1763700007848740400,8.876740234375,0.0032069480512291193,0.0261137206107378,0.004734066314995289
1763700007858327300,8.886327392578124,0.005650337319821119,0.0261137206107378,0.0035123717971146107
1763700007867915000,8.8959150390625,0.005650337319821119,0.0261137206107378,0.0035123717971146107
1763700007877502000,8.905501953125,0.0068720318377017975,0.02367033064365387,0.0035123717971146107
1763700007887088000,8.915088134765625,0.0068720318377017975,0.02244863659143448,0.0035123717971146107
1763700007896675000,8.924675048828124,0.005650337319821119,0.02367033064365387,0.0022906772792339325
1763700007906262500,8.934262451171875,0.005650337319821119,0.02367033064365387,0.0022906772792339325
1763700007915849500,8.943849365234374,0.005650337319821119,0.02489202655851841,0.0035123717971146107
1763700007925435600,8.953435546875,0.0068720318377017975,0.02489202655851841,0.0010689827613532543
1763700007935022600,8.963022705078124,0.008093725889921188,0.0261137206107378,-0.00015271181473508477
1763700007944610300,8.9726103515625,0.009315420873463154,0.02733541466295719,-0.001374406274408102
1763700007954197200,8.982197265625,0.009315420873463154,0.0261137206107378,-0.00259610079228878
1763700007963783200,8.991783203125,0.009315420873463154,0.028557108715176582,-0.00259610079228878
1763700007973370000,9.0013701171875,0.008093725889921188,0.031000498682260513,-0.001374406274408102
1763700007982957800,9.010957763671875,0.005650337319821119,0.033443886786699295,-0.00015271181473508477
1763700007992544800,9.020544677734375,0.004428642801940441,0.033443886786699295,0.0010689827613532543
1763700008002130700,9.030130615234375,0.0007635590736754239,0.032222192734479904,0.0022906772792339325
1763700008011717600,9.039717529296874,-0.0016798300202935934,0.02733541466295719,0.0035123717971146107
1763700008021305300,9.049305419921875,-0.004123218823224306,0.02367033064365387,0.004734066314995289
1763700008030892300,9.058892333984375,-0.005344913341104984,0.018783552572131157,0.004734066314995289
1763700008040478500,9.068478515625,-0.007788302376866341,0.016340164467692375,0.005955760832875967
1763700008050065400,9.0780654296875,-0.010231691412627697,0.01511846948415041,0.005955760832875967
1763700008059653000,9.087653076171875,-0.011453386396169662,0.013896775431931019,0.008399149402976036
1763700008069239800,9.09723974609375,-0.012675080448389053,0.013896775431931019,0.008399149402976036
1763700008078826000,9.106825927734375,-0.012675080448389053,0.016340164467692375,0.007177455350756645
1763700008088413000,9.116412841796874,-0.013896775431931019,0.016340164467692375,0.005955760832875967
1763700008098000600,9.126000732421875,-0.013896775431931019,0.017561858519911766,0.005955760832875967
1763700008107587600,9.135587646484375,-0.013896775431931019,0.018783552572131157,0.005955760832875967
1763700008117173500,9.145173583984375,-0.013896775431931019,0.021226942539215088,0.005955760832875967
1763700008126760400,9.154760498046874,-0.013896775431931019,0.02367033064365387,0.005955760832875967
1763700008136348200,9.16434814453125,-0.01511846948415041,0.0261137206107378,0.004734066314995289
1763700008145935000,9.17393505859375,-0.013896775431931019,0.0261137206107378,0.0035123717971146107
1763700008155521300,9.183521240234375,-0.012675080448389053,0.0261137206107378,0.0022906772792339325
1763700008165108200,9.193108154296874,-0.011453386396169662,0.0261137206107378,0.0022906772792339325
1763700008174696000,9.202696044921876,-0.012675080448389053,0.02733541466295719,0.0035123717971146107
1763700008184282600,9.21228271484375,-0.011453386396169662,0.02733541466295719,0.004734066314995289
1763700008193868800,9.221868896484375,-0.011453386396169662,0.028557108715176582,0.005955760832875967
1763700008203455700,9.231455810546874,-0.012675080448389053,0.031000498682260513,0.005955760832875967
1763700008213043500,9.24104345703125,-0.012675080448389053,0.032222192734479904,0.005955760832875967
1763700008222630100,9.250630126953125,-0.012675080448389053,0.032222192734479904,0.0035123717971146107
1763700008232216300,9.26021630859375,-0.012675080448389053,0.031000498682260513,0.0022906772792339325
1763700008241803300,9.26980322265625,-0.011453386396169662,0.028557108715176582,0.0010689827613532543
1763700008251391000,9.279390869140625,-0.011453386396169662,0.0261137206107378,-0.00015271181473508477
1763700008260978000,9.28897802734375,-0.012675080448389053,0.02367033064365387,-0.00015271181473508477
1763700008270564000,9.298564208984375,-0.012675080448389053,0.021226942539215088,-0.001374406274408102
1763700008280151000,9.308151123046875,-0.013896775431931019,0.020005248486995697,-0.00015271181473508477
1763700008289738800,9.31773876953125,-0.013896775431931019,0.018783552572131157,0.0010689827613532543
1763700008299325400,9.327325439453125,-0.013896775431931019,0.018783552572131157,0.0022906772792339325
1763700008308911600,9.33691162109375,-0.013896775431931019,0.017561858519911766,0.0035123717971146107
1763700008318498600,9.34649853515625,-0.012675080448389053,0.017561858519911766,0.0035123717971146107
1763700008328086300,9.356086181640626,-0.011453386396169662,0.017561858519911766,0.0035123717971146107
1763700008337673000,9.3656728515625,-0.011453386396169662,0.017561858519911766,0.0022906772792339325
1763700008347259100,9.375259033203125,-0.011453386396169662,0.016340164467692375,0.0022906772792339325
1763700008356846000,9.38484619140625,-0.010231691412627697,0.017561858519911766,0.0022906772792339325
1763700008366433800,9.394433837890626,-0.010231691412627697,0.016340164467692375,0.0022906772792339325
1763700008376020700,9.404020751953125,-0.010231691412627697,0.01511846948415041,0.0022906772792339325
1763700008385606700,9.413606689453125,-0.012675080448389053,0.01511846948415041,0.0010689827613532543
1763700008395193900,9.42319384765625,-0.013896775431931019,0.011453386396169662,0.0010689827613532543
1763700008404781300,9.43278125,-0.016340164467692375,0.009009997360408306,-0.00015271181473508477
1763700008414368300,9.4423681640625,-0.017561858519911766,0.005344913341104984,-0.00015271181473508477
1763700008423954400,9.451954345703125,-0.020005248486995697,0.0016798300202935934,-0.00015271181473508477
1763700008433541400,9.461541259765625,-0.021226942539215088,0.0004581354442052543,-0.00015271181473508477
1763700008443129000,9.471129150390626,-0.021226942539215088,-0.0007635590736754239,-0.00015271181473508477
1763700008452715800,9.4807158203125,-0.021226942539215088,-0.0007635590736754239,-0.00015271181473508477
1763700008462302000,9.490302001953125,-0.021226942539215088,-0.0007635590736754239,-0.00015271181473508477
1763700008471889000,9.499888916015625,-0.021226942539215088,-0.0032069480512291193,0.0022906772792339325
1763700008491063300,9.519063232421875,-0.018783552572131157,-0.0068720318377017975,0.004734066314995289
1763700008500649500,9.5286494140625,-0.018783552572131157,-0.009315420873463154,0.005955760832875967
1763700008510236400,9.538236328125,-0.016340164467692375,-0.010537114925682545,0.005955760832875967
1763700008519824100,9.54782421875,-0.01511846948415041,-0.014202198944985867,0.004734066314995289
1763700008529411000,9.5574111328125,-0.012675080448389053,-0.015423892997205257,0.0035123717971146107
1763700008538997200,9.566997314453126,-0.011453386396169662,-0.017867282032966614,0.0035123717971146107
1763700008548584200,9.576584228515625,-0.009009997360408306,-0.016645587980747223,0.004734066314995289
1763700008558171600,9.586171630859376,-0.0065666078589856625,-0.014202198944985867,0.0035123717971146107
1763700008567758600,9.595758544921875,-0.005344913341104984,-0.014202198944985867,0.0022906772792339325
1763700008577344800,9.6053447265625,-0.0029015245381742716,-0.012980503961443901,0.0010689827613532543
1763700008586931700,9.614931640625,-0.0004581354442052543,-0.012980503961443901,-0.00015271181473508477
1763700008596519400,9.62451953125,0.001985253533348441,-0.01175880990922451,-0.00015271181473508477
1763700008606106400,9.6341064453125,0.0032069480512291193,-0.01175880990922451,-0.00015271181473508477
1763700008615692300,9.6436923828125,0.004428642801940441,-0.0068720318377017975,-0.00259610079228878
1763700008625279200,9.653279296875,0.004428642801940441,-0.004428642801940441,-0.0038177953101694584
1763700008634867000,9.662866943359376,0.0032069480512291193,0.0004581354442052543,-0.0050394898280501366
1763700008644454000,9.672453857421875,0.0032069480512291193,0.0016798300202935934,-0.0050394898280501366
1763700008654039800,9.682039794921875,0.004428642801940441,0.004123218823224306,-0.0050394898280501366
1763700008663626800,9.691626708984375,0.005650337319821119,0.005344913341104984,-0.006261184345930815
1763700008673214500,9.70121435546875,0.005650337319821119,0.009009997360408306,-0.0050394898280501366
1763700008682801400,9.710801513671875,0.004428642801940441,0.009009997360408306,-0.0050394898280501366
1763700008692387600,9.7203876953125,0.001985253533348441,0.010231691412627697,-0.0038177953101694584
1763700008701974500,9.729974609375,0.001985253533348441,0.011453386396169662,-0.0038177953101694584
1763700008711562200,9.739562255859376,0.0007635590736754239,0.012675080448389053,-0.00259610079228878
1763700008721149000,9.74914892578125,-0.0004581354442052543,0.010231691412627697,-0.00259610079228878
1763700008730735000,9.758735107421876,-0.0016798300202935934,0.007788302376866341,-0.0038177953101694584
1763700008740322000,9.768322021484375,-0.0029015245381742716,0.004123218823224306,-0.0038177953101694584
1763700008749909800,9.77790966796875,-0.0029015245381742716,0.0016798300202935934,-0.00259610079228878
1763700008759496700,9.78749658203125,-0.004123218823224306,-0.0007635590736754239,-0.001374406274408102
1763700008769082600,9.79708251953125,-0.005344913341104984,-0.0032069480512291193,-0.00015271181473508477
1763700008778669600,9.806669677734375,-0.0065666078589856625,-0.0032069480512291193,0.0022906772792339325
1763700008788257300,9.81625732421875,-0.009009997360408306,-0.001985253533348441,0.0035123717971146107
1763700008797844200,9.82584423828125,-0.011453386396169662,-0.0007635590736754239,0.0035123717971146107
1763700008807430400,9.835430419921876,-0.01511846948415041,0.0016798300202935934,0.0035123717971146107
1763700008817017300,9.845017333984375,-0.016340164467692375,0.005344913341104984,0.004734066314995289
1763700008826604800,9.854604736328126,-0.017561858519911766,0.005344913341104984,0.005955760832875967
1763700008836191700,9.864191650390625,-0.020005248486995697,0.007788302376866341,0.004734066314995289
1763700008845778000,9.87377783203125,-0.021226942539215088,0.009009997360408306,0.0035123717971146107
1763700008855364900,9.88336474609375,-0.02244863659143448,0.010231691412627697,0.0022906772792339325
1763700008864952600,9.89295263671875,-0.02244863659143448,0.010231691412627697,0.0010689827613532543
1763700008874539500,9.90253955078125,-0.02244863659143448,0.005344913341104984,0.0022906772792339325
1763700008884125400,9.91212548828125,-0.021226942539215088,0.0029015245381742716,0.004734066314995289
1763700008893712400,9.92171240234375,-0.020005248486995697,0.0029015245381742716,0.007177455350756645
1763700008903300000,9.931300048828126,-0.018783552572131157,0.004123218823224306,0.008399149402976036
1763700008912887000,9.940886962890625,-0.016340164467692375,0.0065666078589856625,0.009620844386518002
1763700008922473000,9.950472900390626,-0.01511846948415041,0.011453386396169662,0.008399149402976036
1763700008932060200,9.96006005859375,-0.01511846948415041,0.017561858519911766,0.0035123717971146107
1763700008941647600,9.969647705078126,-0.013896775431931019,0.021226942539215088,0.0010689827613532543
1763700008951234600,9.979234619140625,-0.012675080448389053,0.0261137206107378,-0.001374406274408102
1763700008960820700,9.98882080078125,-0.012675080448389053,0.02733541466295719,-0.0038177953101694584
1763700008970407700,9.99840771484375,-0.01511846948415041,0.028557108715176582,-0.0050394898280501366
1763700008979995400,10.007995361328126,-0.016340164467692375,0.02733541466295719,-0.0038177953101694584
1763700008989582000,10.01758203125,-0.018783552572131157,0.02367033064365387,-0.001374406274408102
1763700008999168300,10.027168212890626,-0.021226942539215088,0.020005248486995697,0.0010689827613532543
1763700009008755200,10.036755126953125,-0.02367033064365387,0.017561858519911766,0.004734066314995289
1763700009018343000,10.046343017578126,-0.0261137206107378,0.017561858519911766,0.007177455350756645
1763700009027929900,10.055929931640625,-0.02733541466295719,0.01511846948415041,0.009620844386518002
1763700009037515800,10.065515869140626,-0.029778804630041122,0.01511846948415041,0.010842538438737392
1763700009047102700,10.075102783203125,-0.029778804630041122,0.01511846948415041,0.010842538438737392
1763700009056690400,10.0846904296875,-0.031000498682260513,0.012675080448389053,0.010842538438737392
1763700009066277400,10.09427734375,-0.029778804630041122,0.012675080448389053,0.012064233422279358
1763700009075863300,10.10386328125,-0.029778804630041122,0.012675080448389053,0.012064233422279358
1763700009085450200,10.1134501953125,-0.029778804630041122,0.009009997360408306,0.013285927474498749
1763700009095038000,10.123037841796876,-0.029778804630041122,0.007788302376866341,0.013285927474498749
1763700009104625000,10.132625,-0.028557108715176582,0.0065666078589856625,0.013285927474498749
1763700009114211000,10.142211181640626,-0.028557108715176582,0.004123218823224306,0.013285927474498749
1763700009123798000,10.151798095703125,-0.029778804630041122,0.004123218823224306,0.013285927474498749
1763700009133385700,10.1613857421875,-0.029778804630041122,0.004123218823224306,0.013285927474498749
1763700009142972400,10.170972412109375,-0.029778804630041122,0.004123218823224306,0.012064233422279358
1763700009152558600,10.18055859375,-0.028557108715176582,0.005344913341104984,0.012064233422279358
1763700009162145500,10.1901455078125,-0.02733541466295719,0.007788302376866341,0.010842538438737392
1763700009171733200,10.199733154296876,-0.0261137206107378,0.010231691412627697,0.009620844386518002
1763700009181320200,10.2093203125,-0.02489202655851841,0.012675080448389053,0.008399149402976036
1763700009190906000,10.218906005859376,-0.02367033064365387,0.01511846948415041,0.007177455350756645
1763700009200493000,10.2284931640625,-0.02367033064365387,0.016340164467692375,0.007177455350756645
1763700009210080800,10.238080810546874,-0.02367033064365387,0.01511846948415041,0.007177455350756645
1763700009219667700,10.247667724609375,-0.02367033064365387,0.012675080448389053,0.007177455350756645
1763700009229254000,10.25725390625,-0.02367033064365387,0.010231691412627697,0.008399149402976036
1763700009238840800,10.2668408203125,-0.02367033064365387,0.007788302376866341,0.009620844386518002
1763700009248428300,10.27642822265625,-0.02367033064365387,0.005344913341104984,0.012064233422279358
1763700009258015200,10.28601513671875,-0.02367033064365387,0.0029015245381742716,0.013285927474498749
1763700009267601400,10.295601318359376,-0.02244863659143448,0.0016798300202935934,0.01572931744158268
1763700009277188400,10.305188232421875,-0.02244863659143448,0.0029015245381742716,0.01695101149380207
1763700009286776000,10.314776123046874,-0.02244863659143448,0.0029015245381742716,0.019394399598240852
1763700009296362800,10.32436279296875,-0.02367033064365387,0.005344913341104984,0.019394399598240852
1763700009305949000,10.333948974609376,-0.02489202655851841,0.004123218823224306,0.020616095513105392
1763700009315536000,10.343535888671875,-0.02733541466295719,0.0029015245381742716,0.019394399598240852
1763700009325123600,10.35312353515625,-0.029778804630041122,0.0029015245381742716,0.01817270554602146
1763700009334710300,10.362710205078125,-0.033443886786699295,0.005344913341104984,0.014507622458040714
1763700009344296400,10.37229638671875,-0.034665580838918686,0.004123218823224306,0.012064233422279358
1763700009353883400,10.38188330078125,-0.03588727489113808,0.007788302376866341,0.010842538438737392
1763700009363471000,10.39147119140625,-0.037108972668647766,0.007788302376866341,0.009620844386518002
1763700009373058000,10.40105810546875,-0.03588727489113808,0.004123218823224306,0.013285927474498749
1763700009382644000,10.41064404296875,-0.033443886786699295,-0.0007635590736754239,0.01817270554602146
1763700009392231200,10.420231201171875,-0.032222192734479904,-0.0068720318377017975,0.021837789565324783
1763700009401818600,10.429818603515624,-0.031000498682260513,-0.008093725889921188,0.021837789565324783
1763700009411405600,10.439405517578125,-0.028557108715176582,-0.0068720318377017975,0.020616095513105392
1763700009420991700,10.44899169921875,-0.02489202655851841,-0.0068720318377017975,0.019394399598240852
1763700009430578700,10.45857861328125,-0.02244863659143448,-0.0032069480512291193,0.01817270554602146
1763700009440166400,10.46816650390625,-0.020005248486995697,0.0029015245381742716,0.014507622458040714
1763700009449753000,10.477753173828125,-0.017561858519911766,0.0065666078589856625,0.010842538438737392
1763700009459339300,10.48733935546875,-0.013896775431931019,0.011453386396169662,0.007177455350756645
1763700009468926200,10.49692626953125,-0.012675080448389053,0.01511846948415041,0.004734066314995289
1763700009478514000,10.506513916015624,-0.013896775431931019,0.01511846948415041,0.0010689827613532543
1763700009488100900,10.516100830078125,-0.013896775431931019,0.016340164467692375,-0.00015271181473508477
1763700009497686800,10.525686767578126,-0.016340164467692375,0.016340164467692375,-0.001374406274408102
1763700009507273700,10.535273681640625,-0.017561858519911766,0.016340164467692375,-0.00259610079228878
1763700009516861400,10.544861328125,-0.018783552572131157,0.01511846948415041,-0.001374406274408102
1763700009526448400,10.554448486328125,-0.021226942539215088,0.011453386396169662,0.0010689827613532543
1763700009536034600,10.56403466796875,-0.02244863659143448,0.010231691412627697,0.0022906772792339325
1763700009545621500,10.57362158203125,-0.02367033064365387,0.011453386396169662,0.0035123717971146107
1763700009555209000,10.583208984375,-0.02489202655851841,0.011453386396169662,0.004734066314995289
1763700009564796000,10.5927958984375,-0.02733541466295719,0.011453386396169662,0.005955760832875967
1763700009574382000,10.602382080078126,-0.029778804630041122,0.012675080448389053,0.007177455350756645
1763700009583969000,10.611968994140625,-0.031000498682260513,0.012675080448389053,0.009620844386518002
1763700009593556700,10.621556640625,-0.031000498682260513,0.013896775431931019,0.009620844386518002
1763700009603143400,10.631143310546875,-0.031000498682260513,0.012675080448389053,0.009620844386518002
1763700009612729600,10.6407294921875,-0.032222192734479904,0.010231691412627697,0.009620844386518002
1763700009622316500,10.650316650390625,-0.032222192734479904,0.009009997360408306,0.008399149402976036
1763700009631904300,10.659904296875,-0.031000498682260513,0.010231691412627697,0.007177455350756645
1763700009641491200,10.6694912109375,-0.031000498682260513,0.011453386396169662,0.005955760832875967
1763700009651077000,10.6790771484375,-0.029778804630041122,0.01511846948415041,0.004734066314995289
1763700009660664000,10.6886640625,-0.028557108715176582,0.016340164467692375,0.0035123717971146107
1763700009670251800,10.698251708984374,-0.02733541466295719,0.017561858519911766,0.0022906772792339325
1763700009679838700,10.707838623046875,-0.0261137206107378,0.018783552572131157,0.0010689827613532543
1763700009689425000,10.7174248046875,-0.02489202655851841,0.021226942539215088,0.0010689827613532543
1763700009699011800,10.72701171875,-0.02489202655851841,0.018783552572131157,0.0010689827613532543
1763700009708599300,10.736599365234374,-0.02489202655851841,0.018783552572131157,0.0022906772792339325
1763700009718186200,10.746186279296875,-0.0261137206107378,0.020005248486995697,0.0035123717971146107
1763700009727772400,10.7557724609375,-0.0261137206107378,0.018783552572131157,0.005955760832875967
1763700009737359400,10.765359375,-0.0261137206107378,0.018783552572131157,0.007177455350756645
1763700009746947000,10.774947021484374,-0.02489202655851841,0.017561858519911766,0.007177455350756645
1763700009756533800,10.78453369140625,-0.02244863659143448,0.016340164467692375,0.005955760832875967
1763700009766120000,10.794119873046874,-0.020005248486995697,0.013896775431931019,0.005955760832875967
1763700009775707000,10.803706787109375,-0.018783552572131157,0.009009997360408306,0.005955760832875967
1763700009785294600,10.813294677734374,-0.017561858519911766,0.0065666078589856625,0.007177455350756645
1763700009794881300,10.82288134765625,-0.020005248486995697,0.005344913341104984,0.007177455350756645
1763700009804467500,10.832467529296874,-0.02244863659143448,0.005344913341104984,0.004734066314995289
1763700009814054400,10.842054443359375,-0.02367033064365387,0.0065666078589856625,0.004734066314995289
1763700009823642000,10.85164208984375,-0.018783552572131157,0.0004581354442052543,0.012064233422279358
1763700009833229000,10.86122900390625,-0.017561858519911766,-0.0068720318377017975,0.019394399598240852
1763700009842815000,10.87081494140625,-0.017561858519911766,-0.009315420873463154,0.020616095513105392
1763700009852402200,10.880402099609375,-0.01511846948415041,-0.005650337319821119,0.019394399598240852
1763700009861989600,10.88998974609375,-0.012675080448389053,-0.0032069480512291193,0.014507622458040714
1763700009871576600,10.89957666015625,-0.010231691412627697,0.0029015245381742716,0.009620844386518002
1763700009881162800,10.909162841796874,-0.009009997360408306,0.0065666078589856625,0.007177455350756645
1763700009890749700,10.918749755859375,-0.007788302376866341,0.010231691412627697,0.0035123717971146107
1763700009900337400,10.92833740234375,-0.0065666078589856625,0.011453386396169662,0.0010689827613532543
1763700009909924000,10.937924072265625,-0.004123218823224306,0.01511846948415041,-0.00259610079228878
1763700009919510300,10.94751025390625,-0.004123218823224306,0.017561858519911766,-0.0050394898280501366
1763700009929097200,10.95709716796875,-0.005344913341104984,0.017561858519911766,-0.006261184345930815
1763700009938685000,10.966684814453124,-0.0065666078589856625,0.016340164467692375,-0.006261184345930815
1763700009948271900,10.97627197265625,-0.007788302376866341,0.013896775431931019,-0.006261184345930815
1763700009957857800,10.98585791015625,-0.010231691412627697,0.012675080448389053,-0.006261184345930815
1763700009967444700,10.99544482421875,-0.011453386396169662,0.011453386396169662,-0.006261184345930815
1763700009977032400,11.005032470703124,-0.011453386396169662,0.009009997360408306,-0.0050394898280501366
1763700009986619400,11.014619384765625,-0.011453386396169662,0.009009997360408306,-0.00259610079228878
1763700009996205600,11.02420556640625,-0.009009997360408306,0.011453386396169662,-0.00015271181473508477
1763700010005792300,11.033792236328125,-0.007788302376866341,0.013896775431931019,0.0022906772792339325
1763700010015380000,11.0433798828125,-0.0065666078589856625,0.017561858519911766,0.0022906772792339325
1763700010034553000,11.062552978515624,-0.005344913341104984,0.02244863659143448,0.0035123717971146107
1763700010044140000,11.07214013671875,-0.005344913341104984,0.02489202655851841,0.0035123717971146107
1763700010053727700,11.081727783203124,-0.0065666078589856625,0.02733541466295719,0.0022906772792339325
1763700010063314400,11.091314453125,-0.007788302376866341,0.028557108715176582,0.0022906772792339325
1763700010072900600,11.100900634765624,-0.009009997360408306,0.029778804630041122,0.0010689827613532543
1763700010082487600,11.110487548828125,-0.009009997360408306,0.029778804630041122,-0.00015271181473508477
1763700010092075300,11.1200751953125,-0.009009997360408306,0.0261137206107378,-0.001374406274408102
1763700010101662200,11.129662109375,-0.007788302376866341,0.02244863659143448,-0.00015271181473508477
1763700010111248100,11.139248046875,-0.007788302376866341,0.021226942539215088,0.0022906772792339325
1763700010120835000,11.1488349609375,-0.0065666078589856625,0.020005248486995697,0.005955760832875967
1763700010130422800,11.1584228515625,-0.0065666078589856625,0.020005248486995697,0.007177455350756645
1763700010140009700,11.168009765625,-0.0065666078589856625,0.021226942539215088,0.008399149402976036
1763700010149595600,11.177595703125,-0.0065666078589856625,0.02489202655851841,0.009620844386518002
1763700010159182600,11.1871826171875,-0.0065666078589856625,0.028557108715176582,0.005955760832875967
1763700010168770300,11.196770263671874,-0.007788302376866341,0.032222192734479904,0.0010689827613532543
1763700010178357200,11.206357177734375,-0.007788302376866341,0.034665580838918686,-0.0038177953101694584
1763700010187943400,11.215943359375,-0.007788302376866341,0.034665580838918686,-0.006261184345930815
1763700010197530400,11.2255302734375,-0.007788302376866341,0.031000498682260513,-0.008704573847353458
1763700010207117800,11.235117919921874,-0.0065666078589856625,0.0261137206107378,-0.007482878863811493
1763700010216704800,11.244704833984375,-0.004123218823224306,0.02489202655851841,-0.0050394898280501366
1763700010226291000,11.254291015625,-0.004123218823224306,0.021226942539215088,-0.00259610079228878
1763700010235878000,11.2638779296875,-0.004123218823224306,0.020005248486995697,-0.001374406274408102
1763700010245465600,11.273465576171875,-0.0029015245381742716,0.018783552572131157,-0.00015271181473508477
1763700010255052500,11.283052490234375,-0.0016798300202935934,0.021226942539215088,-0.00015271181473508477
1763700010264638500,11.292638427734374,-0.0016798300202935934,0.02489202655851841,-0.00015271181473508477
1763700010274225400,11.302225341796875,-0.0016798300202935934,0.02367033064365387,-0.001374406274408102
1763700010283813000,11.311813232421875,-0.0029015245381742716,0.021226942539215088,-0.001374406274408102
1763700010293399800,11.32139990234375,-0.004123218823224306,0.020005248486995697,-0.001374406274408102
1763700010302986000,11.330986083984374,-0.0065666078589856625,0.018783552572131157,-0.001374406274408102
1763700010312573000,11.340572998046875,-0.009009997360408306,0.020005248486995697,-0.001374406274408102
1763700010322160600,11.35016064453125,-0.010231691412627697,0.021226942539215088,-0.00015271181473508477
1763700010331747600,11.35974755859375,-0.011453386396169662,0.018783552572131157,0.0010689827613532543
1763700010341333500,11.36933349609375,-0.011453386396169662,0.020005248486995697,0.0022906772792339325
1763700010350920700,11.378920654296875,-0.010231691412627697,0.021226942539215088,0.004734066314995289
1763700010360508200,11.388508056640624,-0.009009997360408306,0.018783552572131157,0.005955760832875967
1763700010370095000,11.39809521484375,-0.009009997360408306,0.018783552572131157,0.004734066314995289
1763700010379681300,11.407681396484374,-0.007788302376866341,0.020005248486995697,0.004734066314995289
1763700010389268200,11.417268310546875,-0.0065666078589856625,0.018783552572131157,0.004734066314995289
1763700010398856000,11.42685595703125,-0.005344913341104984,0.017561858519911766,0.004734066314995289
1763700010408442600,11.436442626953125,-0.004123218823224306,0.016340164467692375,0.004734066314995289
1763700010418028800,11.44602880859375,-0.0029015245381742716,0.016340164467692375,0.004734066314995289
1763700010427615700,11.45561572265625,-0.0029015245381742716,0.01511846948415041,0.004734066314995289
1763700010437203500,11.465203369140625,-0.0016798300202935934,0.016340164467692375,0.005955760832875967
1763700010446790100,11.4747900390625,-0.0004581354442052543,0.017561858519911766,0.004734066314995289
1763700010456376300,11.484376220703124,0.0007635590736754239,0.017561858519911766,0.0035123717971146107
1763700010465963300,11.49396337890625,0.0032069480512291193,0.017561858519911766,0.0010689827613532543
1763700010475551000,11.503551025390625,0.004428642801940441,0.016340164467692375,0.0010689827613532543
1763700010485138000,11.513137939453125,0.004428642801940441,0.01511846948415041,0.0010689827613532543
1763700010494723800,11.522723876953124,0.004428642801940441,0.01511846948415041,-0.001374406274408102
1763700010504310800,11.532310791015625,0.0032069480512291193,0.016340164467692375,-0.00259610079228878
1763700010513898500,11.5418984375,0.001985253533348441,0.017561858519911766,-0.0038177953101694584
1763700010523485400,11.5514853515625,0.0007635590736754239,0.020005248486995697,-0.0038177953101694584
1763700010533071600,11.561071533203124,-0.0004581354442052543,0.02367033064365387,-0.0050394898280501366
1763700010542658600,11.570658447265625,-0.0016798300202935934,0.02244863659143448,-0.0038177953101694584
1763700010552246000,11.58024609375,-0.0029015245381742716,0.020005248486995697,-0.00259610079228878
1763700010561833000,11.5898330078125,-0.005344913341104984,0.020005248486995697,-0.00259610079228878
1763700010571419100,11.599419189453124,-0.005344913341104984,0.020005248486995697,-0.001374406274408102
1763700010581006000,11.609006103515625,-0.0065666078589856625,0.017561858519911766,-0.001374406274408102
1763700010590593800,11.61859375,-0.007788302376866341,0.017561858519911766,-0.001374406274408102
1763700010600180500,11.628180419921875,-0.009009997360408306,0.016340164467692375,-0.00015271181473508477
1763700010609766700,11.6377666015625,-0.010231691412627697,0.017561858519911766,-0.00015271181473508477
1763700010619353600,11.647353515625,-0.011453386396169662,0.018783552572131157,-0.00015271181473508477
1763700010628941300,11.65694140625,-0.011453386396169662,0.018783552572131157,-0.00015271181473508477
1763700010638528000,11.666528076171875,-0.012675080448389053,0.016340164467692375,0.0022906772792339325
1763700010648114200,11.6761142578125,-0.011453386396169662,0.01511846948415041,0.0035123717971146107
1763700010657701000,11.685701171875,-0.011453386396169662,0.013896775431931019,0.004734066314995289
1763700010667288800,11.695288818359375,-0.011453386396169662,0.012675080448389053,0.004734066314995289
1763700010676875800,11.704875732421876,-0.011453386396169662,0.01511846948415041,0.004734066314995289
1763700010686461700,11.714461669921874,-0.012675080448389053,0.01511846948415041,0.0035123717971146107
1763700010696049000,11.724048828125,-0.012675080448389053,0.016340164467692375,0.0035123717971146107
1763700010705636400,11.73363623046875,-0.012675080448389053,0.018783552572131157,0.0035123717971146107
1763700010715223300,11.743223388671876,-0.012675080448389053,0.020005248486995697,0.0035123717971146107
1763700010724809500,11.7528095703125,-0.013896775431931019,0.018783552572131157,0.0035123717971146107
1763700010734396400,11.762396484375,-0.01511846948415041,0.018783552572131157,0.0035123717971146107
1763700010743983900,11.77198388671875,-0.01511846948415041,0.017561858519911766,0.0035123717971146107
1763700010753570800,11.78157080078125,-0.016340164467692375,0.016340164467692375,0.0035123717971146107
1763700010772744000,11.800743896484375,-0.016340164467692375,0.017561858519911766,0.004734066314995289
1763700010782331600,11.81033154296875,-0.01511846948415041,0.016340164467692375,0.005955760832875967
1763700010791918300,11.81991845703125,-0.01511846948415041,0.016340164467692375,0.005955760832875967
