time,seconds_elapsed,z,y,x
1763697198615133700,0.0571337890625,9.22306919055581,2.980208235442638,-1.4912198238782584
1763697198625156900,0.067156982421875,9.208271434396504,3.017816373825073,-1.5069520844087003
1763697198635179800,0.0771796875,9.195407276648282,3.0495936140969393,-1.5214632787115872
1763697198645203000,0.087202880859375,9.18487419219613,3.075466306500137,-1.5329625778473912
1763697198655225900,0.097225830078125,9.176434865152835,3.096741149719059,-1.5406557626985014
1763697198665248800,0.107248779296875,9.169913354429601,3.1141373979389666,-1.5444154074929655
1763697198675271700,0.117271728515625,9.164946087411046,3.128930477923155,-1.5440015659950672
1763697198685294800,0.127294921875,9.161187027138471,3.141856010469794,-1.5400564816311
1763697198695317800,0.13731787109375,9.157704445719718,3.154418262661993,-1.5350839539155363
1763697198705341000,0.1473408203125,9.15387758090794,3.167292649543285,-1.5313934288345277
1763697198715363800,0.15736376953125,9.149510617870092,3.1810800596162676,-1.5289115488909184
1763697198725386800,0.16738671875,9.144947255477309,3.1966213276192543,-1.523790844876319
1763697198735410000,0.177409912109375,9.14082520711124,3.212746240729093,-1.514582433156669
1763697198745432800,0.187432861328125,9.136931706804036,3.2295477379262447,-1.5022924220345915
1763697198755456000,0.1974560546875,9.13246712861061,3.248879045861959,-1.487685658402741
1763697198765479000,0.20747900390625,9.126782653233409,3.271661955556273,-1.4725656845517456
1763697198775502000,0.217502197265625,9.119834441530704,3.2973709818303583,-1.458200766851753
1763697198785525800,0.22752587890625,9.112484078767896,3.323537688744068,-1.4446834058918059
1763697198795549000,0.237548828125,9.105750971120596,3.346208370235562,-1.4347723988607526
1763697198805571800,0.24757177734375,9.0998110596776,3.364974153243005,-1.4285551317811012
1763697198815595000,0.257594970703125,9.094687140792608,3.3806188816204665,-1.424242675409466
1763697198825617700,0.26761767578125,9.090690180110931,3.3924580802351234,-1.421606627817452
1763697198835640800,0.277640869140625,9.088176735985279,3.400169093003869,-1.419253488820046
1763697198845663700,0.287663818359375,9.087104138317704,3.4046053218856454,-1.4154792309783397
1763697198855687000,0.29768701171875,9.0866791909039,3.407657110671699,-1.4108569780051707
1763697198865709800,0.307709716796875,9.085240682533383,3.4138533349633216,-1.4051317322261632
1763697198875733000,0.31773291015625,9.081253658723831,3.427531731703877,-1.3975836549341678
1763697198885756000,0.327755859375,9.072685152342915,3.4520930492475626,-1.3927749394781888
1763697198895778800,0.33777880859375,9.057693334916234,3.4906709094449875,-1.3941986886709927
1763697198905801700,0.3478017578125,9.038403528034687,3.5378643300354478,-1.4004166864030063
1763697198915825000,0.357824951171875,9.016827656042576,3.589723112088442,-1.4075124898828566
1763697198925847800,0.367847900390625,8.99283478603661,3.6474995937526224,-1.412464413201809
1763697198935871000,0.37787109375,8.966099339324236,3.7103172844544052,-1.418800484355539
1763697198945894000,0.387893798828125,8.936384000018238,3.7769767452761527,-1.430340992284566
1763697198955916800,0.397916748046875,8.903113598579168,3.8491362648189065,-1.4453722649388014
1763697198965939700,0.407939697265625,8.864868331336975,3.930027956871688,-1.462660522739589
1763697198975963000,0.417962890625,8.819674852392076,4.021192621135712,-1.4878591152735055
1763697198985985800,0.42798583984375,8.767513288000226,4.119216942036152,-1.5274626652568577
1763697198996009000,0.438009033203125,8.709172158190608,4.221847587688267,-1.5800962310746312
1763697199006032000,0.448031982421875,8.64631676582694,4.326311293986439,-1.641530504593998
1763697199016054800,0.4580546875,8.580454008340835,4.4303713879197835,-1.7082148075960575
1763697199026077700,0.46807763671875,8.512779232996701,4.5343306518271564,-1.7728018460579216
1763697199036100900,0.478100830078125,8.445875442025065,4.636232398682832,-1.828366058500111
1763697199046123800,0.488123779296875,8.380796528393029,4.734183362086117,-1.8762027454301713
1763697199056147000,0.49814697265625,8.316596151161193,4.828243163269758,-1.9216358783498406
1763697199066169900,0.508169921875,8.252536643704772,4.919266665497422,-1.9664282291479407
1763697199076192800,0.51819287109375,8.187897290533781,5.008543616318702,-2.010774297483265
1763697199086216000,0.5282158203125,8.12084970717728,5.097801277917624,-2.0578169114261864
1763697199096238800,0.53823876953125,8.050538738110662,5.188668128278851,-2.1064016402445733
1763697199106262000,0.548261962890625,7.977122204244137,5.281564438641071,-2.154294879667461
1763697199116285000,0.558284912109375,7.9023419808089725,5.374620908001065,-2.199279245906323
1763697199126307800,0.568307861328125,7.83043234437406,5.464110624790191,-2.2356688022792337
1763697199136330800,0.578330810546875,7.766344195345043,5.545407682773471,-2.2589242979213595
1763697199146354000,0.58835400390625,7.713760021626949,5.614479465433955,-2.268459311246872
1763697199156376800,0.598376953125,7.673612720155716,5.669791602811217,-2.2670510518841445
1763697199166400000,0.60839990234375,7.645278021553159,5.711453400498629,-2.2581885309927165
1763697199176423000,0.6184228515625,7.629339278665184,5.738356604993343,-2.2438448022112247
1763697199186445800,0.62844580078125,7.627457702702284,5.7483893387079235,-2.2244776923097667
1763697199196468700,0.63846875,7.6424524427384135,5.735914472538233,-2.205128410325944
1763697199206492000,0.648491943359375,7.686382769879699,5.693329130265116,-2.1623872929692265
1763697199216514800,0.658514892578125,7.74783121805489,5.653220991760492,-2.0451383393779397
1763697199226538000,0.6685380859375,7.820145343637466,5.603778038677573,-1.900890611962974
1763697199236561000,0.678560791015625,7.8921175239145755,5.5391094594120975,-1.7897293077223002
1763697199246584000,0.688583984375,7.967071350350976,5.454511021795868,-1.715947301544249
1763697199256607000,0.69860693359375,8.046295693713427,5.351201453968883,-1.6709746257431803
1763697199266630000,0.7086298828125,8.129112508609891,5.231709982147812,-1.6483716026604174
1763697199276653000,0.718653076171875,8.216281088975071,5.098138547047973,-1.6346543352141976
1763697199286676000,0.728676025390625,8.304429912549256,4.957208565878868,-1.622626336029172
1763697199296700000,0.738699951171875,8.389173896116018,4.816894378520548,-1.609244876408577
1763697199306722800,0.748722900390625,8.467246731355786,4.683224159221351,-1.5948447412647306
1763697199316746000,0.75874609375,8.537496910145878,4.558540379454195,-1.5815318168357013
1763697199326769000,0.768768798828125,8.600805891495943,4.442485311822593,-1.5687097446635365
1763697199336792000,0.7787919921875,8.658857098448276,4.334767572164536,-1.550604325260967
1763697199346815000,0.78881494140625,8.712306949084997,4.234540480522811,-1.5279910730451345
1763697199356838000,0.798837890625,8.761688527369499,4.138806900908053,-1.5078043173238633
1763697199366860800,0.80886083984375,8.807095356804131,4.046763992504776,-1.4930366640418766
1763697199376884000,0.818884033203125,8.84809313762486,3.9605326929897067,-1.4818277261547743
1763697199386907000,0.828906982421875,8.884398376715183,3.8823581509411333,-1.4714434025235472
1763697199396930000,0.838929931640625,8.917606818833947,3.8117058210909365,-1.4551878487713634
1763697199406953000,0.848952880859375,8.949694732490181,3.744206402313709,-1.4332719311699271
1763697199416976000,0.858975830078125,8.981374649867416,3.6753096839591857,-1.413291073284298
1763697199426998800,0.868998779296875,9.013691696104408,3.6034365801423784,-1.392475664270669
1763697199437022000,0.87902197265625,9.047126932716369,3.5299873130500314,-1.363476948801428
1763697199447044900,0.889044921875,9.081414986765385,3.4561183592408895,-1.32421037568748
1763697199457068000,0.899068115234375,9.118837831708788,3.3790760360926386,-1.2645271836191414
1763697199467091000,0.909091064453125,9.160831637829542,3.2991572807252405,-1.1683768398970364
1763697199477113900,0.91911376953125,9.204758457839489,3.2207457150503993,-1.0342149646233767
1763697199487136800,0.92913671875,9.24528219140768,3.146682992234826,-0.8907998155750334
1763697199497160000,0.939159912109375,9.280303235906363,3.076517569118738,-0.7624921462222933
1763697199507182800,0.949182861328125,9.310597251883149,3.010065613567829,-0.6501263615626841
1763697199517206000,0.9592060546875,9.33588249978721,2.9515406516239047,-0.5478063892949372
1763697199527229000,0.96922900390625,9.354903426599503,2.9066163450092075,-0.4557937298994511
1763697199537251800,0.979251953125,9.368815632095933,2.874486930298805,-0.3646993543926626
1763697199547274800,0.989274658203125,9.37881797067225,2.8518972050890325,-0.2735749490737915
1763697199557298000,0.9992978515625,9.386029801747203,2.8367700708448886,-0.15990515087721868
1763697199567320800,1.00932080078125,9.390651031807064,2.825916668397188,-0.015976621504727517
1763697199577344000,1.019343994140625,9.390689025729895,2.820762062112987,0.16926184849375858
1763697199587367200,1.0293671875,9.383166229009628,2.820340621830523,0.4150309268783778
1763697199597389800,1.039389892578125,9.363661902594567,2.826028019817173,0.7111830339413135
1763697199607413000,1.0494130859375,9.334304290685058,2.8359043939262625,0.9993968953508883
1763697199617436000,1.059435791015625,9.299056451693177,2.8582173480212685,1.2363356928795575
1763697199627459000,1.069458984375,9.258400031656027,2.9072853303119537,1.4142521734014153
1763697199637482000,1.07948193359375,9.214245832630992,2.9865932603046295,1.5324213105775415
1763697199647505200,1.089505126953125,9.170631731832026,3.087481446203589,1.5929090970270334
1763697199657527800,1.09952783203125,9.132637809002398,3.1962887346640225,1.5965737570144236
1763697199667551000,1.109551025390625,9.103362614679336,3.3008260907202955,1.550395358685404
1763697199677574000,1.119573974609375,9.084249917930364,3.3932866400137542,1.4602709972545505
1763697199687597000,1.12959716796875,9.073171474555135,3.47169002238214,1.339891344422102
1763697199697620000,1.139619873046875,9.06862915495038,3.5345860390171406,1.198771320573613
1763697199707643100,1.14964306640625,9.06920724709928,3.578047579602897,1.0570875984277575
1763697199717665800,1.159665771484375,9.073837829509378,3.5996231593340635,0.9373181864481419
1763697199727689000,1.16968896484375,9.081897801846265,3.5996322194233534,0.855666689004004
1763697199737711900,1.1797119140625,9.092124012306332,3.5830914189890026,0.815548613627255
1763697199747735000,1.189735107421875,9.103557844990492,3.557982112173736,0.7977356743652373
1763697199757758000,1.199758056640625,9.114979987236858,3.530620934778452,0.7888227384608238
1763697199767781000,1.209781005859375,9.125840403947233,3.5004303791761395,0.7977537945438176
1763697199777803800,1.2198037109375,9.138299488025902,3.4636244970872996,0.8155820044402032
1763697199787827000,1.229826904296875,9.153978703194856,3.418538862431049,0.8298527410507202
1763697199797849900,1.239849853515625,9.172728996372223,3.3658003749340772,0.83833882984519
1763697199807874000,1.2498740234375,9.194660842195153,3.3054142952933905,0.838353735153377
1763697199817897000,1.25989697265625,9.219201993733645,3.239123667784035,0.8275110002301633
1763697199827920000,1.269919921875,9.245249458181858,3.1698186608895655,0.8049798002745956
1763697199837942800,1.27994287109375,9.271227949047088,3.1001831068664787,0.776902802760154
1763697199847966000,1.289966064453125,9.294884134444594,3.0317914154246446,0.7640360877286643
1763697199857988900,1.29998876953125,9.315447614523768,2.9656308440357444,0.7732068708516657
1763697199868012000,1.310011962890625,9.333976958426833,2.904111960972845,0.7831932812064886
1763697199878035000,1.320034912109375,9.35121450895369,2.8522669151842592,0.7679509961500763
1763697199888057900,1.330057861328125,9.365610114052892,2.819525506055355,0.7113417316343635
1763697199898080800,1.340080810546875,9.373177918958664,2.8163369391471145,0.618197730121389
1763697199908104000,1.35010400390625,9.373395945623516,2.8427041370689867,0.4784002966461703
1763697199918126800,1.360126953125,9.364920378223061,2.8956986451536415,0.2891029740027152
1763697199928150000,1.37014990234375,9.346042659273744,2.969263355319202,0.07311392505760304
1763697199938173000,1.3801728515625,9.319165758264065,3.050307023063302,-0.13841753255729564
1763697199948195800,1.39019580078125,9.292295871517062,3.115794809757173,-0.3397735143855214
1763697199958219000,1.400218994140625,9.274085676565766,3.1478643109738824,-0.5026646040046587
1763697199968242000,1.410241943359375,9.267296454817057,3.1555317768618463,-0.5746426660332828
1763697199978265000,1.42026513671875,9.269682473170757,3.151955087418854,-0.5554689963446929
1763697199988288000,1.4302880859375,9.27791955564022,3.141875299692154,-0.4681963710831478
1763697199998311200,1.440311279296875,9.289273893347382,3.1245924487188454,-0.3416127490440383
1763697200008333800,1.450333740234375,9.301898397120834,3.0993180144697425,-0.19824923885138704
1763697200018357000,1.46035693359375,9.314731575208901,3.0663825440734622,-0.0587893713340396
1763697200028380000,1.4703798828125,9.326022784551977,3.0320754930630325,0.046938970905356106
1763697200038403000,1.480403076171875,9.332933002331853,3.0099481246680018,0.08339434992293827
1763697200048426000,1.490426025390625,9.334975321814417,3.004284107556939,0.05384751275137532
1763697200058449200,1.50044921875,9.332162017959355,3.0134885737538335,-0.004252695002047403
1763697200068471800,1.510471923828125,9.324484907460212,3.0365342260375616,-0.0618459550262196
1763697200078495000,1.520494873046875,9.311557621347903,3.0745959534063934,-0.11018190128188579
1763697200088518000,1.530517822265625,9.293560192364454,3.126839058601856,-0.1516586977912113
1763697200098541000,1.540541015625,9.272153831720352,3.1874551476061344,-0.19409871330950407
1763697200108564000,1.55056396484375,9.249100288391112,3.250769097392261,-0.2388175787462853
1763697200118587100,1.560587158203125,9.22607246402502,3.3117136876985427,-0.2872734570206143
1763697200128609800,1.57060986328125,9.20512787567377,3.364750865881145,-0.33831765302140265
1763697200138633000,1.580633056640625,9.188125887468457,3.4055300355151292,-0.3887101253814995
1763697200148655900,1.59065576171875,9.172970403912663,3.436607603085041,-0.46553719834387297
1763697200158679000,1.600678955078125,9.158937202385067,3.4581776298582554,-0.5703164368646219
1763697200168702000,1.610701904296875,9.148096074897051,3.4665415535777804,-0.6825003986839204
1763697200178725000,1.62072509765625,9.142759974566102,3.45826180101037,-0.7878742786295712
1763697200188747800,1.630747802734375,9.143543233898281,3.434561484210193,-0.8773756858564913
1763697200198771000,1.64077099609375,9.150896519270539,3.3997409307196733,-0.9344730261500924
1763697200208793900,1.6507939453125,9.163112442243099,3.3566344871819016,-0.9699296125218272
1763697200218817000,1.660817138671875,9.17685688995719,3.312550430783629,-0.9913071854628622
1763697200228839700,1.670839599609375,9.190795983460545,3.2712834776327013,-0.9991768959246575
1763697200238862800,1.68086279296875,9.205272837102413,3.2306375789895654,-0.9981577089447528
1763697200248885500,1.690885498046875,9.219996358981728,3.190877815531194,-0.9901271088328212
1763697200258908700,1.70090869140625,9.23580826061964,3.1524756041616198,-0.9654682491987943
1763697200268931600,1.710931640625,9.252993204176425,3.115274877536297,-0.9206355663903057
1763697200278954800,1.720954833984375,9.269997530469297,3.082935327206552,-0.8561798261579125
1763697200288977700,1.730977783203125,9.285645765978098,3.0557886693447824,-0.7805891631226987
1763697200299000800,1.741000732421875,9.298978710281848,3.03293766285032,-0.7075772645343095
1763697200309024800,1.751024658203125,9.309200244566798,3.015093670862913,-0.6468292197134345
1763697200319047700,1.761047607421875,9.317617944300174,3.0003853465527293,-0.5916614227103069
1763697200329070800,1.77107080078125,9.324967722541093,2.987083674170077,-0.5410086919788271
1763697200339093800,1.78109375,9.329853741016983,2.9782594394624233,-0.5041699305336922
1763697200349117000,1.791116943359375,9.332038683840631,2.9753473514080047,-0.4803608195967972
1763697200359139600,1.8011396484375,9.333454980379342,2.9762559906855226,-0.44598826560210436
1763697200369162800,1.811162841796875,9.33500863956213,2.9809032319694757,-0.37711631636265663
1763697200379185700,1.821185546875,9.340328373280167,2.972415097348392,-0.3056064929002896
1763697200389208800,1.831208740234375,9.346695570224522,2.956793165324628,-0.2589181357551366
1763697200399231700,1.841231689453125,9.347198259049653,2.9568390502929685,-0.23952952640792355
1763697200409255000,1.8512548828125,9.342593980124592,2.971258328528702,-0.24071393215321002
1763697200419277600,1.861277587890625,9.337782780450581,2.984768382965028,-0.2595295821843669
1763697200429300700,1.87130078125,9.335707143220304,2.988528612281382,-0.289229048067797
1763697200439323600,1.88132373046875,9.336362392258643,2.982782177583873,-0.3251620015133172
1763697200449346800,1.891346923828125,9.338469009149074,2.971386923344433,-0.36638500592466444
1763697200459369700,1.90136962890625,9.339255191090702,2.965556902016699,-0.3926473186999559
1763697200469393000,1.911392822265625,9.3385297994256,2.9655244610518214,-0.4097729698175564
1763697200479415600,1.92141552734375,9.339841466546059,2.956153698377311,-0.4459769770231098
1763697200489438700,1.931438720703125,9.34522783575952,2.93008285305351,-0.5017139156837016
1763697200499461600,1.941461669921875,9.351780326142906,2.900822856299579,-0.547556104328297
1763697200509484800,1.95148486328125,9.357302888956665,2.876560813963413,-0.5802266401780769
1763697200519507700,1.9615078125,9.362325685554742,2.854835596628487,-0.6059321593208238
1763697200529531000,1.97153076171875,9.3680352953732,2.8327321936309335,-0.6212317640550434
1763697200539553500,1.981553466796875,9.375304409593344,2.809581619668007,-0.616687033297494
1763697200549576700,1.99157666015625,9.384311891913413,2.7844939401626587,-0.5930188286686315
1763697200559599600,2.001599609375,9.393022437113522,2.7608085286706685,-0.5652008474165573
1763697200569622800,2.011622802734375,9.39993031680584,2.7416590070426463,-0.5431375572336837
1763697200579645700,2.021645751953125,9.404568498000502,2.7277047159701584,-0.5330140764957294
1763697200589668900,2.0316689453125,9.40658509851992,2.7200504018247127,-0.5365296834012493
1763697200599691500,2.04169140625,9.406050845512747,2.7189854029417035,-0.5511007546652108
1763697200609714700,2.051714599609375,9.403480118241905,2.7228704276815057,-0.5752605056706815
1763697200619737600,2.061737548828125,9.399390218579768,2.7298993034049865,-0.6078646617533638
1763697200629760800,2.0717607421875,9.393308268317579,2.7415558389291164,-0.6480873300157487
1763697200639783700,2.08178369140625,9.385386827668547,2.757251128450036,-0.6945942296467721
1763697200649806800,2.091806884765625,9.377037516996264,2.77238790730536,-0.7452651170894503
1763697200659829500,2.10182958984375,9.367081355649232,2.7882573843494054,-0.8085774594403803
1763697200669852700,2.111852783203125,9.351197557818889,2.8103505582138895,-0.9096279962942003
1763697200679875600,2.12187548828125,9.328231692773103,2.8345564864486454,-1.0581920525383204
1763697200689898800,2.131898681640625,9.308728535401821,2.8352950298562645,-1.216167861054465
1763697200699922000,2.141921875,9.306383433580399,2.7934803796947,-1.325925216781348
1763697200709944800,2.15194482421875,9.303112449085711,2.7623411450654265,-1.411366534962505
1763697200719967700,2.1619677734375,9.296407398489118,2.7548443595692516,-1.4690226051174102
1763697200729990700,2.17199072265625,9.28580884758532,2.782637790901959,-1.483599558132887
1763697200740013800,2.182013916015625,9.279400734108686,2.790895039376616,-1.5079837655439972
1763697200750036700,2.19203662109375,9.275908800339698,2.791182039624452,-1.5287899683378636
1763697200760060000,2.202059814453125,9.272558320868015,2.785606869840622,-1.5589878304637967
1763697200770082800,2.212082763671875,9.269392550313473,2.773592314659059,-1.598728889221698
1763697200780105700,2.222105712890625,9.267378872403501,2.7532340017631647,-1.644924384815991
1763697200790129700,2.232129638671875,9.26645065164268,2.729203430095315,-1.6895938398867845
1763697200800152800,2.24215283203125,9.269970057940483,2.7024504477262496,-1.7131259605132043
1763697200810175700,2.25217578125,9.27950828613639,2.669853123243153,-1.7125974065944551
1763697200820198700,2.26219873046875,9.286449483576417,2.633138134308159,-1.7317117107786237
1763697200830221600,2.2722216796875,9.28433526790142,2.6031635595440865,-1.787467208009213
1763697200840244700,2.28224462890625,9.27993323355019,2.5905057380229235,-1.828253099644929
1763697200850267600,2.292267578125,9.276568141031264,2.5935525583729144,-1.8409658662237225
1763697200860290800,2.302290771484375,9.27506767334044,2.60489082172811,-1.8324970208249984
1763697200870313700,2.312313720703125,9.274745017257333,2.62110750477463,-1.8108786248654125
1763697200880336600,2.322336669921875,9.275259981042145,2.640449334104359,-1.779877191271633
1763697200890359600,2.332359619140625,9.27653949945867,2.6609330269455906,-1.7423076313339172
1763697200900382700,2.3423828125,9.278287219908833,2.680392345175147,-1.7027251241385937
1763697200910405600,2.352405517578125,9.280804171165823,2.6955349692493678,-1.6646774252951144
1763697200920428800,2.3624287109375,9.282514482215046,2.705571210095286,-1.638656702723354
1763697200930451700,2.37245166015625,9.283115370717644,2.7106410607054827,-1.6268319710254668
1763697200940474600,2.382474609375,9.28336496156454,2.711230258770287,-1.624421695013344
1763697200950497500,2.39249755859375,9.281979060164094,2.711254224167764,-1.6322827837772667
1763697200960520700,2.402520751953125,9.27885420614183,2.7153394476547836,-1.6432231338560581
1763697200970543600,2.412543701171875,9.274352218547463,2.7259444282993672,-1.6510623030491172
1763697200980566800,2.42256689453125,9.270286868804693,2.7405761802420017,-1.6496690951250492
1763697200990589700,2.432589599609375,9.270732274484633,2.75490281175822,-1.6230891312353313
1763697201000612600,2.442612548828125,9.274010857763885,2.767461556819081,-1.582487217864394
1763697201010635500,2.452635498046875,9.276675108537077,2.7818378726959225,-1.5411251337759195
1763697201020658700,2.46265869140625,9.274199073812365,2.800044268254936,-1.5229456262238323
1763697201030681900,2.472681884765625,9.269687733867764,2.8250714497447014,-1.5040769673638046
1763697201040704800,2.482704833984375,9.27581527683735,2.8554443761765955,-1.4057307210326193
1763697201050728000,2.49272802734375,9.30410438273251,2.869586006514728,-1.1702586350556463
1763697201060750800,2.502750732421875,9.347245605322717,2.832688062228262,-0.8804887033104896
1763697201070773800,2.512773681640625,9.394152902448177,2.7529052082002163,-0.584629514779523
1763697201080796700,2.522796630859375,9.43832931330502,2.6459634213507175,-0.29529620261965317
1763697201090819800,2.53281982421875,9.465880752575396,2.555418058028817,-0.1932012347468175
1763697201100842800,2.5428427734375,9.47833457595706,2.5120973872184753,-0.1446525179567281
1763697201110866000,2.552865966796875,9.482522675296664,2.498793084487319,-0.0904617492922116
1763697201120888800,2.562888916015625,9.48420902094841,2.4939205100148913,-0.022969477208401076
1763697201130911700,2.572911865234375,9.488785827344655,2.4759490922555325,0.05481072719376534
1763697201140934700,2.5829345703125,9.498968783184885,2.4335553270317614,0.1333532075055875
1763697201150957800,2.592957763671875,9.513312365835905,2.372455984555185,0.1967945647973567
1763697201160980700,2.602980712890625,9.529197332710027,2.3035529825903476,0.241717939830292
1763697201171004000,2.61300390625,9.544702944877743,2.2353360631935297,0.2688855126159265
1763697201181026800,2.62302685546875,9.559040097787976,2.172020359841734,0.27832586992792785
1763697201191049700,2.6330498046875,9.572109422719478,2.1129988465525207,0.28344852843759577
1763697201201072600,2.64307275390625,9.58424526619315,2.05600620874241,0.2923410426084883
1763697201211095800,2.653095703125,9.59580827821493,1.9989286691278219,0.30843945130389183
1763697201221118700,2.66311865234375,9.606595629689096,1.9425474412143229,0.33199265125095845
1763697201231141000,2.67314111328125,9.615919338351487,1.8900101753778755,0.36378534482028335
1763697201241164000,2.6831640625,9.623201896575093,1.8440446891471742,0.4048130823878571
1763697201251187200,2.693187255859375,9.628113049492239,1.8095920921862125,0.4418208437243476
1763697201261209900,2.7032099609375,9.630324295800923,1.7860894899152218,0.4869498060656711
1763697201271233000,2.71323291015625,9.630577978301048,1.7661812588743864,0.55041565847788
1763697201281256000,2.723255859375,9.63050023688972,1.741347846391052,0.6257493145447224
1763697201291280100,2.733280029296875,9.63070189694166,1.7080376974634826,0.7089234915114939
1763697201301302800,2.743302734375,9.631158993059396,1.6698521975845098,0.7891500707190483
1763697201311326000,2.753325927734375,9.631624857005477,1.6317032303236425,0.8600743493784219
1763697201321348900,2.763348876953125,9.632956397870183,1.5965815019294618,0.9096515963654964
1763697201331372000,2.7733720703125,9.6356644877851,1.5660459322817624,0.9337333136986941
1763697201341395000,2.78339501953125,9.640002809250355,1.5402183941945433,0.9319135509256273
1763697201351418000,2.793418212890625,9.644703534287213,1.5202870745390653,0.9158605340082198
1763697201361441000,2.80344091796875,9.648528645533323,1.5061905985169113,0.8987010171536356
1763697201371464000,2.8134638671875,9.653762454533576,1.495565305736661,0.8593846135485916
1763697201381486800,2.82348681640625,9.66190659802258,1.4878192216545343,0.7773912438642233
1763697201391510000,2.833510009765625,9.672348497059941,1.4827064086854458,0.646254780826345
1763697201401533000,2.843532958984375,9.682940033701062,1.4804495696693658,0.4683283268997445
1763697201411556000,2.85355615234375,9.690226683577894,1.4849547721341252,0.25455897243125364
1763697201421579000,2.8635791015625,9.691247843319177,1.4999249622508883,0.017994133056310237
1763697201431602000,2.873601806640625,9.68532897466421,1.5196879396021366,-0.2352424236732535
1763697201441624800,2.883624755859375,9.672140991789101,1.539396556417644,-0.5003350650785491
1763697201451648000,2.89364794921875,9.651807228812574,1.5590984512314199,-0.7630257416423409
1763697201461671000,2.9036708984375,9.626803135937452,1.576143840187043,-1.0053940899390728
1763697201471694000,2.913694091796875,9.601083003747462,1.5851663739457726,-1.2152523536447435
1763697201481717000,2.923717041015625,9.573515782386064,1.5876283801451325,-1.413369399217516
1763697201491740000,2.933739990234375,9.540058918464183,1.588982278972119,-1.62258819597587
1763697201501762800,2.9437626953125,9.502333291181921,1.5877333018243311,-1.8317079162739216
1763697201511786000,2.953785888671875,9.463852461618185,1.5828797243133186,-2.0249371167398986
1763697201521809000,2.963808837890625,9.431979067495465,1.5687800334207713,-2.178781232278794
1763697201531832000,2.97383203125,9.412581708586215,1.5402579955525695,-2.2806356328614057
1763697201541855000,2.98385498046875,9.40291313200891,1.5006730041392147,-2.3459723206467924
1763697201551878000,2.9938779296875,9.398013669529556,1.458678028974682,-2.391649199194461
1763697201561901000,3.003901123046875,9.392549558904767,1.4198368416659533,-2.4360757854200896
1763697201571924000,3.013924072265625,9.380262324261665,1.3878690472580493,-2.5009759814843533
1763697201581947100,3.023947021484375,9.356872096323967,1.364328158803284,-2.599602652192116
1763697201591970000,3.033969970703125,9.323167395120858,1.3495362478628754,-2.725378318849206
1763697201601993000,3.043992919921875,9.27993615615964,1.3451545256473123,-2.8711902268409726
1763697201612015900,3.054015869140625,9.227871037879586,1.3478279826402664,-3.033173225171864
1763697201622039000,3.0640390625,9.164764885625242,1.3506615986309944,-3.2176360585972663
1763697201632062000,3.07406201171875,9.089820996060967,1.350340111591667,-3.423757473862171
1763697201642085000,3.084085205078125,9.004048253968358,1.3482744112335145,-3.644126025666296
1763697201652108000,3.09410791015625,8.907057952290772,1.34841776522696,-3.8751092027261853
1763697201662131000,3.104130859375,8.794874757656455,1.3508729032941162,-4.122584957164526
1763697201672153900,3.11415380859375,8.670499605447054,1.354914872161299,-4.3768747755318875
1763697201682177000,3.124177001953125,8.531884915482998,1.361382899131626,-4.639392324018478
1763697201692200000,3.134199951171875,8.379913315817713,1.3680299359306691,-4.906723410266638
1763697201702223000,3.14422314453125,8.219409450128675,1.3702864826858043,-5.170494758206606
1763697201712246000,3.15424609375,8.061157747280598,1.3630221907712519,-5.415744361028075
1763697201722269200,3.164269287109375,7.915551006472111,1.340032798719406,-5.6319397188007825
1763697201732291800,3.174291748046875,7.791302695512771,1.2982711939193308,-5.812096963986754
1763697201742315000,3.18431494140625,7.693100095435977,1.2412417312301696,-5.953647122880816
1763697201752338000,3.194337890625,7.611955597665905,1.1750743647743016,-6.070232351866364
1763697201762361000,3.204361083984375,7.537880307629704,1.1082706731762737,-6.1743397920727725
1763697201772384000,3.214384033203125,7.465982361632585,1.0553783833570778,-6.270220086681842
1763697201782407200,3.2244072265625,7.398136321374774,1.0378630388021468,-6.353016443312168
1763697201792429800,3.234429931640625,7.3340925960093735,1.0679958728678525,-6.421904686099291
1763697201802453000,3.244452880859375,7.2748489644020795,1.150321031789854,-6.474852432432771
1763697201812477000,3.254476806640625,7.226150107684731,1.2711831343770026,-6.50670653733313
1763697201822500000,3.2645,7.187607318800687,1.4067691241696476,-6.52147915905118
1763697201832522800,3.274522705078125,7.153779283478856,1.5345610990852117,-6.529850681555271
1763697201842546000,3.2845458984375,7.123620292058587,1.6407665344841778,-6.53699529261291
1763697201852568800,3.29456884765625,7.098256133699417,1.727008209262788,-6.542368802344798
1763697201862592000,3.304592041015625,7.080597142890095,1.790637946999818,-6.544398262345791
1763697201872615200,3.314615234375,7.0736401633590456,1.8244198050923643,-6.54259033614099
1763697201882638000,3.32463818359375,7.0750880240797995,1.823650574285537,-6.541238921532035
1763697201892661000,3.334660888671875,7.079761276587844,1.7875979947820304,-6.54613312331438
1763697201902684000,3.344683837890625,7.0893363296628,1.7197193674288689,-6.553950519067048
1763697201912707000,3.35470703125,7.1048162228673695,1.628883788988739,-6.560389027681946
1763697201922730000,3.36472998046875,7.1262085549861185,1.524775764260441,-6.56220922884643
1763697201932753200,3.374753173828125,7.154884029850363,1.413271637931466,-6.555965366020798
1763697201942776000,3.384776123046875,7.188353753253817,1.293644557031989,-6.544038781383633
1763697201952799000,3.394799072265625,7.222674540528654,1.1586490804784,-6.53153059746623
1763697201962822000,3.40482177734375,7.254677113988995,1.004008553864807,-6.521657438227534
1763697201972845000,3.414844970703125,7.279840196818113,0.831860354546085,-6.517845770984888
1763697201982868000,3.424867919921875,7.29416916642189,0.6494602988693863,-6.522552341240644
1763697201992891100,3.43489111328125,7.296748661521077,0.4661715141920373,-6.535329405227303
1763697202002914000,3.4449140625,7.289776484420895,0.28666997470213096,-6.553423864844441
1763697202012937000,3.45493701171875,7.278822544208168,0.11051252147573977,-6.570913928827643
1763697202022959900,3.4649599609375,7.266055417093634,-0.06546027763243764,-6.585631605488062
1763697202032983000,3.474983154296875,7.250503043174743,-0.24370319536337628,-6.598575842735171
1763697202043006000,3.485005859375,7.230725160515308,-0.4238145738473162,-6.611155338323116
1763697202053029000,3.495029052734375,7.2116744230866425,-0.6060687182473018,-6.617765111851692
1763697202063052000,3.505052001953125,7.193941197997331,-0.7927847008943557,-6.617331981131434
1763697202073075000,3.515074951171875,7.175262801012396,-0.9871072495549916,-6.611475656318664
1763697202083097900,3.525097900390625,7.152523145937919,-1.1886238013729453,-6.602952158123254
1763697202093121000,3.53512109375,7.123720245301723,-1.3936143129117786,-6.5939996208608145
1763697202103144000,3.54514404296875,7.0887278423756355,-1.601185050202161,-6.5845671911269426
1763697202113167000,3.5551669921875,7.05087888097465,-1.8133561208948492,-6.570176846724748
1763697202123190000,3.56518994140625,7.013365435138344,-2.02757784050703,-6.547672169449925
1763697202133213000,3.575212890625,6.97525402340889,-2.2394497821226715,-6.519285448399185
1763697202143235800,3.58523583984375,6.9376359481543295,-2.44623039194867,-6.485024282357096
1763697202153259000,3.595259033203125,6.898137465980649,-2.6446274965718386,-6.449187829822302
1763697202163282000,3.605281982421875,6.853777515250444,-2.8325182586193085,-6.4166153475195165
1763697202173305000,3.61530517578125,6.804197784045338,-3.008270254583657,-6.389333372840285
1763697202183328000,3.625327880859375,6.749240451455116,-3.1714564912244674,-6.368674031171202
1763697202193351000,3.635350830078125,6.690213092947006,-3.3235388577878475,-6.353386445668339
1763697202203373800,3.645373779296875,6.62392363448143,-3.4698800503507257,-6.3446004971444605
1763697202213397000,3.65539697265625,6.549792814865708,-3.621522271931171,-6.336810573920607
1763697202223420000,3.665419921875,6.476305553850532,-3.777621765181422,-6.3211886418968435
1763697202233443300,3.675443359375,6.397949810016155,-3.932077582877874,-6.306772578531503
1763697202243466200,3.68546630859375,6.312385157716274,-4.080646680623293,-6.298610899385809
1763697202253489200,3.6954892578125,6.22270371774733,-4.220982495291531,-6.295366802898049
1763697202263512000,3.705511962890625,6.132932261407375,-4.35006187966913,-6.295592428347468
1763697202273535200,3.71553515625,6.045017831110954,-4.463068081124127,-6.301521233874559
1763697202283558100,3.72555810546875,5.958579318585992,-4.55753354049921,-6.316217283225059
1763697202293581300,3.735581298828125,5.8722705699205395,-4.633225033560395,-6.341928063064813
1763697202303604200,3.745604248046875,5.785409448069334,-4.692264959289133,-6.378249668768048
1763697202313627100,3.755627197265625,5.695009630697966,-4.739547227206826,-6.424480089545249
1763697202323650000,3.765650146484375,5.601185684096813,-4.781145896530151,-6.475935551494359
1763697202333674200,3.77567431640625,5.506193862760067,-4.819797406485677,-6.528534922781586
1763697202343697200,3.785697265625,5.410210692298412,-4.855380761042237,-6.582194032254815
1763697202353720000,3.795719970703125,5.314477697205543,-4.886070790599287,-6.637245472869276
1763697202363743200,3.8057431640625,5.220063968017697,-4.90931108867228,-6.694771779164672
1763697202373766100,3.81576611328125,5.126140652695298,-4.92370961638093,-6.756489107409119
1763697202383789300,3.825789306640625,5.0304754621416325,-4.93047896438539,-6.823128109964728
1763697202393812200,3.835812255859375,4.927735803157091,-4.932707161828875,-6.896100407195091
1763697202403835400,3.84583544921875,4.8118493700906635,-4.9330789177507155,-6.977194051560759
1763697202413858000,3.855858154296875,4.680848077739775,-4.933618431454897,-7.06536976314187
1763697202423881200,3.865881103515625,4.540982803192734,-4.936189158725738,-7.154291909176111
1763697202433904000,3.875904052734375,4.399788618129492,-4.939260236734151,-7.2398857875704765
1763697202443927300,3.88592724609375,4.263575728610157,-4.939364281630516,-7.320859604948759
1763697202453950200,3.8959501953125,4.139416264978051,-4.934043963390589,-7.395324771085381
1763697202463973400,3.905973388671875,4.031455364213883,-4.922976041409373,-7.462040930530429
1763697202473996300,3.915996337890625,3.93785762758404,-4.90802455599308,-7.521632352662086
1763697202484019200,3.926019287109375,3.8532062907367943,-4.891198216615617,-7.576236634030938
1763697202494042000,3.9360419921875,3.773500301337242,-4.873519352062046,-7.627574022558331
1763697202504065300,3.946065185546875,3.6936791611254214,-4.85413368359059,-7.678833669674396
1763697202514088200,3.956088134765625,3.612538755008578,-4.8308992307364935,-7.7319041656047105
1763697202524111400,3.966111328125,3.534389639662206,-4.801985563202202,-7.785846183672547
1763697202534134300,3.97613427734375,3.458420206442475,-4.768460017958283,-7.840376815283298
1763697202544157200,3.9861572265625,3.3795565130859613,-4.735393322397768,-7.894621031168103
1763697202554180000,3.99618017578125,3.295573869280517,-4.707184296001493,-7.946822927570342
1763697202564203300,4.006203369140625,3.205157100774348,-4.685264140616357,-7.996603149783611
1763697202574226200,4.01622607421875,3.110857645615935,-4.668878530743718,-8.043291251200436
1763697202584249300,4.026249267578125,3.0156647487491366,-4.657228424960374,-8.086184051987528
1763697202594272300,4.036272216796875,2.92169993237257,-4.650795761564374,-8.124294294673204
1763697202604295200,4.046295166015625,2.8335645528018474,-4.650054003286361,-8.15587542785108
1763697202614318000,4.056318115234375,2.750557183769345,-4.657309673503041,-8.180116719660163
1763697202624341200,4.06634130859375,2.667783038970828,-4.673218021252751,-8.19843680472672
1763697202634364200,4.0763642578125,2.5814006405472756,-4.694667344255745,-8.213820251819492
1763697202644387300,4.08638720703125,2.493750414144993,-4.717211476758123,-8.227970942246914
1763697202654410200,4.09641015625,2.4128755270965394,-4.735562249223888,-8.241533603653311
1763697202664433200,4.10643310546875,2.3479442052416504,-4.7451557147383685,-8.25475899592936
1763697202674456000,4.1164560546875,2.3007718274392186,-4.743243451376259,-8.269127128499745
1763697202684479200,4.126479248046875,2.2703300735548138,-4.730793135125935,-8.284660797718168
1763697202694502100,4.136502197265625,2.2528572529673574,-4.711615264186263,-8.300344689062237
1763697202704525300,4.146525390625,2.244627330891043,-4.690194582755863,-8.314692363366484
1763697202714548200,4.15654833984375,2.253960538034141,-4.665337789396942,-8.326143731707335
1763697202724571100,4.166571044921875,2.282647411075234,-4.634531732244789,-8.335527061602473
1763697202734594000,4.176593994140625,2.3246267502792177,-4.599182478705048,-8.343502278265357
1763697202744617200,4.1866171875,2.373673543651402,-4.564879519347846,-8.348529166516661
1763697202754640100,4.19664013671875,2.419979367752373,-4.538848713773489,-8.349428161182999
1763697202764663300,4.206663330078125,2.448082157295197,-4.525707492649555,-8.348368422996998
1763697202774686200,4.216686279296875,2.4534502601996064,-4.52465418420434,-8.347361876302957
1763697202784709000,4.226709228515625,2.4416575310751796,-4.528055224819481,-8.348975156718492
1763697202794732000,4.23673193359375,2.4208326235808433,-4.52267791569531,-8.35794932129085
1763697202804755200,4.246755126953125,2.4030770405292508,-4.496444281025231,-8.377208148512244
1763697202814778000,4.256778076171875,2.402176730688661,-4.447806799106299,-8.403389468473195
1763697202824802000,4.266802001953125,2.4230185893177985,-4.384605662044883,-8.430576166084409
1763697202834825200,4.2768251953125,2.4667820354595777,-4.3161572719797485,-8.453173782339691
1763697202844848000,4.28684814453125,2.5266172032192347,-4.250931935614347,-8.468540278297663
1763697202854871300,4.296871337890625,2.584883806487918,-4.199187135329843,-8.47676859293878
1763697202864894200,4.306894287109375,2.643616565963626,-4.169553336827457,-8.4732819198668
1763697202874917400,4.31691748046875,2.712108502909541,-4.169554213610291,-8.451607848197222
1763697202884940000,4.32693994140625,2.7911013756036755,-4.206147914253175,-8.407643034264444
1763697202894963200,4.336963134765625,2.868181984935701,-4.2776565686717625,-8.345392622056602
1763697202904986000,4.346986083984375,2.9303087707638737,-4.3803646634742615,-8.270192127382755
1763697202915009300,4.35700927734375,2.970993540112674,-4.51134725112468,-8.18482270539403
1763697202925032200,4.3670322265625,2.992524988441169,-4.668067798882722,-8.088529738330841
1763697202935055400,4.377055419921875,2.994744125795364,-4.844850306938588,-7.98306445377469
1763697202945078000,4.387078125,2.9740140569776297,-5.036263982415199,-7.871573333057761
1763697202955101200,4.39710107421875,2.932406912086904,-5.240874700856208,-7.752716652008891
1763697202965124000,4.4071240234375,2.8736110242471096,-5.458602090501785,-7.623411642181873
1763697202975147300,4.417147216796875,2.800677305461466,-5.690380217331647,-7.479716872474551
1763697202985170200,4.427170166015625,2.7058509038195013,-5.946034309789538,-7.3139201610744
1763697202995193300,4.437193359375,2.5855627286627887,-6.241440566921233,-7.108423307448625
1763697203005216000,4.447216064453125,2.4546532062485813,-6.571607171788811,-6.852666923660039
1763697203015239200,4.4572392578125,2.3043875337183475,-6.901092808654904,-6.57534109762013
1763697203025262000,4.467261962890625,2.1460037289232012,-7.198630232596397,-6.3043462281674145
1763697203035285200,4.47728515625,2.0173148051679135,-7.474670695000887,-6.019146892273426
1763697203045308200,4.48730810546875,1.890667470242828,-7.73518800958097,-5.7238657228261225
1763697203055331300,4.497331298828125,1.8040365038856863,-7.943996179711818,-5.459740154621005
1763697203065354000,4.50735400390625,1.8270435777246952,-8.076137874269484,-5.254360789895057
1763697203075377200,4.517377197265625,1.9177865094453095,-8.164033599865435,-5.0834091799497605
1763697203085400000,4.527400146484375,2.005051974313706,-8.241752799361944,-4.921754390659928
1763697203095423200,4.53742333984375,2.0667882995195686,-8.322389347609876,-4.757794247037172
1763697203105446100,4.547446044921875,2.1159242324799297,-8.404588322868943,-4.58869674052596
1763697203115469300,4.55746923828125,2.1404908107206224,-8.490117903855442,-4.416627232466638
1763697203125492000,4.567491943359375,2.149154301908612,-8.57373200660944,-4.247664165990054
1763697203135515100,4.57751513671875,2.1424247013926503,-8.65849411035478,-4.075644926813244
1763697203145538000,4.5875380859375,2.127036431994289,-8.745117331796884,-3.894742708478868
1763697203155561200,4.597561279296875,2.1273234322421253,-8.8245930195719,-3.7109891923665996
1763697203165584100,4.607584228515625,2.1419873328886925,-8.894935552820563,-3.530214984326064
1763697203175607300,4.617607177734375,2.1761383165545762,-8.950435906246303,-3.3651898418202992
1763697203185630200,4.627630126953125,2.2410155701346692,-8.983482435801625,-3.231917097406089
1763697203195653000,4.637653076171875,2.353897122296691,-8.996315613889694,-3.1138164954215286
1763697203205676000,4.647676025390625,2.5234338970080015,-8.990518325787782,-2.9955355684339997
1763697203215699200,4.65769921875,2.724137963399291,-8.971217412990331,-2.875188356566429
1763697203225722000,4.66772216796875,2.8941937935486433,-8.954542172521352,-2.7586574881166217
1763697203235745300,4.677745361328125,3.0347467580989003,-8.944322391802071,-2.638142810727656
1763697203245768200,4.687768310546875,3.1454619260072705,-8.941673338598012,-2.5145474107190964
1763697203255791000,4.697791015625,3.209988466453552,-8.949832095134258,-2.4014267891041934
1763697203265815300,4.707815185546875,3.2526533037036653,-8.963999736696481,-2.288523317371309
1763697203275838200,4.717838134765625,3.2485034905478356,-8.988067425504326,-2.198236751116067
1763697203285861400,4.727861328125,3.1927202285274863,-9.020613019800185,-2.14603383180052
1763697203295884000,4.737884033203125,3.1143463645145295,-9.048060414174198,-2.145657399703562
1763697203305907200,4.7479072265625,3.0287615462094544,-9.067737174546718,-2.18475256177336
1763697203315930000,4.75793017578125,2.949596239557862,-9.081132662692665,-2.2368046744413674
1763697203325953300,4.767953369140625,2.8872447050631043,-9.091338414886593,-2.276354740671813
1763697203335976200,4.77797607421875,2.831734999287128,-9.102618518313765,-2.3008722190737725
1763697203345999400,4.787999267578125,2.7831641528636215,-9.117524995544553,-2.3011086581781504
1763697203356022000,4.79802197265625,2.7555095454797147,-9.132009447970987,-2.2768287879243494
1763697203366045200,4.808045166015625,2.7271152256444093,-9.139113727018236,-2.282499380906671
1763697203376068000,4.818068115234375,2.6741204252988098,-9.146478702828288,-2.3154688997030255
1763697203386091300,4.82809130859375,2.6070000689670443,-9.162738348233699,-2.3276931521125137
1763697203396114200,4.8381142578125,2.5432836758598683,-9.18563757778406,-2.3078467342615125
1763697203406137300,4.848137451171875,2.478643738166988,-9.212304635435343,-2.2715948327936233
1763697203416160000,4.858159912109375,2.4032785544507203,-9.243263837322592,-2.226364090578258
1763697203426183200,4.86818310546875,2.3015141702391206,-9.281185863959788,-2.1755472187936307
1763697203436206000,4.8782060546875,2.155151204235852,-9.324492506244779,-2.139987098982185
1763697203446229200,4.888229248046875,1.9953933346085249,-9.356562299722432,-2.1548891922988
1763697203456252200,4.898252197265625,1.8657466717369853,-9.374703521090746,-2.191869992563128
1763697203466275300,4.908275390625,1.7745166871517895,-9.38527226137817,-2.222191042677313
1763697203476298000,4.918298095703125,1.726715656057,-9.394552715420723,-2.220632268927991
1763697203486321200,4.928321044921875,1.7437445322692393,-9.4003178548187,-2.182601521219313
1763697203496344000,4.938343994140625,1.8220571676142512,-9.398099594247341,-2.127492943590134
1763697203506367200,4.9483671875,1.9303955233886836,-9.389479065418243,-2.0692180108845233
1763697203516390100,4.95839013671875,2.0470017951622603,-9.375113270935415,-2.0217416816994547
1763697203526413300,4.968413330078125,2.16583129594326,-9.355738123857975,-1.9873922528520225
1763697203536436000,4.97843603515625,2.265066892329603,-9.33711408740878,-1.9642245816238224
1763697203546459100,4.988459228515625,2.3256902878575025,-9.323399450311063,-1.9585186250671742
1763697203556482000,4.99848193359375,2.3506216077573594,-9.314017289459704,-1.9733293868385253
1763697203566505200,5.008505126953125,2.3539288326092063,-9.307319253125787,-2.000797093348205
1763697203576528100,5.018528076171875,2.348058917662501,-9.301741160732508,-2.0333708908252417
1763697203586551300,5.02855126953125,2.344416031115502,-9.295904125142098,-2.0640375395067037
1763697203596574200,5.03857421875,2.3483349581249056,-9.289678382495046,-2.087481543458253
1763697203606597000,5.04859716796875,2.3568303992696107,-9.284997531202436,-2.0987023179136215
1763697203616620300,5.058620361328125,2.3627675342336296,-9.284060542613267,-2.0961730916969477
1763697203626643200,5.068643310546875,2.3578413298778234,-9.288247472909092,-2.0831275860324503
1763697203636667100,5.078667236328125,2.340145660319924,-9.304500688573718,-2.029868143401295
1763697203646690000,5.08868994140625,2.331002276660502,-9.328232277294992,-1.9289590608447789
1763697203656713200,5.098713134765625,2.316750171685219,-9.351825918850302,-1.829322628572583
1763697203666736000,5.108736083984375,2.296494588511437,-9.372854678353667,-1.7453075438022612
1763697203676759300,5.11875927734375,2.271919096311927,-9.39231750371456,-1.6712703938193618
1763697203686782200,5.1287822265625,2.2406322699055075,-9.413623326593637,-1.5917453139446676
1763697203696805000,5.13880517578125,2.201470910731703,-9.43750747552812,-1.5024537500761448
1763697203706828000,5.148828125,2.1561821547187865,-9.46304056071341,-1.4043223155394196
1763697203716851200,5.158851318359375,2.109799027597904,-9.488651387310027,-1.2979349477022886
1763697203726874000,5.1688740234375,2.069716900317371,-9.511337266370653,-1.1921098168577997
1763697203736897300,5.178897216796875,2.037847597847879,-9.530760344243049,-1.0872687286145986
1763697203746920200,5.188920166015625,2.0083993850454687,-9.548301846152544,-0.9831840847618877
1763697203756943000,5.198943115234375,1.9784097588427363,-9.56451472980678,-0.881104350990802
1763697203766966000,5.208966064453125,1.9519594126820563,-9.578843699410557,-0.7784615034442395
1763697203776989200,5.2189892578125,1.9338262284897267,-9.590355858027934,-0.6751154760643839
1763697203787012000,5.22901220703125,1.9261073246754705,-9.598753099495172,-0.5695790990334004
1763697203797035300,5.23903515625,1.9170437282539903,-9.607065000766514,-0.446804331225343
1763697203807058200,5.24905810546875,1.9024252741843461,-9.61483388120234,-0.3257492633493617
1763697203817081000,5.2590810546875,1.8933505718469619,-9.619617023825645,-0.22036097128586843
1763697203827104000,5.26910400390625,1.8988428856529294,-9.620129065001011,-0.1336938924357295
1763697203837127200,5.279127197265625,1.9195457742027937,-9.616748774912953,-0.06222557916068472
1763697203847150000,5.289150146484375,1.949920746461302,-9.610835751476884,-0.005132481217361055
1763697203857173200,5.29917333984375,1.9781695203460752,-9.604981764751672,0.039637000161805186
1763697203867196200,5.309196044921875,1.9999765707455575,-9.600261750492454,0.07372127070045098
1763697203877219300,5.31921923828125,2.01669667326957,-9.596543606752157,0.09831628045118414
1763697203887242000,5.329241943359375,2.023015501027554,-9.59504664619267,0.11339887230070307
1763697203897265200,5.33926513671875,2.0126880221500993,-9.596887305623293,0.13873185920347458
1763697203907288000,5.3492880859375,1.9930401956111192,-9.600198037606477,0.18545314137069507
1763697203917311200,5.359311279296875,1.9599923508815467,-9.605303251791,0.2588125016898848
1763697203927334400,5.36933447265625,1.9079807163543998,-9.61251975904107,0.3598178659614175
1763697203937357300,5.379357421875,1.829457799259573,-9.622247956851124,0.48562546212673185
1763697203947380200,5.389380126953125,1.7323644755989311,-9.631609074914454,0.6335607920132577
1763697203957403100,5.399403076171875,1.6352170836634934,-9.637989715862274,0.7781986147243529
1763697203967427300,5.40942724609375,1.5863558759912848,-9.63555342862606,0.8999839696362614
1763697203977450200,5.4194501953125,1.6012731668770313,-9.62460591815412,0.9865417246267199
1763697203987473200,5.42947314453125,1.6561850528903304,-9.609198505663871,1.0443794349588453
1763697203997496000,5.43949609375,1.7386048312932252,-9.588285481494665,1.1010951555237174
1763697204007519200,5.449519287109375,1.8086280694596468,-9.569784194642304,1.1482516781698913
1763697204017542100,5.459542236328125,1.8437917372994124,-9.55899392055869,1.1817225706171244
1763697204027565300,5.4695654296875,1.8604327832378447,-9.551716623032092,1.21403260259144
1763697204037588200,5.479588134765625,1.8625147040784358,-9.547019405126571,1.2473266041018067
1763697204047611100,5.489611083984375,1.8421416320048272,-9.546672783645986,1.2798162304267287
1763697204057634000,5.499634033203125,1.8040778588093815,-9.549737431913615,1.31080085901618
1763697204067657200,5.5096572265625,1.7683397520825266,-9.552520925152301,1.3389222071290015
1763697204077680000,5.51968017578125,1.7432634707540273,-9.553948327606916,1.3614239617943762
1763697204087703300,5.529703369140625,1.7271245291188357,-9.554809328350425,1.375879041995853
1763697204097726200,5.539726318359375,1.7127670640729367,-9.556651741346716,1.3810162587538362
1763697204107749000,5.5497490234375,1.6932824652716516,-9.560741056486963,1.3767327362157404
1763697204117772000,5.55977197265625,1.672037432669103,-9.565102758827805,1.3724024519264697
1763697204127795200,5.569795166015625,1.6505672130085527,-9.569905775195359,1.3648800935976206
1763697204137818000,5.579818115234375,1.632927219160646,-9.574562661090493,1.3533974533356725
1763697204147841300,5.58984130859375,1.6267276338681578,-9.577145078799129,1.342546096714586
1763697204157864200,5.5998642578125,1.6273611094661056,-9.577665303280948,1.3380715816490352
1763697204167887000,5.60988720703125,1.6243927611798048,-9.57863444057405,1.334723001873493
1763697204177910000,5.619909912109375,1.6100395339176057,-9.579313655009866,1.3471855930835008
1763697204187933200,5.62993310546875,1.5876540991082786,-9.58096492934823,1.3619383410573005
1763697204197956000,5.6399560546875,1.568122446294874,-9.582709727188945,1.3722408316239714
1763697204207979300,5.649979248046875,1.5496303656622767,-9.583753683283925,1.3858996468812226
1763697204218002200,5.660002197265625,1.5350665643893182,-9.584203180617093,1.398927324628085
1763697204228025000,5.670025146484375,1.5398421082280576,-9.581438392078876,1.4125557447470725
1763697204238048500,5.680048583984375,1.5612737494438886,-9.575613046926259,1.4284402732297776
1763697204248071700,5.69007177734375,1.5798635913625358,-9.570485036388039,1.4423086395844815
1763697204258095600,5.700095703125,1.6083267386503517,-9.563961187577247,1.4540646899603307
1763697204268118500,5.710118408203125,1.6422379222109913,-9.556413840937614,1.4657386150106786
1763697204278141400,5.720141357421875,1.6808754036411642,-9.54799088050723,1.4767888552047312
1763697204288164600,5.73016455078125,1.7253734476678073,-9.539191487979888,1.4823334837198257
1763697204298187500,5.7401875,1.7748466497585176,-9.530248303067683,1.4814429646208882
1763697204308210700,5.750210693359375,1.8000770987354218,-9.526551786637306,1.47476246394366
1763697204318233600,5.760233642578125,1.8199981892578303,-9.526368246763944,1.4513050159886478
1763697204328256500,5.770256591796875,1.8736583216443656,-9.519638646247982,1.4269853982463478
1763697204338279700,5.78027978515625,1.9548286845080554,-9.50548854034245,1.4123508698247371
1763697204348302600,5.790302490234375,2.0463908236570654,-9.487532027891278,1.4033578544214367
1763697204358325800,5.80032568359375,2.145298064871877,-9.467283020588756,1.392351891760528
1763697204368348700,5.8103486328125,2.2455473683454095,-9.445552834817766,1.3818283057890832
1763697204378371800,5.820371826171875,2.335263441236317,-9.42487946462333,1.3742543634034692
1763697204388394500,5.83039453125,2.412543226402253,-9.40614086188376,1.3691357052154838
1763697204398417700,5.840417724609375,2.4806273131996393,-9.389162839075922,1.3640079869382082
1763697204408440600,5.850440673828125,2.5470120487332344,-9.372540790098904,1.3559512294717133
1763697204418463700,5.860463623046875,2.6208789567157624,-9.354093863782285,1.3425078105308115
1763697204428486700,5.870486572265625,2.7080677030861375,-9.332591057026386,1.3188982407540082
1763697204438509800,5.880509765625,2.8103078881159425,-9.307548970228433,1.2814385709315537
1763697204448532500,5.890532470703125,2.9255168603122232,-9.278821472916006,1.2309304728351533
1763697204458555600,5.9005556640625,3.0504817951083183,-9.246617239403724,1.168336142560467
1763697204468578600,5.91057861328125,3.1852763422623274,-9.209975315704941,1.095779002002254
1763697204478601700,5.920601806640625,3.3308333987101912,-9.167653008282183,1.0149239886980503
1763697204488624600,5.930624755859375,3.4865871472626924,-9.118988638356328,0.9263626388002186
1763697204498647800,5.940647705078125,3.650704527273774,-9.064123075702787,0.8272937042176723
1763697204508670500,5.95067041015625,3.818781166304648,-9.004031302833557,0.7174296001806855
1763697204518693600,5.960693603515625,3.9857314316540955,-8.940162934035062,0.5981605754712597
1763697204528717600,5.970717529296875,4.147603078565001,-8.873741958144306,0.47378925918675957
1763697204538740700,5.98074072265625,4.302619745014607,-8.80551422509253,0.34750312225688246
1763697204548763400,5.990763427734375,4.450238410167396,-8.735940922650695,0.2215588940998539
1763697204558786600,6.00078662109375,4.590286932326853,-8.665430047097802,0.0998370602776762
1763697204568809500,6.0108095703125,4.7225607288315885,-8.594625741556285,-0.014631227927893632
1763697204578832600,6.02083251953125,4.847871700586379,-8.523744863647222,-0.11961459587723948
1763697204588855600,6.03085546875,4.969284788119793,-8.451661039689183,-0.21453555306801572
1763697204598878700,6.040878662109375,5.09075720462501,-8.376359422728418,-0.30198223798852414
1763697204608901400,6.0509013671875,5.214856462502479,-8.296327270114421,-0.3828931461984291
1763697204618924500,6.060924560546875,5.342836945727467,-8.210944988644123,-0.4526166342332959
1763697204628947500,6.070947509765625,5.474204733303189,-8.120692470788955,-0.5077545840874313
1763697204638970600,6.080970703125,5.605777688062191,-8.027795575904845,-0.5478454061310738
1763697204648993500,6.09099365234375,5.734504605740309,-7.934471395519376,-0.5744552537024021
1763697204659016700,6.1010166015625,5.858395773825049,-7.842132719039917,-0.5920552808661014
1763697204669039400,6.111039306640625,5.9756473577648395,-7.752109333765507,-0.6056662383936345
1763697204679062500,6.1210625,6.087173549795151,-7.6639172555714845,-0.6173089645881206
1763697204689085700,6.131085693359375,6.193917768245935,-7.577161932182311,-0.6264003257993608
1763697204699108600,6.141108642578125,6.295788243180513,-7.492150237590074,-0.6333488297630101
1763697204709131800,6.1511318359375,6.39277503772676,-7.409044084358215,-0.6394369905702769
1763697204719154700,6.16115478515625,6.485076889327168,-7.327626030343771,-0.648126931373775
1763697204729177600,6.171177490234375,6.571897094646096,-7.248617375558615,-0.6618864305265247
1763697204739200500,6.181200439453125,6.653285338044166,-7.172275309634208,-0.6801767780419439
1763697204749223700,6.1912236328125,6.73009794408977,-7.098428567656875,-0.698913846411556
1763697204759246600,6.20124658203125,6.802746416193246,-7.027332001170516,-0.7138824290931225
1763697204769270800,6.211270751953125,6.871900031918287,-6.958778104904294,-0.7230341421894728
1763697204779293400,6.22129345703125,6.937608475625515,-6.893069076675176,-0.7249602148812264
1763697204789316600,6.231316650390625,6.999224097061157,-6.830805804985761,-0.7220349020190536
1763697204799339500,6.241339599609375,7.055681897342205,-6.773077254116535,-0.7163513764899223
1763697204809362700,6.25136279296875,7.106051902142167,-6.72099693826735,-0.7089510371055454
1763697204819385600,6.261385498046875,7.150030160078406,-6.675245825439691,-0.6989643344897777
1763697204829408800,6.27140869140625,7.187444237193465,-6.636284518882632,-0.6861134746145456
1763697204839431400,6.281431396484375,7.21839350220859,-6.604038199794292,-0.6722041186623275
1763697204849454600,6.29145458984375,7.242929393050074,-6.578572919148207,-0.6578275835897773
1763697204859477500,6.3014775390625,7.260830960443616,-6.559839577105641,-0.6474768699672073
1763697204869500700,6.311500732421875,7.272450086566805,-6.5473781549394126,-0.643189694167301
1763697204879523600,6.321523681640625,7.278733112359046,-6.540423513495922,-0.6428738331511616
1763697204889546800,6.331546630859375,7.280763156881928,-6.538147969779372,-0.6430396912373602
1763697204899569400,6.3415693359375,7.279145200291276,-6.540122484722733,-0.6412796958275139
1763697204909592600,6.351592529296875,7.27316846396923,-6.546982433620095,-0.6390892000459134
1763697204919615500,6.361615478515625,7.262566990455984,-6.558784515094756,-0.638630861819163
1763697204929638700,6.371638671875,7.247297525131702,-6.575396627199649,-0.6412645713236182
1763697204939661600,6.38166162109375,7.226063013923167,-6.5981368667960165,-0.647294133811444
1763697204949684700,6.391684814453125,7.196769699421525,-6.62923810750246,-0.6558085719175636
1763697204959707400,6.401707275390625,7.15821054392457,-6.669963501122593,-0.6648227762393653
1763697204969730600,6.41173046875,7.110107899534702,-6.720497172051668,-0.672062883560732
1763697204979753500,6.42175341796875,7.052413250935078,-6.780591867530346,-0.6763369076181203
1763697204989776600,6.431776611328125,6.985518812313676,-6.849376065421104,-0.6774598472334444
1763697204999800600,6.441800537109375,6.911530031517148,-6.923876302871108,-0.6790262928325682
1763697205009823500,6.451823486328125,6.83539547086358,-6.998282432296872,-0.6868678001131862
1763697205019846700,6.4618466796875,6.766460466325283,-7.06367231157422,-0.6999519572876394
1763697205029869600,6.47186962890625,6.7175383222460745,-7.108185991561412,-0.7202461919713765
1763697205039892700,6.481892822265625,6.6902119239032265,-7.131588494458795,-0.7428943693701178
1763697205049915600,6.49191552734375,6.6710086262613535,-7.148337384685874,-0.7545282546710222
1763697205059938600,6.5019384765625,6.647502078467607,-7.170390811061859,-0.7527238355975597
1763697205069961500,6.51196142578125,6.622537733080983,-7.195795301431417,-0.7300004740707576
1763697205079984600,6.521984619140625,6.602725948151946,-7.218623219311237,-0.6825541016325354
1763697205090007600,6.532007568359375,6.588782178473473,-7.236708911100029,-0.6232037947803736
1763697205100030700,6.54203076171875,6.5806807050824165,-7.249164488047361,-0.5609279193377122
1763697205110053600,6.5520537109375,6.575213087326288,-7.259549103939533,-0.4857082085067406
1763697205120076500,6.56207666015625,6.562258328685164,-7.276950320595502,-0.39134401754904535
1763697205130099500,6.572099365234375,6.533865762415528,-7.306931617361307,-0.29618962606173005
1763697205140122600,6.58212255859375,6.487927602583169,-7.350605923914909,-0.21393897541435433
1763697205150145500,6.5921455078125,6.428031644546985,-7.404681212973594,-0.146583577350853
1763697205160168700,6.602168701171875,6.357150766637921,-7.466487973067164,-0.09263953172271139
1763697205170191600,6.612191650390625,6.276485576817393,-7.534855991372465,-0.045420442401454784
1763697205180214500,6.622214599609375,6.18527385854125,-7.61004421108663,-0.0006063910141416272
1763697205190237400,6.632237548828125,6.081936818185448,-7.692763410827517,0.0425850089129759
1763697205200260600,6.642260498046875,5.96919365158081,-7.780259323450922,0.08171230598697439
1763697205210283500,6.652283447265625,5.8512844805151225,-7.868928956028818,0.11316883553764782
1763697205220307700,6.6623076171875,5.731189782103896,-7.956481567275524,0.135137360109156
1763697205230330000,6.672330078125,5.6099552660077805,-8.04216721560657,0.1494422364512924
1763697205240353000,6.68235302734375,5.48638090878725,-8.126777343660592,0.15967799105783922
1763697205250376000,6.6923759765625,5.358686256766319,-8.211345386138557,0.1693261459016241
1763697205260399000,6.702399169921875,5.226065838780999,-8.29614080763161,0.18073681690590454
1763697205270422000,6.712422119140625,5.088838219261169,-8.380722878634929,0.19386536121135575
1763697205280445200,6.722445068359375,4.949021167770028,-8.463663612172008,0.20973345001591367
1763697205290468000,6.732468017578125,4.810653730565309,-8.542602708852291,0.22789284636173396
1763697205300491000,6.742490966796875,4.677962000909448,-8.615480898058413,0.246046963744238
1763697205310514000,6.752513916015625,4.55290821878612,-8.681703721028565,0.26348639351874587
1763697205320537000,6.762537109375,4.434488467849791,-8.742256681668758,0.2804413277119398
1763697205330560000,6.77256005859375,4.319406044642627,-8.799165148326754,0.29635442470200357
1763697205340583200,6.782583251953125,4.202799480608105,-8.854941396084428,0.3112457408962771
1763697205350606000,6.792606201171875,4.08343981847316,-8.910069993588328,0.3264118189113214
1763697205360629000,6.80262890625,3.9622546944767234,-8.963940699985622,0.3445316321654245
1763697205370652000,6.81265185546875,3.8411215929284688,-9.015575610154867,0.36820447643678633
1763697205380675000,6.822675048828125,3.722941788227856,-9.063824969539045,0.3964594973992556
1763697205390698000,6.832697998046875,3.608946867996454,-9.108436264681815,0.42694468856658785
1763697205400721200,6.84272119140625,3.498318501588702,-9.150021490001677,0.45747149038594215
1763697205410744000,6.852744140625,3.3904645683303474,-9.189024297612905,0.4868050273001194
1763697205420767000,6.86276708984375,3.284780964848399,-9.225898276501894,0.5132440848818048
1763697205430790000,6.872789794921875,3.180745420834422,-9.261139685752987,0.5334238628730178
1763697205440814000,6.88281396484375,3.0769770033240316,-9.295406112492085,0.5459028572285548
1763697205450837200,6.892837158203125,2.972010023678839,-9.329201999109983,0.5509342755245045
1763697205460860000,6.90285986328125,2.864804325196147,-9.362673476079106,0.5510309042993933
1763697205470883000,6.912883056640625,2.755439695113897,-9.395493795663118,0.5501215343695134
1763697205480906000,6.922906005859375,2.644218915770948,-9.427390570661425,0.5502844333136454
1763697205490929200,6.93292919921875,2.5318732240512967,-9.458014841505884,0.5531199124678969
1763697205500952000,6.9429521484375,2.4202293969906865,-9.486832939711213,0.5593558477154001
1763697205510975200,6.952975341796875,2.311667899984866,-9.513272033825515,0.5694045461840928
1763697205520998000,6.962997802734375,2.2089972145833072,-9.53674526387155,0.5841454210570082
1763697205531021000,6.97302099609375,2.114023951816559,-9.557122865989804,0.6022378348475321
1763697205541044000,6.9830439453125,2.026130710438639,-9.574999883463978,0.6201150349847973
1763697205551067100,6.993067138671875,1.9440090381994843,-9.591008768978714,0.6354106576636434
1763697205561090000,7.003090087890625,1.8660291419401764,-9.605746319383382,0.6465002069547772
1763697205571113200,7.01311328125,1.791003565441817,-9.619566170421242,0.6531823150672018
1763697205581136000,7.023135986328125,1.718996459981799,-9.632515083843469,0.6558154400497674
1763697205591159000,7.033158935546875,1.6509620575450359,-9.644508888497947,0.6543314851023256
1763697205601182000,7.043181884765625,1.5867393223509192,-9.65567910180986,0.6484591590028256
1763697205611205000,7.053205078125,1.5265376593664288,-9.666091774752736,0.6377684728361666
1763697205621228000,7.06322802734375,1.4712158773779869,-9.675667412349581,0.6223992734644561
1763697205631251200,7.073251220703125,1.422406546023488,-9.684121936962008,0.6040980757614597
1763697205641273900,7.08327392578125,1.3812220104590058,-9.691306295508145,0.5841323058471083
1763697205651298000,7.093298095703125,1.3474803382463751,-9.697252636691926,0.5638835542729124
1763697205661321200,7.1033212890625,1.3203927170954644,-9.70201999722421,0.5456728843975812
1763697205671344000,7.11334423828125,1.3007178564190864,-9.705538819000123,0.5301321278512477
1763697205681367000,7.123366943359375,1.288407533161342,-9.707901456478238,0.5167471976319328
1763697205691390000,7.133389892578125,1.2825735663108526,-9.709232412821054,0.5061372485512867
1763697205701413000,7.1434130859375,1.2799381032407282,-9.70998819962442,0.4982809455603361
1763697205711436000,7.15343603515625,1.2789137286290526,-9.710353525805473,0.4937408909779042
1763697205721459200,7.163459228515625,1.277071169502288,-9.71073112694621,0.49107207362744953
1763697205731482000,7.173482177734375,1.274713792721182,-9.711080086514354,0.4903091264309361
1763697205741505000,7.183505126953125,1.2704694331496953,-9.71166519292593,0.4897533557116985
1763697205751528000,7.19352783203125,1.2630647098511456,-9.712788059476017,0.4866289400808513
1763697205761551000,7.203551025390625,1.2521123770736158,-9.714600661855936,0.47867410861887033
1763697205771574000,7.213573974609375,1.2377829690784214,-9.717106507197022,0.4648805610660463
1763697205781597200,7.22359716796875,1.2204671656835824,-9.720210318431258,0.4453644346153363
1763697205791620000,7.2336201171875,1.200299699184671,-9.723796360224485,0.4212492168713361
1763697205801643000,7.24364306640625,1.1772663218606263,-9.727713241407274,0.3950052800029516
1763697205811666000,7.253666015625,1.1520054046802222,-9.731760470971464,0.36892756654694675
1763697205821689000,7.263689208984375,1.1257049883842467,-9.735720606774091,0.34482272406648845
1763697205831712000,7.2737119140625,1.0985935479663311,-9.739550394195318,0.32347061436027286
1763697205841735200,7.283735107421875,1.0712831509102134,-9.74318495130539,0.30510654402151705
1763697205851758800,7.2937587890625,1.0444578339572996,-9.746535430777072,0.2907610068754293
1763697205861782000,7.303781982421875,1.0190108196202665,-9.749493696060776,0.28169752005180343
1763697205871805000,7.313804931640625,0.9956040058739483,-9.751997203314303,0.27877547685895115
1763697205881828000,7.323828125,0.9736411073256284,-9.754124862992763,0.2819145420696586
1763697205891851000,7.33385107421875,0.9527576015118508,-9.755951493898033,0.2899546223959885
1763697205901874200,7.343874267578125,0.933278263407573,-9.757503399515151,0.3008576361390762
1763697205911897000,7.35389697265625,0.9127068192176521,-9.759066411048174,0.31301406574305146
1763697205921920000,7.363919921875,0.8954966681543737,-9.760198629948496,0.3270860283784568
1763697205931943200,7.373943115234375,0.8841415267296134,-9.760711840167641,0.3423138830507174
1763697205941966000,7.383966064453125,0.8755923826362937,-9.760946233445406,0.3572805660361424
1763697205951989200,7.3939892578125,0.8663073254838586,-9.761225634908676,0.3719902420531958
1763697205962012200,7.40401220703125,0.8547166948027908,-9.761676885807514,0.38666813469249756
1763697205972035000,7.41403515625,0.841391787675023,-9.762245625606178,0.4012616004513576
1763697205982058000,7.42405810546875,0.8268203145522623,-9.762890353250503,0.4156048908414319
1763697205992081200,7.4340810546875,0.8120061187148093,-9.763556708204746,0.42890506538674233
1763697206002104000,7.44410400390625,0.7977065213359892,-9.76423767620623,0.44012138286270197
1763697206012127200,7.454127197265625,0.7846633537590503,-9.764864868193865,0.44955611415151503
1763697206022150100,7.464150146484375,0.7727047665484249,-9.765447051995992,0.4575656349427998
1763697206032173000,7.474173095703125,0.7620748706582933,-9.766000009703635,0.4635394851880148
1763697206042196000,7.484196044921875,0.7540384253274649,-9.76641852737665,0.4678232269218191
1763697206052219100,7.49421923828125,0.7482852686282246,-9.76664649091363,0.4722947828453034
1763697206062243000,7.5042431640625,0.7431156839706003,-9.766668702745436,0.4799245836040005
1763697206072266000,7.514265869140625,0.737014517551288,-9.76651672705412,0.4922657769240439
1763697206082289000,7.524288818359375,0.7301543494582176,-9.766153154438733,0.5094033742077648
1763697206092312000,7.53431201171875,0.7247356854103505,-9.76547101739347,0.529822733108513
1763697206102335000,7.5443349609375,0.7223153263956308,-9.764467393308877,0.5511988447448238
1763697206112358100,7.554358154296875,0.7225388329531997,-9.763284321004152,0.5715029067028313
1763697206122381000,7.564381103515625,0.7249827920392156,-9.762069684517384,0.5888855282561853
1763697206132404000,7.574404052734375,0.7291874041222035,-9.760983058324456,0.601561616086401
1763697206142427000,7.584427001953125,0.7331931326322257,-9.760224933433532,0.6089538452295586
1763697206152450000,7.594449951171875,0.7354498255178332,-9.759889417868852,0.6115898197563365
1763697206162473000,7.604472900390625,0.7357512196172028,-9.759909291613102,0.6109239031935111
1763697206172496100,7.61449609375,0.734426693015173,-9.760166481244564,0.6084142949927598
1763697206182519000,7.62451904296875,0.7310798668053001,-9.760611886924504,0.6052846551975235
1763697206192542000,7.6345419921875,0.7253244450837373,-9.761205176642537,0.6026487172033638
1763697206202564900,7.64456494140625,0.7178780746005475,-9.761820678192377,0.601586567864567
1763697206212588000,7.654588134765625,0.7107079637754709,-9.762256731522083,0.6030399450106546
1763697206222611000,7.66461083984375,0.7047407259341328,-9.762439102351665,0.6070501670327038
1763697206232635000,7.674634765625,0.6999582408979534,-9.76237363590002,0.6135978351105004
1763697206242657500,7.684657470703125,0.6955459043484181,-9.76211177009344,0.6227230255261064
1763697206252681700,7.694681640625,0.6907116160597652,-9.76171838686168,0.6341592693630606
1763697206262704600,7.70470458984375,0.6848463042229413,-9.761259537178278,0.6474352958478033
1763697206272727800,7.714727783203125,0.6779205966129899,-9.76082348384857,0.6611757249739021
1763697206282750700,7.724750732421875,0.6701238052569329,-9.760473355236648,0.6741431239008903
1763697206292773600,7.734773681640625,0.6617523558180779,-9.760243053612113,0.6856404502753168
1763697206302796500,7.744796630859375,0.6525185904614627,-9.760214412039518,0.6948484236035496
1763697206312819700,7.75481982421875,0.6421154890645295,-9.760408473306894,0.7017878674779087
1763697206322842600,7.764842529296875,0.630414383746311,-9.760800102972985,0.7069484651114791
1763697206332865800,7.77486572265625,0.6177445064611733,-9.76130805249512,0.7110921407874673
1763697206342888700,7.784888671875,0.6044165305934847,-9.76183587576151,0.7152809707794338
1763697206352911600,7.79491162109375,0.5902154616856947,-9.762350839546322,0.7201037878260016
1763697206362934500,7.8049345703125,0.573968968022801,-9.762886261597275,0.72595821294263
1763697206372957700,7.814957763671875,0.5544561660403385,-9.763476628705858,0.7331330730080604
1763697206382980600,7.824980712890625,0.5317622498037293,-9.764081024339795,0.7418558931678533
1763697206393003800,7.835003662109375,0.5066885257584974,-9.76466963788271,0.751588547957316
1763697206403026700,7.845026611328125,0.4797447700576856,-9.765258835947513,0.7615564728073775
1763697206413049600,7.855049560546875,0.45187129575870927,-9.765832836443185,0.7711802603948861
1763697206423072500,7.865072509765625,0.42440972672887145,-9.766334356224537,0.7803742782630025
1763697206433095700,7.875095703125,0.3983308076964691,-9.766693252664805,0.7895528793662786
1763697206443118600,7.88511865234375,0.3744342011392116,-9.766853411662577,0.7992203599650413
1763697206453141800,7.895141845703125,0.35313798633869736,-9.766769240510463,0.8098588775530458
1763697206463165000,7.9051650390625,0.3342135421708226,-9.766501529484987,0.821045968934521
1763697206473187600,7.9151875,0.31729901305325325,-9.766076582071184,0.8327242048338055
1763697206483210800,7.925210693359375,0.30098117118719964,-9.76554466715157,0.8449393240887672
1763697206493233700,7.935233642578125,0.28381473140148444,-9.764933257254958,0.8578529470019042
1763697206503256800,7.9452568359375,0.2654181470326148,-9.764346397277713,0.8703343890428542
1763697206513280500,7.955280517578125,0.24592593118045478,-9.763808637139201,0.8820001307867467
1763697206523303700,7.9653037109375,0.225002111622598,-9.763302441182732,0.8931473285492509
1763697206533326600,7.97532666015625,0.203190293716453,-9.762777540525793,0.9040433280296624
1763697206543349800,7.985349853515625,0.18165108220661058,-9.762219322121142,0.9145778007213026
1763697206553372700,7.99537255859375,0.16111664555883035,-9.761579855173826,0.9251948371298611
1763697206563395800,8.005395751953126,0.14156940245064906,-9.760793673232197,0.9366055811993778
1763697206573418500,8.01541845703125,0.12287392646674998,-9.759870128646492,0.9488060874070972
1763697206583441700,8.025441650390626,0.10505637496169656,-9.758841370120644,0.9614462271410972
1763697206593464600,8.035464599609375,0.08807263479912653,-9.757760004624723,0.9740485921479761
1763697206603487700,8.04548779296875,0.0727676141042728,-9.75675988767147,0.9852676130376755
1763697206613510700,8.0555107421875,0.06074306725165806,-9.755968445032835,0.9938688526444136
1763697206623533800,8.065533935546876,0.05331342414098326,-9.755406134974956,0.9997923244092612
1763697206633556500,8.075556396484375,0.05025214144079946,-9.755048407578467,1.003435357086733
1763697206643579600,8.08557958984375,0.050738719381345436,-9.754873051011561,1.005119437716156
1763697206653602600,8.0956025390625,0.05304437054179143,-9.754842655873299,1.0052952326744795
1763697206663625700,8.105625732421874,0.05605638900646008,-9.754916305631399,1.0044246603850275
1763697206673648600,8.115648681640625,0.059357987835118545,-9.755088155066966,1.002557551338896
1763697206683671800,8.125671875,0.06246610991829075,-9.755326639997959,1.0000450570613144
1763697206693694500,8.135694580078125,0.06529643340681214,-9.755556941622496,0.9976149803701787
1763697206703717600,8.145717529296874,0.06770158115266822,-9.755656310343742,0.9964757472071796
1763697206713741800,8.155741943359375,0.0693753778500948,-9.755594351023435,0.9969712756391614
1763697206723764700,8.1657646484375,0.07114478040910326,-9.755489137083291,0.9978823260694741
1763697206733787600,8.17578759765625,0.07350070501863956,-9.755464587163925,0.9979479386515915
1763697206743810600,8.185810546875,0.07653360187455546,-9.755615978333353,0.9962350703191012
1763697206753833700,8.195833740234375,0.08056247836472466,-9.755963768857717,0.992491353746131
1763697206763856600,8.205856689453125,0.08607742412760853,-9.756512050390244,0.9866189545813947
1763697206773879800,8.2158798828125,0.09325732569433748,-9.75720646239519,0.9790812525529414
1763697206783902700,8.22590283203125,0.10194965938432142,-9.758023039475082,0.9700387719847261
1763697206793926000,8.23592578125,0.11208278473345562,-9.758898068743944,0.9600728929612785
1763697206803948500,8.245948486328125,0.1230036537936423,-9.759746794527768,0.9500560144029557
1763697206813971700,8.2559716796875,0.13373161236392334,-9.760517778900265,0.9406417779128998
1763697206823994600,8.26599462890625,0.14371007687430828,-9.761175950548052,0.9322943669367582
1763697206834017800,8.276017822265626,0.1523479952296242,-9.761749951043724,0.9248862826373427
1763697206844040700,8.286040771484375,0.15892527299439532,-9.76220412455201,0.918948563151434
1763697206854063900,8.29606396484375,0.16285563471326603,-9.762575295951962,0.914337416094169
1763697206864086500,8.30608642578125,0.16434316985728217,-9.762826640364526,0.9113723557434975
1763697206874109700,8.316109619140626,0.1637975369395688,-9.762925424563884,0.9104098673868923
1763697206884132600,8.326132568359375,0.1613411750297062,-9.762899705600738,0.9111166274167597
1763697206894155800,8.33615576171875,0.15681399819515646,-9.762824302276968,0.9127114223275333
1763697206904179500,8.346179443359375,0.15004200157588346,-9.762736623993515,0.9147991883870213
1763697206914202600,8.35620263671875,0.14139638397130183,-9.762626149356365,0.9173368171058595
1763697206924225800,8.366225830078125,0.13171179697411134,-9.762482356971502,0.9203026811741292
1763697206934248700,8.376248779296875,0.12207347853775136,-9.762323951539397,0.9233081466004252
1763697206944272000,8.38627197265625,0.11263597076996229,-9.762180743676424,0.9260223739951848
1763697206954294800,8.396294677734375,0.10298185197627172,-9.762049810773133,0.9285214242693036
1763697206964317700,8.406317626953125,0.09317640594523399,-9.761887898209691,0.9312493148632347
1763697206974340600,8.416340576171875,0.08359193658796138,-9.76168156198263,0.9343261650253086
1763697206984363800,8.42636376953125,0.07476546425744891,-9.761412681913376,0.9378728246562182
1763697206994386700,8.43638671875,0.06709576074662618,-9.761111653140187,0.9415885572437196
1763697207004409900,8.446409912109376,0.0608585559906438,-9.760790750622748,0.9453297165334225
1763697207014432800,8.456432861328125,0.056129454242670906,-9.760473939758539,0.9488779105342924
1763697207024455700,8.46645556640625,0.052707781831454484,-9.760186354988813,0.9520360092390328
1763697207034478600,8.476478515625,0.05003583637557458,-9.759896432131528,0.9551401127342134
1763697207044501800,8.486501708984376,0.04769793147991877,-9.759586051008105,0.9584295827336609
1763697207054524700,8.496524658203125,0.04558951079146936,-9.759262810403108,0.9618234629556536
1763697207064547800,8.5065478515625,0.04372532892136369,-9.758951844757794,0.9650386256098746
1763697207074570800,8.51657080078125,0.04255748158523347,-9.758659583812952,0.9680537356473505
1763697207084593700,8.52659375,0.042680295114149336,-9.758405316790938,0.9706164988074452
1763697207094617600,8.53661767578125,0.04518254655892961,-9.758214178133011,0.9724097388997673
1763697207104640800,8.546640869140624,0.04966737295594066,-9.758104872539638,0.973296166345477
1763697207114663700,8.55666357421875,0.055344098851527086,-9.758069216704367,0.9733431472923606
1763697207124686600,8.5666865234375,0.06197458180799149,-9.758138190287351,0.9722487761843949
1763697207134709500,8.57670947265625,0.06951902867106255,-9.758293673110007,0.9701796417601406
1763697207144732700,8.586732666015624,0.07765006151674315,-9.75851111525297,0.9673752518638968
1763697207154755600,8.596755615234375,0.08565641310340724,-9.758741416877507,0.9643815499406307
1763697207164778800,8.60677880859375,0.09361240447601303,-9.758936062666773,0.9616608197398483
1763697207174801700,8.6168017578125,0.10105907635330222,-9.75907225626707,0.9595227117326111
1763697207184824800,8.626824951171875,0.10725821412121876,-9.759133631065488,0.9582196663100272
1763697207194847500,8.636847412109375,0.11185228217951952,-9.759131292977928,0.9577114975921809
1763697207204870700,8.64687060546875,0.11489494694420135,-9.759126032280921,0.9574129530370235
1763697207214893600,8.6568935546875,0.11694849107367918,-9.759164610725641,0.9567659603703766
1763697207224916700,8.666916748046875,0.11844379853219725,-9.759242352136969,0.9557922930326312
1763697207234940000,8.67693994140625,0.11970232895961962,-9.759311910241841,0.9549163869809358
1763697207244962800,8.686962890625,0.1206796495591756,-9.759396081393957,0.9539338056843727
1763697207254985700,8.69698583984375,0.1209526852137409,-9.75944635027647,0.9533875699784606
1763697207265008600,8.707008544921875,0.1199545592881739,-9.759440505057572,0.9536004820767789
1763697207275031800,8.71703173828125,0.11724260604889132,-9.759421800357103,0.9541131077740341
1763697207285054700,8.7270546875,0.11276938789128325,-9.75934990416467,0.9553905803639441
1763697207295078700,8.73707861328125,0.10684110295400023,-9.759235922396183,0.9572232756838202
1763697207305101600,8.7471015625,0.10054800329231657,-9.759084531226753,0.9594488427788018
1763697207315124700,8.757124755859374,0.09487560194539837,-9.758879364043473,0.9621016953751445
1763697207325147600,8.767147705078125,0.09052506945254281,-9.758546186566353,0.9659059099636972
1763697207335170800,8.7771708984375,0.08804402975914999,-9.758069801226258,0.9709343325849622
1763697207345193700,8.78719384765625,0.08755574391870759,-9.757532625609636,0.9763510238714516
1763697207355216600,8.797216552734374,0.0881054776228033,-9.756998372602462,0.98164123923406
1763697207365239600,8.807239501953125,0.08890852850084192,-9.75648107073009,0.9867024681463837
1763697207375262700,8.8172626953125,0.0894145509273745,-9.755966691467165,0.9917162777204066
1763697207385285600,8.82728564453125,0.08885811348785645,-9.755451143160462,0.9968221494920552
1763697207395308800,8.837308837890625,0.08686801738287321,-9.754935594853759,1.0020363770090044
1763697207405332000,8.84733203125,0.08451597436401061,-9.754432906028628,1.0071244939282535
1763697207415354600,8.857354736328125,0.08331003264035097,-9.75392495650649,1.0121420298293233
1763697207425377800,8.867377685546876,0.08386099932030774,-9.753409992721677,1.0170430997438729
1763697207435400700,8.877400634765625,0.08579712761519476,-9.752887430152297,1.021877461097762
1763697207445423900,8.887423828125,0.08890057352324947,-9.75239526272118,1.0263050682816655
1763697207455446800,8.89744677734375,0.09183773208684287,-9.751933490428328,1.0304068045120687
1763697207465470000,8.907469970703126,0.09365456311730667,-9.751458274132013,1.0347472448691726
1763697207475492600,8.91749267578125,0.09405707037043758,-9.750914084252715,1.0398221369806677
1763697207485516800,8.927516845703124,0.09261966711161658,-9.750187523543834,1.0467364464137703
1763697207495539700,8.937539794921875,0.0907967442670837,-9.749204942247271,1.0560042601704598
1763697207505563000,8.94756298828125,0.09222611948307603,-9.748076815000175,1.0662444260906427
1763697207515585500,8.95758544921875,0.10097556278831325,-9.746927060443163,1.0759206745177508
1763697207525608700,8.967608642578124,0.11820325864143669,-9.74586849130094,1.083725283854082
1763697207535631600,8.977631591796875,0.14197467704960146,-9.74501158221066,1.088568193840608
1763697207545654800,8.98765478515625,0.16830089450711383,-9.74435867125988,1.0906661890331655
1763697207555677700,8.997677734375,0.19126062207305802,-9.743808636161685,1.0917831372991205
1763697207565700900,9.007700927734374,0.20500017441632226,-9.743262692716717,1.0941624336510896
1763697207575723800,9.017723876953125,0.20876864183805882,-9.74249170834422,1.10028793079406
1763697207585746700,9.02774658203125,0.20747209922149776,-9.741380532231926,1.1103313320331274
1763697207595769600,9.03776953125,0.20737609150111674,-9.739870712190866,1.1235215068653226
1763697207605792800,9.047792724609375,0.21197121900534255,-9.737933022126555,1.1393518940079956
1763697207615815700,9.057815673828125,0.221274378070049,-9.735651048669219,1.1569421304300427
1763697207625838800,9.0678388671875,0.2338544764461927,-9.733210085257888,1.174874531353265
1763697207635861800,9.07786181640625,0.24790789877790956,-9.730682028084992,1.1927940727949142
1763697207645884700,9.087884765625,0.2613793747695163,-9.727990889304875,1.2117162154078482
1763697207655907600,9.097907470703126,0.2737197461056523,-9.724885324504971,1.2337193729013203
1763697207665930800,9.1079306640625,0.2869982933410443,-9.721096453616022,1.260280485960096
1763697207675953700,9.11795361328125,0.3035236770105548,-9.716431968936323,1.2919747241236268
1763697207685977600,9.1279775390625,0.3233723416175693,-9.710698393720389,1.3297211019329727
1763697207696000800,9.138000732421874,0.34564226028844713,-9.703877023267745,1.373205585002899
1763697207706023700,9.148023681640625,0.36916802423931655,-9.696206927031279,1.4204580423042177
1763697207716046800,9.158046875,0.3896397709144279,-9.688310036301612,1.4680650121316312
1763697207726069800,9.16806982421875,0.4044374540084973,-9.680713589823245,1.5134797326117753
1763697207736093000,9.178093017578124,0.414318102433905,-9.673580084681511,1.5558273206062614
1763697207746115600,9.188115478515625,0.41938850103337316,-9.666991938462854,1.5949159068048
1763697207756138800,9.198138671875,0.420883561896719,-9.660769702947139,1.6318058139152825
1763697207766161700,9.20816162109375,0.4195437646603212,-9.654870708036421,1.6666886189870536
1763697207776184800,9.218184814453124,0.4188208937458694,-9.649027827227115,1.7003632173128425
1763697207786207700,9.228207763671875,0.4214772534735501,-9.643186115461587,1.7325430470362304
1763697207796231000,9.23823095703125,0.4288149028852582,-9.637469491380452,1.7623012025706468
1763697207806253600,9.248253662109375,0.44135589309372003,-9.631867433589695,1.7896160566061734
1763697207816276700,9.25827685546875,0.4587907197583467,-9.626333764860034,1.814826924099773
1763697207826299600,9.268299560546875,0.4813269246825948,-9.620762102207541,1.8383871017768978
1763697207836322800,9.27832275390625,0.5098182020863518,-9.61503729481995,1.8605197308689354
1763697207846345700,9.288345703125,0.5454017758386209,-9.609101475030183,1.880978727660328
1763697207856369000,9.298368896484375,0.5881606115151197,-9.602996143892407,1.8991884842202067
1763697207866391600,9.3083916015625,0.638048312690854,-9.596486323606968,1.9159107787013052
1763697207876414700,9.318414794921875,0.6938762906357645,-9.589425299179553,1.931791946183145
1763697207886439000,9.32843896484375,0.753451053893566,-9.581768646946548,1.9474064255528152
1763697207896461800,9.3384619140625,0.8154870926983654,-9.573294833111763,1.9640251135289668
1763697207906484700,9.348484619140624,0.8798371805991977,-9.563828501108288,1.982287769319862
1763697207916507600,9.358507568359375,0.9475172897055745,-9.553185526540874,2.0023091053463515
1763697207926530800,9.36853076171875,1.0186877982109785,-9.541440728211402,2.0232548627413807
1763697207936553700,9.3785537109375,1.0926773827251046,-9.528846619576216,2.0439003220155834
1763697207946577000,9.388576904296874,1.168768250367418,-9.515772033947705,2.062631618231535
1763697207956599800,9.398599853515625,1.24622492647022,-9.502604509338736,2.077934547434002
1763697207966622700,9.408622802734374,1.324311936365813,-9.489722815933822,2.0884815142810345
1763697207976645600,9.418645751953125,1.4029546804480253,-9.477353163704276,2.0932957826949656
1763697207986668800,9.428668701171874,1.4835720856040715,-9.46536929592192,2.091927416951209
1763697207996691700,9.438691650390625,1.5687502228043972,-9.453231698882579,2.084668385733664
1763697208006715000,9.44871484375,1.6603345737852155,-9.44047392411828,2.071498669167608
1763697208016737800,9.45873779296875,1.7584664467133582,-9.42697088394463,2.051923907864839
1763697208026760700,9.4687607421875,1.8610408321335912,-9.413109531852603,2.0249116900376976
1763697208036783600,9.47878369140625,1.9630439935371278,-9.399709367531537,1.9905596308417617
1763697208046806800,9.488806884765625,2.0573653682664035,-9.388035880872607,1.94998036769405
1763697208056829700,9.49882958984375,2.136535935615003,-9.379802305534481,1.9039163895249365
1763697208066852900,9.508852783203125,2.198523312972486,-9.37540202474892,1.8543769903302192
1763697208076875800,9.518875732421876,2.2456178032331167,-9.373673593521117,1.8060488666214047
1763697208086899700,9.528899658203125,2.282807862333953,-9.37311069894135,1.7618118116185069
1763697208096922600,9.538922607421876,2.315928918430209,-9.372249698197841,1.7227267325513065
1763697208106945800,9.54894580078125,2.3502982210218906,-9.369871278628706,1.6887832541562615
1763697208116968700,9.55896875,2.3898380581192673,-9.365078199133276,1.6596252564720808
1763697208126992000,9.568991943359375,2.436640433565527,-9.357492274048925,1.6341761963084338
1763697208137014500,9.5790146484375,2.4907065164044497,-9.34722280896902,1.6112711215391755
1763697208147037700,9.58903759765625,2.551101071612537,-9.33453868396282,1.5901733884528277
1763697208157060600,9.599060546875,2.6162325922146437,-9.319775414595007,1.5708219145119189
1763697208167083800,9.609083740234375,2.6842572039097545,-9.303516353711485,1.55233334101066
1763697208177106700,9.619106689453124,2.7537957272991536,-9.286391031387447,1.5329486954525111
1763697208187129900,9.6291298828125,2.824724828264117,-9.268737301275134,1.5105672061659394
1763697208197152500,9.639152587890624,2.897327415399253,-9.25074513298869,1.4830997919172049
1763697208207175700,9.64917578125,2.9718598015531894,-9.232388223043083,1.449639420863986
1763697208217198800,9.65919873046875,3.0490295504733917,-9.213151023131608,1.4112532838463783
1763697208227221200,9.66922119140625,3.129065794740617,-9.192455441105364,1.3704321747668087
1763697208237244400,9.679244384765624,3.212271316693723,-9.169799372661114,1.3290917179882527
1763697208247267300,9.689267333984375,3.2988732030868526,-9.144920951992273,1.2877308029435575
1763697208257290200,9.699290283203124,3.388989527341723,-9.117747698384523,1.2457171230785549
1763697208267313200,9.709313232421875,3.482514490996301,-9.088257984527946,1.202520517039299
1763697208277336300,9.71933642578125,3.578534194076061,-9.056737641626595,1.1575748023103922
1763697208287359200,9.729359130859375,3.6736584096208214,-9.024463265487551,1.110706814282015
1763697208297383400,9.739383544921875,3.765153913274407,-8.992651830685139,1.0612221409492193
1763697208307406300,9.74940625,3.851530466479063,-8.962109392905235,1.0083195489317178
1763697208317429200,9.75942919921875,3.931977045112848,-8.933293048265575,0.9519515458259731
1763697208327452400,9.769452392578126,4.006512938398123,-8.906317363056539,0.8920492311142384
1763697208337475300,9.779475341796875,4.076414449881017,-8.880697184109687,0.8285227345559746
1763697208347498500,9.78949853515625,4.144411589047312,-8.85510506221354,0.762457367169857
1763697208357521400,9.799521484375,4.213186434587836,-8.82815626501143,0.6950685691602527
1763697208367544300,9.80954443359375,4.284053868493437,-8.799197881552576,0.6256058144208043
1763697208377567200,9.819567138671875,4.3581274049639696,-8.767646558991075,0.5527178344730288
1763697208387590400,9.82959033203125,4.43450834159404,-8.733830214107035,0.47510490836258973
1763697208397613300,9.83961328125,4.512573870310187,-8.697813728830218,0.39382699347119776
1763697208407636500,9.849636474609374,4.592161494027078,-8.659424669203162,0.31111506372131403
1763697208417659400,9.859659423828125,4.672644020757079,-8.61882494778931,0.22943370086187495
1763697208427682300,9.869682373046874,4.753707854506374,-8.576134391576051,0.1501755830939859
1763697208437705200,9.879705322265625,4.83438502702564,-8.53191764870882,0.07403905424561817
1763697208447728400,9.889728271484374,4.914828975310922,-8.486155429965256,0.00046111088835332334
1763697208457751300,9.899751220703125,4.9956256825566285,-8.438544953006506,-0.07113219492216594
1763697208467774500,9.9097744140625,5.077638195332884,-8.388580021876097,-0.14038047579387203
1763697208477797400,9.91979736328125,5.160734996214509,-8.336337208941579,-0.20658234730754046
1763697208487820300,9.9298203125,5.244720854890346,-8.28196965893805,-0.2688164659677073
1763697208497844500,9.939844482421876,5.330100213751196,-8.22515939195752,-0.3273777413340285
1763697208507867400,9.949867431640625,5.417399727019667,-8.165485552239417,-0.38342370941117404
1763697208517890600,9.959890625,5.5057928807437415,-8.103379516938329,-0.4380263102795928
1763697208527913200,9.969913330078125,5.594928377267718,-8.039100813773274,-0.48991150541547684
1763697208537936400,9.979936279296876,5.684293006372451,-7.972999571356177,-0.5389625365713611
1763697208547959300,9.989959228515625,5.774323990431427,-7.9048302904933685,-0.5841376030767336
1763697208557982500,9.999982421875,5.8660296297043555,-7.833888622307777,-0.6247183640617877
1763697208568005400,10.01000537109375,5.959635549640655,-7.7599845971852535,-0.6601340339012444
1763697208578028500,10.020028564453124,6.054265551927686,-7.68384302226901,-0.6890676482450216
1763697208588051200,10.03005126953125,6.148536657774448,-7.606544678533076,-0.7115989943310618
1763697208598074400,10.040074462890624,6.241847978678345,-7.528539647832512,-0.7285754097037017
1763697208608097300,10.05009716796875,6.3334045648694035,-7.450528771913051,-0.7402646053884178
1763697208618120400,10.060120361328124,6.422584485056996,-7.373139827284216,-0.7467330707501619
1763697208628143400,10.070143310546875,6.509025335669517,-7.296579734694958,-0.7502640944205224
1763697208638166500,10.08016650390625,6.591781944811344,-7.221477439698576,-0.7543585241273045
1763697208648189200,10.090189208984375,6.670067546018958,-7.1487062179982654,-0.7593320747561753
1763697208658212400,10.10021240234375,6.743309892362356,-7.079070956236124,-0.7647923859886825
1763697208668235300,10.1102353515625,6.8116112751722335,-7.012797279861569,-0.7700666731297969
1763697208678258400,10.120258544921874,6.875694748026132,-6.949499988949299,-0.7743707269992679
1763697208688281300,10.13028125,6.9359373275429,-6.889111863481998,-0.7767191898215562
1763697208698305300,10.14030517578125,6.991930432921648,-6.832185861167312,-0.7775192541580647
1763697208708328200,10.150328125,7.043233919179439,-6.779458479586244,-0.7760045387461781
1763697208718351400,10.160351318359375,7.090243507635593,-6.730919781866669,-0.7704218432430178
1763697208728374300,10.170374267578126,7.133087208583951,-6.686570937052369,-0.7610596292011439
1763697208738397400,10.1803974609375,7.171568038147687,-6.646653937205672,-0.7489940014194697
1763697208748420400,10.19042041015625,7.20558136690855,-6.611077012389898,-0.7373231451090425
1763697208758443300,10.200443359375,7.235539867320656,-6.579490618515014,-0.7263946315985172
1763697208768466400,10.210466552734376,7.262021047011017,-6.55163464334011,-0.7138073180302977
1763697208778489300,10.2204892578125,7.285206107765435,-6.52726008054018,-0.7007424500782042
1763697208788512500,10.230512451171874,7.305288526329398,-6.506159424844384,-0.6877726399984211
1763697208798535400,10.240535400390625,7.321875503993034,-6.488969220590591,-0.6736568747539072
1763697208808558600,10.25055859375,7.33428431918919,-6.476455775976181,-0.6589204933930188
1763697208818581200,10.260581298828125,7.342334354653954,-6.468911936467886,-0.6431894749715924
1763697208828604400,10.2706044921875,7.346110366061329,-6.4662979545772075,-0.6261270618159324
1763697208838627300,10.28062744140625,7.345397249355912,-6.468751192948222,-0.6089255324505269
1763697208848650500,10.290650390625,7.340598324641585,-6.475761948493123,-0.5920403390252962
1763697208858673400,10.30067333984375,7.331961429199576,-6.48686435726583,-0.577341805456765
1763697208868696600,10.310696533203124,7.3191884568661445,-6.502284044715762,-0.5658409719510004
1763697208878719200,10.32071923828125,7.301943307554722,-6.522232607766986,-0.5590085686476901
1763697208888742400,10.330742431640624,7.279809217157959,-6.546955545613169,-0.5586916481856257
1763697208898765300,10.340765380859375,7.251962594333291,-6.57724196280539,-0.5650748464167118
1763697208908789500,10.35078955078125,7.217912440693378,-6.61362903496027,-0.5762242361363024
1763697208918812200,10.360812255859376,7.177332008501887,-6.656497870349884,-0.5893443414069712
1763697208928835300,10.37083544921875,7.1295894295960665,-6.706519500103592,-0.6016127982843666
1763697208938858200,10.380858154296876,7.076459312433004,-6.761511904007196,-0.6132355046041309
1763697208948881400,10.39088134765625,7.023683415535092,-6.815211930012703,-0.625411241696775
1763697208958904300,10.400904296875,6.978822529545426,-6.860579596480727,-0.6315503289736807
1763697208968927500,10.410927490234375,6.9470058340460055,-6.893280673599243,-0.626237828714028
1763697208978950100,10.4209501953125,6.928670551410317,-6.913186566552519,-0.6097156233822927
1763697208988973300,10.430973388671875,6.9200091060489415,-6.9239236491441725,-0.585782557272166
1763697208998996200,10.440996337890626,6.917177682015299,-6.929132908225059,-0.5569164186740294
1763697209009019400,10.451019287109375,6.918007703098654,-6.930885889372229,-0.523802413373068
1763697209019042300,10.461042236328124,6.921326618388295,-6.930403074291348,-0.48490471010413017
1763697209029065500,10.4710654296875,6.925266880446672,-6.929618645915388,-0.43755379739701744
1763697209039088000,10.481088134765624,6.928816097360849,-6.929283130350709,-0.3833068780984729
1763697209049111300,10.491111328125,6.93304862036407,-6.927960941836237,-0.3264610283479094
1763697209059134200,10.50113427734375,6.939182593074441,-6.924246889749169,-0.27007026542108503
1763697209069157400,10.511157470703125,6.94656861167252,-6.918653015264868,-0.21864645898556334
1763697209079180300,10.52118017578125,6.953710300120711,-6.912631270757317,-0.1783926649325527
1763697209089203500,10.531203369140625,6.956864964759349,-6.910132439678907,-0.14991049328385853
1763697209099226400,10.541226318359374,6.950978244808316,-6.916462227222323,-0.12971333489958195
1763697209109249300,10.551249267578125,6.934620984247326,-6.933094797593355,-0.11665390117443165
1763697209119273500,10.5612734375,6.910117826631665,-6.957613152778149,-0.11080112915877252
1763697209129296400,10.57129638671875,6.881773191156983,-6.98564097738862,-0.11135561210322194
1763697209139319300,10.5813193359375,6.8525137789249415,-7.014274366676807,-0.1156933216471225
1763697209149342200,10.59134228515625,6.823337368801235,-7.042582761794328,-0.12034775985684246
1763697209159365400,10.601365478515625,6.793820766937732,-7.071001047027111,-0.12378782644127495
1763697209169388300,10.61138818359375,6.764119456157088,-7.099328731366992,-0.128828724951623
1763697209179411500,10.621411376953125,6.7324056365102525,-7.129341592314839,-0.13260585060385055
1763697209189434400,10.631434326171876,6.696067664194107,-7.163539629992842,-0.12941219652853905
1763697209199457300,10.641457275390625,6.652688541194796,-7.204118308618664,-0.11310668442109599
1763697209209480200,10.651480224609376,6.6024933084398505,-7.250521747875213,-0.08604314739867112
1763697209219503400,10.66150341796875,6.547483953401446,-7.300505383706092,-0.058849129564105526
1763697209229526500,10.671526611328124,6.487724773487448,-7.353800920563936,-0.03780858372482471
1763697209239549400,10.681549560546875,6.419717989709973,-7.41330524893403,-0.022726078640273772
1763697209249572600,10.691572509765624,6.341399655276536,-7.480437003442645,-0.010116723345249191
1763697209259595500,10.701595458984375,6.253713773038983,-7.553901468104123,0.0048559698266763
1763697209269618400,10.711618408203124,6.159059220832586,-7.631239559328556,0.02382444778663339
1763697209279641300,10.721641357421875,6.06061579773724,-7.709544449758529,0.047470205404958686
1763697209289664500,10.73166455078125,5.960750817406177,-7.78679252461195,0.07553125643159728
1763697209299687400,10.7416875,5.858903723347186,-7.863336835110187,0.10748763896292075
1763697209309710600,10.751710693359374,5.752669792506098,-7.9408567126423115,0.14128452109466305
1763697209319734500,10.761734619140626,5.639872265365719,-8.020674930244684,0.1760442569091916
1763697209329757400,10.77175732421875,5.519650725704431,-8.102977365878225,0.2135652832637541
1763697209339780600,10.781780517578126,5.393818944945931,-8.186113914248347,0.2542280599764548
1763697209349803500,10.791803466796875,5.264306429848075,-8.268537930434942,0.2979093625264242
1763697209359826700,10.80182666015625,5.131234176442026,-8.349950723752379,0.3451912651179358
1763697209369849300,10.811849365234375,4.995781749901175,-8.429502399373053,0.39502537294290957
1763697209379872500,10.82187255859375,4.859640172052383,-8.50612269771695,0.44739794973693786
1763697209389895400,10.8318955078125,4.72402291033864,-8.579245801594853,0.5005510824494064
1763697209399918600,10.841918701171876,4.5909985877275465,-8.648121184900402,0.5505515963498503
1763697209409941500,10.85194140625,4.461869226728379,-8.71252263766229,0.5950255653811618
1763697209419964700,10.861964599609376,4.336467654080689,-8.772993180716037,0.6324655441224575
1763697209429987300,10.8719873046875,4.213567250598967,-8.83039264576137,0.6636225336041301
1763697209440010500,10.882010498046874,4.092012416507304,-8.885329520085454,0.6904620982781052
1763697209450033400,10.892033447265625,3.9713317349016664,-8.937987343561648,0.7150470158930867
1763697209460056600,10.902056640625,3.8512890589386224,-8.988426321944594,0.7390185508500784
1763697209470079500,10.91207958984375,3.7320144447386263,-9.036463499882817,0.7647160328168422
1763697209480102700,10.9221025390625,3.613600246760249,-9.081911830371618,0.794455629781261
1763697209490125300,10.932125244140625,3.4957840146750208,-9.124847885778546,0.828882288583368
1763697209500148500,10.9421484375,3.3791435483708976,-9.165194509214162,0.866601047733426
1763697209510171400,10.95217138671875,3.2650334773272274,-9.202632551726698,0.9063712595205754
1763697209520194600,10.962194580078124,3.154881203998625,-9.236839357233046,0.9475778607863933
1763697209530217500,10.972217529296875,3.0493109977632757,-9.267857011309266,0.9894038360595703
1763697209540241400,10.982241455078125,2.94910611795336,-9.295763839888572,1.030505661776662
1763697209550264600,10.9922646484375,2.85491421482265,-9.320836906346678,1.0685801755618303
1763697209560287500,11.00228759765625,2.767010305920243,-9.343487129572033,1.1014955530181527
1763697209570310700,11.012310546875,2.6845520952031015,-9.364314229023456,1.1283640515256672
1763697209580333600,11.02233349609375,2.605195357632637,-9.384119584211707,1.1496295423943548
1763697209590356500,11.0323564453125,2.5265505677238105,-9.403557859653233,1.1661965732485056
1763697209600379400,11.04237939453125,2.447436552868038,-9.422949373343586,1.178328471199423
1763697209610402600,11.052402587890626,2.3676509223610163,-9.44239466304779,1.1856624673493206
1763697209620425500,11.062425537109375,2.287306342796981,-9.461856903886794,1.1882226001609115
1763697209630448600,11.07244873046875,2.206410266830027,-9.481277643671632,1.1863823060564695
1763697209640471600,11.082471435546875,2.125644685374945,-9.50017114471197,1.1826950689110904
1763697209650494500,11.092494384765626,2.04618229547292,-9.517882157969474,1.1804404218520967
1763697209660517400,11.102517333984375,1.9694041762188075,-9.533962355154753,1.1812740231320262
1763697209670540500,11.11254052734375,1.895683398708701,-9.54825216179192,1.1864512065742163
1763697209680563500,11.1225634765625,1.8248354001559317,-9.560749824315309,1.1968429097943007
1763697209690586600,11.132586669921874,1.7574657452382145,-9.571365910875796,1.2127061762932687
1763697209700609500,11.142609619140625,1.694116431877762,-9.580123217827081,1.2335269190691411
1763697209710632400,11.152632568359374,1.6348405054360626,-9.5873256965518,1.2573192980669439
1763697209720655400,11.1626552734375,1.5797957868233323,-9.593065701508522,1.2836292128436266
1763697209730678500,11.172678466796874,1.528925285155326,-9.597509236913918,1.3117065756842494
1763697209740701400,11.182701416015625,1.4827105003386736,-9.600981881460546,1.3390705295585095
1763697209750724600,11.192724609375,1.4414521688856183,-9.603860067245364,1.3632619908764958
1763697209760748300,11.202748291015626,1.40551050241068,-9.60642202668786,1.3826077657289801
1763697209770771500,11.212771484375,1.3745702974848448,-9.60880979860723,1.397032012400776
1763697209780794400,11.22279443359375,1.3481525384195148,-9.611182372957467,1.4064393076933919
1763697209790817500,11.232817626953125,1.3257125969439745,-9.613643210113048,1.410937495895475
1763697209800840400,11.24284033203125,1.3065015543870626,-9.616248424175382,1.4111029155902564
1763697209810863600,11.252863525390625,1.2900493090189993,-9.61893605582416,1.4079139102905989
1763697209820886300,11.26288623046875,1.2763060303486884,-9.621475218912959,1.4030908740483223
1763697209830909400,11.272909423828125,1.2641820234432817,-9.623810383862256,1.3980379745729268
1763697209840932400,11.282932373046876,1.2520143235266208,-9.6260976180166,1.3932279439426958
1763697209850955500,11.29295556640625,1.2387579515904188,-9.628488897067308,1.3885473849110304
1763697209860978400,11.302978515625,1.22337888841182,-9.631110477742553,1.3839885525628923
1763697209871001600,11.313001708984375,1.2065395434223114,-9.633843702098726,1.3797393706858156
1763697209881024500,11.3230244140625,1.1887236815508455,-9.636810735210776,1.3744766278520226
1763697209891047400,11.33304736328125,1.1697533889472485,-9.640207391911744,1.366917736905068
1763697209901070600,11.343070556640624,1.1493896692238748,-9.6442055216372,1.35595707469061
1763697209911093500,11.353093505859375,1.128794040440768,-9.648578914415836,1.3420584593281148
1763697209921116700,11.36311669921875,1.1095179698236286,-9.652940616756677,1.326685972020775
1763697209931139600,11.3731396484375,1.0928163528043775,-9.657076693648099,1.3103547226838768
1763697209941162500,11.38316259765625,1.078760866379738,-9.660978961783647,1.2931187795922159
1763697209951185400,11.393185302734375,1.065791567756608,-9.66468424604237,1.2760736828975379
1763697209961208600,11.40320849609375,1.0521239116057752,-9.668325232893228,1.2597234365992247
1763697209971231500,11.4132314453125,1.0357952926173806,-9.671985508966445,1.2450740028694272
1763697209981255400,11.42325537109375,1.015517862937972,-9.675599607810378,1.2336470383174716
1763697209991278300,11.4332783203125,0.9915818376857787,-9.679034258434175,1.2261446998633443
1763697210001301500,11.443301513671875,0.9660215722326189,-9.682100660267471,1.2223372704043984
1763697210011324400,11.453324462890626,0.9409273899212479,-9.684709965983032,1.2212330354895442
1763697210021347600,11.46334765625,0.9174434923507273,-9.68695102290809,1.2213397837996482
1763697210031370500,11.47337060546875,0.895437850639224,-9.689081605195998,1.2207752817846833
1763697210041393400,11.483393310546875,0.8744122329410166,-9.691322662121056,1.2182259626280516
1763697210051416300,11.493416259765626,0.8531878047350794,-9.693785252842307,1.213672537107393
1763697210061439500,11.503439453125,0.830980429906398,-9.696440735787153,1.2078490916509181
1763697210071462400,11.51346240234375,0.8075921747300774,-9.69911433891058,1.202234247443825
1763697210081485600,11.523485595703125,0.7831309565600008,-9.701730074366926,1.1973054858047514
1763697210091508500,11.533508544921874,0.758369221073389,-9.704200848394631,1.1932054300747812
1763697210101531400,11.543531494140625,0.7333901165090501,-9.706537766909598,1.1898049739815295
1763697210111554300,11.55355419921875,0.708401951855421,-9.708836106979847,1.1861894868981093
1763697210121577500,11.563577392578125,0.6852239784289151,-9.71106664251089,1.181536327330023
1763697210131600400,11.573600341796874,0.6644121496118605,-9.713319974395633,1.1748826415944844
1763697210141623600,11.58362353515625,0.6454800701268016,-9.715571552714705,1.1667877440746872
1763697210151646500,11.593646484375,0.6272559927806258,-9.717815532249212,1.1580126092057674
1763697210161669400,11.60366943359375,0.6084711032139137,-9.720041976127028,1.1493077630940824
1763697210171692300,11.6136923828125,0.588914900481142,-9.722240362954139,1.1408736236825585
1763697210181715500,11.623715576171875,0.5692154533527791,-9.724352825063466,1.13284411954917
1763697210191738400,11.63373828125,0.5519591615928336,-9.72634078401029,1.1242864268232136
1763697210201761500,11.643761474609375,0.5392783610548824,-9.728238726586103,1.1139750953629612
1763697210211784400,11.653784423828125,0.5312073193347081,-9.730067695578931,1.1018130945347249
1763697210221808400,11.663808349609376,0.5263569932267069,-9.731948687019944,1.0874373631797731
1763697210231831600,11.67383154296875,0.5237375679759309,-9.733933138835429,1.0708071308963
1763697210241854500,11.6838544921875,0.5234519925002008,-9.735905900213123,1.0528645739052445
1763697210251877600,11.693877685546875,0.5260673260977491,-9.737751820340751,1.034327338956669
1763697210261900500,11.703900634765626,0.5323750844724476,-9.739398418503999,1.0154285772193223
1763697210271923500,11.71392333984375,0.5430337680656463,-9.740732881978154,0.9968049060963093
1763697210281946400,11.7239462890625,0.5581171362333,-9.741779760682583,0.9780701027490198
1763697210291969500,11.733969482421875,0.5767387249970808,-9.742646606644987,0.9584308248426765
1763697210301992400,11.743992431640624,0.5975929681837558,-9.743433373108505,0.9374331911299377
1763697210312015600,11.754015625,0.6194369895927607,-9.74413246128857,0.9157390995856374
1763697210322038500,11.76403857421875,0.6408966878592968,-9.74472867361605,0.8943878301296383
1763697210332061400,11.7740615234375,0.6605130232814699,-9.745207981565594,0.8746590473089366
1763697210342084400,11.78408447265625,0.6769259595524519,-9.74555051139295,0.8581549986883997
1763697210352107500,11.794107421875,0.689935955512151,-9.745731128656864,0.8456450612053275
1763697210362130400,11.80413037109375,0.7011697355795651,-9.745773798754811,0.8358515430741011
1763697210372153600,11.814153564453125,0.7122702446561306,-9.745824652159213,0.8258093108788133
1763697210382176500,11.824176513671874,0.7237877370357513,-9.746033326473832,0.8132211935929954
1763697210392199400,11.834199462890625,0.7342978059384971,-9.746590960356592,0.7969836138889193
1763697210402222300,11.844222412109374,0.7429263719435781,-9.747385910126566,0.7790399609193205
1763697210412245500,11.85424560546875,0.7501745895061641,-9.748196057465671,0.7617648548610508
1763697210422268400,11.864268310546874,0.7564499434486031,-9.748838447022438,0.7472078486550598
1763697210432291600,11.87429150390625,0.762716602627933,-9.749044198727606,0.7380899647630751
1763697210442314500,11.884314453125,0.7682992250658571,-9.748950675225258,0.7335189305204898
1763697210452338400,11.89433837890625,0.7743841710027307,-9.748718035513162,0.7302119248643517
1763697210462361300,11.904361328125,0.779928361126408,-9.74842226743698,0.7282541418600827
1763697210472384500,11.914384521484376,0.7850790949530899,-9.748138189798594,0.7265274641979486
1763697210482407400,11.924407470703125,0.790335554176569,-9.747949973750114,0.7233526335541158
1763697210492430300,11.934430419921876,0.7940091281227767,-9.747990305760503,0.7187610679801553
1763697210502453200,11.944453369140625,0.794598399252817,-9.748262108439206,0.7144285186685622
1763697210512476400,11.954476318359376,0.7925509652037173,-9.748605807310343,0.7119988073036074
1763697210522499300,11.964499267578125,0.7892177291277795,-9.748913265824317,0.7114907847162336
1763697210532522500,11.9745224609375,0.7846583122577517,-9.74924352069199,0.7120228457663208
1763697210542545700,11.984545654296875,0.7785604337740689,-9.749665545496343,0.7129383531760424
1763697210552568300,11.994568359375,0.7708242134988308,-9.750220841291545,0.7137338874679059
1763697210562591500,12.004591552734375,0.7612583666436373,-9.750890703377127,0.7148487899072468
1763697210572614400,12.014614501953124,0.7490315569508821,-9.751659349662065,0.7172847118172794
1763697210582637600,12.024637451171875,0.7334656659632921,-9.752493462398649,0.7220050914026797
1763697210592660500,12.034660400390624,0.7149477933023125,-9.753300102606415,0.7296475689798593
1763697210602683600,12.04468359375,0.6962207348700612,-9.753844877007603,0.7404024064239114
1763697210612706300,12.054706298828124,0.6798911660335958,-9.753900991109013,0.7547003233022987
1763697210622729500,12.0647294921875,0.6666158702012152,-9.753429281944037,0.7724279223684221
1763697210632752400,12.07475244140625,0.6553798981767147,-9.752568281200528,0.7926455116193741
1763697210642775600,12.084775634765625,0.645099984768033,-9.751496852576732,0.8139556453473865
1763697210652798500,12.094798583984375,0.6351337404184043,-9.750379246723652,0.8349159427244216
1763697210662821600,12.104821533203125,0.6245861159842461,-9.749283852702378,0.8554052615888417
1763697210672844300,12.11484423828125,0.6122017776422202,-9.748303609493375,0.8753079396717249
1763697210682867500,12.124867431640626,0.5980192673044279,-9.74747300388813,0.8941782059669494
1763697210692890400,12.134890380859375,0.5835514737518503,-9.74679905014932,0.9109179630395025
1763697210702914600,12.14491455078125,0.5712895196804777,-9.746129772585629,0.9257319396812468
1763697210712937500,12.1549375,0.563244343053922,-9.745392105960846,0.9383383232761174
1763697210722960400,12.16496044921875,0.5589195386573672,-9.744697109434009,0.9480752158492803
1763697210732983300,12.1749833984375,0.5556320048866793,-9.744256964451074,0.9545195696830749
1763697210743006500,12.18500634765625,0.5505014735978097,-9.744154673120379,0.9585218641269951
1763697210753029400,12.195029296875,0.5424347061939537,-9.74432067733705,0.9614378246389329
1763697210763052500,12.205052490234374,0.5318337441373616,-9.744700032043456,0.963511416042596
1763697210773075500,12.215075439453125,0.5195512222019956,-9.745243637400865,0.9647289751388132
1763697210783098400,12.225098388671874,0.5060846415812149,-9.745752755966782,0.9667327161766588
1763697210793121300,12.235121337890625,0.49248511876314877,-9.746136202326417,0.9698743752032518
1763697210803144400,12.24514453125,0.4799128566335886,-9.746332017159462,0.9742116006899625
1763697210813167400,12.25516748046875,0.4677185609709471,-9.746252522182465,0.9809104407414794
1763697210823190500,12.2651904296875,0.45357897645942863,-9.745917591139674,0.9908321883622556
1763697210833213400,12.27521337890625,0.4356565854735672,-9.745433022493124,1.0035533574432134
1763697210843236400,12.285236328125,0.4140037392551079,-9.744906952792405,1.0177228987015783
1763697210853259300,12.29525927734375,0.39095980400443076,-9.744313663074374,1.0324211400091647
1763697210863282400,12.305282470703125,0.3685189857460558,-9.743542094179988,1.0478493030264973
1763697210873305300,12.315305419921875,0.346029688703455,-9.742627317422627,1.0639045119009911
1763697210883328500,12.32532861328125,0.3247938988532871,-9.741490422347187,1.080870844271034
1763697210893351700,12.3353515625,0.3054162858241238,-9.740183431401848,1.0981360865224152
1763697210903374300,12.345374267578125,0.28684560526367275,-9.738793438348173,1.115344264824316
1763697210913397500,12.3553974609375,0.26775727577097713,-9.737376557287574,1.1323282059162854
1763697210923420400,12.36542041015625,0.24821473623737692,-9.735966690489649,1.1487834469590334
1763697210933443600,12.375443603515626,0.2294055342133157,-9.73452935116291,1.164766467380151
1763697210943466500,12.385466552734375,0.21315474796779452,-9.732948803973198,1.1809591850291936
1763697210953489700,12.39548974609375,0.20181217376366256,-9.731057291138171,1.1984073095668106
1763697210963513300,12.405513427734375,0.19759254677463323,-9.7287659653306,1.2175514243673533
1763697210973536500,12.41553662109375,0.20164405065514146,-9.725957922172546,1.2391380369491873
1763697210983559400,12.425559326171875,0.21444290634850038,-9.722392923167348,1.264698594663292
1763697210993582600,12.43558251953125,0.23659550051633269,-9.717980951943993,1.2943233330763875
1763697211003605200,12.445605224609375,0.2688567249128595,-9.712700381192564,1.3272329383790493
1763697211013628400,12.45562841796875,0.31141872284300626,-9.70660907858014,1.3620375636480748
1763697211023651300,12.4656513671875,0.365134092548117,-9.69968950845003,1.39752827148512
1763697211033674500,12.475674560546874,0.43275531107410786,-9.69182009024918,1.4323862343765794
1763697211043697400,12.485697509765625,0.5171377313194796,-9.682789227053522,1.4651206292428076
1763697211053720600,12.495720458984374,0.6200665196679532,-9.672338560187816,1.4939083323098719
1763697211063743200,12.5057431640625,0.7408144212909042,-9.66022668211162,1.5171062525458634
1763697211073766400,12.515766357421874,0.8768040234483778,-9.646251932772994,1.5334395477093756
1763697211083789300,12.525789306640625,1.0255262659288942,-9.63012497383654,1.542525794354081
1763697211093812500,12.5358125,1.1865455337941646,-9.611555297923088,1.5428860059686005
1763697211103835400,12.54583544921875,1.3601640248611568,-9.590404957866669,1.5311685340374708
1763697211113858600,12.555858642578125,1.5446101994127035,-9.56671662376523,1.5041633304730058
1763697211123881200,12.565881103515625,1.7360723902061581,-9.540688448539376,1.460036603976786
1763697211133904400,12.575904296875,1.9314701668828724,-9.512228662252426,1.3990402834832667
1763697211143927300,12.58592724609375,2.132322994095087,-9.479988772904873,1.324161568109691
1763697211153950500,12.595950439453125,2.338711243602633,-9.44319370447099,1.235677667362243
1763697211163973400,12.605973388671876,2.54543500867486,-9.402848250079154,1.1303078060045837
1763697211173996500,12.61599658203125,2.7467203820854422,-9.359466204470396,1.0130751459609717
1763697211184019200,12.626019287109376,2.937323033440113,-9.313481867408752,0.8953012186475098
1763697211194042400,12.63604248046875,3.11438260487169,-9.265569777154923,0.7875400051739067
1763697211204065300,12.646065185546876,3.2783231670111417,-9.216440712326765,0.6929685281410813
1763697211214088400,12.65608837890625,3.4326308084085584,-9.166021023166179,0.6095003366637974
1763697211224111600,12.666111572265624,3.5829397355586288,-9.112928899925947,0.5361612154150381
1763697211234134500,12.676134521484375,3.736038293427229,-9.054892890542746,0.4704448075970635
1763697211244157400,12.686157470703124,3.8973923462048172,-8.989621084687114,0.4091731042282656
1763697211254181400,12.696181396484375,4.06868823954314,-8.91594268501401,0.3494463652791455
1763697211264204500,12.70620458984375,4.247217883527279,-8.834487221598625,0.28874206826845183
1763697211274227500,12.7162275390625,4.42767323487699,-8.747323317408561,0.22454817557632922
1763697211284250600,12.726250732421875,4.605326972809434,-8.656626562917232,0.15544245411362498
1763697211294273300,12.736273193359375,4.774326864165068,-8.565604814255238,0.08121830279179848
1763697211304296400,12.74629638671875,4.9292000304907555,-8.47781547164321,0.0020584312233826495
1763697211314319400,12.7563193359375,5.0684348981797696,-8.394935528382659,-0.08013985990532674
1763697211324342500,12.766342529296875,5.19413516151309,-8.316505550268293,-0.1645804674781859
1763697211334365400,12.776365478515626,5.311404865631461,-8.239938443416357,-0.2505817941622808
1763697211344388600,12.786388671875,5.426220746856927,-8.161663948124646,-0.33728509510327126
1763697211354411300,12.796411376953126,5.542569828999042,-8.079023658838867,-0.4238787981899455
1763697211364434400,12.806434326171875,5.662607244265079,-7.9902529039740555,-0.5110029914241284
1763697211374457300,12.816457275390626,5.787032080835104,-7.894413525897264,-0.5990721373582258
1763697211384480500,12.82648046875,5.914339194843173,-7.79233145403862,-0.6859622295755893
1763697211394503400,12.83650341796875,6.041983577981591,-7.686154221820831,-0.7667091793954371
1763697211404526600,12.846526611328125,6.167871472841501,-7.578063264936208,-0.8370829845651984
1763697211414549200,12.85654931640625,6.290681275430321,-7.4697390838176005,-0.8948216915022581
1763697211424572400,12.866572509765625,6.410970619630813,-7.361307350671291,-0.9386164095651358
