time,seconds_elapsed,z,y,x
1763693804595729000,0.12972900390625,0.15405932068824768,0.19373925030231476,-0.46284374594688416
1763693804605701400,0.139701416015625,0.09227581322193146,0.18308693170547485,-0.32542869448661804
1763693804665921000,0.199921142578125,0.014513799920678139,-0.28228676319122314,0.15379302203655243
1763693804695795200,0.229795166015625,-0.011983871459960938,-0.03408745676279068,0.12822742760181427
1763693804705777200,0.239777099609375,0.02090519852936268,0.0031956990715116262,0.11757509410381317
1763693804715720200,0.24972021484375,0.04327509179711342,0.02023942768573761,0.0930747389793396
1763693804725780700,0.25978076171875,0.07097115367650986,0.0021304660476744175,0.04407401755452156
1763693804735773400,0.2697734375,0.1199718713760376,-0.0745663121342659,0.00359516148455441
1763693804745819100,0.279819091796875,0.21051667630672455,-0.08841434121131897,-0.014513799920678139
1763693804755834400,0.28983447265625,0.31490951776504517,0.00852186419069767,-0.03155753016471863
1763693804765801200,0.29980126953125,0.31490951776504517,0.10226237028837204,-0.06351451575756073
1763693804775795700,0.309795654296875,0.21903854608535767,0.06710968166589737,-0.08908011019229889
1763693804785807000,0.31980712890625,0.11145000159740448,0.03728315606713295,-0.09440627694129944
1763693804795809000,0.32980908203125,0.02410089783370495,0.10226237028837204,-0.11251524090766907
1763693804805852400,0.339852294921875,-0.04181039705872536,0.08734910935163498,-0.14873315393924713
1763693804815872000,0.3498720703125,-0.11318100988864899,-0.09800143539905548,-0.14340700209140778
1763693804825849900,0.359849853515625,-0.2079867422580719,-0.23648172616958618,-0.05286218971014023
1763693804835851800,0.369851806640625,-0.32090145349502563,-0.2652430236339569,0.09733566641807556
1763693804845862000,0.37986181640625,-0.40398961305618286,-0.3430050313472748,0.23688119649887085
1763693804855867100,0.3898671875,-0.41464194655418396,-0.4664389193058014,0.33275216817855835
1763693804865868300,0.399868408203125,-0.34966275095939636,-0.550592303276062,0.35299158096313477
1763693804875871700,0.409871826171875,-0.23674803972244263,-0.6240934133529663,0.3199693560600281
1763693804885879000,0.419879150390625,-0.13981182873249054,-0.7252905368804932,0.2762948274612427
1763693804895884000,0.429884033203125,-0.10572437942028046,-0.8286181092262268,0.24646829068660736
1763693804905894000,0.439893798828125,-0.15046416223049164,-0.9053149223327637,0.2411421239376068
1763693804915901000,0.44990087890625,-0.15259462594985962,-0.8467270731925964,0.23368549346923828
1763693804925915400,0.459915283203125,-0.13448566198349,-0.7785521745681763,0.24646829068660736
1763693804935925500,0.469925537109375,-0.17389929294586182,-0.7402037978172302,0.262446790933609
1763693804945921000,0.479921142578125,-0.25698745250701904,-0.6965292692184448,0.23475073277950287
1763693804955925000,0.489925048828125,-0.3379451632499695,-0.7061163187026978,0.16551057994365692
1763693804965929200,0.49992919921875,-0.38268497586250305,-0.7604432106018066,0.08348763734102249
1763693804975933000,0.509932861328125,-0.38161972165107727,-0.7934654355049133,-0.01770949922502041
1763693804985943300,0.519943359375,-0.3773587942123413,-0.8946625590324402,-0.15938548743724823
1763693804995949800,0.52994970703125,-0.3762935698032379,-0.9276847839355469,-0.3211677670478821
1763693805005980400,0.53998046875,-0.3581846058368683,-0.8286181092262268,-0.5256925225257874
1763693805015997200,0.5499970703125,-0.3038577139377594,-0.7210295796394348,-0.7557828426361084
1763693805025960700,0.559960693359375,-0.2292914092540741,-0.6081148982048035,-0.9133041501045227
1763693805035972000,0.56997216796875,-0.1856168508529663,-0.47176507115364075,-0.9772181510925293
1763693805046003000,0.5800029296875,-0.16857312619686127,-0.3195699155330658,-0.9676310420036316
1763693805056016400,0.590016357421875,-0.1547250896692276,-0.17789392173290253,-0.903717041015625
1763693805066014200,0.60001416015625,-0.1430075317621231,-0.06817491352558136,-0.8089113235473633
1763693805076025900,0.61002587890625,-0.1536598652601242,-0.04154408723115921,-0.7174344658851624
1763693805086015500,0.620015380859375,-0.19307348132133484,-0.13102366030216217,-0.6428681015968323
1763693805096024800,0.63002490234375,-0.24740037322044373,-0.27269965410232544,-0.5981283187866211
1763693805106023700,0.640023681640625,-0.279357373714447,-0.3738967776298523,-0.5789541602134705
1763693805116032000,0.650031982421875,-0.28681400418281555,-0.3621792197227478,-0.5736280083656311
1763693805126045200,0.660045166015625,-0.28894445300102234,-0.2588516175746918,-0.583215057849884
1763693805136054000,0.670053955078125,-0.31770575046539307,-0.14700216054916382,-0.5959978699684143
1763693805146043100,0.680043212890625,-0.386945903301239,-0.07563154399394989,-0.6204982399940491
1763693805156050000,0.6900498046875,-0.47749069333076477,-0.02450035884976387,-0.667368471622467
1763693805166047700,0.7000478515625,-0.5392742156982422,-0.01810896210372448,-0.7238258123397827
1763693805176053800,0.7100537109375,-0.5701659917831421,-0.05006595328450203,-0.7664351463317871
1763693805186069000,0.720069091796875,-0.5904054045677185,-0.07989247888326645,-0.774957001209259
1763693805196076000,0.730075927734375,-0.6106448173522949,-0.05965305119752884,-0.7493914365768433
1763693805206072000,0.740072021484375,-0.6138405203819275,0.03728315606713295,-0.6865426898002625
1763693805216077800,0.750077880859375,-0.5978620052337646,0.17136935889720917,-0.583215057849884
1763693805226082600,0.76008251953125,-0.5861444473266602,0.32369768619537354,-0.4596480429172516
1763693805236088300,0.77008837890625,-0.5840139985084534,0.4419385492801666,-0.3637770712375641
1763693805246099000,0.780098876953125,-0.5829487442970276,0.5175700783729553,-0.310515433549881
1763693805256105200,0.790105224609375,-0.5872097015380859,0.5388747453689575,-0.29240646958351135
1763693805266107600,0.800107666015625,-0.6053186655044556,0.4216991364955902,-0.27003657817840576
1763693805276113400,0.810113525390625,-0.6074491143226624,0.1777607649564743,-0.18268746137619019
1763693805286119000,0.820118896484375,-0.5691007375717163,-0.07137060910463333,-0.04434032365679741
1763693805296124700,0.830124755859375,-0.5105129480361938,-0.3003957271575928,0.09094426780939102
1763693805306130700,0.840130615234375,-0.433816134929657,-0.4356802999973297,0.1889457106590271
1763693805316136400,0.850136474609375,-0.3432713449001312,-0.45272403955459595,0.21344606578350067
1763693805326115600,0.860115478515625,-0.23461757600307465,-0.4047885537147522,0.15272778272628784
1763693805336118500,0.870118408203125,-0.16857312619686127,-0.35791829228401184,0.07390054315328598
1763693805346122500,0.88012255859375,-0.19094301760196686,-0.0319569893181324,-0.12849372625350952
1763693805356125700,0.890125732421875,-0.2729659676551819,0.4344819188117981,-0.37869033217430115
1763693805366133200,0.90013330078125,-0.3336842358112335,0.5942668914794922,-0.4489957094192505
1763693805376137000,0.910136962890625,-0.36138030886650085,0.5953320860862732,-0.4383433759212494
1763693805386146600,0.920146484375,-0.3326190114021301,0.5388747453689575,-0.4074516296386719
1763693805396150800,0.93015087890625,-0.24420467019081116,0.4738955497741699,-0.3179720640182495
1763693805406155500,0.940155517578125,-0.12489857524633408,0.41637295484542847,-0.19760072231292725
1763693805416159700,0.95015966796875,-0.0025299284607172012,0.29919731616973877,-0.05818835273385048
1763693805426168300,0.960168212890625,0.09547150880098343,0.15126308798789978,0.11011846363544464
1763693805436172800,0.9701728515625,0.16471165418624878,0.01917419396340847,0.2762948274612427
1763693805446183400,0.980183349609375,0.21797330677509308,-0.10226237028837204,0.4019923210144043
1763693805456188700,0.990188720703125,0.28508299589157104,-0.18322007358074188,0.48175162076950073
1763693805466189600,1.000189453125,0.39054104685783386,-0.22689463198184967,0.4966649115085602
1763693805476194300,1.0101943359375,0.4842815697193146,-0.20772044360637665,0.4391423165798187
1763693805486202600,1.02020263671875,0.5204994678497314,-0.11824086308479309,0.3476654291152954
1763693805496208000,1.030207763671875,0.49599912762641907,-0.0532616525888443,0.23475073277950287
1763693805506209300,1.040209228515625,0.4480636417865753,0.03515268862247467,0.13248835504055023
1763693805516214000,1.050214111328125,0.42462852597236633,0.1501978635787964,0.03342168778181076
1763693805526219500,1.060219482421875,0.3990629315376282,0.09693620353937149,-0.0560578890144825
1763693805536224300,1.070224365234375,0.31917044520378113,-0.13421936333179474,-0.1316894292831421
1763693805546234000,1.080234130859375,0.1828206181526184,-0.4037233293056488,-0.20718781650066376
1763693805556239400,1.0902392578125,0.007057168986648321,-0.6304848194122314,-0.2796236574649811
1763693805566249200,1.100249267578125,-0.17070358991622925,-0.7529866099357605,-0.31477636098861694
1763693805576255000,1.1102548828125,-0.30705341696739197,-0.8882712125778198,-0.3083849549293518
1763693805586264300,1.120264404296875,-0.38161972165107727,-1.1214240789413452,-0.28068891167640686
1763693805596270600,1.1302705078125,-0.3667064607143402,-1.337666392326355,-0.23062294721603394
1763693805606302500,1.140302490234375,-0.26444411277770996,-1.421819806098938,-0.17110306024551392
1763693805616311300,1.150311279296875,-0.10039821267127991,-1.314231276512146,-0.18481792509555817
1763693805626323500,1.160323486328125,0.06244928762316704,-0.9884030818939209,-0.2881455421447754
1763693805636332800,1.170332763671875,0.18069015443325043,-0.4568518102169037,-0.39040789008140564
1763693805646331600,1.18033154296875,0.23075610399246216,0.05539211630821228,-0.437278151512146
1763693805656339700,1.190339599609375,0.22116900980472565,0.3503285050392151,-0.44260433316230774
1763693805666374000,1.200373779296875,0.14766792953014374,0.2619141638278961,-0.4266258180141449
1763693805676384500,1.210384521484375,0.03368799388408661,-0.0053261648863554,-0.3957340717315674
1763693805686344400,1.220344482421875,-0.006790860556066036,-0.25139498710632324,-0.29240646958351135
1763693805696350000,1.230349853515625,0.0454055592417717,-0.5995930433273315,-0.13275466859340668
1763693805706386400,1.240386474609375,0.12210233509540558,-1.0331429243087769,0.014247491955757141
1763693805716395000,1.25039501953125,0.19666863977909088,-1.4015803337097168,0.12822742760181427
1763693805726389800,1.2603896484375,0.28401774168014526,-1.4495158195495605,0.2113156020641327
1763693805736397000,1.27039697265625,0.4075847864151001,-1.9234113693237305,0.2944037914276123
1763693805746361300,1.280361328125,0.3948020040988922,-2.5741355419158936,0.2869471311569214
1763693805756364000,1.290364013671875,0.3202356696128845,-1.1725552082061768,0.005725627299398184
1763693805766396000,1.30039599609375,0.31597474217414856,-0.7444647550582886,-0.4873441159725189
1763693805776401700,1.310401611328125,0.42462852597236633,-0.5090482234954834,-0.773891806602478
1763693805786375400,1.32037548828125,0.5684349536895752,0.1491326242685318,-0.8834776282310486
1763693805796377900,1.3303779296875,0.6343462467193604,0.5431357026100159,-0.9367392659187317
1763693805806370800,1.340370849609375,0.6332810521125793,0.6368761658668518,-0.880281925201416
1763693805816372200,1.350372314453125,0.6780208349227905,0.8082455396652222,-0.7760222554206848
1763693805826406100,1.36040625,0.6737598776817322,0.7912018299102783,-0.6567161679267883
1763693805836411000,1.370410888671875,0.5886744260787964,0.5133091807365417,-0.40851685404777527
1763693805846385700,1.3803857421875,0.46404212713241577,0.7082468271255493,-0.1199718713760376
1763693805856387300,1.39038720703125,0.38308441638946533,1.6602988243103027,-0.04647079110145569
1763693805866425600,1.400425537109375,0.331953227519989,2.3046317100524902,-0.14873315393924713
1763693805876431000,1.41043115234375,0.3639102280139923,1.820083737373352,1.6681549549102783
1763693805886429700,1.4204296875,0.05818835273385048,0.19267402589321136,1.2208901643753052
1763693805896434400,1.430434326171875,0.2691044807434082,0.1395455300807953,1.2485862970352173
1763693805906415400,1.440415283203125,0.41504141688346863,0.22889193892478943,1.188933253288269
1763693805916417500,1.45041748046875,0.2158428430557251,-1.7220823764801025,-1.0358059406280518
1763693805926421000,1.4604208984375,0.5950657725334167,0.10332760214805603,0.2091851383447647
1763693805936423400,1.47042333984375,0.49919483065605164,-0.37922295928001404,0.45618605613708496
1763693805946458600,1.480458740234375,0.30638766288757324,-0.1928071826696396,0.41903603076934814
1763693805956464400,1.49046435546875,0.289343923330307,0.24060951173305511,0.3785571753978729
1763693805966475500,1.5004755859375,0.10612384229898453,0.6155715584754944,0.3380783200263977
1763693805976481800,1.510481689453125,0.05925358831882477,0.8657681345939636,0.30079516768455505
1763693805986488000,1.520488037109375,0.02623136341571808,0.8838770985603333,0.3135779798030853
1763693805996494000,1.530494140625,-0.37416309118270874,0.9680305123329163,0.15272778272628784
1763693806006482400,1.540482421875,-0.5659050345420837,1.2439258098602295,-0.10825430601835251
1763693806016487000,1.55048681640625,-0.5818835496902466,1.3366011381149292,-0.3627118468284607
1763693806026481200,1.560481201171875,-0.36031508445739746,1.4568393230438232,-0.6119763851165771
1763693806036484600,1.570484619140625,-0.06098458915948868,1.4749482870101929,-0.8227593302726746
1763693806046486800,1.58048681640625,0.15512455999851227,1.3461881875991821,-0.9292826652526855
1763693806056490200,1.590490234375,0.22329947352409363,1.2119688987731934,-0.9580439329147339
1763693806066525700,1.600525634765625,0.22116900980472565,1.0937280654907227,-0.964435338973999
1763693806086550000,1.620550048828125,0.13488513231277466,1.3589709997177124,-1.1391335725784302
1763693806096557600,1.6305576171875,-0.4018591642379761,1.4451217651367188,-1.0848066806793213
1763693806106550300,1.64055029296875,-0.5477960705757141,0.9595086574554443,-0.9942618608474731
1763693806116556500,1.650556640625,-0.6893389225006104,0.335415244102478,-0.7611089944839478
1763693806126561500,1.6605615234375,-0.6893389225006104,-0.10332760214805603,-0.36590754985809326
1763693806136567600,1.670567626953125,-0.5350132584571838,0.02343512699007988,-0.09653674066066742
1763693806146575400,1.680575439453125,-0.3038577139377594,0.4440690279006958,-0.04114462435245514
1763693806156581400,1.690581298828125,-0.10998530685901642,0.7593780159950256,-0.23594911396503448
1763693806166583000,1.7005830078125,-0.04500609636306763,0.9328778386116028,-0.6364767551422119
1763693806176588800,1.7105888671875,-0.0077229393646121025,1.255643367767334,-0.9250217080116272
1763693806186590000,1.72058984375,0.08588441461324692,1.8264751434326172,-0.9378045201301575
1763693806196595200,1.73059521484375,0.19986434280872345,2.329132080078125,-0.7270215153694153
1763693806206608100,1.740608154296875,0.2925396263599396,2.4537642002105713,-0.46390897035598755
1763693806216614100,1.7506142578125,0.2712349593639374,2.3919806480407715,-0.2135792225599289
1763693806226609400,1.760609375,0.02836182899773121,2.587850570678711,0.07496577501296997
1763693806236614400,1.770614501953125,-0.3145100474357605,3.078922986984253,0.47855594754219055
1763693806246620200,1.7806201171875,-0.5573831796646118,3.4739911556243896,0.9611064791679382
1763693806256625200,1.790625244140625,-0.6744256615638733,3.6817116737365723,1.4009145498275757
1763693806266659000,1.8006591796875,-0.6243597269058228,3.8871684074401855,1.6310049295425415
1763693806276667100,1.810667236328125,-0.48920828104019165,3.820058822631836,1.551112413406372
1763693806286654200,1.820654296875,-0.3986634612083435,2.7401788234710693,0.9845415949821472
1763693806296660000,1.830659912109375,-0.46896883845329285,1.5015790462493896,0.09840089827775955
1763693806306672600,1.840672607421875,-0.5520570278167725,1.2588391304016113,-0.567236602306366
1763693806316679200,1.85067919921875,-0.5499265193939209,1.420621395111084,-0.818498432636261
1763693806326691000,1.860691162109375,-0.45725128054618835,1.5111662149429321,-0.7876066565513611
1763693806336698000,1.870697998046875,-0.4647079110145569,1.6038414239883423,-0.6215634942054749
1763693806346680800,1.880680908203125,-0.5083824396133423,1.4429912567138672,-0.590671718120575
1763693806356685300,1.890685302734375,-0.3581846058368683,1.5559059381484985,-0.5065183043479919
1763693806366695000,1.90069482421875,-0.19520394504070282,1.8094314336776733,-0.3701684772968292
1763693806376700200,1.9107001953125,-0.08655018359422684,2.3451104164123535,-0.21890538930892944
1763693806386712800,1.920712890625,-0.06844121962785721,2.6890475749969482,-0.05286218971014023
1763693806396718600,1.930718505859375,-0.112115778028965,2.581592321395874,0.15379302203655243
1763693806406702000,1.9407021484375,-0.1877473145723343,2.5549614429473877,0.3593829870223999
1763693806416705500,1.95070556640625,-0.23674803972244263,2.8328540325164795,0.4232969582080841
1763693806426711600,1.960711669921875,-0.19200825691223145,3.16733717918396,0.33275216817855835
1763693806436715500,1.970715576171875,-0.16963836550712585,3.1918375492095947,0.3263607621192932
1763693806446727200,1.98072705078125,-0.21437814831733704,2.9958348274230957,0.2528596818447113
1763693806456732000,1.99073193359375,-0.3805544972419739,2.4068939685821533,0.08561810106039047
1763693806466757600,2.000757568359375,-0.6275554299354553,1.843518853187561,-0.10186290740966797
1763693806476764200,2.01076416015625,-0.7862751483917236,1.43446946144104,-0.27216702699661255
1763693806486766300,2.020766357421875,-0.7734923362731934,0.9818785190582275,-0.37655988335609436
1763693806496772400,2.0307724609375,-0.6765561103820801,0.6240934133529663,-0.41064733266830444
1763693806506778000,2.040778076171875,-0.5573831796646118,0.38761165738105774,-0.41171255707740784
1763693806516784400,2.050784423828125,-0.40718531608581543,0.17243459820747375,-0.4074516296386719
1763693806526760700,2.0607607421875,-0.2175738513469696,0.06497921794652939,-0.3818860352039337
1763693806536763600,2.070763671875,0.04114462435245514,0.05113118514418602,-0.26257994771003723
1763693806546804000,2.080803955078125,0.29680055379867554,0.24380521476268768,-0.09973244369029999
1763693806556810800,2.090810791015625,0.4736292362213135,0.3183715343475342,0.1452711522579193
1763693806566821400,2.1008212890625,0.6151720881462097,0.42809051275253296,0.3189041316509247
1763693806576828700,2.11082861328125,0.6599118709564209,0.5452661514282227,0.40731847286224365
1763693806586803700,2.1208037109375,0.6173025369644165,0.6677679419517517,0.4264926612377167
1763693806596807700,2.1308076171875,0.5567173957824707,0.8753552436828613,0.3689700961112976
1763693806606827000,2.140826904296875,0.5481955409049988,1.2481868267059326,0.262446790933609
1763693806616832500,2.15083251953125,0.5769568085670471,1.6581683158874512,0.12183602899312973
1763693806626847000,2.160846923828125,0.6694989800453186,1.9670859575271606,-0.0017310036346316338
1763693806636853500,2.170853515625,0.8196967840194702,2.0287363529205322,-0.08908011019229889
1763693806646848000,2.180847900390625,0.904915452003479,1.8243447542190552,-0.17629607021808624
1763693806656853200,2.190853271484375,0.9091764092445374,1.3865339756011963,-0.24766667187213898
1763693806666848800,2.200848876953125,0.8026530742645264,0.8657681345939636,-0.2018616646528244
1763693806676853000,2.21085302734375,0.5599130988121033,0.5250267386436462,-0.08908011019229889
1763693806686887200,2.22088720703125,0.33621418476104736,0.4547213613986969,0.04407401755452156
1763693806696894200,2.230894287109375,0.12742850184440613,0.6081148982048035,0.15166255831718445
1763693806706874400,2.240874267578125,0.1199718713760376,0.978682816028595,0.16338011622428894
1763693806716878800,2.25087890625,0.14553746581077576,1.5409927368164062,0.12396649271249771
1763693806726890200,2.26089013671875,0.17962491512298584,2.450568675994873,0.0025299284607172012
1763693806736895500,2.2708955078125,0.16897258162498474,3.346163272857666,-0.23914481699466705
1763693806746918400,2.28091845703125,-0.018375270068645477,3.4271209239959717,-0.47562655806541443
1763693806756925400,2.290925537109375,-0.3794892728328705,2.6837215423583984,-0.5161054134368896
1763693806766911200,2.3009111328125,-0.6286206245422363,1.958564043045044,-0.4596480429172516
1763693806776916000,2.310916015625,-0.7702966332435608,1.2247517108917236,-0.32542869448661804
1763693806786911700,2.320911865234375,-0.8576457500457764,0.7667014598846436,-0.14979839324951172
1763693806796915700,2.330915771484375,-0.9417991638183594,0.47283029556274414,0.05792204663157463
1763693806806921000,2.3409208984375,-0.9993217587471008,0.14487169682979584,0.2837514579296112
1763693806816925000,2.350925048828125,-1.006778359413147,0.3045234978199005,0.4211665093898773
1763693806826934000,2.36093408203125,-1.0035827159881592,0.6070496439933777,0.4137098789215088
1763693806836938500,2.3709384765625,-1.1196930408477783,0.7551170587539673,0.25712060928344727
1763693806846952700,2.38095263671875,-1.3134323358535767,0.8593767285346985,-0.015579032711684704
1763693806856958000,2.3909580078125,-1.3634982109069824,1.069227695465088,-0.394668847322464
1763693806866969300,2.40096923828125,-1.37947678565979,1.2545782327651978,-0.8781514763832092
1763693806876975600,2.4109755859375,-1.500913381576538,1.260969638824463,-1.4585703611373901
1763693806886969600,2.420969482421875,-1.5978494882583618,1.3419272899627686,-1.959229826927185
1763693806896974600,2.430974609375,-1.435934066772461,1.567623496055603,-2.1433820724487305
1763693806907001900,2.441001953125,-1.1814765930175781,1.657103180885315,-2.018749713897705
1763693806917009000,2.4510087890625,-1.0046478509902954,1.3653624057769775,-1.6812039613723755
1763693806926982400,2.460982421875,-0.8555153012275696,0.9509868025779724,-1.263765811920166
1763693806936985900,2.47098583984375,-0.6957303285598755,0.5932016372680664,-0.9196955561637878
1763693806947025000,2.48102490234375,-0.5477960705757141,0.34180665016174316,-0.7440652847290039
1763693806957032000,2.491031982421875,-0.49027350544929504,0.13634982705116272,-0.750456690788269
1763693806967034600,2.50103466796875,-0.5520570278167725,-0.05219641700387001,-0.8973256945610046
1763693806977041400,2.51104150390625,-0.6499252915382385,-0.2141118347644806,-1.1274160146713257
1763693806987014100,2.52101416015625,-0.6893389225006104,-0.3217003643512726,-1.3223536014556885
1763693806997017600,2.531017578125,-0.684012770652771,-0.4856131076812744,-1.3873329162597656
1763693807007030000,2.541030029296875,-0.645664393901825,-0.6858769059181213,-1.2999837398529053
1763693807017034000,2.551033935546875,-0.555252730846405,-0.8690969944000244,-1.1370030641555786
1763693807027063800,2.561063720703125,-0.4742949903011322,-1.034208059310913,-1.0176969766616821
1763693807037070600,2.571070556640625,-0.4210333526134491,-1.1203588247299194,-1.0283492803573608
1763693807047054000,2.58105419921875,-0.40505486726760864,-1.2013165950775146,-1.1902647018432617
1763693807057058300,2.591058349609375,-0.45618605613708496,-1.2524477243423462,-1.4532442092895508
1763693807067068400,2.601068359375,-0.5296871066093445,-1.316361665725708,-1.7493789196014404
1763693807077073400,2.611073486328125,-0.5648398399353027,-1.3781452178955078,-1.9624255895614624
1763693807087088400,2.62108837890625,-0.5808182954788208,-1.4069064855575562,-2.0443153381347656
1763693807097094100,2.63109423828125,-0.5627093315124512,-1.3547101020812988,-2.0368587970733643
1763693807107081200,2.641081298828125,-0.5275566577911377,-1.2172950506210327,-2.0219454765319824
1763693807117085400,2.65108544921875,-0.5211652517318726,-1.0501866340637207,-2.0389890670776367
1763693807127090700,2.661090576171875,-0.531817615032196,-0.8904016613960266,-2.0975770950317383
1763693807137095000,2.671094970703125,-0.5648398399353027,-0.8158353567123413,-2.1625561714172363
1763693807147106300,2.681106201171875,-0.6286206245422363,-0.8318138122558594,-2.1891870498657227
1763693807157111000,2.691111083984375,-0.6893389225006104,-0.8520532846450806,-2.1487081050872803
1763693807167116000,2.701115966796875,-0.7170349955558777,-0.8041177988052368,-2.0485763549804688
1763693807177120800,2.711120849609375,-0.7063826322555542,-0.6208977103233337,-1.92194664478302
1763693807187127800,2.7211279296875,-0.6999912261962891,-0.3323526978492737,-1.8090319633483887
1763693807197132800,2.7311328125,-0.6722952127456665,-0.02343512699007988,-1.7866621017456055
1763693807207139600,2.7411396484375,-0.5648398399353027,0.2864145338535309,-1.8910548686981201
1763693807217144600,2.75114453125,-0.37203264236450195,0.5197005867958069,-2.0815985202789307
1763693807227147500,2.7611474609375,-0.12170287221670151,0.611310601234436,-2.2701447010040283
1763693807237152500,2.771152587890625,0.1412765234708786,0.5207657814025879,-2.4054293632507324
1763693807247137000,2.781136962890625,0.40225863456726074,0.3055887222290039,-2.4554953575134277
1763693807257139700,2.7911396484375,0.6694989800453186,0.13102366030216217,-2.4150164127349854
1763693807267175200,2.801175048828125,0.9134373068809509,0.07776200771331787,-2.2978408336639404
1763693807277181400,2.811181396484375,1.106244444847107,0.10013190656900406,-2.1519038677215576
1763693807287208200,2.821208251953125,1.2179608345031738,0.16497796773910522,-1.9943825006484985
1763693807297216500,2.831216552734375,1.2360697984695435,0.2661750912666321,-1.8431193828582764
1763693807307185200,2.84118505859375,1.1637670993804932,0.3620460629463196,-1.7025086879730225
1763693807317189400,2.851189453125,1.043395757675171,0.4983958899974823,-1.583202600479126
1763693807327214300,2.86121435546875,0.9145025610923767,0.5793536305427551,-1.4958534240722656
1763693807337220900,2.871220947265625,0.7579132914543152,0.4451342523097992,-1.444722294807434
1763693807347222000,2.881221923828125,0.7089125514030457,0.37482887506484985,-1.3873329162597656
1763693807357228000,2.89122802734375,0.7845441102981567,0.2842840552330017,-1.3191579580307007
1763693807367220200,2.90122021484375,0.8686975240707397,0.33221954107284546,-1.2648310661315918
1763693807377224700,2.911224609375,0.8963935971260071,0.4856131076812744,-1.3021142482757568
1763693807387244300,2.921244384765625,0.9006544947624207,0.34393709897994995,-1.4138305187225342
1763693807397250300,2.931250244140625,0.9304810166358948,0.3183715343475342,-1.508636236190796
1763693807407263700,2.941263671875,0.9326115250587463,0.4962654411792755,-1.508636236190796
1763693807417270500,2.9512705078125,0.9198287129402161,0.6038539409637451,-1.4745488166809082
1763693807427265500,2.961265625,0.904915452003479,0.5516575574874878,-1.454309344291687
1763693807437271000,2.97127099609375,0.904915452003479,0.47069984674453735,-1.4159610271453857
1763693807447263000,2.981262939453125,0.9230244159698486,0.42702528834342957,-1.3724195957183838
1763693807457267200,2.99126708984375,0.9187634587287903,0.3726983964443207,-1.393591046333313
1763693807467295700,3.001295654296875,0.9059807062149048,0.29919731616973877,-1.4596354961395264
1763693807477302300,3.01130224609375,0.8729584813117981,0.14700216054916382,-1.5001144409179688
1763693807487310300,3.021310302734375,0.8857412338256836,0.15326039493083954,-1.6407251358032227
1763693807497317000,3.031317138671875,0.9219591617584229,0.26724034547805786,-1.950708031654358
1763693807507311900,3.041311767578125,0.9390029311180115,0.33328479528427124,-2.286123275756836
1763693807517317400,3.0513173828125,0.9784165620803833,0.232087641954422,-2.3905160427093506
1763693807527322000,3.061322021484375,1.0700265169143677,0.13315412402153015,-2.299971342086792
1763693807537327600,3.07132763671875,1.1552451848983765,0.12995843589305878,-2.2701447010040283
1763693807547319300,3.0813193359375,1.073222279548645,-0.12995843589305878,-2.234992027282715
1763693807557323500,3.091323486328125,0.8410014510154724,-0.5718969702720642,-2.0080974102020264
1763693807567324000,3.101323974609375,0.6418029069900513,-0.8797492980957031,-1.7238132953643799
1763693807577327600,3.11132763671875,0.5503259897232056,-1.0905323028564453,-1.4809402227401733
1763693807587348700,3.1213486328125,0.5673697590827942,-1.1704248189926147,-1.254178762435913
1763693807597354200,3.131354248046875,0.6279548406600952,-1.169359564781189,-0.9452611804008484
1763693807607342300,3.14134228515625,0.6098458766937256,-1.122489333152771,-0.47562655806541443
1763693807617346000,3.151345947265625,0.5162385702133179,-1.0224905014038086,0.11544463038444519
1763693807627366100,3.1613662109375,0.3521926701068878,-0.7391385436058044,0.578687846660614
1763693807637371400,3.171371337890625,0.19986434280872345,-0.17256775498390198,0.4849473237991333
1763693807647372000,3.1813720703125,0.07629731297492981,0.34180665016174316,-0.11038476973772049
1763693807657377000,3.191376953125,0.06457975506782532,0.4973306655883789,-0.6034545302391052
1763693807667375000,3.201375,0.1402112990617752,0.36524176597595215,-0.6631075739860535
1763693807677379300,3.21137939453125,0.1934729516506195,0.02663082629442215,-0.413843035697937
1763693807687394800,3.221394775390625,0.18708154559135437,-0.3089175820350647,-0.2114487588405609
1763693807697400300,3.231400390625,0.013448567129671574,-0.6081148982048035,-0.25831902027130127
1763693807707394800,3.241394775390625,-0.20372581481933594,-0.6400718688964844,-0.5970631241798401
1763693807717399000,3.25139892578125,-0.4093157947063446,-0.6997249722480774,-0.8888037800788879
1763693807727424800,3.2614248046875,-0.6138405203819275,-0.6858769059181213,-0.7451304793357849
1763693807737431000,3.27143115234375,-0.7809489369392395,-0.29506954550743103,-0.6556509137153625
1763693807747463400,3.28146337890625,-0.8725590109825134,0.11504516750574112,-0.7291520237922668
1763693807757472500,3.291472412109375,-0.9407339096069336,0.527157187461853,-0.8046503663063049
1763693807767435800,3.301435791015625,-1.2335398197174072,0.9126383662223816,-0.7536523938179016
1763693807777440500,3.3114404296875,-1.7107642889022827,1.239664912223816,-0.35738566517829895
1763693807787442400,3.3214423828125,-2.123941421508789,1.497318148612976,0.35192635655403137
1763693807797446700,3.33144677734375,-2.352966547012329,1.6581683158874512,1.0664314031600952
1763693807807463000,3.341462890625,-2.6606857776641846,1.7625612020492554,1.5244816541671753
1763693807817468400,3.351468505859375,-3.2986271381378174,1.6560379266738892,1.6937204599380493
1763693807827472100,3.36147216796875,-3.726717710494995,1.5218185186386108,1.7310036420822144
1763693807837477400,3.371477294921875,-3.9365687370300293,1.6698858737945557,1.5809389352798462
1763693807847481600,3.381481689453125,-3.5180652141571045,1.7774744033813477,0.9568455815315247
1763693807857486800,3.39148681640625,-2.1324634552001953,1.2194255590438843,0.013182258233428001
1763693807867483000,3.40148291015625,-1.442325472831726,1.1043803691864014,0.08135717362165451
1763693807877487000,3.411487060546875,-2.067484140396118,1.2961223125457764,0.34553495049476624
1763693807887496700,3.42149658203125,-2.975994825363159,1.811561942100525,0.29120808839797974
1763693807897501700,3.431501708984375,-3.6745212078094482,2.239652395248413,0.04300878196954727
1763693807907532300,3.4415322265625,-4.1975507736206055,2.3791980743408203,-0.2252967804670334
1763693807917539600,3.45153955078125,-4.422181606292725,2.351501941680908,-0.4447347819805145
1763693807927548000,3.4615478515625,-4.021787166595459,2.435655355453491,-0.47349607944488525
1763693807937555500,3.471555419921875,-3.2048866748809814,2.2886531352996826,-0.18375270068645477
1763693807947532000,3.481531982421875,-2.409423828125,1.8445841073989868,0.06324820965528488
1763693807957536500,3.49153662109375,-1.7757434844970703,1.383338212966919,-0.01877473294734955
1763693807967553800,3.5015537109375,-1.4583040475845337,0.8338111639022827,-0.2902759909629822
1763693807977559300,3.511559326171875,-1.395455241203308,0.24593567848205566,-0.45325663685798645
1763693807987587600,3.521587646484375,-1.6223498582839966,-0.13315412402153015,-0.413843035697937
1763693807997595400,3.531595458984375,-1.9790698289871216,-0.4133104085922241,-0.21784014999866486
1763693808007554300,3.54155419921875,-2.3657493591308594,-0.49200451374053955,0.015312724746763706
1763693808017557200,3.55155712890625,-2.733121633529663,-0.37602725625038147,0.30292564630508423
1763693808027607800,3.56160791015625,-3.1952996253967285,-0.19919857382774353,0.7288857102394104
1763693808037615600,3.57161572265625,-3.694760799407959,-0.15445879101753235,1.2070422172546387
1763693808047599900,3.581599853515625,-3.765066146850586,0.1065233051776886,1.3732185363769531
1763693808057605000,3.591605224609375,-3.581979274749756,0.44939517974853516,1.2389991283416748
1763693808067608600,3.601608642578125,-3.296496629714966,0.633680522441864,0.9760197401046753
1763693808077613800,3.61161376953125,-2.9216678142547607,0.43980807065963745,0.5627093315124512
1763693808087606500,3.6216064453125,-2.573336601257324,-0.05965305119752884,-0.0667102187871933
1763693808097610500,3.631610595703125,-2.228334426879883,-0.7199643850326538,-0.75152188539505
1763693808107620400,3.641620361328125,-1.6990467309951782,-1.421819806098938,-1.4766793251037598
1763693808117624800,3.651624755859375,-1.0238220691680908,-1.6933209896087646,-1.9112943410873413
1763693808127628800,3.66162890625,-0.06844121962785721,-3.5272529125213623,-1.0762847661972046
1763693808137633300,3.67163330078125,1.0923964977264404,-2.53898286819458,-0.1306242048740387
1763693808147657700,3.68165771484375,1.3223536014556885,-0.7934654355049133,-0.11571093648672104
1763693808157664300,3.691664306640625,1.0817441940307617,-0.0213046595454216,-0.0038614696823060513
1763693808167655200,3.7016552734375,0.8740236759185791,0.4461994767189026,0.18042384088039398
1763693808177660200,3.71166015625,0.9411333799362183,0.28854498267173767,0.45725128054618835
1763693808187670000,3.721669921875,1.1286144256591797,0.1777607649564743,0.7821473479270935
1763693808197675500,3.731675537109375,1.1403319835662842,-0.0010652330238372087,1.1740199327468872
1763693808207693600,3.741693603515625,0.9358072280883789,-0.484547883272171,1.6278091669082642
1763693808217700400,3.751700439453125,0.6993255019187927,-0.9820116758346558,1.94831120967865
1763693808227682800,3.761682861328125,0.4075847864151001,-1.4729509353637695,2.048443078994751
1763693808237687000,3.77168701171875,0.08055824786424637,-1.7252780199050903,1.9206151962280273
1763693808247731500,3.7817314453125,-0.16750788688659668,-1.7689526081085205,1.5841346979141235
1763693808257739800,3.79173974609375,-0.2410089671611786,-1.4207545518875122,1.2166292667388916
1763693808267721700,3.8017216796875,0.01983996480703354,-0.6294195652008057,1.1111712455749512
1763693808277727200,3.811727294921875,0.2808220684528351,-0.44100648164749146,1.3913275003433228
1763693808287735000,3.821735107421875,0.20838621258735657,-0.4378107786178589,2.039921283721924
1763693808297740800,3.83174072265625,0.03155753016471863,-0.17682868242263794,2.9365811347961426
1763693808307744800,3.841744873046875,-0.30811864137649536,-0.3280917704105377,3.767329692840576
1763693808317750500,3.85175048828125,-0.5882749557495117,-0.6358109712600708,4.194355010986328
1763693808327722800,3.86172265625,-0.792666494846344,-1.2641652822494507,4.1741156578063965
1763693808337725000,3.871724853515625,-0.9726908802986145,-2.0544350147247314,3.609675168991089
1763693808347765800,3.881765869140625,-0.9694951772689819,-2.4292638301849365,2.4573593139648438
1763693808357771800,3.891771728515625,-0.5691007375717163,-2.1993067264556885,0.9280842542648315
1763693808367746800,3.901746826171875,0.10505861043930054,-1.7487131357192993,-0.30305880308151245
1763693808377749800,3.911749755859375,0.690803587436676,-1.3152965307235718,-0.7579132914543152
1763693808387780900,3.92178076171875,0.950720489025116,-1.0576432943344116,-0.6545857191085815
1763693808397786600,3.93178662109375,0.9549813866615295,-1.0947932004928589,-0.3499290347099304
1763693808407767800,3.941767822265625,0.8910674452781677,-1.2897309064865112,-0.04114462435245514
1763693808417771000,3.95177099609375,0.8175663352012634,-1.400515079498291,0.10798799991607666
1763693808427796000,3.9617958984375,0.7046516537666321,-1.4399287700653076,0.05472634732723236
1763693808437801500,3.971801513671875,0.6087806820869446,-1.5933222770690918,-0.08268871158361435
1763693808447829800,3.981829833984375,0.59293532371521,-1.7188866138458252,-0.27323228120803833
1763693808457837600,3.991837646484375,0.6769555807113647,-1.6975820064544678,-0.5608451962471008
1763693808467820500,4.001820556640625,0.8143706321716309,-1.6625624895095825,-0.8014547228813171
1763693808477825800,4.01182568359375,0.6641727685928345,-1.7082343101501465,-0.6599118709564209
1763693808487831800,4.021831787109375,0.26484355330467224,-1.6741468906402588,-0.18694838881492615
1763693808497837000,4.031837158203125,0.05073172226548195,-1.599713683128357,0.14420592784881592
1763693808507841300,4.04184130859375,-0.22076953947544098,-1.911693811416626,0.08455286920070648
1763693808517846500,4.051846435546875,-0.7063826322555542,-2.4622862339019775,-0.2796236574649811
1763693808527858400,4.0618583984375,-1.044061541557312,-2.474003791809082,-0.7078473567962646
1763693808537864200,4.0718642578125,-1.2282136678695679,-1.972412109375,-1.0400668382644653
1763693808547866000,4.0818662109375,-1.2292789220809937,-1.6391273736953735,-1.3266146183013916
1763693808557871600,4.09187158203125,-1.0270178318023682,-1.5379301309585571,-1.4788097143173218
1763693808567888600,4.101888671875,-0.6882736682891846,-1.3781452178955078,-1.2861356735229492
1763693808577895400,4.1118955078125,-0.22609570622444153,-1.292926549911499,-0.6045197248458862
1763693808587887000,4.12188720703125,0.27443066239356995,-1.3504492044448853,0.5339480638504028
1763693808597892400,4.131892333984375,0.5854787230491638,-1.3898627758026123,1.9429850578308105
1763693808607929900,4.141929931640625,0.6396724581718445,-1.361101508140564,2.912080764770508
1763693808617938200,4.151938232421875,0.46617260575294495,-1.4899946451187134,2.995168924331665
1763693808627936500,4.1619365234375,-0.03328853100538254,-1.0884017944335938,2.2337937355041504
1763693808637943800,4.17194384765625,-0.6861432194709778,-0.3430050313472748,1.4190235137939453
1763693808647931600,4.181931640625,-1.1857374906539917,-0.02556559257209301,1.2624342441558838
1763693808657937200,4.191937255859375,-1.6905248165130615,0.06710968166589737,1.6469833850860596
1763693808667942400,4.2019423828125,-2.044049024581909,0.5889406800270081,2.0505735874176025
1763693808677948000,4.211947998046875,-2.4317939281463623,0.9158340692520142,1.7853305339813232
1763693808687947800,4.22194775390625,-3.1399075984954834,0.8231588006019592,1.0388685464859009
1763693808697952500,4.231952392578125,-3.7075436115264893,0.8316806554794312,0.04087831825017929
1763693808707952000,4.2419521484375,-4.034570217132568,1.175750970840454,-0.713173508644104
1763693808717956600,4.25195654296875,-4.2922234535217285,1.0702928304672241,-1.2978532314300537
1763693808727967500,4.261967529296875,-4.095288276672363,0.4035901725292206,-1.8835983276367188
1763693808737972500,4.271972412109375,-3.713934898376465,0.02982652559876442,-2.3255367279052734
1763693808748002600,4.28200244140625,-3.4189984798431396,-0.2876129150390625,-2.6439082622528076
1763693808758010000,4.292010009765625,-3.35188889503479,-0.8477923274040222,-2.7280616760253906
1763693808768001300,4.302001220703125,-3.267735481262207,-1.2023817300796509,-2.6598868370056152
1763693808778007000,4.312007080078125,-2.9184722900390625,-1.2194255590438843,-2.660952091217041
1763693808788025000,4.322025146484375,-2.4913136959075928,-0.9170324802398682,-2.560953378677368
1763693808798032100,4.3320322265625,-1.9556347131729126,-0.40159285068511963,-2.345776319503784
1763693808807988000,4.341988037109375,-1.2931928634643555,-0.13315412402153015,-2.13592529296875
1763693808817989600,4.35198974609375,-0.5648398399353027,-0.03834838792681694,-2.1305992603302
1763693808828003600,4.362003662109375,0.11038476973772049,-0.23222079873085022,-2.342580556869507
1763693808838006500,4.372006591796875,0.735543429851532,-0.45165881514549255,-2.7802581787109375
1763693808848057900,4.382057861328125,1.2658963203430176,-0.47069984674453735,-3.3244590759277344
1763693808858065700,4.392065673828125,1.6291407346725464,0.10758853703737259,-3.672790288925171
1763693808868045800,4.4020458984375,1.7463164329528809,0.8785509467124939,-3.9272477626800537
1763693808878051000,4.412051025390625,1.7889257669448853,1.4919919967651367,-3.9996836185455322
1763693808888040400,4.42204052734375,1.7612296342849731,2.038323402404785,-4.062532424926758
1763693808898044000,4.4320439453125,1.506639003753662,2.5038301944732666,-4.000749111175537
1763693808908057600,4.4420576171875,0.8931978940963745,2.479329824447632,-3.3809163570404053
1763693808918062000,4.45206201171875,0.11464570462703705,2.179999351501465,-2.580127477645874
1763693808928095200,4.46209521484375,-0.555252730846405,1.7306041717529297,-1.9624255895614624
1763693808938102800,4.472102783203125,-1.0238220691680908,1.3993167877197266,-1.8335323333740234
1763693808948061700,4.482061767578125,-1.0557790994644165,1.1363372802734375,-1.999708652496338
1763693808958064000,4.492064208984375,-0.7777532339096069,0.9808133244514465,-2.0762722492218018
1763693808968093000,4.502093017578125,-0.6627081036567688,1.0873366594314575,-1.828206181526184
1763693808978098200,4.51209814453125,-0.7266221046447754,1.4568393230438232,-1.6684212684631348
1763693808988130300,4.52213037109375,-0.6786866188049316,1.537796974182129,-1.5331366062164307
1763693808998138400,4.532138427734375,-0.6477948427200317,1.3632320165634155,-1.407439112663269
1763693809008142600,4.542142578125,-0.6563166975975037,1.1640334129333496,-1.2690919637680054
1763693809018150100,4.552150146484375,-0.6967955231666565,1.0202269554138184,-1.1529816389083862
1763693809028143900,4.562143798828125,-0.722361147403717,0.7741581201553345,-1.179612398147583
1763693809038150100,4.572150146484375,-0.6350120306015015,0.37589409947395325,-1.4095696210861206
1763693809048139300,4.58213916015625,-0.44872942566871643,0.06924014538526535,-1.7163567543029785
1763693809058143700,4.592143798828125,-0.25698745250701904,0.14061075448989868,-1.8431193828582764
1763693809068169200,4.602169189453125,-0.1760297566652298,0.4685693681240082,-1.6567037105560303
1763693809078175700,4.61217578125,-0.1983996480703354,0.6315500140190125,-1.2158303260803223
1763693809088187400,4.6221875,-0.3017272651195526,0.534613847732544,-0.8025199174880981
1763693809098194400,4.6321943359375,-0.36138030886650085,0.3183715343475342,-0.5619103908538818
1763693809108158200,4.642158203125,-0.30811864137649536,0.1278279572725296,-0.2796236574649811
1763693809118160600,4.65216064453125,-0.24740037322044373,0.13528458774089813,0.16124965250492096
1763693809128199000,4.662198974609375,-0.1749645173549652,0.3045234978199005,0.6415365934371948
1763693809138205200,4.672205078125,-0.05033225938677788,0.48348262906074524,1.1452586650848389
1763693809148186000,4.68218603515625,0.1306242048740387,0.5410051941871643,1.711829423904419
1763693809158189800,4.69218994140625,0.3948020040988922,0.447264701128006,2.3465752601623535
1763693809168209200,4.702209228515625,0.6822817325592041,0.16391272842884064,2.8865151405334473
1763693809178214400,4.71221435546875,0.9347419738769531,-0.45898228883743286,3.036713123321533
1763693809188211700,4.722211669921875,1.1840064525604248,-1.1278154850006104,3.0761265754699707
1763693809198216000,4.7322158203125,1.4405945539474487,-1.5496476888656616,3.3669352531433105
1763693809208242400,4.742242431640625,1.5822705030441284,-2.0405869483947754,3.837635040283203
1763693809218249000,4.7522490234375,1.5364655256271362,-2.591179370880127,3.9377670288085938
1763693809228232200,4.762232177734375,1.4448554515838623,-2.534722089767456,3.787569284439087
1763693809238236400,4.772236328125,1.3564411401748657,-1.9574987888336182,3.7055461406707764
1763693809248259300,4.78225927734375,1.294657588005066,-1.1842727661132812,3.9494845867156982
1763693809258265300,4.792265380859375,1.331940770149231,-0.3941362202167511,4.380770683288574
1763693809268269300,4.802269287109375,1.4278117418289185,0.35352420806884766,4.615121841430664
1763693809278275000,4.812275146484375,1.4618991613388062,1.0330097675323486,4.519250869750977
1763693809288288500,4.82228857421875,1.4757472276687622,1.5697540044784546,4.152811050415039
1763693809298295300,4.83229541015625,1.492790937423706,2.099041700363159,3.7225899696350098
1763693809308273000,4.84227294921875,1.3756152391433716,2.70396089553833,3.4383058547973633
1763693809318276600,4.852276611328125,1.0156997442245483,2.873332977294922,3.3285868167877197
1763693809328320500,4.862320556640625,0.758978545665741,2.113955020904541,3.3392391204833984
1763693809338328000,4.872328125,0.675890326499939,0.7997236847877502,3.4564149379730225
1763693809348276700,4.88227685546875,0.6247591972351074,-0.5207657814025879,3.6480236053466797
1763693809358278400,4.8922783203125,0.5822830200195312,-1.431406855583191,3.875983476638794
1763693809368326000,4.902325927734375,0.507716715335846,-1.8850629329681396,3.922853708267212
1763693809378332400,4.91233251953125,0.4097152650356293,-2.001173496246338,3.5830445289611816
1763693809388308700,4.922308837890625,0.3298227787017822,-2.172675848007202,2.971733808517456
1763693809398312200,4.932312255859375,0.2382127344608307,-2.614614486694336,2.3188791275024414
1763693809408345900,4.942345947265625,0.14340700209140778,-3.1609458923339844,1.718220829963684
1763693809418352400,4.952352294921875,0.08162347972393036,-3.701951026916504,1.1623023748397827
1763693809428350500,4.9623505859375,0.08055824786424637,-3.958672285079956,0.5808182954788208
1763693809438356000,4.97235595703125,0.1402112990617752,-3.7232556343078613,-0.013448567129671574
1763693809448377900,4.9823779296875,0.28508299589157104,-3.1918375492095947,-0.5778889060020447
1763693809458385200,4.99238525390625,0.4406070113182068,-2.711550712585449,-1.1156984567642212
1763693809468371200,5.00237109375,0.5396736860275269,-2.2738730907440186,-1.6801388263702393
1763693809478376200,5.012376220703125,0.5620435476303101,-1.7391260862350464,-2.355363368988037
1763693809488402400,5.02240234375,0.43315038084983826,-0.994794487953186,-3.034848928451538
1763693809498409500,5.032409423828125,0.11784140020608902,-0.2023942768573761,-3.5247228145599365
1763693809508405200,5.0424052734375,-0.29746630787849426,0.45898228883743286,-3.7079429626464844
1763693809518411000,5.052410888671875,-0.6712299585342407,1.068162441253662,-3.6280505657196045
1763693809528384300,5.06238427734375,-0.8896027207374573,1.686929702758789,-3.3468289375305176
1763693809538386700,5.07238671875,-0.8640371561050415,2.2481741905212402,-2.8835856914520264
1763693809548404500,5.082404541015625,-0.5797531008720398,2.5931766033172607,-2.2307310104370117
1763693809558408400,5.092408447265625,-0.17176882922649384,2.5899808406829834,-1.4191566705703735
1763693809568426200,5.10242626953125,0.2669740319252014,2.4164810180664062,-0.5310186743736267
1763693809578431700,5.112431640625,0.6844122409820557,2.250304698944092,0.25605538487434387
1763693809588435500,5.122435546875,0.9443290829658508,1.8903892040252686,0.7991910576820374
1763693809598440700,5.132440673828125,1.0508524179458618,1.5953196287155151,1.0047810077667236
1763693809608433200,5.14243310546875,1.1211577653884888,1.680538296699524,1.083475112915039
1763693809618437400,5.152437255859375,1.3159621953964233,2.4164810180664062,1.2539124488830566
1763693809628465700,5.162465576171875,1.5332697629928589,3.0842490196228027,1.1633676290512085
1763693809638472200,5.17247216796875,1.2914619445800781,1.9319332838058472,0.7842777967453003
1763693809648484900,5.18248486328125,0.4256937503814697,-0.5324833393096924,1.0122376680374146
1763693809658492200,5.1924921875,-0.7181001901626587,-2.414350748062134,1.8226137161254883
1763693809668492300,5.2024921875,-1.1708242893218994,-1.6114312410354614,1.6969162225723267
1763693809678498600,5.21249853515625,-0.8310149312019348,0.09800143539905548,0.709711492061615
1763693809688483600,5.222483642578125,-0.2612484097480774,1.3515143394470215,-0.46071329712867737
1763693809698488000,5.232488037109375,0.33940985798835754,2.183195114135742,-1.6279423236846924
1763693809708487000,5.24248681640625,0.6620423197746277,2.2705442905426025,-2.6396474838256836
1763693809718490600,5.25249072265625,0.5439345836639404,1.5005139112472534,-3.208481788635254
1763693809728504800,5.2625048828125,0.004926702938973904,0.40572062134742737,-3.1168718338012695
1763693809738509600,5.272509521484375,-0.9045159816741943,-0.5197005867958069,-2.472538948059082
1763693809748517400,5.282517333984375,-1.9875916242599487,-1.1160979270935059,-1.7035739421844482
1763693809758522400,5.2925224609375,-2.6745338439941406,-1.1768162250518799,-1.512897253036499
1763693809768535800,5.302535888671875,-2.5573582649230957,-0.7146382331848145,-2.004901647567749
1763693809778541600,5.31254150390625,-1.6479154825210571,0.09906667470932007,-2.6353864669799805
1763693809788564200,5.322564208984375,-0.43488138914108276,0.5442008972167969,-3.3415029048919678
1763693809798571800,5.33257177734375,0.12423279881477356,0.6762897968292236,-4.066793441772461
1763693809808544000,5.3425439453125,0.08268871158361435,0.778419017791748,-4.3725152015686035
1763693809818548000,5.3525478515625,-0.19413872063159943,1.099054217338562,-4.054010391235352
1763693809828581400,5.362581298828125,-0.45618605613708496,1.3600362539291382,-3.3201982975006104
1763693809838588400,5.37258837890625,-0.5882749557495117,1.2993179559707642,-2.5961060523986816
1763693809848541200,5.382541259765625,-0.6085143685340881,0.6283543109893799,-2.2499053478240967
1763693809858542600,5.39254248046875,-0.5701659917831421,-0.1928071826696396,-2.196643590927124
1763693809868583000,5.4025830078125,-0.5435351729393005,-0.6272891163825989,-2.155099630355835
1763693809878588400,5.41258837890625,-0.6149057745933533,-0.5431357026100159,-1.959229826927185
1763693809888607200,5.422607177734375,-0.7170349955558777,-0.21624229848384857,-1.6258119344711304
1763693809898614000,5.432614013671875,-0.7947970032691956,0.1575213372707367,-1.32448410987854
1763693809908630800,5.442630859375,-0.8352758288383484,0.5015916228294373,-1.1146332025527954
1763693809918638600,5.452638671875,-0.8693633079528809,0.7848104238510132,-0.9218260049819946
1763693809928620300,5.462620361328125,-0.9343425035476685,0.8998556137084961,-0.6279548406600952
1763693809938625300,5.472625244140625,-1.0323439836502075,0.8689638376235962,-0.264710396528244
1763693809948647400,5.4826474609375,-1.0110392570495605,0.7295514941215515,0.07496577501296997
1763693809958654200,5.492654296875,-0.7500572204589844,0.5410051941871643,0.433816134929657
1763693809968629800,5.502629638671875,-0.3145100474357605,0.4461994767189026,0.9227581024169922
1763693809978633500,5.512633544921875,0.13488513231277466,0.297066867351532,1.4808070659637451
1763693809988663800,5.522663818359375,0.4065195620059967,-0.3089175820350647,2.0143556594848633
1763693809998670000,5.532670166015625,0.43208515644073486,-1.2961223125457764,2.4903817176818848
1763693810008671200,5.542671142578125,0.40012815594673157,-2.225937604904175,2.9376463890075684
1763693810018677000,5.552677001953125,0.5375432372093201,-2.848965644836426,3.4233925342559814
1763693810028680000,5.562679931640625,0.8921326398849487,-3.1779894828796387,3.992093801498413
1763693810038685400,5.572685546875,1.369223952293396,-3.3761229515075684,4.537360191345215
1763693810048705000,5.582705078125,1.8367280960083008,-3.434710741043091,4.697011947631836
1763693810058711800,5.5927119140625,2.2223424911499023,-3.208881378173828,4.109136581420898
1763693810068710700,5.602710693359375,2.566279411315918,-1.827540397644043,3.591566324234009
1763693810078717000,5.612717041015625,2.4693431854248047,0.8029193878173828,3.3115432262420654
1763693810088712000,5.6227119140625,2.153102159500122,2.9159421920776367,3.0729310512542725
1763693810098717000,5.632717041015625,2.187189817428589,3.5964930057525635,2.9174070358276367
1763693810108733400,5.6427333984375,2.219146728515625,3.2641403675079346,2.742841958999634
1763693810118739700,5.65273974609375,2.1413846015930176,2.4047634601593018,2.606492042541504
1763693810128699000,5.662698974609375,1.9102290868759155,1.3918601274490356,2.554295539855957
1763693810138700300,5.6727001953125,1.5417916774749756,0.4248948097229004,2.5713393688201904
1763693810148731400,5.6827314453125,1.026352047920227,-0.6081148982048035,2.6256661415100098
1763693810158736000,5.69273583984375,0.3745625615119934,-1.7210171222686768,2.544708490371704
1763693810168754400,5.70275439453125,0.0017310036346316338,-2.567744255065918,2.282661199569702
1763693810178760200,5.71276025390625,0.05818835273385048,-2.7669427394866943,1.9429850578308105
1763693810188768300,5.722768310546875,0.2669740319252014,-2.740311861038208,1.4765461683273315
1763693810198774300,5.732774169921875,0.4363460838794708,-2.847900390625,0.9206276535987854
1763693810208777000,5.74277685546875,0.5013253092765808,-3.068270683288574,0.3178389072418213
1763693810218782700,5.75278271484375,0.44273748993873596,-3.186511516571045,-0.34353765845298767
1763693810228771300,5.762771240234375,0.28401774168014526,-3.0799882411956787,-0.9953271150588989
1763693810238775300,5.772775390625,0.12742850184440613,-2.5741355419158936,-1.5608327388763428
1763693810248799200,5.78279931640625,-0.05778888985514641,-1.833931803703308,-2.0389890670776367
1763693810258805200,5.79280517578125,-0.31983622908592224,-0.9905335307121277,-2.393711805343628
1763693810268812500,5.8028125,-0.5946663618087769,-0.11824086308479309,-2.6172776222229004
1763693810278818600,5.812818603515625,-0.7564486265182495,0.7540518045425415,-2.8164761066436768
1763693810288840200,5.822840087890625,-0.7947970032691956,1.3907948732376099,-2.9996962547302246
1763693810298847700,5.83284765625,-0.754318118095398,1.757235050201416,-3.1019585132598877
1763693810308834600,5.84283447265625,-0.7117088437080383,1.9553683996200562,-3.0508272647857666
1763693810318840000,5.852840087890625,-0.7660356760025024,1.9596292972564697,-2.7344532012939453
1763693810328854300,5.862854248046875,-0.9354077577590942,1.659233570098877,-2.033663034439087
1763693810338860500,5.872860595703125,-1.0568443536758423,1.3642971515655518,-0.8696296215057373
1763693810348866800,5.88286669921875,-1.0781489610671997,0.9126383662223816,0.6426018476486206
1763693810358873000,5.892873046875,-0.8597761988639832,0.6848116517066956,1.8396574258804321
1763693810368863000,5.902863037109375,-0.09400681406259537,2.095845937728882,1.9515068531036377
1763693810378867700,5.91286767578125,1.1232882738113403,4.573045253753662,0.9259538054466248
1763693810388857600,5.922857666015625,2.1925158500671387,5.427228927612305,-0.4926702678203583
1763693810398860500,5.932860595703125,2.542844295501709,3.0000956058502197,-1.5033100843429565
1763693810408905200,5.9429052734375,2.4140844345092773,-0.16724158823490143,-1.1902647018432617
1763693810418912500,5.95291259765625,2.022078514099121,-1.7657568454742432,-0.3073197305202484
1763693810428899000,5.962899169921875,1.0934617519378662,-1.749778389930725,0.3071865737438202
1763693810438904300,5.972904296875,-0.11637670546770096,-0.5623098611831665,0.7927996516227722
1763693810448916500,5.98291650390625,-0.5030562877655029,0.32156720757484436,0.8428656458854675
1763693810458922500,5.992922607421875,-0.3901416063308716,0.633680522441864,0.11544463038444519
1763693810468936700,6.002936767578125,-0.13874660432338715,1.3259488344192505,-1.0571106672286987
1763693810478943500,6.012943603515625,0.03901416063308716,1.8871934413909912,-2.19770884513855
1763693810488914200,6.0229140625,-0.05565842613577843,1.5324708223342896,-2.9943699836730957
1763693810498917400,6.03291748046875,-0.44659894704818726,0.44087332487106323,-3.100893259048462
1763693810508946000,6.04294580078125,-1.1324758529663086,-0.764704167842865,-2.603562593460083
1763693810518951700,6.05295166015625,-2.0046353340148926,-1.8094314336776733,-1.8846635818481445
1763693810528937500,6.0629375,-2.6617510318756104,-2.005434274673462,-1.4628312587738037
1763693810538941000,6.07294091796875,-2.7981009483337402,-1.3291444778442383,-1.8090319633483887
1763693810548961800,6.0829619140625,-2.2475085258483887,-0.47176507115364075,-2.7621493339538574
1763693810558967300,6.09296728515625,-1.3624330759048462,0.5772231221199036,-3.8963561058044434
1763693810568969500,6.102969482421875,-0.769231379032135,1.537796974182129,-4.651473045349121
1763693810578974500,6.112974365234375,-0.5147738456726074,1.9670859575271606,-4.539623737335205
1763693810589000400,6.12300048828125,-0.4284899830818176,1.7369955778121948,-3.606745958328247
1763693810599007500,6.133007568359375,-0.3432713449001312,0.9019860625267029,-2.533257246017456
1763693810608996000,6.14299609375,-0.23461757600307465,0.14593692123889923,-1.8441846370697021
1763693810619001300,6.15300146484375,-0.16111649572849274,0.03728315606713295,-1.5011796951293945
1763693810628992800,6.16299267578125,-0.21331290900707245,0.1585865616798401,-1.2595049142837524
1763693810638996500,6.17299658203125,-0.41677242517471313,0.17349982261657715,-1.001718521118164
1763693810649007400,6.18300732421875,-0.7106435894966125,0.18628261983394623,-0.7025212049484253
1763693810659011800,6.19301171875,-1.014235019683838,0.19480448961257935,-0.2998631000518799
1763693810669046000,6.2030458984375,-1.250583529472351,0.14487169682979584,0.18681524693965912
1763693810679053600,6.213053466796875,-1.2974538803100586,0.13528458774089813,0.6564498543739319
1763693810689020700,6.223020751953125,-1.1399325132369995,0.1288931965827942,0.939801812171936
1763693810699024000,6.23302392578125,-0.7639052271842957,0.05752258375287056,1.0346075296401978
1763693810709038300,6.243038330078125,-0.2090519815683365,0.01491326279938221,1.1708242893218994
1763693810719043000,6.25304296875,0.32769230008125305,-0.05858781561255455,1.535133957862854
1763693810729070000,6.263070068359375,0.6577813625335693,-0.4568518102169037,2.0282037258148193
1763693810739076900,6.273076904296875,0.7621742486953735,-1.155511498451233,2.461620330810547
1763693810749057300,6.283057373046875,0.7493914365768433,-1.9479117393493652,2.8195385932922363
1763693810759061200,6.293061279296875,0.7877398133277893,-2.5741355419158936,3.178389072418213
1763693810769077800,6.303077880859375,0.9208939671516418,-2.9084856510162354,3.5660006999969482
1763693810779083300,6.313083251953125,1.1818760633468628,-3.008617639541626,3.965463161468506
1763693810789085200,6.323085205078125,1.5172913074493408,-2.914876937866211,4.2721171379089355
1763693810799090200,6.333090087890625,1.7814691066741943,-2.7371163368225098,4.3818359375
1763693810809123600,6.34312353515625,1.9389903545379639,-2.257894515991211,4.015529155731201
1763693810819131400,6.35313134765625,2.026339530944824,-0.7966611385345459,3.4319145679473877
1763693810829103400,6.363103271484375,1.8527065515518188,1.565493106842041,3.0111474990844727
1763693810839107600,6.373107666015625,1.4885300397872925,3.1980957984924316,2.826995372772217
1763693810849142300,6.383142333984375,1.3021142482757568,3.27053165435791,2.780125141143799
1763693810859149600,6.393149658203125,1.194658875465393,2.1523032188415527,2.7758641242980957
1763693810869166000,6.403166015625,0.9933298230171204,0.8487244248390198,2.75669002532959
1763693810879174400,6.41317431640625,0.675890326499939,-0.0021304660476744175,2.750298500061035
1763693810889135600,6.423135498046875,0.3340837061405182,-0.5900059342384338,2.653362274169922
1763693810899139000,6.43313916015625,0.08055824786424637,-1.0947932004928589,2.438185214996338
1763693810909169200,6.443169189453125,-0.0003994623839389533,-1.4931904077529907,2.091052532196045
1763693810919175200,6.453175048828125,0.16045072674751282,-1.6093007326126099,1.6766767501831055
1763693810929153000,6.463153076171875,0.3639102280139923,-1.7263432741165161,1.2006508111953735
1763693810939156200,6.47315625,0.461911678314209,-2.0309998989105225,0.7182333469390869
1763693810949175800,6.48317578125,0.5215647220611572,-2.4569599628448486,0.2645772397518158
1763693810959180800,6.493180908203125,0.5418041348457336,-2.7807908058166504,-0.1816222369670868
1763693810969201400,6.503201416015625,0.4736292362213135,-2.919137954711914,-0.6439333558082581
1763693810979208000,6.5132080078125,0.3223661482334137,-2.7008984088897705,-1.1274160146713257
1763693810989209900,6.5232099609375,0.09227581322193146,-2.131131887435913,-1.620485782623291
1763693810999215900,6.5332158203125,-0.218639075756073,-1.3429925441741943,-2.061359167098999
1763693811009195800,6.54319580078125,-0.6222292184829712,-0.5260919332504272,-2.388385534286499
1763693811019199000,6.553198974609375,-1.0110392570495605,0.2981320917606354,-2.608888864517212
1763693811029232000,6.563232177734375,-1.244192123413086,1.0394011735916138,-2.7429749965667725
1763693811039238400,6.57323828125,-1.2612359523773193,1.5058400630950928,-2.7813234329223633
1763693811049237800,6.58323779296875,-1.1271497011184692,1.7508436441421509,-2.725931406021118
1763693811059243500,6.593243408203125,-0.9417991638183594,1.8754758834838867,-2.537518262863159
1763693811069256000,6.603255859375,-0.769231379032135,1.8403232097625732,-2.140186309814453
1763693811079262200,6.61326220703125,-0.6169030666351318,1.7401913404464722,-1.5278104543685913
1763693811089247000,6.6232470703125,-0.47855594754219055,1.7423217296600342,-0.6641727685928345
1763693811109249300,6.643249267578125,0.0347532257437706,1.55803644657135,1.3103697299957275
1763693811119252700,6.653252685546875,0.7344781756401062,2.7124826908111572,1.3135654926300049
1763693811129292800,6.663292724609375,1.5812052488327026,4.673177242279053,0.40518802404403687
1763693811139300000,6.673300048828125,2.2361903190612793,5.069310665130615,-0.8760210275650024
1763693811149273600,6.683273681640625,2.3618879318237305,2.586785316467285,-1.6684212684631348
1763693811159277300,6.69327734375,2.19997239112854,-0.2130466103553772,-1.1071765422821045
1763693811169286100,6.7032861328125,1.639793038368225,-1.6858644485473633,-0.22849248349666595
1763693811179290400,6.713290283203125,0.2254299372434616,-1.5603001117706299,0.5531222224235535
1763693811189461000,6.7234609375,-1.0919970273971558,-0.16404588520526886,1.2134336233139038
1763693811209324300,6.74332421875,-0.8959941267967224,1.1725552082061768,0.5073172450065613
1763693811219316200,6.753316162109375,-0.39333727955818176,2.1160852909088135,-0.7238258123397827
1763693811229320200,6.7633203125,-0.011983871459960938,2.672003984451294,-2.0080974102020264
1763693811239313200,6.773313232421875,0.02303566411137581,2.115020275115967,-3.0646753311157227
1763693811249342700,6.7833427734375,-0.3592498302459717,0.7508561015129089,-3.4821135997772217
1763693811259339500,6.793339599609375,-1.0685619115829468,-0.5868102312088013,-3.1829161643981934
1763693811269344000,6.803343994140625,-1.953504204750061,-1.2258168458938599,-2.4565606117248535
1763693811279341600,6.813341552734375,-2.6979689598083496,-0.8456618785858154,-1.8931853771209717
1763693811289355300,6.823355224609375,-3.0015604496002197,-0.03515268862247467,-2.11781644821167
1763693811299354600,6.833354736328125,-2.588249921798706,0.31411057710647583,-3.0082180500030518
1763693811309374700,6.843374755859375,-1.741655945777893,0.35245898365974426,-4.071054458618164
1763693811319376100,6.853376220703125,-0.9801475405693054,0.39932921528816223,-4.771844387054443
1763693811329391400,6.863391357421875,-0.42422905564308167,0.800788938999176,-4.605668067932129
1763693811339394000,6.87339404296875,-0.2580527067184448,1.450447916984558,-3.5215272903442383
1763693811349411300,6.883411376953125,-0.16324695944786072,1.4120994806289673,-2.2935798168182373
1763693811359415600,6.89341552734375,0.04753602296113968,0.8966599106788635,-1.5437889099121094
1763693811369394200,6.903394287109375,0.1508636325597763,0.5324833393096924,-1.1891995668411255
1763693811379395800,6.913395751953125,0.01983996480703354,0.4142425060272217,-0.9441959261894226
1763693811389421600,6.923421630859375,-0.3038577139377594,0.4344819188117981,-0.713173508644104
1763693811399425500,6.933425537109375,-0.7191654443740845,0.48135218024253845,-0.4468652606010437
1763693811409428200,6.94342822265625,-1.137802004814148,0.33008909225463867,-0.04434032365679741
1763693811419432200,6.95343212890625,-1.4210208654403687,0.09374050796031952,0.45938172936439514
1763693811429430000,6.963429931640625,-1.471086859703064,-0.009587096981704235,0.8577789068222046
1763693811439433200,6.97343310546875,-1.2601706981658936,0.02023942768573761,1.0472571849822998
1763693811449434000,6.98343408203125,-0.7564486265182495,0.02450035884976387,1.0760184526443481
1763693811459437000,6.99343701171875,-0.07163692265748978,-0.04473978653550148,1.2113031148910522
1763693811469454800,7.003454833984375,0.4917382001876831,-0.23009033501148224,1.6905248165130615
1763693811479459600,7.01345947265625,0.7440652847290039,-0.765769362449646,2.2295327186584473
1763693811489458700,7.023458740234375,0.750456690788269,-1.475081443786621,2.624601125717163
1763693811499462700,7.033462646484375,0.6886731386184692,-2.238720417022705,2.9280593395233154
1763693811509510400,7.043510498046875,0.7035863995552063,-2.891441822052002,3.1560192108154297
1763693811519518700,7.053518798828125,0.8196967840194702,-3.138576030731201,3.4042184352874756
1763693811529481700,7.063481689453125,1.0135692358016968,-2.990508556365967,3.736438035964966
1763693811539485400,7.0734853515625,1.3063751459121704,-2.591179370880127,4.071986198425293
1763693811549514500,7.083514404296875,1.6738805770874023,-2.0256738662719727,4.246551513671875
1763693811559521000,7.09352099609375,2.0199480056762695,-1.5379301309585571,4.143223762512207
1763693811569535200,7.10353515625,2.2819955348968506,-0.9319457411766052,3.646958351135254
1763693811579542500,7.11354248046875,2.299039125442505,0.49200451374053955,3.140040636062622
1763693811589516000,7.12351611328125,1.9336642026901245,2.380263090133667,2.8621480464935303
1763693811599519700,7.133519775390625,1.5801399946212769,3.2321832180023193,2.722602367401123
1763693811609561600,7.1435615234375,1.361767292022705,2.620872735977173,2.63844895362854
1763693811619569200,7.153569091796875,1.1318100690841675,1.2620347738265991,2.6405794620513916
1763693811629561300,7.163561279296875,0.8378057479858398,0.10439283400774002,2.685319185256958
1763693811639567000,7.173567138671875,0.4629769027233124,-0.5644403696060181,2.658688545227051
1763693811649566000,7.18356591796875,0.1423417627811432,-0.8850755095481873,2.5574913024902344
1763693811659571500,7.193571533203125,-0.008788172155618668,-1.3440577983856201,2.275204658508301
1763693811669588000,7.203587890625,-0.024766668677330017,-1.9851949214935303,1.8439183235168457
1763693811679594200,7.21359423828125,0.011318100616335869,-2.5847878456115723,1.3583052158355713
1763693811689587700,7.223587646484375,0.02090519852936268,-2.956421136856079,0.8705616593360901
1763693811699593000,7.233593017578125,0.09121058136224747,-3.1311192512512207,0.41797080636024475
1763693811709598500,7.243598388671875,0.1508636325597763,-3.251490592956543,-0.007057168986648321
1763693811719603700,7.253603759765625,0.1519288569688797,-3.3196656703948975,-0.43940863013267517
1763693811729615600,7.26361572265625,0.12423279881477356,-3.148163080215454,-0.9250217080116272
1763693811739621400,7.273621337890625,0.10612384229898453,-2.6529629230499268,-1.4660269021987915
1763693811749604600,7.2836044921875,0.0347532257437706,-1.9436508417129517,-1.9720126390457153
1763693811759608000,7.293608154296875,-0.1451379954814911,-1.0724233388900757,-2.389450788497925
1763693811769641000,7.303640869140625,-0.45831650495529175,-0.2247641682624817,-2.699300527572632
1763693811779647500,7.3136474609375,-0.852319598197937,0.5069177746772766,-2.917673349380493
1763693811789636900,7.323636962890625,-1.1963897943496704,1.0798799991607666,-3.0518925189971924
1763693811799641600,7.3336416015625,-1.395455241203308,1.4376651048660278,-3.0849149227142334
1763693811809662700,7.343662841796875,-1.4625649452209473,1.6602988243103027,-2.956021547317505
1763693811819669200,7.353669189453125,-1.416759967803955,1.604906678199768,-2.60982084274292
1763693811829656300,7.36365625,-1.2846710681915283,1.2758828401565552,-1.99651300907135
1763693811839660800,7.373660888671875,-1.0451267957687378,0.9882699251174927,-1.0709586143493652
1763693811849655300,7.3836552734375,-0.6573819518089294,1.1874685287475586,0.06644391268491745
1763693811859658800,7.39365869140625,-0.07696308940649033,1.7689526081085205,1.0260857343673706
1763693811869665000,7.4036650390625,0.5705654621124268,2.445242404937744,1.4754809141159058
1763693811879669000,7.4136689453125,1.11050546169281,3.2353789806365967,1.3135654926300049
1763693811889677800,7.423677734375,1.5290088653564453,4.1353678703308105,0.9025186896324158
1763693811899682000,7.43368212890625,2.059361696243286,5.151333808898926,0.29972994327545166
1763693811909695500,7.443695556640625,2.3895840644836426,5.006595134735107,-0.5065183043479919
1763693811919700700,7.45370068359375,2.251103639602661,2.698634624481201,-0.8600425124168396
1763693811929718800,7.46371875,1.715424656867981,0.25871846079826355,-0.25831902027130127
1763693811939725300,7.473725341796875,0.523695170879364,-1.398384690284729,0.3380783200263977
1763693811949731000,7.48373095703125,-1.0451267957687378,-1.764691710472107,0.5115781426429749
1763693811959737300,7.4937373046875,-1.5456531047821045,-0.7402037978172302,0.44553372263908386
1763693811969721000,7.50372119140625,-1.27401864528656,0.8487244248390198,-0.07416684925556183
1763693811979725000,7.51372509765625,-0.8746894598007202,2.2460439205169678,-0.9772181510925293
1763693811989763800,7.523763916015625,-0.5797531008720398,2.7476353645324707,-1.9091638326644897
1763693811999771400,7.533771484375,-0.48175162076950073,1.935128927230835,-2.66627836227417
1763693812009770000,7.54377001953125,-0.6925346255302429,0.2715012729167938,-2.954956293106079
1763693812019776800,7.55377685546875,-1.2548445463180542,-1.199186086654663,-2.9592173099517822
1763693812029756400,7.56375634765625,-2.064288377761841,-1.666823387145996,-2.8505635261535645
1763693812039760400,7.573760498046875,-2.650033473968506,-0.8946625590324402,-2.731257438659668
1763693812049781200,7.58378125,-2.5381839275360107,0.09693620353937149,-2.834585189819336
1763693812059787000,7.593787109375,-1.8448504209518433,0.4131772518157959,-3.242436170578003
1763693812069791000,7.603791015625,-1.0696271657943726,0.0852186381816864,-3.949617862701416
1763693812079796500,7.61379638671875,-0.4860125780105591,0.17456506192684174,-4.524710655212402
1763693812089816300,7.62381640625,-0.16857312619686127,1.0298140048980713,-4.352275848388672
1763693812099823000,7.633822998046875,-0.05246272683143616,1.710364818572998,-3.46720027923584
1763693812109811700,7.643811767578125,-0.04181039705872536,1.55803644657135,-2.462951898574829
1763693812119816700,7.653816650390625,-0.09187635034322739,1.0042483806610107,-1.7738792896270752
1763693812129811500,7.6638115234375,-0.2090519815683365,0.5974625945091248,-1.401047706604004
1763693812139815400,7.6738154296875,-0.44659894704818726,0.34500235319137573,-1.0943937301635742
1763693812149818000,7.683818115234375,-0.7873403429985046,0.16284750401973724,-0.6801512837409973
1763693812159821800,7.69382177734375,-1.1601718664169312,0.01917419396340847,-0.3499290347099304
1763693812169859300,7.703859375,-1.3997161388397217,-0.06924014538526535,-0.14340700209140778
1763693812179866600,7.71386669921875,-1.4007813930511475,-0.06710968166589737,0.09094426780939102
1763693812189841400,7.72384130859375,-1.2208901643753052,0.18095645308494568,0.3785571753978729
1763693812199845400,7.733845458984375,-0.9918650984764099,0.5250267386436462,0.6276885867118835
1763693812209851400,7.743851318359375,-0.6904041767120361,0.587875485420227,0.7278204560279846
1763693812219855600,7.753855712890625,-0.23674803972244263,0.46111273765563965,0.8141043186187744
1763693812229856300,7.763856201171875,0.31597474217414856,0.3577851355075836,1.1463239192962646
1763693812239860000,7.77385986328125,0.7675004005432129,-0.04473978653550148,1.7150251865386963
1763693812249899500,7.7838994140625,0.9091764092445374,-0.9692289233207703,2.255098342895508
1763693812259907000,7.793906982421875,0.7888050675392151,-2.0682830810546875,2.629927158355713
1763693812269891300,7.803891357421875,0.6460638046264648,-2.906355142593384,2.9696033000946045
1763693812279896300,7.813896240234375,0.6886731386184692,-3.266403913497925,3.3381741046905518
1763693812289912300,7.823912353515625,0.9123721122741699,-3.260012626647949,3.7801125049591064
1763693812299918600,7.833918701171875,1.2754833698272705,-3.10555362701416,4.184767723083496
1763693812309933800,7.843933837890625,1.7250117063522339,-2.8319220542907715,4.402075290679932
1763693812319940900,7.85394091796875,2.103036403656006,-2.440981388092041,4.313661098480225
1763693812329948700,7.86394873046875,2.358692169189453,-1.6338011026382446,3.711937665939331
1763693812339956000,7.8739560546875,2.4183452129364014,0.2501966059207916,3.0633437633514404
1763693812349955800,7.883955810546875,2.0955796241760254,2.638981580734253,2.736450433731079
1763693812359962000,7.893962158203125,1.837793231010437,3.847754955291748,2.7098195552825928
1763693812369969700,7.9039697265625,1.7985128164291382,3.370663642883301,2.7630813121795654
1763693812379976200,7.91397607421875,1.6973156929016113,1.9202157258987427,2.7524290084838867
1763693812389961200,7.923961181640625,1.4576382637023926,0.5548532605171204,2.6885149478912354
1763693812399965700,7.933965576171875,1.0551133155822754,-0.43248459696769714,2.7332546710968018
1763693812409989600,7.94398974609375,0.507716715335846,-1.421819806098938,2.741776704788208
1763693812419996000,7.953995849609375,-0.004660394508391619,-2.301435947418213,2.5670783519744873
1763693812429979600,7.963979736328125,-0.27722689509391785,-2.8638789653778076,2.283726453781128
1763693812439983600,7.973983642578125,-0.17389929294586182,-2.956421136856079,1.94831120967865
1763693812450013700,7.984013671875,0.0667102187871933,-2.8319220542907715,1.5159597396850586
1763693812460020200,7.994020263671875,0.30851811170578003,-2.8946375846862793,0.9941287040710449
1763693812469988400,8.00398828125,0.5151733160018921,-3.0192699432373047,0.4105141758918762
1763693812479991000,8.013990966796875,0.6386072039604187,-2.989443302154541,-0.24979715049266815
1763693812490004500,8.02400439453125,0.6471290588378906,-2.769073247909546,-0.9740224480628967
1763693812500008200,8.03400830078125,0.5780220627784729,-2.2823948860168457,-1.6577688455581665
1763693812510027300,8.04402734375,0.4501941204071045,-1.5954527854919434,-2.1945130825042725
1763693812520032500,8.054032470703126,0.20732097327709198,-0.8222267627716064,-2.4981045722961426
1763693812530047700,8.0640478515625,-0.14620323479175568,0.04154408723115921,-2.633255958557129
1763693812540054000,8.074053955078124,-0.5200999975204468,0.955247700214386,-2.722735643386841
1763693812550065200,8.084065185546875,-0.7830794453620911,1.6784077882766724,-2.82073712348938
1763693812560071700,8.09407177734375,-0.8565804958343506,2.1523032188415527,-2.9389779567718506
1763693812570078700,8.10407861328125,-0.7862751483917236,2.4484381675720215,-3.0380446910858154
1763693812580085500,8.11408544921875,-0.6872084736824036,2.525134801864624,-2.941108465194702
1763693812590055400,8.124055419921875,-0.6520557403564453,2.2364566326141357,-2.473604202270508
1763693812600058400,8.134058349609376,-0.6690995097160339,1.7923877239227295,-1.6481817960739136
1763693812610088400,8.14408837890625,-0.6275554299354553,1.4334042072296143,-0.33501577377319336
1763693812620094200,8.15409423828125,-0.5222305059432983,0.9275516271591187,1.2848042249679565
1763693812630078500,8.164078369140626,-0.19520394504070282,1.192794680595398,2.1677491664886475
1763693812640082000,8.17408203125,0.481085866689682,3.110879898071289,1.7714824676513672
1763693812650086400,8.18408642578125,1.3894633054733276,5.376097679138184,0.5808182954788208
1763693812660089900,8.19408984375,2.1509718894958496,5.740274429321289,-0.8014547228813171
1763693812670122200,8.204122314453125,2.1712112426757812,2.9159421920776367,-1.6609646081924438
1763693812680128800,8.214128662109376,1.828206181526184,-0.191741943359375,-0.9047822952270508
1763693812690118000,8.224117919921875,1.2392654418945312,-1.6762772798538208,0.21664176881313324
1763693812700122600,8.23412255859375,-0.24207420647144318,-1.9766730070114136,1.2837389707565308
1763693812710123000,8.244123046875,-1.526478886604309,-0.7476604580879211,1.9909205436706543
1763693812720127200,8.254127197265625,-1.6766767501831055,0.27895790338516235,1.5234163999557495
1763693812730150000,8.26414990234375,-1.2878667116165161,1.0702928304672241,0.2954690158367157
1763693812740156000,8.274156005859375,-0.7702966332435608,1.6304723024368286,-1.1306116580963135
1763693812750170400,8.28417041015625,-0.31877097487449646,1.5793410539627075,-2.6716043949127197
1763693812760177400,8.294177490234375,-0.21331290900707245,0.7295514941215515,-3.9485526084899902
1763693812770178800,8.3041787109375,-0.5200999975204468,-0.26311254501342773,-4.2691874504089355
1763693812780185300,8.314185302734375,-1.2772144079208374,-0.8083786964416504,-3.8006181716918945
1763693812790163500,8.32416357421875,-2.2293996810913086,-0.5793536305427551,-3.0380446910858154
1763693812800167000,8.3341669921875,-2.78531813621521,-0.05219641700387001,-2.5673446655273438
1763693812810203400,8.344203369140626,-2.531792640686035,0.007456631399691105,-2.8228676319122314
1763693812820210400,8.35421044921875,-1.6745463609695435,-0.2865476906299591,-3.5257880687713623
1763693812830207500,8.36420751953125,-0.8555153012275696,-0.299330472946167,-4.028444766998291
1763693812840213200,8.374213134765625,-0.4306204617023468,0.3055887222290039,-3.8910298347473145
1763693812850220500,8.384220458984375,-0.16963836550712585,0.8284850120544434,-3.1445679664611816
1763693812860226600,8.3942265625,-0.004660394508391619,0.9722914695739746,-2.2168831825256348
1763693812870229000,8.40422900390625,0.06777545064687729,0.8572462797164917,-1.5373975038528442
1763693812880234500,8.414234375,-0.022636201232671738,0.6294195652008057,-1.1380683183670044
1763693812890223900,8.424223876953125,-0.2687050402164459,0.38761165738105774,-0.8515206575393677
1763693812900227800,8.434227783203125,-0.6627081036567688,0.2757622003555298,-0.6204982399940491
1763693812910232300,8.444232421875,-1.1324758529663086,0.22463101148605347,-0.4021254777908325
1763693812920236300,8.454236328125,-1.5286093950271606,0.17456506192684174,-0.08375394344329834
1763693812930268200,8.46426806640625,-1.631937026977539,0.14061075448989868,0.2975994646549225
1763693812940275000,8.47427490234375,-1.4583040475845337,0.11611039936542511,0.6212971806526184
1763693812950262000,8.484261962890624,-1.067496657371521,0.06710968166589737,0.7565817832946777
1763693812960266800,8.494266845703125,-0.46896883845329285,0.02236989326775074,0.8055824637413025
1763693812970295300,8.50429541015625,0.24140843749046326,0.09480573982000351,1.081344723701477
1763693812980302300,8.51430224609375,0.8644366264343262,0.07669677585363388,1.6246135234832764
1763693812990303700,8.5243037109375,1.1978545188903809,-0.512243926525116,2.147509813308716
1763693813000310300,8.534310302734376,1.2531135082244873,-1.4356677532196045,2.535121440887451
1763693813010314000,8.54431396484375,1.194658875465393,-2.3078272342681885,2.8568217754364014
1763693813020320300,8.5543203125,1.1328753232955933,-2.9255292415618896,3.1986284255981445
1763693813030327000,8.5643271484375,1.1030488014221191,-3.2632081508636475,3.5894358158111572
1763693813040333300,8.574333251953124,1.1392667293548584,-3.3324482440948486,4.033638000488281
1763693813050316300,8.58431640625,1.2999837398529053,-3.0256612300872803,4.347748756408691
1763693813060320300,8.5943203125,1.547117829322815,-2.3184797763824463,4.385031700134277
1763693813070349600,8.604349609375,1.7814691066741943,-1.5283430814743042,4.130441188812256
1763693813080356000,8.614356201171875,1.9091638326644897,-0.7125077247619629,3.6118056774139404
1763693813090364400,8.624364501953124,1.7953170537948608,0.8423330187797546,3.177323818206787
1763693813110371800,8.644371826171875,0.9176982641220093,3.135380268096924,2.8291256427764893
1763693813120378000,8.654378173828125,0.8921326398849487,2.090519905090332,2.726863384246826
1763693813130379000,8.66437890625,0.8868064880371094,0.9627043604850769,2.69490647315979
1763693813140384500,8.674384521484376,0.7472609877586365,0.27895790338516235,2.653362274169922
1763693813150393600,8.6843935546875,0.5215647220611572,-0.16191542148590088,2.5138168334960938
1763693813160399400,8.6943994140625,0.3553883731365204,-0.7561823129653931,2.2465765476226807
1763693813170394600,8.70439453125,0.3106485903263092,-1.290796160697937,1.8918538093566895
1763693813180399600,8.714399658203124,0.354323148727417,-1.8051705360412598,1.5159597396850586
1763693813190412800,8.724412841796875,0.38947582244873047,-2.266416311264038,1.0824098587036133
1763693813200418600,8.73441845703125,0.4406070113182068,-2.5144824981689453,0.5861444473266602
1763693813210428700,8.7444287109375,0.4821510910987854,-2.6210057735443115,0.07603100687265396
1763693813220435000,8.75443505859375,0.4736292362213135,-2.647636651992798,-0.4905398190021515
1763693813230429400,8.764429443359376,0.4075847864151001,-2.548569917678833,-1.123155117034912
1763693813240434400,8.774434326171875,0.27336543798446655,-2.1886544227600098,-1.730204701423645
1763693813250414000,8.7844140625,0.04114462435245514,-1.5911918878555298,-2.2286007404327393
1763693813260416500,8.79441650390625,-0.2932053804397583,-0.803052544593811,-2.5513663291931152
1763693813270425300,8.80442529296875,-0.7127740383148193,0.007456631399691105,-2.7003657817840576
1763693813280428500,8.814428466796874,-1.1271497011184692,0.7604432106018066,-2.7653448581695557
1763693813290466000,8.824466064453125,-1.389063835144043,1.337666392326355,-2.811149835586548
1763693813300472600,8.83447265625,-1.4849348068237305,1.6038414239883423,-2.8175413608551025
1763693813310474800,8.844474853515624,-1.4412603378295898,1.749778389930725,-2.7483012676239014
1763693813320480800,8.854480712890625,-1.3208889961242676,1.7977138757705688,-2.5119526386260986
1763693813330490000,8.864489990234375,-1.208107352256775,1.5463188886642456,-1.9922521114349365
1763693813340496400,8.874496337890625,-1.0376701354980469,1.2449910640716553,-1.2179608345031738
1763693813350473200,8.88447314453125,-0.7777532339096069,1.2854700088500977,-0.1742987483739853
1763693813360476700,8.8944765625,-0.36138030886650085,1.3950557708740234,0.8524527549743652
1763693813370497300,8.904497314453126,0.270169734954834,1.8754758834838867,1.268825650215149
1763693813380502300,8.914502197265625,1.0007864236831665,3.2364442348480225,1.0164985656738281
1763693813390505200,8.924505126953125,1.7793385982513428,4.894745826721191,0.33275216817855835
1763693813400510200,8.93451025390625,2.3895840644836426,5.337749481201172,-0.5416709780693054
1763693813410524000,8.94452392578125,2.429929733276367,3.021400213241577,-0.796128511428833
1763693813420529700,8.95452978515625,2.055100917816162,0.3194367587566376,0.07922670245170593
1763693813430510300,8.96451025390625,1.2190260887145996,-0.9809464812278748,0.7587122321128845
1763693813440513800,8.974513671875,-0.23461757600307465,-1.2897309064865112,0.7587122321128845
1763693813450556700,8.984556640625,-1.0632357597351074,-0.8818798065185547,0.6692326664924622
1763693813460564000,8.99456396484375,-1.1133016347885132,0.19480448961257935,0.15272778272628784
1763693813470550500,9.004550537109376,-0.8959941267967224,1.5154271125793457,-0.8845428824424744
1763693813480555800,9.0145556640625,-0.6264901757240295,2.268413782119751,-2.0155539512634277
1763693813490542600,9.02454248046875,-0.5030562877655029,1.6837339401245117,-2.928325653076172
1763693813500545800,9.0345458984375,-0.661642849445343,0.17136935889720917,-3.1403069496154785
1763693813510576400,9.044576416015625,-1.053648591041565,-1.2268821001052856,-2.8644115924835205
1763693813520582700,9.054582763671876,-1.6617635488510132,-1.8104966878890991,-2.5321919918060303
1763693813530589000,9.0645888671875,-2.2496390342712402,-1.2737523317337036,-2.366015672683716
1763693813540595000,9.074594970703124,-2.3614883422851562,-0.33448317646980286,-2.5630838871002197
1763693813550608600,9.084608642578125,-1.855502724647522,0.22782671451568604,-3.035914182662964
1763693813560615400,9.094615478515625,-1.175085186958313,0.40572062134742737,-3.733508586883545
1763693813570610400,9.1046103515625,-0.7479267120361328,0.5612446665763855,-4.345884323120117
1763693813580616200,9.1146162109375,-0.5488613247871399,0.800788938999176,-4.391689300537109
1763693813590605000,9.12460498046875,-0.3901416063308716,1.1203588247299194,-3.6930296421051025
1763693813600609000,9.134609130859374,-0.24846559762954712,1.1203588247299194,-2.736583709716797
1763693813610639400,9.144639404296875,-0.22609570622444153,0.86150723695755,-2.0123584270477295
1763693813620646100,9.154646240234374,-0.34007564187049866,0.5633751153945923,-1.552310824394226
1763693813630619600,9.16461962890625,-0.5712311863899231,0.36524176597595215,-1.203047513961792
1763693813640623000,9.174623046875,-0.9066464304924011,0.27043604850769043,-0.8600425124168396
1763693813650630000,9.1846298828125,-1.2516487836837769,0.22676147520542145,-0.5193011164665222
1763693813660633600,9.194633544921874,-1.4849348068237305,0.1990654170513153,-0.25086238980293274
1763693813670641700,9.2046416015625,-1.5648273229599,0.15965180099010468,0.014247491955757141
1763693813680645600,9.214645751953125,-1.463630199432373,0.1395455300807953,0.3380783200263977
1763693813690685200,9.224685302734375,-1.2230206727981567,0.19267402589321136,0.6340799331665039
1763693813700693000,9.23469287109375,-0.8459281921386719,0.19267402589321136,0.839669942855835
1763693813710663000,9.244662841796876,-0.3358147144317627,0.06710968166589737,0.9536498785018921
1763693813720666600,9.25466650390625,0.23927797377109528,-0.05858781561255455,1.1793460845947266
1763693813730694100,9.264694091796875,0.7046516537666321,-0.24074266850948334,1.6469833850860596
1763693813740700400,9.274700439453126,0.9113068580627441,-0.741269052028656,2.216749906539917
1763693813750696400,9.284696533203125,0.8942631483078003,-1.5347344875335693,2.6874496936798096
1763693813760701700,9.29470166015625,0.867632269859314,-2.394111156463623,3.0164735317230225
1763693813770727400,9.3047275390625,0.9560466408729553,-3.026726484298706,3.304086446762085
1763693813780734700,9.314734619140625,1.1978545188903809,-3.353753089904785,3.656545400619507
1763693813790726100,9.32472607421875,1.5247479677200317,-3.5123395919799805,4.019790172576904
1763693813800731600,9.334731689453125,1.835662841796875,-3.5070133209228516,4.281703948974609
1763693813810752800,9.344752685546876,2.0529704093933105,-3.208881378173828,4.200746536254883
1763693813820760000,9.354760009765625,2.148841381072998,-2.28132963180542,3.6405670642852783
1763693813830755000,9.364755126953124,2.046578884124756,-0.20026381313800812,3.140040636062622
1763693813840761000,9.374760986328125,1.7100985050201416,2.198108434677124,2.8653435707092285
1763693813850742300,9.3847421875,1.5034432411193848,3.3994247913360596,2.831256151199341
1763693813860745700,9.394745849609375,1.47894287109375,2.9968998432159424,2.840843439102173
1763693813870774000,9.40477392578125,1.4246159791946411,1.6038414239883423,2.7684075832366943
1763693813880780000,9.414780029296875,1.171223759651184,0.3194367587566376,2.7098195552825928
1763693813890787000,9.424787109375,0.7302172183990479,-0.6368761658668518,2.714080572128296
1763693813910802000,9.444802001953125,-0.029027599841356277,-2.146044969558716,2.494642496109009
1763693813920808400,9.454808349609374,0.05179695412516594,-2.4260683059692383,2.174140691757202
1763693813930817000,9.464817138671876,0.3138442933559418,-2.3696107864379883,1.8055700063705444
1763693813940823600,9.474823486328125,0.547130286693573,-2.4292638301849365,1.404110312461853
1763693813950808600,9.48480859375,0.7248910665512085,-2.810617446899414,0.947258472442627
1763693813960813000,9.49481298828125,0.8260881900787354,-3.196098566055298,0.4434032440185547
1763693813970833700,9.504833740234375,0.8122401833534241,-3.3196656703948975,-0.15512455999851227
1763693813980839700,9.514839599609376,0.736608624458313,-3.1321845054626465,-0.8366073966026306
1763693813990841900,9.524841796875,0.6694989800453186,-2.515547752380371,-1.4926577806472778
1763693814000847400,9.534847412109375,0.5311518311500549,-1.7316694259643555,-1.976273536682129
1763693814010828300,9.544828369140625,0.2467346042394638,-0.9063801765441895,-2.299971342086792
1763693814020831500,9.55483154296875,-0.16857312619686127,-0.012782796286046505,-2.5641491413116455
1763693814030831900,9.564831787109375,-0.6318163275718689,0.8636376857757568,-2.805823802947998
1763693814040834600,9.57483447265625,-0.9748213887214661,1.5867977142333984,-2.9709348678588867
1763693814050845700,9.584845703125,-1.0898665189743042,2.1288681030273438,-3.0412402153015137
1763693814060849400,9.594849365234374,-1.013169765472412,2.581592321395874,-2.9911742210388184
1763693814070868700,9.60486865234375,-0.8682980537414551,2.8743982315063477,-2.754692554473877
1763693814080874000,9.6148740234375,-0.8406019806861877,2.7028956413269043,-2.2275354862213135
1763693814090871600,9.62487158203125,-0.9183640480041504,2.263087511062622,-1.3670934438705444
1763693814100876000,9.6348759765625,-0.9971912503242493,1.7764092683792114,-0.01983996480703354
1763693814110893600,9.6448935546875,-1.0504529476165771,1.0436620712280273,1.5606995820999146
1763693814120899600,9.654899658203124,-0.8501890897750854,1.1725552082061768,2.4552290439605713
1763693814130901000,9.66490087890625,-0.09613727778196335,3.4047510623931885,2.0047686100006104
1763693814140906200,9.67490625,1.073222279548645,6.341998100280762,0.39453569054603577
1763693814150904600,9.684904541015625,1.9933172464370728,6.204716205596924,-1.2179608345031738
1763693814160909000,9.694908935546875,2.1051666736602783,2.15549898147583,-1.3362016677856445
1763693814170915000,9.7049150390625,1.7037070989608765,-0.9852073788642883,-0.30199354887008667
1763693814180919800,9.714919921875,0.6300853490829468,-1.3110355138778687,0.35618728399276733
1763693814190941000,9.72494091796875,-0.5531222224235535,0.0319569893181324,0.6074491143226624
1763693814200947200,9.734947265625,-0.6808170676231384,1.2588391304016113,0.5307523608207703
1763693814210966000,9.744966064453125,-0.4189028739929199,1.864823579788208,-0.19866596162319183
1763693814220973600,9.7549736328125,-0.13768136501312256,1.9861270189285278,-1.3298102617263794
1763693814230979300,9.764979248046876,0.03688369318842888,1.7764092683792114,-2.421407699584961
1763693814240987000,9.77498681640625,-0.03435376659035683,0.9435301423072815,-3.1019585132598877
1763693814250977800,9.784977783203125,-0.5062519907951355,-0.2034595012664795,-3.143502712249756
1763693814260983300,9.7949833984375,-1.311301827430725,-1.3589709997177124,-2.7003657817840576
1763693814270998800,9.804998779296875,-2.2262039184570312,-1.964955449104309,-2.1657519340515137
1763693814281005600,9.815005615234375,-2.836449146270752,-1.4697552919387817,-2.0602939128875732
1763693814291004700,9.825004638671874,-2.6521639823913574,-0.5420704483985901,-2.429929733276367
1763693814301010700,9.8350107421875,-1.7373950481414795,0.05965305119752884,-3.0785233974456787
1763693814311014400,9.845014404296874,-0.9119726419448853,0.4898740351200104,-3.870790481567383
1763693814321020000,9.85502001953125,-0.5509917736053467,0.8881380558013916,-4.4289727210998535
1763693814331022000,9.86502197265625,-0.5627093315124512,1.490926742553711,-4.219121932983398
1763693814341027300,9.87502734375,-0.5776225924491882,2.0095620155334473,-3.1158065795898438
1763693814351042300,9.885042236328125,-0.43488138914108276,1.7870615720748901,-1.9251424074172974
1763693814361048600,9.895048583984375,-0.2910749316215515,1.0649666786193848,-1.2424612045288086
1763693814371026700,9.905026611328125,-0.2804225981235504,0.4973306655883789,-0.9282174110412598
1763693814381030100,9.915030029296876,-0.43488138914108276,0.33221954107284546,-0.6950645446777344
1763693814391053800,9.9250537109375,-0.6754909157752991,0.3258281648159027,-0.5001268982887268
1763693814401059300,9.935059326171874,-0.9055812358856201,0.3077192008495331,-0.31264588236808777
1763693814411076600,9.94507666015625,-1.0877361297607422,0.2661750912666321,-0.03688369318842888
1763693814421083100,9.955083251953125,-1.1899983882904053,0.2757622003555298,0.37429624795913696
1763693814431087600,9.965087646484376,-1.144193410873413,0.34393709897994995,0.708646297454834
1763693814441094100,9.97509423828125,-0.9300816059112549,0.3183715343475342,0.8258218765258789
1763693814451096000,9.985095947265625,-0.5105129480361938,0.14167599380016327,0.8034520149230957
1763693814461102000,9.99510205078125,0.07097115367650986,0.03515268862247467,0.9781502485275269
1763693814471104300,10.005104248046875,0.5940005779266357,-0.19600287079811096,1.5404601097106934
1763693814481109800,10.01510986328125,0.8218272924423218,-0.8680317401885986,2.2092933654785156
1763693814491108600,10.025108642578125,0.774957001209259,-1.7838658094406128,2.742841958999634
1763693814501113600,10.035113525390624,0.6418029069900513,-2.6827893257141113,3.126192569732666
1763693814511096800,10.045096923828124,0.6407376527786255,-3.2962305545806885,3.4148707389831543
1763693814521099500,10.055099609375,0.8378057479858398,-3.484776735305786,3.720459461212158
1763693814531111400,10.065111328125,1.1861369609832764,-3.405949354171753,4.05707311630249
1763693814541115100,10.075115234375,1.6163579225540161,-3.209946632385254,4.310465335845947
1763693814551117800,10.085117919921874,1.974143147468567,-2.8606832027435303,4.301943778991699
1763693814561121500,10.09512158203125,2.2628211975097656,-2.0959792137145996,3.763068914413452
1763693814571161900,10.105161865234376,2.435255765914917,-0.23648172616958618,3.1421711444854736
1763693814581169200,10.115169189453125,2.2074291706085205,2.2748050689697266,2.70023250579834
1763693814591157800,10.12515771484375,1.8495107889175415,3.752017021179199,2.6096878051757812
1763693814601163000,10.1351630859375,1.691989541053772,3.373859405517578,2.6938412189483643
1763693814611187000,10.14518701171875,1.4981170892715454,1.7583003044128418,2.686384439468384
1763693814621194000,10.155194091796876,1.087070345878601,0.33008909225463867,2.6309924125671387
1763693814631192800,10.16519287109375,0.5513912439346313,-0.488808810710907,2.666145086288452
1763693814641199000,10.17519921875,0.000665770610794425,-1.0724233388900757,2.624601125717163
1763693814651199000,10.185198974609374,-0.3890763521194458,-1.5698871612548828,2.4030325412750244
1763693814661204700,10.195204833984375,-0.4423380196094513,-1.8989109992980957,2.0090293884277344
1763693814671214000,10.205214111328125,-0.12809427082538605,-1.935128927230835,1.5021116733551025
1763693814681220000,10.21522021484375,0.2062557488679886,-1.9543031454086304,0.9824111461639404
1763693814691210800,10.225210693359376,0.4374113082885742,-2.2376551628112793,0.47749069333076477
1763693814701215200,10.23521533203125,0.5705654621124268,-2.5975706577301025,0.005725627299398184
1763693814711235300,10.2452353515625,0.5663045048713684,-2.8457701206207275,-0.4479304850101471
1763693814721241300,10.255241455078124,0.46830305457115173,-2.7893126010894775,-0.9388697743415833
1763693814731246800,10.265246826171875,0.28614822030067444,-2.3887851238250732,-1.4532442092895508
1763693814741252900,10.2752529296875,0.04647079110145569,-1.6593667268753052,-1.9091638326644897
1763693814751260000,10.285260009765626,-0.25592222809791565,-0.7615084648132324,-2.233926773071289
1763693814761266000,10.295265869140625,-0.6477948427200317,0.10332760214805603,-2.4320602416992188
1763693814771239400,10.305239501953125,-1.014235019683838,0.970160961151123,-2.5907797813415527
1763693814781242000,10.3152421875,-1.1963897943496704,1.7082343101501465,-2.7238008975982666
1763693814791245800,10.325245849609376,-1.167628526687622,2.1437814235687256,-2.8047585487365723
1763693814801248800,10.335248779296874,-1.0291482210159302,2.3451104164123535,-2.7419097423553467
1763693814811258600,10.345258544921874,-0.8896027207374573,2.264152765274048,-2.4469733238220215
1763693814821262000,10.355261962890625,-0.8171668648719788,1.8967806100845337,-1.8899897336959839
1763693814831298800,10.365298828125,-0.7298177480697632,1.6134285926818848,-1.0176969766616821
1763693814841305900,10.375305908203124,-0.5872097015380859,1.413164734840393,0.2091851383447647
1763693814851300000,10.385300048828125,-0.31770575046539307,1.1970555782318115,1.3636313676834106
1763693814861305600,10.3953056640625,0.312779039144516,2.1214115619659424,1.6278091669082642
1763693814871304400,10.405304443359375,1.2232869863510132,4.409132480621338,0.8215609788894653
1763693814881309200,10.41530908203125,2.172276496887207,5.9213643074035645,-0.48627886176109314
1763693814891329300,10.425329345703124,2.599301815032959,4.247217178344727,-1.3393974304199219
1763693814901335600,10.43533544921875,2.4236714839935303,0.9371387362480164,-0.7886719107627869
1763693814911314400,10.445314453125,1.8102303743362427,-0.8083786964416504,0.18042384088039398
1763693814921318100,10.455318115234375,0.47895538806915283,-0.8456618785858154,0.43488138914108276
1763693814931360800,10.46536083984375,-0.768166184425354,-0.18961147964000702,0.8258218765258789
1763693814941368300,10.475368408203124,-1.0003869533538818,0.2832188308238983,1.16549813747406
1763693814951337700,10.485337646484375,-0.7734923362731934,0.657115638256073,0.5904054045677185
1763693814961341400,10.495341552734375,-0.37203264236450195,1.6624293327331543,-0.7270215153694153
1763693814971351300,10.505351318359375,-0.09294158220291138,2.4122202396392822,-2.1625561714172363
1763693814981355500,10.51535546875,-0.1760297566652298,1.9383246898651123,-3.2669365406036377
1763693814991390500,10.525390380859376,-0.6520557403564453,0.6837464570999146,-3.4927659034729004
1763693815001398000,10.53539794921875,-1.4156947135925293,-0.32596129179000854,-3.029522657394409
1763693815011370800,10.545370849609375,-2.400902032852173,-0.7082468271255493,-2.4842565059661865
1763693815021374700,10.555374755859376,-3.365736961364746,-0.5218310356140137,-2.4096901416778564
1763693815031379500,10.56537939453125,-3.544696092605591,-0.5324833393096924,-2.889977216720581
1763693815041383400,10.575383544921875,-2.686251401901245,-0.6613765358924866,-3.5726583003997803
1763693815051392500,10.585392578125,-1.6532416343688965,-0.2961347699165344,-4.236165523529053
1763693815061397000,10.59539697265625,-0.8874722719192505,0.39506828784942627,-4.436429023742676
1763693815071402500,10.605402587890625,-0.49133872985839844,1.0564448833465576,-4.07211971282959
1763693815081407200,10.6154072265625,-0.24420467019081116,1.4877310991287231,-3.29463267326355
1763693815101448200,10.6354482421875,0.12103710323572159,1.4717525243759155,-1.7344657182693481
1763693815111444000,10.64544384765625,-0.08761541545391083,1.1395330429077148,-1.140198826789856
1763693815121450500,10.655450439453125,-0.5584484338760376,0.6272891163825989,-0.6535204648971558
1763693815131460000,10.665460205078125,-1.106910228729248,0.23315288126468658,-0.3424724042415619
1763693815141466600,10.675466552734376,-1.5051742792129517,0.10119713842868805,-0.20825305581092834
1763693815151479300,10.685479248046875,-1.6638939380645752,0.05965305119752884,-0.03155753016471863
1763693815161486600,10.695486572265626,-1.5829362869262695,0.16178226470947266,0.3274259865283966
1763693815171457500,10.70545751953125,-1.3208889961242676,0.447264701128006,0.7342118620872498
1763693815181461000,10.7154609375,-0.9236901998519897,0.6901378631591797,1.0111724138259888
1763693815191469600,10.725469482421875,-0.40292438864707947,0.6677679419517517,1.0653661489486694
1763693815201473500,10.7354736328125,0.20732097327709198,0.5005263686180115,1.0824098587036133
1763693815211477500,10.7454775390625,0.7483261823654175,0.41850343346595764,1.390262246131897
1763693815221481500,10.7554814453125,1.073222279548645,0.08095771074295044,1.933397889137268
1763693815231521300,10.765521240234374,1.104114055633545,-0.8456618785858154,2.446707010269165
1763693815241529000,10.775529052734376,0.9400681257247925,-2.1066315174102783,2.9035589694976807
1763693815251496200,10.78549609375,0.8505885601043701,-3.2482950687408447,3.2976951599121094
1763693815261499600,10.795499755859375,0.9528509378433228,-3.9373676776885986,3.6501541137695312
1763693815271543600,10.80554345703125,1.2371350526809692,-4.1726508140563965,3.9899635314941406
1763693815281551400,10.81555126953125,1.609966516494751,-4.095022201538086,4.3094000816345215
1763693815291524600,10.825524658203125,1.9485775232315063,-3.7594735622406006,4.383966445922852
1763693815301528800,10.83552880859375,2.2489731311798096,-2.924464225769043,3.9058101177215576
1763693815311566300,10.84556640625,2.415149688720703,-0.910641074180603,3.182649850845337
1763693815321574000,10.855573974609374,2.158428430557251,1.935128927230835,2.6544275283813477
1763693815331571500,10.865571533203125,1.8038389682769775,3.781843423843384,2.485055446624756
1763693815341578000,10.875577880859375,1.6579020023345947,3.706212043762207,2.5479042530059814
1763693815351587800,10.885587890625,1.5662920475006104,2.1917169094085693,2.6235358715057373
1763693815361594600,10.8955947265625,1.2605701684951782,0.4856131076812744,2.5756003856658936
1763693815371585000,10.9055849609375,0.7270215153694153,-0.5090482234954834,2.573469877243042
1763693815381590000,10.915590087890624,0.12529803812503815,-1.2865351438522339,2.5095558166503906
1763693815391592400,10.925592529296875,-0.3145100474357605,-1.6762772798538208,2.3242053985595703
1763693815401597400,10.935597412109376,-0.3059881925582886,-1.682668685913086,2.0037033557891846
1763693815411593200,10.94559326171875,0.07523208111524582,-1.5379301309585571,1.5830694437026978
1763693815421597200,10.95559716796875,0.4054543077945709,-1.6700190305709839,1.1186277866363525
1763693815431622100,10.9656220703125,0.6428681015968323,-2.165219306945801,0.6575151085853577
1763693815441628400,10.97562841796875,0.8452624082565308,-2.6998331546783447,0.19746756553649902
1763693815451615000,10.985614990234374,0.9059807062149048,-2.9681386947631836,-0.3211677670478821
1763693815461619000,10.995618896484375,0.820762038230896,-2.93831205368042,-0.9282174110412598
1763693815471617800,11.00561767578125,0.6311505436897278,-2.61354923248291,-1.5544413328170776
1763693815481621200,11.015621337890625,0.3511274456977844,-1.9361941814422607,-2.057098150253296
1763693815491652400,11.02565234375,-0.05778888985514641,-1.05551278591156,-2.370276689529419
1763693815501659000,11.035658935546875,-0.5477960705757141,-0.2119813710451126,-2.5311267375946045
1763693815511665200,11.0456650390625,-1.0025174617767334,0.5378095507621765,-2.641777992248535
1763693815521671400,11.05567138671875,-1.2431269884109497,1.175750970840454,-2.740844488143921
1763693815531679200,11.06567919921875,-1.2282136678695679,1.6624293327331543,-2.7557578086853027
1763693815541685500,11.075685546875,-1.0941274166107178,1.956433653831482,-2.6257994174957275
1763693815551660500,11.08566064453125,-0.9620385766029358,1.919150471687317,-2.258427143096924
1763693815561664000,11.0956640625,-0.8864070177078247,1.5324708223342896,-1.6471165418624878
1763693815571701200,11.105701171875,-0.7979927062988281,1.2726871967315674,-0.7323477268218994
1763693815581708000,11.1157080078125,-0.7010564804077148,1.2311431169509888,0.5797531008720398
1763693815591702500,11.12570263671875,-0.5861444473266602,1.1288807392120361,1.7235469818115234
1763693815601708000,11.1357080078125,-0.21437814831733704,1.843518853187561,2.0047686100006104
1763693815611720000,11.145719970703125,0.6396724581718445,3.9287126064300537,1.31995689868927
1763693815621726000,11.155725830078126,1.8038389682769775,6.083279609680176,-0.07949301600456238
1763693815631735600,11.165735595703126,2.4981045722961426,4.939485549926758,-1.1615034341812134
1763693815641742000,11.1757421875,2.2692127227783203,1.178946614265442,-0.713173508644104
1763693815651749000,11.1857490234375,1.4501816034317017,-0.9095758199691772,0.2304897904396057
1763693815661755600,11.195755615234376,0.05392742156982422,-0.8307486176490784,0.48175162076950073
1763693815671757300,11.20575732421875,-0.9748213887214661,-0.02236989326775074,0.6191666722297668
1763693815681763600,11.215763671875,-1.0664314031600952,0.7220948338508606,0.556317925453186
1763693815691763000,11.225762939453125,-0.8832113146781921,1.1725552082061768,-0.1519288569688797
1763693815701768200,11.235768310546876,-0.6063839197158813,1.6187547445297241,-1.3266146183013916
1763693815711745300,11.245745361328124,-0.4529903531074524,1.3387316465377808,-2.487452268600464
1763693815721747700,11.255747802734374,-0.6200987696647644,0.19693495333194733,-3.166937828063965
1763693815731758300,11.26575830078125,-1.1260844469070435,-1.0788147449493408,-3.198894739151001
1763693815741761500,11.275761474609375,-1.809830904006958,-1.8232795000076294,-3.06254506111145
1763693815751788800,11.285788818359375,-2.5264663696289062,-1.4931904077529907,-3.0316531658172607
1763693815761794600,11.295794677734374,-2.738447904586792,-0.5282224416732788,-3.1360459327697754
1763693815771788000,11.3057880859375,-2.091984510421753,0.08947957307100296,-3.3287200927734375
1763693815781792500,11.31579248046875,-1.1963897943496704,0.3705679476261139,-3.723921537399292
1763693815791821000,11.325821044921875,-0.6701647043228149,0.6272891163825989,-4.123250961303711
1763693815801827800,11.335827880859375,-0.5073172450065613,1.017031192779541,-4.2372307777404785
1763693815811815400,11.3458154296875,-0.45618605613708496,1.411034345626831,-3.832442045211792
1763693815821820200,11.355820068359375,-0.36138030886650085,1.565493106842041,-2.9474997520446777
1763693815831838000,11.365837890625,-0.31131434440612793,1.4461870193481445,-2.010227918624878
1763693815841844000,11.375843994140626,-0.3581846058368683,1.183207631111145,-1.3202232122421265
1763693815851831600,11.38583154296875,-0.5477960705757141,0.8529853224754333,-0.8408682942390442
1763693815861835800,11.395835693359375,-0.8832113146781921,0.6453980803489685,-0.4585828185081482
1763693815871862500,11.405862548828125,-1.1857374906539917,0.634745717048645,-0.14979839324951172
1763693815881869000,11.415869140625,-1.358172059059143,0.574027419090271,0.10053136944770813
1763693815891873500,11.42587353515625,-1.3848029375076294,0.4770912528038025,0.44659894704818726
1763693815901880000,11.435880126953125,-1.2612359523773193,0.5420704483985901,0.8418003916740417
1763693815911855600,11.445855712890625,-0.9961260557174683,0.6826812028884888,1.1495195627212524
1763693815921858800,11.45585888671875,-0.5914706587791443,0.618767261505127,1.2368687391281128
1763693815931891200,11.46589111328125,-0.05991935729980469,0.23741380870342255,1.151650071144104
1763693815941897200,11.475897216796875,0.481085866689682,-0.10545806586742401,1.24539053440094
1763693815951899000,11.48589892578125,0.8718932271003723,-0.299330472946167,1.686263918876648
1763693815961904600,11.495904541015625,1.063635230064392,-0.8009220957756042,2.2295327186584473
1763693815971916300,11.505916259765625,1.0370043516159058,-1.7764092683792114,2.699167251586914
1763693815981922600,11.515922607421874,0.950720489025116,-2.84257435798645,3.1102142333984375
1763693815991906000,11.525906005859374,0.965633749961853,-3.4176669120788574,3.472393274307251
1763693816001910000,11.535909912109375,1.1680279970169067,-3.438971757888794,3.8365697860717773
1763693816011944000,11.54594384765625,1.5332697629928589,-3.22379469871521,4.170919895172119
1763693816021951000,11.555950927734376,1.9464470148086548,-2.966008186340332,4.380770683288574
1763693816031944700,11.56594482421875,2.2926478385925293,-2.774399518966675,4.260399341583252
1763693816041950500,11.575950439453125,2.5684099197387695,-2.3312625885009766,3.605414390563965
1763693816051930400,11.585930419921874,2.6813247203826904,-0.5101134777069092,2.9184722900390625
1763693816061933600,11.59593359375,2.440582036972046,2.296109676361084,2.352966547012329
1763693816071966200,11.60596630859375,2.2553646564483643,4.131106853485107,2.076139211654663
1763693816081972200,11.61597216796875,2.232994794845581,3.781843423843384,2.1166179180145264
1763693816091982300,11.625982421875,2.112623453140259,2.0180840492248535,2.244446039199829
1763693816101988900,11.63598876953125,1.7367292642593384,0.35458943247795105,2.4062283039093018
1763693816111965400,11.64596533203125,1.0838745832443237,-0.6858769059181213,2.5756003856658936
1763693816121969000,11.655968994140625,0.29573532938957214,-1.2737523317337036,2.6075572967529297
1763693816132006000,11.666005859375,-0.25485700368881226,-1.9681512117385864,2.4072935581207275
1763693816142012700,11.6760126953125,-0.36138030886650085,-2.548569917678833,2.0260732173919678
1763693816151990000,11.685989990234376,-0.06737598776817322,-2.6913111209869385,1.5937217473983765
1763693816161994000,11.695993896484374,0.2818872928619385,-2.6806588172912598,1.1271497011184692
1763693816171996000,11.705995849609375,0.5545869469642639,-2.7807908058166504,0.6319494843482971
1763693816181999600,11.71599951171875,0.7706961035728455,-2.92020320892334,0.14101022481918335
1763693816192043000,11.72604296875,0.843131959438324,-2.899963855743408,-0.35525521636009216
1763693816202050800,11.73605078125,0.7557828426361084,-2.697702646255493,-0.880281925201416
1763693816212041000,11.746041015625,0.5407389402389526,-2.319544792175293,-1.4117000102996826
1763693816222047000,11.756046875,0.23927797377109528,-1.6540405750274658,-1.8761416673660278
1763693816232054500,11.766054443359375,-0.12063764035701752,-0.8190310597419739,-2.2275354862213135
1763693816242060500,11.776060546875,-0.5733616948127747,0.02236989326775074,-2.4746694564819336
1763693816252053500,11.786053466796876,-1.104779839515686,0.7656362652778625,-2.6630825996398926
1763693816262058200,11.796058349609375,-1.5456531047821045,1.3078398704528809,-2.8036932945251465
1763693816272081200,11.8060810546875,-1.7640259265899658,1.6911906003952026,-2.8281936645507812
1763693816282087700,11.816087646484375,-1.7405908107757568,1.9159547090530396,-2.6865177154541016
1763693816292095200,11.82609521484375,-1.524348497390747,2.058562755584717,-2.402233600616455
1763693816302102000,11.83610205078125,-1.2102378606796265,1.9893226623535156,-1.9272727966308594
1763693816312073500,11.846073486328125,-0.8661676049232483,1.8307361602783203,-1.1806776523590088
1763693816322076700,11.85607666015625,-0.5446003675460815,1.962825059890747,-0.05286218971014023
1763693816332090600,11.866090576171874,-0.3134448230266571,2.0127577781677246,1.352979063987732
1763693816342094800,11.8760947265625,-0.11850717663764954,2.389850378036499,2.3380532264709473
1763693816352113000,11.88611279296875,0.5663045048713684,4.795679092407227,1.8886581659317017
1763693816362118400,11.896118408203124,1.6962504386901855,7.39538049697876,0.09733566641807556
1763693816372120600,11.90612060546875,2.5215396881103516,6.315367221832275,-1.8867939710617065
1763693816382125800,11.916125732421875,2.5130178928375244,1.880802035331726,-1.9464470148086548
1763693816392118800,11.926118896484375,2.050839900970459,-1.1352721452713013,-0.44366955757141113
1763693816402122800,11.936122802734374,1.0071778297424316,-1.3483186960220337,0.7406032681465149
1763693816412132400,11.94613232421875,-0.6149057745933533,-0.4559197425842285,1.6532416343688965
1763693816422136800,11.95613671875,-1.6298065185546875,-0.05219641700387001,1.4158278703689575
1763693816432158200,11.966158203125,-1.8013089895248413,-0.04154408723115921,0.4721645414829254
1763693816442164500,11.97616455078125,-1.6308717727661133,0.45898228883743286,-0.5342143774032593
1763693816452150800,11.98615087890625,-1.2899972200393677,0.7901365756988525,-1.5278104543685913
1763693816462155000,11.996155029296874,-1.0163654088974,0.2523270845413208,-2.560953378677368
1763693816472160300,12.00616015625,-1.0387353897094727,-0.7785521745681763,-3.1626768112182617
1763693816482164700,12.016164794921876,-1.4039771556854248,-1.7604306936264038,-3.2669365406036377
1763693816492197400,12.026197265625,-1.9684175252914429,-1.8307361602783203,-3.085980176925659
1763693816502204700,12.03620458984375,-2.3380532264709473,-0.9415328502655029,-2.8122150897979736
1763693816512208100,12.0462080078125,-2.0621578693389893,-0.3078523576259613,-2.843106985092163
1763693816522215000,12.05621484375,-1.349650263786316,-0.06071828305721283,-3.23284912109375
1763693816532202200,12.0662021484375,-0.7266221046447754,0.06497921794652939,-3.816596746444702
1763693816542207000,12.07620703125,-0.40292438864707947,0.21397867798805237,-4.158403396606445
1763693816552236300,12.086236328125,-0.3123795986175537,0.4983958899974823,-3.837768316268921
1763693816562243300,12.096243408203126,-0.27722689509391785,0.9978570342063904,-2.9432387351989746
1763693816572245500,12.10624560546875,-0.19413872063159943,1.1906641721725464,-2.014488697052002
1763693816582252000,12.116251953125,-0.1557903289794922,0.8497896194458008,-1.4564398527145386
1763693816592248600,12.12624853515625,-0.2825530469417572,0.32369768619537354,-1.2126346826553345
1763693816602254000,12.136254150390625,-0.6117100715637207,-0.11291470378637314,-1.0784152746200562
1763693816612241700,12.14624169921875,-1.022756814956665,-0.37709248065948486,-0.8216941356658936
1763693816622245600,12.15624560546875,-1.3294107913970947,-0.3419398069381714,-0.45112618803977966
1763693816632270800,12.166270751953125,-1.418890357017517,-0.07776200771331787,-0.07949301600456238
1763693816642276900,12.17627685546875,-1.267627239227295,0.2203700840473175,0.28055575489997864
1763693816652256000,12.186256103515625,-1.0184959173202515,0.5644403696060181,0.5691007375717163
1763693816662259200,12.19625927734375,-0.7500572204589844,0.7306166887283325,0.7256900072097778
1763693816672299800,12.2062998046875,-0.40612009167671204,0.5250267386436462,0.7107767462730408
1763693816682306800,12.216306884765626,0.1093195378780365,0.17563030123710632,0.7459294199943542
1763693816692309500,12.2263095703125,0.6971949934959412,-0.05432688444852829,1.1740199327468872
1763693816702316000,12.23631591796875,1.0647003650665283,-0.6422023773193359,1.9227455854415894
1763693816712288800,12.246288818359375,1.0689613819122314,-1.9138243198394775,2.6277966499328613
1763693816722291700,12.256291748046875,0.8963935971260071,-3.260012626647949,3.1794543266296387
1763693816732299800,12.2662998046875,0.7994573712348938,-4.228043079376221,3.5787835121154785
1763693816742303500,12.276303466796875,0.9603075981140137,-4.561460971832275,3.890896797180176
1763693816752321000,12.286321044921875,1.3532453775405884,-4.416589260101318,4.233768463134766
1763693816762326000,12.296325927734374,1.8134260177612305,-4.122584819793701,4.539490699768066
1763693816772355000,12.30635498046875,2.2127552032470703,-3.9192585945129395,4.479837417602539
1763693816782362600,12.316362548828126,2.524735450744629,-3.297295570373535,3.7843735218048096
1763693816792364000,12.326364013671874,2.5907797813415527,-1.0331429243087769,3.1805195808410645
1763693816802370800,12.336370849609375,2.134993314743042,2.2886531352996826,2.8056905269622803
1763693816812349400,12.346349365234374,1.7825343608856201,4.418586730957031,2.751363754272461
1763693816832386600,12.366386474609374,1.8463151454925537,3.0906405448913574,2.9333853721618652
1763693816842393600,12.3763935546875,1.4821386337280273,1.696516752243042,2.773733615875244
1763693816852391400,12.386391357421875,0.8367405533790588,0.6432675719261169,2.6171443462371826
1763693816862397400,12.3963974609375,0.06990591436624527,-0.3270265460014343,2.4903817176818848
1763693816872406500,12.406406494140626,-0.5467308759689331,-0.9670984148979187,2.3178138732910156
1763693816882412800,12.416412841796875,-0.7628399729728699,-1.1192935705184937,2.0495083332061768
1763693816892410000,12.42641015625,-0.5872097015380859,-0.934076189994812,1.694785714149475
1763693816902415400,12.436415283203125,-0.35179319977760315,-0.8360747694969177,1.2698909044265747
1763693816912431400,12.446431396484375,-0.22290000319480896,-1.2130341529846191,0.7832126021385193
1763693816922438000,12.45643798828125,-0.17389929294586182,-1.8211489915847778,0.24646829068660736
1763693816932420000,12.466420166015626,-0.20479105412960052,-2.2854573726654053,-0.3616466224193573
1763693816942424000,12.476424072265624,-0.3432713449001312,-2.413285493850708,-0.986805260181427
1763693816952419300,12.48641943359375,-0.5989272594451904,-2.1609582901000977,-1.5310062170028687
1763693816962422300,12.49642236328125,-0.9109073877334595,-1.6540405750274658,-1.9517731666564941
1763693816972461300,12.50646142578125,-1.2303441762924194,-0.8765535950660706,-2.257361888885498
1763693816982468000,12.516468017578125,-1.473217248916626,0.13528458774089813,-2.5588228702545166
1763693816992476700,12.5264765625,-1.5445878505706787,0.9264864325523376,-2.801562786102295
1763693817002483500,12.5364833984375,-1.4316731691360474,1.3801425695419312,-2.8921077251434326
1763693817012486100,12.546486083984375,-1.212368369102478,1.7934529781341553,-2.814345598220825
1763693817022492700,12.55649267578125,-1.0291482210159302,1.9617598056793213,-2.4277992248535156
1763693817032488700,12.56648876953125,-0.8853418231010437,1.9074329137802124,-1.6567037105560303
1763693817042494200,12.576494140625,-0.541404664516449,2.0404539108276367,-0.5235620141029358
1763693817052493800,12.586493896484376,0.09547150880098343,2.409024477005005,0.5435351729393005
1763693817062498600,12.59649853515625,0.965633749961853,3.448425531387329,0.9025186896324158
1763693817072488200,12.60648828125,1.8388584852218628,5.08315896987915,0.29014283418655396
1763693817082491600,12.61649169921875,2.752695322036743,6.708437919616699,-0.8025199174880981
1763693817112528600,12.646528564453124,2.3672142028808594,-0.5250267386436462,0.5531222224235535
1763693817122534100,12.6565341796875,0.7579132914543152,-1.216229796409607,1.3444572687149048
1763693817132518700,12.6665185546875,-0.9162335395812988,-1.5134297609329224,2.048443078994751
1763693817142522000,12.676522216796876,-1.5403269529342651,-1.7167562246322632,2.2050323486328125
1763693817152530400,12.686530517578126,-1.541392207145691,-0.5900059342384338,1.1484543085098267
1763693817162534400,12.696534423828124,-1.3848029375076294,1.1203588247299194,-0.5768237113952637
1763693817172570400,12.7065703125,-1.373085379600525,2.020214319229126,-2.2605576515197754
1763693817182577400,12.716577392578126,-1.487065315246582,1.5367318391799927,-3.3148720264434814
1763693817192578000,12.726578125,-1.716090440750122,-0.14487169682979584,-3.434178113937378
1763693817202584300,12.736584228515625,-2.0110268592834473,-2.2515032291412354,-2.9720001220703125
1763693817212559600,12.7465595703125,-2.273074150085449,-3.5858407020568848,-2.5119526386260986
1763693817222563000,12.75656298828125,-2.3380532264709473,-3.320730686187744,-2.3340587615966797
1763693817232606200,12.766606201171875,-2.16228985786438,-1.8925195932388306,-2.584388494491577
1763693817242613500,12.776613525390625,-1.358172059059143,-0.8935973644256592,-3.0199356079101562
1763693817252603600,12.786603759765624,-0.3347494900226593,-0.4792217016220093,-3.7271173000335693
1763693817262609400,12.796609375,0.25206077098846436,-0.05219641700387001,-4.309666633605957
1763693817272615700,12.80661572265625,0.5034557580947876,0.7741581201553345,-4.285166263580322
1763693817282621400,12.816621337890625,0.44486793875694275,1.495187759399414,-3.635507106781006
1763693817292629000,12.82662890625,0.20199480652809143,1.4408608675003052,-2.7142138481140137
