time,seconds_elapsed,z,y,x
1763697768771137300,0.22813720703125,0.3750486373901367,-0.1019589900970459,-0.3451817035675049
1763697768780725500,0.2377255859375,0.564265251159668,-0.07479357719421387,-0.43699002265930176
1763697768790314200,0.247314208984375,0.619720458984375,-0.12947392463684082,-0.6591792106628418
1763697768799902500,0.25690234375,0.5511655807495117,-0.1483311653137207,-0.8928687572479248
1763697768809489700,0.26648974609375,0.638300895690918,-0.1897597312927246,-1.089487075805664
1763697768819078000,0.276077880859375,0.5274686813354492,-0.20613813400268555,-1.304194450378418
1763697768828666600,0.28566650390625,0.26671791076660156,-0.058485984802246094,-1.4734609127044678
1763697768838254800,0.2952548828125,0.052448272705078125,0.11970996856689453,-1.4667906761169434
1763697768847842000,0.304842041015625,-0.09889888763427734,0.1772754192352295,-1.3089625835418701
1763697768857430300,0.31443017578125,0.16392135620117188,0.05814719200134277,-0.9890827536582947
1763697768867019300,0.324019287109375,0.3985757827758789,-0.20882606506347656,-0.6301555633544922
1763697768876607200,0.333607177734375,0.2337179183959961,-0.4343860149383545,-0.4948056936264038
1763697768886194400,0.3431943359375,0.49588871002197266,-0.5312540531158447,-0.3341425657272339
1763697768895782700,0.35278271484375,1.2030391693115234,-0.402773380279541,0.05557692050933838
1763697768905370600,0.36237060546875,1.1206483840942383,-0.2724447250366211,0.24296891689300537
1763697768914958600,0.37195849609375,0.5130062103271484,-0.27909159660339355,0.08223366737365723
1763697768924545800,0.3815458984375,-0.1317300796508789,-0.3449265956878662,-0.21213626861572266
1763697768934134000,0.391134033203125,-0.7129135131835938,-0.33226847648620605,-0.6704652905464172
1763697768943723000,0.400722900390625,-1.2127819061279297,-0.2554330825805664,-1.1638026237487793
1763697768953311000,0.41031103515625,-1.1720342636108398,-0.09931039810180664,-1.32130765914917
1763697768962898200,0.419898193359375,-0.8998174667358398,-0.003284931182861328,-1.266445279121399
1763697768972486400,0.429486328125,-0.6173286437988281,-0.11814689636230469,-1.1121861934661865
1763697768982075400,0.439075439453125,-0.18341064453125,-0.3867313861846924,-1.026550531387329
1763697768991663400,0.448663330078125,0.002002716064453125,-0.33775949478149414,-1.0252747535705566
1763697769001250600,0.45825048828125,-0.0915517807006836,-0.2435762882232666,-1.1211915016174316
1763697769010838800,0.4678388671875,-0.15906810760498047,-0.34537172317504883,-1.2886244058609009
1763697769020427800,0.477427734375,0.07316017150878906,-0.45824575424194336,-1.2751948833465576
1763697769030015700,0.487015625,0.4460029602050781,-0.4053335189819336,-1.1278176307678223
1763697769039603000,0.49660302734375,0.9019956588745117,-0.17797231674194336,-0.818706750869751
1763697769049191200,0.506191162109375,1.0385427474975586,0.03633570671081543,-0.6111920475959778
1763697769058780200,0.5157802734375,1.0359725952148438,0.06642770767211914,-0.619684636592865
1763697769068368100,0.5253681640625,0.8819446563720703,-0.07449531555175781,-0.8126014471054077
1763697769077955300,0.534955322265625,0.5283641815185547,-0.25359344482421875,-1.1737629175186157
1763697769087543600,0.54454345703125,0.2548332214355469,-0.4083869457244873,-1.360297441482544
1763697769097132500,0.554132568359375,-0.06445980072021484,-0.4887521266937256,-1.4475432634353638
1763697769106720500,0.563720458984375,-0.12047863006591797,-0.4582703113555908,-1.454115867614746
1763697769116308000,0.573307861328125,0.06864738464355469,-0.3580777645111084,-1.3423101902008057
1763697769125896000,0.58289599609375,0.07928848266601562,-0.30396389961242676,-1.3660322427749634
1763697769135485000,0.59248486328125,-0.06096363067626953,-0.3357532024383545,-1.4700934886932373
1763697769145073000,0.602072998046875,-0.131927490234375,-0.3797578811645508,-1.4616749286651611
1763697769154660400,0.611660400390625,-0.08924579620361328,-0.36566972732543945,-1.3882479667663574
1763697769164248300,0.621248291015625,-0.060024261474609375,-0.25580286979675293,-1.244470238685608
1763697769173837300,0.63083740234375,-0.07161712646484375,-0.09865331649780273,-1.1036272048950195
1763697769183425300,0.64042529296875,0.13599872589111328,-0.07058918476104736,-1.037954330444336
1763697769193012700,0.6500126953125,0.5620994567871094,-0.09165072441101074,-1.0830327272415161
1763697769202600700,0.6596005859375,0.7875213623046875,-0.14636075496673584,-1.2336153984069824
1763697769212189700,0.669189697265625,0.7265386581420898,-0.2471756935119629,-1.2756540775299072
1763697769221777700,0.678777587890625,0.5108413696289062,-0.22582268714904785,-1.0365486145019531
1763697769231365000,0.688365234375,0.28106021881103516,-0.03798794746398926,-0.7969593405723572
1763697769240953000,0.697953125,0.25505542755126953,0.13592255115509033,-0.6312437653541565
1763697769250542000,0.7075419921875,0.13514137268066406,0.2183380126953125,-0.7440671920776367
1763697769260130000,0.717130126953125,0.07154560089111328,0.16211962699890137,-0.907101035118103
1763697769269717500,0.726717529296875,-0.009386062622070312,0.1421525478363037,-1.0164086818695068
1763697769279305500,0.736305419921875,0.017226219177246094,0.18359017372131348,-0.9603080749511719
1763697769288894500,0.74589453125,0.0784149169921875,0.20676982402801514,-0.7383186221122742
1763697769298482400,0.755482421875,-5.5198235511779785,0.6062108278274536,-0.5270889401435852
1763697769308070000,0.76506982421875,1.969869613647461,-0.10561168193817139,-0.6921550035476685
1763697769317657900,0.774657958984375,-0.24971294403076172,0.04397237300872803,-0.6234405040740967
1763697769327246800,0.784246826171875,0.1326923370361328,0.21722495555877686,-0.5746418833732605
1763697769336834800,0.793834716796875,1.0127019882202148,0.16274774074554443,-0.30265069007873535
1763697769346422300,0.80342236328125,-0.5453147888183594,0.274782657623291,-0.49361753463745117
1763697769356010200,0.81301025390625,-0.3377103805541992,0.0336613655090332,-0.7022252082824707
1763697769365599200,0.82259912109375,-0.007618904113769531,-0.15551793575286865,-0.8246039152145386
1763697769375187200,0.832187255859375,0.4703798294067383,-0.07391035556793213,-0.7317025065422058
1763697769384774700,0.841774658203125,-0.028261184692382812,0.08185958862304688,-0.723889946937561
1763697769394362600,0.851362548828125,-0.5202293395996094,0.07388103008270264,-0.8102737069129944
1763697769403951600,0.86095166015625,-0.6173810958862305,0.048628807067871094,-0.7693885564804077
1763697769413539600,0.87053955078125,-0.5322389602661133,0.08999574184417725,-0.6724274158477783
1763697769423127000,0.880126953125,-1.4512834548950195,0.052106380462646484,-0.6475277543067932
1763697769432715000,0.889715087890625,-0.9284791946411133,0.05740976333618164,-0.5112296342849731
1763697769442304000,0.899303955078125,0.7357549667358398,-0.433286190032959,-0.2982743978500366
1763697769451892000,0.90889208984375,0.6440315246582031,-0.47295433282852173,-0.5464120507240295
1763697769461479400,0.9184794921875,-0.8013677597045898,0.12588262557983398,-0.6718049645423889
1763697769471067400,0.9280673828125,-0.42223358154296875,0.08979451656341553,-0.7297759056091309
1763697769480656400,0.937656494140625,-0.06828784942626953,-0.12488579750061035,-0.8821693062782288
1763697769490244400,0.947244384765625,0.4611339569091797,-0.11952698230743408,-0.676223874092102
1763697769499831800,0.956831787109375,0.5338029861450195,0.028678178787231445,-0.5408053994178772
1763697769509419800,0.966419677734375,0.5126113891601562,-0.14254546165466309,-1.0789241790771484
1763697769519008800,0.9760087890625,0.6337795257568359,0.06447350978851318,-1.3760545253753662
1763697769528596700,0.9855966796875,0.7660131454467773,0.3296542167663574,-1.2120990753173828
1763697769538184200,0.99518408203125,1.1637554168701172,0.38354700803756714,-0.908105731010437
1763697769547772200,1.004772216796875,1.3676443099975586,0.5857016444206238,-0.7157838344573975
1763697769557361200,1.014361083984375,1.3915042877197266,0.6053197979927063,-0.7017171382904053
1763697769566949000,1.02394921875,1.0943145751953125,0.2678716778755188,-0.8021645545959473
1763697769576536600,1.03353662109375,1.1840457916259766,0.0047383904457092285,-1.1088917255401611
1763697769586124500,1.04312451171875,1.2992582321166992,0.3068116307258606,-1.4571895599365234
1763697769595713500,1.052713623046875,1.3172216415405273,0.4499015808105469,-1.6654859781265259
1763697769605301800,1.0623017578125,1.3806438446044922,0.34965258836746216,-1.7100000381469727
1763697769614889000,1.071888916015625,1.117238998413086,-0.09911936521530151,-1.549872875213623
1763697769624477200,1.081477294921875,0.912994384765625,0.20249998569488525,-1.0836137533187866
1763697769634066000,1.09106591796875,0.6311197280883789,0.17457008361816406,-0.9606680870056152
1763697769643654100,1.100654052734375,0.4873027801513672,0.12461543083190918,-1.0539393424987793
1763697769653241300,1.110241455078125,0.3947868347167969,0.21042072772979736,-1.2240500450134277
1763697769662829600,1.11982958984375,0.0014638900756835938,0.31576281785964966,-1.4161889553070068
1763697769672418300,1.129418212890625,-0.18384933471679688,0.5888150334358215,-1.6460210084915161
1763697769682006500,1.139006591796875,0.0017557144165039062,0.655928373336792,-1.7966704368591309
1763697769691593700,1.14859375,0.21353530883789062,0.626226007938385,-2.0160651206970215
1763697769701182000,1.158181884765625,0.2776069641113281,0.720140814781189,-2.0095438957214355
1763697769710770700,1.167770751953125,0.2336568832397461,0.7854694128036499,-1.8407070636749268
1763697769720359000,1.17735888671875,0.23640727996826172,0.8858171105384827,-1.4697489738464355
1763697769729946000,1.186946044921875,-0.6684684753417969,0.8600775599479675,-1.1786706447601318
1763697769739534300,1.196534423828125,-1.5027713775634766,0.9112744331359863,-0.00032401084899902344
1763697769749123000,1.206123046875,-0.7563381195068359,0.6236563920974731,-1.3201520442962646
1763697769758711300,1.215711181640625,-0.8171892166137695,0.5707352161407471,-0.8745999932289124
1763697769768298500,1.225298583984375,-0.859776496887207,0.8080721497535706,-0.9535894393920898
1763697769777886700,1.23488671875,-1.0167789459228516,0.869533896446228,-1.0784080028533936
1763697769787475500,1.244475341796875,-1.1062822341918945,0.7590266466140747,-1.2344615459442139
1763697769797063700,1.254063720703125,-1.286661148071289,0.6676539182662964,-1.2230136394500732
1763697769806651000,1.26365087890625,-1.3935861587524414,0.6717393398284912,-1.1076641082763672
1763697769816239000,1.273239013671875,-1.1160545349121094,0.6915051937103271,-1.0440590381622314
1763697769825827800,1.282827880859375,-0.7927961349487305,0.8068884611129761,-0.9652573466300964
1763697769835416000,1.292416015625,-0.8151216506958008,0.829108476638794,-0.7608139514923096
1763697769845003300,1.302003173828125,-0.8661355972290039,1.0003575086593628,-0.3561299443244934
1763697769854591500,1.311591552734375,-0.8004846572875977,0.89696204662323,-0.22440870106220245
1763697769864180200,1.32118017578125,-1.1910524368286133,0.7975823879241943,-0.2432185262441635
1763697769873768400,1.3307685546875,-1.322021484375,1.0167810916900635,-0.14459775388240814
1763697769883355600,1.340355712890625,-1.2287530899047852,0.9062473773956299,-0.499430775642395
1763697769892944000,1.34994384765625,-1.092961311340332,1.092705488204956,-0.6585748195648193
1763697769902532900,1.359532958984375,-1.099325180053711,1.2994067668914795,-0.7240913510322571
1763697769912120800,1.369120849609375,-1.2602996826171875,1.1648660898208618,-0.918120265007019
1763697769921708000,1.3787080078125,-1.2081899642944336,0.9804017543792725,-0.9865202307701111
1763697769931296300,1.388296142578125,-1.0316429138183594,0.9553908109664917,-0.970299482345581
1763697769940885200,1.39788525390625,-1.13262939453125,1.089045763015747,-0.783132791519165
1763697769950473200,1.40747314453125,-1.1273307800292969,1.2654719352722168,-0.38553106784820557
1763697769960060400,1.417060302734375,-0.9464883804321289,1.250340461730957,-0.33427608013153076
1763697769969648600,1.426648681640625,-0.7172279357910156,0.947789192199707,-0.38821470737457275
1763697769979237600,1.436237548828125,-0.3989572525024414,0.6790096759796143,-0.24608230590820312
1763697769988825600,1.44582568359375,-0.24699020385742188,0.676445484161377,0.04691648483276367
1763697769998412800,1.455412841796875,-0.1262645721435547,0.7745952606201172,0.5433589220046997
1763697770008001000,1.4650009765625,0.49010467529296875,1.2691752910614014,1.8393199443817139
1763697770017590000,1.474590087890625,-0.15485000610351562,0.2761080265045166,0.5325677394866943
1763697770027178000,1.484177978515625,0.30547523498535156,0.5594837665557861,1.469520926475525
1763697770036765200,1.49376513671875,0.12627887725830078,0.9576852321624756,2.224156141281128
1763697770046353400,1.503353515625,0.018128395080566406,0.8981742858886719,2.2422420978546143
1763697770055942400,1.5129423828125,0.12080764770507812,0.7513041496276855,2.002096176147461
1763697770065530400,1.5225302734375,0.19831371307373047,0.7488374710083008,1.7893422842025757
1763697770075117600,1.53211767578125,0.13068866729736328,0.8714468479156494,1.6210954189300537
1763697770084705800,1.541705810546875,-0.48042964935302734,1.1061983108520508,1.2897815704345703
1763697770094294800,1.551294677734375,-0.7207098007202148,1.0006824731826782,0.5067925453186035
1763697770103882800,1.5608828125,-0.6675548553466797,0.8103951215744019,-0.08708000183105469
1763697770113470000,1.570469970703125,-0.7222681045532227,0.5723831653594971,-0.4295654296875
1763697770123058200,1.58005810546875,-0.5594043731689453,0.3500303030014038,-0.6173014640808105
1763697770132647200,1.589647216796875,-0.40635108947753906,0.10207343101501465,-0.42806339263916016
1763697770142235100,1.599235107421875,-0.10974693298339844,0.06810522079467773,-0.22997379302978516
1763697770151822300,1.608822265625,0.34856224060058594,0.2892913818359375,0.2165675163269043
1763697770161410600,1.61841064453125,1.0929479598999023,0.5138630867004395,0.4310297966003418
1763697770170999600,1.62799951171875,2.368846893310547,0.9203635454177856,0.624138355255127
1763697770180587500,1.63758740234375,3.265866279602051,2.477240562438965,1.3451623916625977
1763697770190174700,1.6471748046875,3.6243419647216797,0.5648280382156372,0.8000073432922363
1763697770199763000,1.656762939453125,3.1200761795043945,-1.2610242366790771,0.6027994155883789
1763697770209352000,1.66635205078125,3.307737350463867,-2.494889736175537,0.1844773292541504
1763697770218940000,1.67593994140625,2.9348068237304688,-1.9233651161193848,0.0964059829711914
1763697770228527000,1.685527099609375,2.5818443298339844,-1.7424535751342773,-0.3163890838623047
1763697770238115300,1.695115234375,1.7702369689941406,-1.349388837814331,-1.258460521697998
1763697770247704300,1.704704345703125,1.2644133567810059,-1.5716078281402588,-1.6897673606872559
1763697770257292300,1.714292236328125,1.0306377410888672,-1.7799701690673828,-1.732001781463623
1763697770266879500,1.72387939453125,0.9993858337402344,-1.5760852098464966,-1.458946704864502
1763697770276467700,1.7334677734375,0.31125974655151367,-1.1369819641113281,-0.7154912948608398
1763697770286056700,1.743056640625,-1.1014833450317383,-0.5673784017562866,-0.10299539566040039
1763697770295644700,1.752644775390625,-2.549105644226074,0.17388570308685303,0.5061430931091309
1763697770305232100,1.762232177734375,-1.6833481788635254,0.10691916942596436,0.5589694976806641
1763697770314820000,1.771820068359375,-0.7971105575561523,-1.228933334350586,-0.17570781707763672
1763697770324409000,1.7814091796875,-0.9436187744140625,-2.0887680053710938,-1.1186885833740234
1763697770333997000,1.7909970703125,-0.8353447914123535,-2.9307913780212402,-2.2298364639282227
1763697770343584500,1.80058447265625,-0.2719573974609375,-3.5046615600585938,-2.9863758087158203
1763697770353172500,1.81017236328125,-0.7957844734191895,-2.5812735557556152,-3.1134533882141113
1763697770362761500,1.819761474609375,-1.1441402435302734,-1.3713940382003784,-2.5182108879089355
1763697770372349400,1.829349365234375,-0.7858700752258301,-0.11665475368499756,-1.4512386322021484
1763697770381936600,1.8389365234375,-0.3144083023071289,0.7525984048843384,0.11297941207885742
1763697770391524900,1.84852490234375,0.25457286834716797,-0.5518643260002136,0.5446028709411621
1763697770401113900,1.85811376953125,0.6819667816162109,-1.5821911096572876,1.0791926383972168
1763697770410701800,1.867701904296875,0.7915239334106445,-1.4591983556747437,1.9801130294799805
1763697770420289000,1.8772890625,0.22078514099121094,-1.4254437685012817,2.2045745849609375
1763697770429877200,1.886877197265625,-0.24169301986694336,-1.2820861339569092,2.252924919128418
1763697770439466200,1.89646630859375,-0.4301462173461914,-1.01023268699646,2.4633378982543945
1763697770449054200,1.90605419921875,-0.6838498115539551,-0.82732093334198,2.430058002471924
1763697770458641700,1.9156416015625,-0.4942035675048828,-0.8449378609657288,1.9297308921813965
1763697770468229600,1.925229736328125,-0.6401829719543457,-0.97715163230896,1.4475421905517578
1763697770477818600,1.934818603515625,-0.46019458770751953,-0.9716455340385437,2.1393966674804688
1763697770487406600,1.944406494140625,-0.7045936584472656,-0.7915896773338318,1.7832674980163574
1763697770496994000,1.953994140625,-0.18491506576538086,-0.014929443597793579,1.7866954803466797
1763697770506582000,1.96358203125,-0.36699867248535156,0.4346717596054077,2.895369529724121
1763697770516171000,1.9731708984375,-1.0447115898132324,0.03310149908065796,3.9786086082458496
1763697770525759000,1.982759033203125,-1.3336167335510254,-0.4523051381111145,3.8921070098876953
1763697770535346400,1.992346435546875,-1.13177490234375,-0.8214699029922485,3.835376024246216
1763697770544934400,2.001934326171875,-1.2324528694152832,-0.9078308939933777,4.41280460357666
1763697770554523400,2.0115234375,-1.6938433647155762,-0.7686768770217896,4.198497295379639
1763697770564111400,2.021111328125,-2.1659433841705322,-0.4653441607952118,3.8280181884765625
1763697770573698800,2.03069873046875,-2.3917324542999268,-0.24236738681793213,3.8498873710632324
1763697770583286800,2.040286865234375,-2.4364535808563232,-0.08973467350006104,4.008198261260986
1763697770592875800,2.049875732421875,-2.4941675662994385,-0.40125390887260437,4.222220420837402
1763697770602463700,2.059463623046875,-2.452918767929077,-0.4448370337486267,4.342170715332031
1763697770612051200,2.06905126953125,-2.3325917720794678,-0.4286111891269684,4.528597354888916
1763697770621639200,2.07863916015625,-2.1916751861572266,-0.25175797939300537,4.783858776092529
1763697770631228200,2.088228271484375,-1.9753422737121582,-0.2685319781303406,4.961154937744141
1763697770640816000,2.097816162109375,-1.823882818222046,-0.29867416620254517,4.919459342956543
1763697770650403600,2.107403564453125,-1.7090222835540771,-0.3531229496002197,4.702826023101807
1763697770659991600,2.116991455078125,-1.5253281593322754,-0.6240555644035339,4.379158973693848
1763697770669580500,2.12658056640625,-1.342940330505371,-0.7764768600463867,3.8285112380981445
1763697770679168500,2.13616845703125,-1.222139835357666,-0.9223363995552063,3.29185152053833
1763697770688756000,2.145755859375,-0.977017879486084,-1.1280332803726196,2.9387307167053223
1763697770698344000,2.155343994140625,-0.6870903968811035,-1.3201866149902344,2.766864776611328
1763697770707933000,2.164932861328125,-0.625312328338623,-1.4600629806518555,2.7294211387634277
1763697770717521000,2.17452099609375,-0.3178882598876953,-1.763353705406189,2.76871919631958
1763697770727108400,2.1841083984375,-0.0495610237121582,-1.9893019199371338,2.567246913909912
1763697770736696300,2.1936962890625,0.03557157516479492,-2.046825885772705,2.6331944465637207
1763697770746285300,2.203285400390625,0.04039144515991211,-2.245328426361084,2.442765712738037
1763697770755873300,2.212873291015625,0.10125875473022461,-2.6229352951049805,1.956923484802246
1763697770765460700,2.222460693359375,0.4704866409301758,-3.015594005584717,1.3269190788269043
1763697770775048700,2.232048583984375,0.9279899597167969,-3.3974483013153076,0.8822827339172363
1763697770784637700,2.2416376953125,1.549459457397461,-3.5575191974639893,0.5445523262023926
1763697770794225700,2.2512255859375,2.1180639266967773,-3.488896131515503,0.25301504135131836
1763697770803813000,2.260813232421875,2.4659790992736816,-3.5690605640411377,0.05483531951904297
1763697770813401000,2.270401123046875,2.730531692504883,-3.9648799896240234,-0.19897794723510742
1763697770822990000,2.279989990234375,2.996583938598633,-4.270824432373047,-0.6589717864990234
1763697770832578000,2.289578125,3.154466152191162,-4.375118255615234,-1.3333892822265625
1763697770842165500,2.29916552734375,3.1301536560058594,-4.51127815246582,-2.46087646484375
1763697770851753500,2.30875341796875,3.1054558753967285,-4.389736175537109,-3.1394991874694824
1763697770861342500,2.318342529296875,3.2652015686035156,-4.161220550537109,-3.544804096221924
1763697770870930400,2.327930419921875,3.2819161415100098,-3.9097840785980225,-3.968161106109619
1763697770880518000,2.337517822265625,3.4677114486694336,-3.6197972297668457,-4.072188377380371
1763697770890105900,2.34710595703125,3.5862698554992676,-3.7039880752563477,-4.189945697784424
1763697770899694800,2.35669482421875,3.3328189849853516,-4.030914306640625,-4.380153179168701
1763697770909282800,2.36628271484375,2.775460720062256,-4.036129474639893,-4.596376895904541
1763697770918870300,2.375870361328125,2.5427212715148926,-3.189173698425293,-4.5795111656188965
1763697770928458200,2.385458251953125,2.297438621520996,-1.5742769241333008,-4.4562530517578125
1763697770938047200,2.395047119140625,1.4867825508117676,-0.7645201683044434,-4.308780193328857
1763697770947635200,2.40463525390625,1.392721176147461,-1.4274907112121582,-4.309715270996094
1763697770957222700,2.41422265625,1.533215045928955,-2.6418118476867676,-4.461312294006348
1763697770966811000,2.423810791015625,1.4208059310913086,-3.438967227935791,-4.562027931213379
1763697770976399600,2.433399658203125,0.6481637954711914,-3.5584402084350586,-4.35562801361084
1763697770985987600,2.442987548828125,-0.18099117279052734,-2.9945502281188965,-3.986110210418701
1763697770995575000,2.452574951171875,-0.5728192329406738,-2.498084545135498,-3.810667037963867
1763697771005163000,2.4621630859375,-1.1752734184265137,-2.412471294403076,-3.56242036819458
1763697771014752000,2.471751953125,-1.6093339920043945,-1.72629976272583,-3.0656566619873047
1763697771024340000,2.481340087890625,-1.6753277778625488,-1.5563416481018066,-2.9102306365966797
1763697771033927400,2.490927490234375,-1.6585192680358887,-2.05641508102417,-2.903794765472412
1763697771043515400,2.500515380859375,-1.719494342803955,-2.0874404907226562,-2.724179744720459
1763697771053104400,2.5101044921875,-1.8362398147583008,-1.7707881927490234,-2.5205719470977783
1763697771062692400,2.5196923828125,-1.9229001998901367,-1.258397102355957,-2.4244191646575928
1763697771072279800,2.52927978515625,-1.9597816467285156,-0.8315577507019043,-2.5023281574249268
1763697771081867800,2.53886767578125,-1.7816705703735352,-0.4603304862976074,-2.6882553100585938
1763697771091456800,2.548456787109375,-1.5195178985595703,-0.06435298919677734,-2.915349006652832
1763697771101044700,2.558044677734375,-1.3274188041687012,0.34212493896484375,-3.074190616607666
1763697771110632200,2.567632080078125,-1.1484427452087402,0.7343254089355469,-3.2420051097869873
1763697771120220200,2.57722021484375,-0.912024974822998,1.1297078132629395,-3.3676676750183105
1763697771129809200,2.58680908203125,-0.6057791709899902,1.4563837051391602,-3.5251612663269043
1763697771139397000,2.596397216796875,-0.2692875862121582,1.7648906707763672,-3.639596700668335
1763697771148984600,2.605984619140625,-0.07532548904418945,2.2405247688293457,-3.7114169597625732
1763697771158572800,2.61557275390625,0.0592494010925293,2.7967333793640137,-3.6485893726348877
1763697771168161500,2.62516162109375,0.1499953269958496,3.280182361602783,-3.5157711505889893
1763697771177749500,2.63474951171875,0.3164072036743164,3.5444130897521973,-3.392174243927002
1763697771187337000,2.6443369140625,0.5631427764892578,3.64613676071167,-3.306917667388916
1763697771196925200,2.65392529296875,0.8631811141967773,3.6650543212890625,-3.2103357315063477
1763697771206514000,2.663513916015625,1.2277956008911133,3.6541147232055664,-3.233722448348999
1763697771216102000,2.673101806640625,1.6424274444580078,3.5945496559143066,-3.4116666316986084
1763697771225689300,2.682689453125,2.066814422607422,3.579977035522461,-3.7572436332702637
1763697771235277300,2.69227734375,2.6841049194335938,3.5141587257385254,-4.223644256591797
1763697771244866300,2.7018662109375,3.2915310859680176,3.3769516944885254,-4.773769855499268
1763697771254454300,2.711454345703125,3.8545684814453125,3.1568751335144043,-5.271915435791016
1763697771264041700,2.721041748046875,4.218321323394775,3.097320556640625,-5.730203628540039
1763697771273629700,2.730629638671875,4.453015327453613,3.1860222816467285,-6.138205528259277
1763697771283218700,2.74021875,4.69954252243042,3.3831257820129395,-6.488442420959473
1763697771292806700,2.749806640625,4.855814456939697,3.6472043991088867,-6.778912544250488
1763697771302394000,2.75939404296875,5.047144889831543,3.7964911460876465,-7.008099555969238
1763697771311982000,2.768982177734375,5.3206000328063965,3.7453527450561523,-7.098354339599609
1763697771321571000,2.778571044921875,5.531026840209961,3.5102949142456055,-7.078826427459717
1763697771331159000,2.788158935546875,5.598053455352783,3.212437152862549,-6.897709846496582
1763697771340746500,2.79774658203125,5.729435443878174,2.9609150886535645,-6.552958011627197
1763697771350334700,2.807334716796875,5.82996940612793,2.721503257751465,-5.957179546356201
1763697771359923500,2.81692333984375,5.826173782348633,2.4794058799743652,-5.278007507324219
1763697771369511400,2.826511474609375,5.776147842407227,2.0244851112365723,-4.575961112976074
1763697771379099000,2.836098876953125,5.800906181335449,1.470212459564209,-3.892181396484375
1763697771388687000,2.84568701171875,5.685153007507324,0.9519858360290527,-3.2541351318359375
1763697771398275800,2.85527587890625,5.405471324920654,0.5984759330749512,-2.5297811031341553
1763697771407863800,2.86486376953125,5.200229167938232,0.3335719108581543,-1.8844883441925049
1763697771417451300,2.874451171875,5.005215167999268,0.23312616348266602,-1.4225244522094727
1763697771427039200,2.884039306640625,4.646790027618408,0.3563199043273926,-1.1373915672302246
1763697771436628200,2.893628173828125,4.365746974945068,0.3711123466491699,-0.9736003875732422
1763697771446216200,2.90321630859375,4.129097938537598,-0.12155294418334961,-0.9302191734313965
1763697771455803600,2.9128037109375,3.897961139678955,-0.8245224952697754,-0.9549808502197266
1763697771465391600,2.9223916015625,3.664699077606201,-1.5998711585998535,-0.9796578884124756
1763697771474980600,2.931980712890625,3.352036476135254,-2.427333354949951,-0.9665977954864502
1763697771484568600,2.941568603515625,3.0357742309570312,-3.2789077758789062,-0.9694085121154785
1763697771494156000,2.951156005859375,2.8104662895202637,-4.217968463897705,-1.0129063129425049
1763697771503744000,2.960743896484375,2.38881778717041,-5.079376697540283,-0.826225757598877
1763697771513333000,2.9703330078125,1.5603904724121094,-5.615261077880859,-0.46248531341552734
1763697771522921000,2.9799208984375,0.7890801429748535,-6.208108425140381,-0.1230161190032959
1763697771532508400,2.98950830078125,0.15540170669555664,-6.770626544952393,0.3480205535888672
1763697771542096600,2.9990966796875,-0.6392583847045898,-6.752754211425781,1.038050651550293
1763697771551685400,3.008685302734375,-1.5489444732666016,-6.1165242195129395,1.79482102394104
1763697771561273300,3.0182734375,-2.2872862815856934,-5.296833515167236,2.531157970428467
1763697771570860800,3.02786083984375,-2.8303704261779785,-4.609556674957275,3.1899306774139404
1763697771580449000,3.037448974609375,-3.213420867919922,-4.221789360046387,3.674184799194336
1763697771590037800,3.047037841796875,-3.385690212249756,-4.162642002105713,4.010312080383301
1763697771599626000,3.0566259765625,-3.3302536010742188,-4.388348579406738,4.270298480987549
1763697771609213200,3.066213134765625,-3.294887065887451,-4.6303229331970215,4.5417351722717285
1763697771618801200,3.07580126953125,-3.3910775184631348,-4.738328456878662,4.776651859283447
1763697771628390100,3.08539013671875,-3.506472110748291,-4.772404670715332,4.899627685546875
1763697771637978000,3.09497802734375,-3.6396284103393555,-4.8339738845825195,4.983412265777588
1763697771647565600,3.104565673828125,-3.7599539756774902,-4.86571741104126,5.032956600189209
1763697771657153500,3.114153564453125,-3.895939826965332,-4.825137615203857,5.007326126098633
1763697771666742500,3.123742431640625,-4.060624122619629,-4.733597755432129,4.956136226654053
1763697771676330500,3.13333056640625,-4.196446418762207,-4.6592912673950195,4.90969181060791
1763697771685918000,3.14291796875,-4.30474328994751,-4.646568298339844,4.857913970947266
1763697771695506000,3.152505859375,-4.410867214202881,-4.568649768829346,4.798888683319092
1763697771705095000,3.162094970703125,-4.542095184326172,-4.384650230407715,4.705021858215332
1763697771714683000,3.171682861328125,-4.778820514678955,-4.0804643630981445,4.653039932250977
1763697771724270300,3.181270263671875,-4.972105026245117,-3.752791166305542,4.65812873840332
1763697771733858600,3.190858642578125,-5.186590194702148,-3.4087278842926025,4.632466793060303
1763697771743447300,3.200447265625,-5.461263179779053,-3.0056095123291016,4.5276079177856445
1763697771753035500,3.210035400390625,-5.595828056335449,-2.4169976711273193,4.140541076660156
1763697771762622700,3.219622802734375,-5.7243475914001465,-2.0029847621917725,3.8034143447875977
1763697771772211000,3.2292109375,-5.707688331604004,-1.8393268585205078,3.510239601135254
1763697771781799700,3.238799560546875,-5.59658670425415,-1.6578912734985352,3.1457197666168213
1763697771791388000,3.248387939453125,-4.973629951477051,-0.6805057525634766,3.1585757732391357
1763697771800975000,3.25797509765625,-5.206311225891113,-0.9044885635375977,3.050231456756592
1763697771810563000,3.26756298828125,-5.823066234588623,-1.403827428817749,2.2266793251037598
1763697771820152000,3.277152099609375,-4.873008728027344,-2.2488479614257812,1.9800684452056885
1763697771829740000,3.286739990234375,-2.762587547302246,-2.6591851711273193,1.5795655250549316
1763697771839327500,3.296327392578125,-1.3243775367736816,-1.8410868644714355,1.1421279907226562
1763697771848915500,3.30591552734375,-0.9071993827819824,-0.31477832794189453,1.4338865280151367
1763697771858504400,3.31550439453125,-0.14305591583251953,0.6326344013214111,1.8116350173950195
1763697771868092400,3.325092529296875,-0.8874654769897461,0.8315956592559814,1.7793035507202148
1763697771877679900,3.334679931640625,-1.934382438659668,-0.19185161590576172,1.4560141563415527
1763697771887267800,3.344267822265625,-3.3040170669555664,-2.187905788421631,1.280681848526001
1763697771896856800,3.35385693359375,-2.1194067001342773,-2.6555442810058594,0.495009183883667
1763697771906444800,3.36344482421875,-2.333029270172119,-2.0297656059265137,0.4480152130126953
1763697771916032300,3.3730322265625,-2.345284938812256,-1.0678014755249023,0.5556912422180176
1763697771925620500,3.382620361328125,-2.0496015548706055,-0.37484169006347656,0.6508042812347412
1763697771935209200,3.392209228515625,-1.620893955230713,-0.11032819747924805,0.6001510620117188
1763697771944797400,3.40179736328125,-1.0888590812683105,-0.07537317276000977,0.49244236946105957
1763697771954384600,3.411384521484375,-0.542177677154541,-0.03710222244262695,0.3284416198730469
1763697771963972900,3.420972900390625,0.06815719604492188,-0.041046142578125,0.12923955917358398
1763697771973561600,3.4305615234375,0.6125388145446777,-0.01688385009765625,-0.11771178245544434
1763697771983149600,3.440149658203125,1.0983824729919434,0.04953432083129883,-0.38527536392211914
1763697771992737000,3.449737060546875,1.545701503753662,0.14184093475341797,-0.5577027797698975
1763697772002325000,3.459324951171875,1.8640108108520508,0.30826807022094727,-0.7338159084320068
1763697772011914000,3.4689140625,2.2308402061462402,0.33200550079345703,-0.9782841205596924
1763697772021502000,3.478501953125,2.7139077186584473,0.24506425857543945,-1.3282415866851807
1763697772031089400,3.48808935546875,3.1869397163391113,0.2171616554260254,-1.6219336986541748
1763697772040677400,3.497677490234375,3.560925006866455,0.3473339080810547,-1.860560655593872
1763697772050266400,3.507266357421875,3.8436384201049805,0.683438777923584,-2.1220271587371826
1763697772059854300,3.516854248046875,4.1422858238220215,1.0171642303466797,-2.382732629776001
1763697772069441800,3.52644189453125,4.486103534698486,1.2572522163391113,-2.7170777320861816
1763697772079030000,3.536030029296875,4.822343349456787,1.2791132926940918,-3.070033550262451
1763697772088618800,3.54561865234375,5.096725940704346,1.1454944610595703,-3.3935317993164062
1763697772098207000,3.55520703125,5.271764278411865,0.9784460067749023,-3.6271862983703613
1763697772107794200,3.564794189453125,5.322505950927734,0.7774858474731445,-3.775933265686035
1763697772117382400,3.57438232421875,5.271610260009766,0.5794310569763184,-3.9154562950134277
1763697772126971100,3.58397119140625,5.198424816131592,0.338198184967041,-4.0416259765625
1763697772136559000,3.59355908203125,4.993542194366455,0.23209905624389648,-4.1194257736206055
1763697772146146600,3.603146484375,4.768975257873535,0.38817834854125977,-4.126570701599121
1763697772155734500,3.612734619140625,4.482177734375,0.6885275840759277,-4.122031211853027
1763697772165323500,3.622323486328125,4.26517915725708,1.040278434753418,-4.150306701660156
1763697772174911500,3.631911376953125,4.114120006561279,1.3877601623535156,-4.136322021484375
1763697772184499000,3.6414990234375,3.987619400024414,1.7982420921325684,-4.103987693786621
1763697772194087000,3.6510869140625,3.8621597290039062,2.273214340209961,-4.137199401855469
1763697772203676000,3.660676025390625,3.8185219764709473,2.5246505737304688,-4.284916877746582
1763697772213264000,3.670263916015625,3.842215061187744,2.373383045196533,-4.452152729034424
1763697772222851300,3.679851318359375,3.9314827919006348,2.034386157989502,-4.564383506774902
1763697772232439300,3.689439208984375,3.9465131759643555,1.7429184913635254,-4.567164897918701
1763697772242028300,3.6990283203125,3.8605260848999023,1.549272060394287,-4.514760971069336
1763697772251616300,3.7086162109375,3.8509063720703125,1.4350199699401855,-4.446317195892334
1763697772261203700,3.71820361328125,3.7370452880859375,1.4119720458984375,-4.351902008056641
1763697772270792000,3.7277919921875,3.618082046508789,1.4258685111999512,-4.226295471191406
1763697772280380700,3.737380615234375,3.508848190307617,1.3823843002319336,-4.106696128845215
1763697772289969000,3.746968994140625,3.4199161529541016,1.314924716949463,-4.046163082122803
1763697772299556000,3.75655615234375,3.418766975402832,1.0794677734375,-4.086921215057373
1763697772309144300,3.766144287109375,3.4715452194213867,0.7812161445617676,-4.174076080322266
1763697772318733000,3.775733154296875,3.4808478355407715,0.5564041137695312,-4.228872299194336
1763697772328321000,3.785321044921875,3.2907462120056152,0.4697856903076172,-4.207011699676514
1763697772337908500,3.794908447265625,2.966858386993408,0.45321083068847656,-4.081789493560791
1763697772347496400,3.804496337890625,2.633852481842041,0.4899582862854004,-3.918790340423584
1763697772357085400,3.81408544921875,2.1873154640197754,0.49472951889038086,-3.6913952827453613
1763697772366673400,3.82367333984375,1.6997990608215332,0.4307098388671875,-3.4222612380981445
1763697772376260900,3.8332607421875,1.2627825736999512,0.25653982162475586,-3.169316530227661
1763697772385848800,3.842848876953125,0.8267345428466797,-0.01383829116821289,-2.8728995323181152
1763697772395437800,3.852437744140625,0.3513908386230469,-0.1874222755432129,-2.5643930435180664
1763697772405025800,3.86202587890625,-0.16760826110839844,-0.30532121658325195,-2.2633163928985596
1763697772414613200,3.87161328125,-0.5969114303588867,-0.5139951705932617,-1.9677996635437012
1763697772424201500,3.881201416015625,-0.9327411651611328,-0.7686548233032227,-1.6827483177185059
1763697772433790200,3.890790283203125,-1.279879093170166,-1.0704188346862793,-1.4573886394500732
1763697772443378400,3.90037841796875,-1.5135746002197266,-1.4633698463439941,-1.2471647262573242
1763697772452965600,3.909965576171875,-1.6627449989318848,-1.946321964263916,-1.058234691619873
1763697772462553900,3.919553955078125,-1.8094115257263184,-2.461076259613037,-0.8519949913024902
1763697772472142600,3.929142578125,-1.9521937370300293,-2.8999547958374023,-0.6422066688537598
1763697772481730600,3.93873046875,-2.197531223297119,-3.193906307220459,-0.39045071601867676
1763697772491318000,3.948318115234375,-2.447864055633545,-3.3286004066467285,-0.11687040328979492
1763697772500906000,3.957906005859375,-2.694088935852051,-3.3608574867248535,0.16299009323120117
1763697772510495000,3.967494873046875,-2.999056816101074,-3.363311767578125,0.4777982234954834
1763697772520083000,3.9770830078125,-3.243788242340088,-3.383981227874756,0.7728042602539062
1763697772529670400,3.98667041015625,-3.397707939147949,-3.464240074157715,0.9949915409088135
1763697772539258400,3.99625830078125,-3.5521531105041504,-3.5983352661132812,1.1352362632751465
1763697772548847400,4.005847412109375,-3.6031346321105957,-3.8960962295532227,1.217296838760376
1763697772558435300,4.015435302734375,-3.577695369720459,-4.276603698730469,1.2089803218841553
1763697772568022800,4.025022705078125,-3.5527334213256836,-4.704225540161133,1.195094347000122
1763697772577611000,4.034611083984375,-3.45792818069458,-5.138000965118408,1.1282334327697754
1763697772587199700,4.04419970703125,-3.3636722564697266,-5.499248504638672,1.117082118988037
1763697772596788000,4.0537880859375,-3.4268736839294434,-5.688611030578613,1.2260348796844482
1763697772606375200,4.063375244140625,-3.5201950073242188,-5.71610164642334,1.3914568424224854
1763697772615963400,4.07296337890625,-3.576052665710449,-5.643547058105469,1.6118617057800293
1763697772625552100,4.08255224609375,-3.605970859527588,-5.652764320373535,1.8525075912475586
1763697772635140000,4.09214013671875,-3.559086799621582,-5.65999698638916,2.1411237716674805
1763697772654315500,4.1113154296875,-3.6652674674987793,-5.422186851501465,2.8601298332214355
1763697772663904500,4.120904541015625,-3.712584972381592,-5.222892761230469,3.2383079528808594
1763697772673492500,4.130492431640625,-3.767643928527832,-4.999499320983887,3.6298723220825195
1763697772683080000,4.140079833984375,-3.763059139251709,-4.769469261169434,4.0695977210998535
1763697772692668000,4.14966796875,-3.724963665008545,-4.502326965332031,4.425919055938721
1763697772702257000,4.1592568359375,-3.703519344329834,-4.209282875061035,4.711092472076416
1763697772711844900,4.168844970703125,-3.605548858642578,-4.117241382598877,4.899448394775391
1763697772721432300,4.178432373046875,-3.438039779663086,-4.175134658813477,5.011116027832031
1763697772731020500,4.1880205078125,-3.2344412803649902,-4.41546106338501,5.02020263671875
1763697772740609300,4.197609375,-3.0998735427856445,-4.613264083862305,4.93308162689209
1763697772750197200,4.207197265625,-2.93778133392334,-4.813364028930664,4.72320556640625
1763697772759784700,4.21678466796875,-2.692074775695801,-4.957912445068359,4.490853786468506
1763697772769373000,4.226373046875,-2.445206642150879,-4.925902366638184,4.247983455657959
1763697772778961700,4.235961669921875,-2.180589199066162,-4.710514545440674,3.9747986793518066
1763697772788549600,4.245549560546875,-1.8531742095947266,-4.2758026123046875,3.728574752807617
1763697772798137000,4.25513720703125,-1.5865883827209473,-3.6245415210723877,3.6029558181762695
1763697772807725000,4.26472509765625,-1.3399810791015625,-2.833991289138794,3.554762363433838
1763697772817314000,4.27431396484375,-1.025312900543213,-2.0156025886535645,3.5268168449401855
1763697772826902000,4.283902099609375,-0.7078127861022949,-1.3058295249938965,3.4513680934906006
1763697772836489500,4.293489501953125,-0.41133928298950195,-0.8223352432250977,3.455455780029297
1763697772846077400,4.303077392578125,-0.10756254196166992,-0.6513204574584961,3.3722856044769287
1763697772855666400,4.31266650390625,0.24843931198120117,-0.8203525543212891,3.161857843399048
1763697772865254400,4.32225439453125,0.5249404907226562,-1.141953945159912,2.8401453495025635
1763697772874841900,4.331841796875,0.7405080795288086,-1.4984006881713867,2.5287153720855713
1763697772884430000,4.34143017578125,0.8700451850891113,-1.8520798683166504,2.192193031311035
1763697772894018800,4.351018798828125,0.8825197219848633,-2.224371910095215,1.7863540649414062
1763697772903606800,4.360606689453125,0.818352222442627,-2.57420015335083,1.3901395797729492
1763697772913194200,4.3701943359375,0.7202000617980957,-2.825242042541504,0.9773280620574951
1763697772922782500,4.379782470703125,0.594520092010498,-2.9213433265686035,0.5508015155792236
1763697772932371200,4.38937109375,0.45238447189331055,-2.891357421875,0.13159656524658203
1763697772941959200,4.398959228515625,0.3261241912841797,-2.781160831451416,-0.2756016254425049
1763697772951546600,4.408546630859375,0.2497272491455078,-2.6316142082214355,-0.652900218963623
1763697772961134600,4.418134521484375,0.20995473861694336,-2.4445929527282715,-0.9392189979553223
1763697772970723600,4.4277236328125,0.14434099197387695,-2.0569214820861816,-1.1223783493041992
1763697772980311600,4.4373115234375,-0.01275777816772461,-1.4540791511535645,-1.220348596572876
1763697772989899000,4.44689892578125,-0.16718816757202148,-0.8293709754943848,-1.2566413879394531
1763697772999487000,4.456487060546875,-0.30441808700561523,-0.3186821937561035,-1.2625596523284912
1763697773009076000,4.466075927734375,-0.2240738868713379,0.11272811889648438,-1.343113899230957
1763697773018664000,4.475663818359375,-0.23447084426879883,0.4204583168029785,-1.3150849342346191
1763697773028251400,4.48525146484375,-0.17778396606445312,0.6630206108093262,-1.3642656803131104
1763697773037839600,4.494839599609375,-0.11176061630249023,0.7628569602966309,-1.3902397155761719
1763697773047428400,4.504428466796875,-0.014632225036621094,0.7956037521362305,-1.4373698234558105
1763697773057016300,4.514016357421875,0.10934162139892578,0.8156332969665527,-1.490384578704834
1763697773066603800,4.523603759765625,0.2562985420227051,0.7916450500488281,-1.5270617008209229
1763697773076191700,4.533191650390625,0.4552741050720215,0.7159595489501953,-1.6115708351135254
1763697773085780700,4.54278076171875,0.7493433952331543,0.61907958984375,-1.6889374256134033
1763697773095368700,4.55236865234375,1.0170435905456543,0.5769925117492676,-1.7328124046325684
1763697773104956200,4.5619560546875,1.3034977912902832,0.7166571617126465,-1.7788496017456055
1763697773114544000,4.571544189453125,1.642972469329834,0.9906139373779297,-1.8703317642211914
1763697773124133000,4.581133056640625,2.0389609336853027,1.2102384567260742,-2.002882957458496
1763697773133721000,4.59072119140625,2.3580222129821777,1.5805563926696777,-2.1756317615509033
1763697773143308500,4.60030859375,2.6116538047790527,1.811302661895752,-2.6465201377868652
1763697773152896800,4.609896728515625,3.0836143493652344,2.077582836151123,-3.0477986335754395
1763697773162485500,4.619485595703125,3.3003692626953125,2.393890380859375,-3.217508316040039
1763697773172073500,4.629073486328125,3.1220459938049316,2.8406662940979004,-3.219966411590576
1763697773181661000,4.638660888671875,2.7938804626464844,3.2206430435180664,-3.08250093460083
1763697773191249200,4.648249267578125,2.514375686645508,3.2895851135253906,-2.958932399749756
1763697773200838000,4.657837890625,2.259535312652588,3.4500951766967773,-2.880997657775879
1763697773210425900,4.66742578125,2.1206912994384766,3.6886415481567383,-2.898063898086548
1763697773220013300,4.677013427734375,2.2098183631896973,4.027007102966309,-3.0480425357818604
1763697773229601300,4.686601318359375,2.492722988128662,4.451654434204102,-3.2835817337036133
1763697773239190300,4.696190185546875,2.8359570503234863,4.838761329650879,-3.4514856338500977
1763697773248778200,4.7057783203125,3.284250259399414,4.930537700653076,-3.6254117488861084
1763697773258365700,4.71536572265625,3.691254138946533,5.029245376586914,-3.74873423576355
1763697773267953700,4.72495361328125,4.11240291595459,5.12967586517334,-3.923691749572754
1763697773277542700,4.734542724609375,4.500979900360107,5.096118927001953,-4.0810370445251465
1763697773287130600,4.744130615234375,4.871067047119141,4.885031223297119,-4.151946067810059
1763697773296718000,4.753718017578125,5.206486225128174,4.456193923950195,-4.1847124099731445
1763697773306306000,4.76330615234375,5.482599258422852,3.837174892425537,-4.223748207092285
1763697773315895000,4.77289501953125,5.679877758026123,3.169424533843994,-4.312828063964844
1763697773325483000,4.78248291015625,5.811732292175293,2.6332621574401855,-4.355443477630615
1763697773335070500,4.792070556640625,5.833019733428955,2.2587509155273438,-4.369308948516846
1763697773344658700,4.80165869140625,5.770080089569092,1.8560118675231934,-4.4134840965271
1763697773354247400,4.811247314453125,5.7705512046813965,1.2782769203186035,-4.522332668304443
1763697773363835400,4.82083544921875,5.890442848205566,0.6030759811401367,-4.694406509399414
1763697773373422800,4.8304228515625,6.024532318115234,0.02391338348388672,-4.920192241668701
1763697773383010800,4.8400107421875,6.157395839691162,-0.34825801849365234,-5.135332107543945
1763697773392599800,4.849599853515625,6.198845863342285,-0.38195228576660156,-5.198646545410156
1763697773402187800,4.859187744140625,6.00651741027832,-0.014491558074951172,-5.147134780883789
1763697773411775200,4.868775146484375,5.568605422973633,0.643925666809082,-4.941498756408691
1763697773421363200,4.87836328125,5.046133995056152,1.0250425338745117,-4.690404415130615
1763697773430952200,4.8879521484375,4.558698654174805,0.9114699363708496,-4.491940975189209
1763697773440540200,4.8975400390625,4.123858451843262,0.40821266174316406,-4.30229377746582
1763697773450127600,4.907127685546875,3.7179207801818848,-0.3268699645996094,-4.17341423034668
1763697773459715600,4.916715576171875,3.267120838165283,-0.964240550994873,-4.027313709259033
1763697773469304600,4.9263046875,2.771636486053467,-1.455960750579834,-3.7643039226531982
1763697773478892500,4.935892578125,2.338010311126709,-1.9523324966430664,-3.552135467529297
1763697773488480000,4.94547998046875,1.984238624572754,-2.420787811279297,-3.3635475635528564
1763697773498068000,4.95506787109375,1.5746502876281738,-2.766603946685791,-3.162548542022705
1763697773507657000,4.964656982421875,1.1604218482971191,-2.980565071105957,-2.9905216693878174
1763697773517245000,4.974244873046875,0.8084225654602051,-3.0908617973327637,-2.810502767562866
1763697773526832400,4.983832275390625,0.47986507415771484,-3.1006345748901367,-2.7155680656433105
1763697773536420400,4.99342041015625,0.23734807968139648,-3.249335289001465,-2.7136740684509277
1763697773546009300,5.00300927734375,0.07570838928222656,-3.523832321166992,-2.726130247116089
1763697773555597300,5.012597412109375,-0.097503662109375,-3.835986614227295,-2.7125656604766846
1763697773565184800,5.022184814453125,-0.3688173294067383,-3.9770984649658203,-2.6022379398345947
1763697773574772700,5.031772705078125,-0.755225658416748,-3.9816970825195312,-2.402268409729004
1763697773584361700,5.04136181640625,-1.1733369827270508,-3.9451699256896973,-2.1282336711883545
1763697773593949700,5.05094970703125,-1.5520930290222168,-3.9329400062561035,-1.8063583374023438
1763697773603537200,5.060537109375,-1.957357406616211,-3.8981804847717285,-1.414966344833374
1763697773613125000,5.070125,-2.3356881141662598,-3.7257909774780273,-1.0260958671569824
1763697773622714000,5.079714111328125,-2.749516010284424,-3.4552392959594727,-0.6879816055297852
1763697773632302000,5.089302001953125,-3.0848546028137207,-3.281834602355957,-0.4559767246246338
1763697773641889500,5.0988896484375,-3.237187385559082,-3.2915854454040527,-0.3639519214630127
1763697773651477500,5.1084775390625,-3.269381523132324,-3.4275591373443604,-0.36646318435668945
1763697773661066500,5.11806640625,-3.3763279914855957,-3.530585289001465,-0.3487734794616699
1763697773670654500,5.127654541015625,-3.4709877967834473,-3.5976054668426514,-0.2664322853088379
1763697773680242000,5.137241943359375,-3.5428433418273926,-3.673135280609131,-0.1350703239440918
1763697773689830000,5.146829833984375,-3.6600661277770996,-3.774301052093506,0.04800224304199219
1763697773699419000,5.1564189453125,-3.7658705711364746,-3.8582866191864014,0.2556881904602051
1763697773709006800,5.1660068359375,-3.949134349822998,-3.896523952484131,0.4372220039367676
1763697773718594300,5.17559423828125,-4.1452555656433105,-3.9264416694641113,0.6090703010559082
1763697773728182300,5.185182373046875,-4.26780366897583,-3.961120843887329,0.7552547454833984
1763697773737771300,5.194771240234375,-4.38815450668335,-4.018234729766846,0.8527579307556152
1763697773747359200,5.204359130859375,-4.541820049285889,-4.024493217468262,0.9475760459899902
1763697773756946700,5.21394677734375,-4.661262035369873,-3.9737844467163086,1.0052757263183594
1763697773766534700,5.22353466796875,-4.719681739807129,-3.987595796585083,1.0400199890136719
1763697773776123600,5.23312353515625,-4.726468563079834,-4.118679046630859,1.0369946956634521
1763697773785711600,5.242711669921875,-4.617008686065674,-4.33188009262085,1.0340256690979004
1763697773795299000,5.252299072265625,-4.528071403503418,-4.561588287353516,1.1223764419555664
1763697773804887000,5.261886962890625,-4.3905558586120605,-4.7261857986450195,1.228731393814087
1763697773814476000,5.27147607421875,-4.290243625640869,-4.8556718826293945,1.3259339332580566
1763697773824064000,5.28106396484375,-4.257282733917236,-5.0239787101745605,1.3968145847320557
1763697773833651500,5.2906513671875,-4.272047996520996,-5.174594879150391,1.5108866691589355
1763697773843239400,5.300239501953125,-4.283874988555908,-5.336758613586426,1.6371378898620605
1763697773852828400,5.309828369140625,-4.3636555671691895,-5.4622297286987305,1.7951936721801758
1763697773862416400,5.31941650390625,-4.475013256072998,-5.410398483276367,1.9872815608978271
1763697773872003800,5.32900390625,-4.663566589355469,-5.241180896759033,2.1755964756011963
1763697773881591800,5.338591796875,-4.810788631439209,-5.045534610748291,2.4092297554016113
1763697773891180800,5.348180908203125,-4.853692531585693,-4.8450846672058105,2.5861401557922363
1763697773900768800,5.357768798828125,-4.770023345947266,-4.80867862701416,2.7365469932556152
1763697773910356200,5.367356201171875,-4.602137088775635,-4.849066257476807,2.876913547515869
1763697773919944200,5.376944091796875,-4.3400750160217285,-4.992991924285889,2.9472038745880127
1763697773929533200,5.386533203125,-4.033076763153076,-5.173943519592285,2.993748188018799
1763697773939121200,5.39612109375,-3.6601319313049316,-5.327425479888916,2.959228992462158
1763697773948708600,5.40570849609375,-3.2620105743408203,-5.423748970031738,2.9347290992736816
1763697773958296600,5.415296630859375,-2.896362781524658,-5.523403167724609,2.8860654830932617
1763697773967885600,5.424885498046875,-2.5302467346191406,-5.633825302124023,2.8308348655700684
1763697773977473500,5.4344736328125,-2.156280517578125,-5.733407974243164,2.761470079421997
1763697773987060700,5.444060791015625,-1.8253083229064941,-5.761039733886719,2.7104644775390625
1763697773996649000,5.45364892578125,-1.5803823471069336,-5.589870452880859,2.6263537406921387
1763697774006238000,5.463238037109375,-1.4013195037841797,-5.121523857116699,2.520975112915039
1763697774015826000,5.472825927734375,-1.2195186614990234,-4.485424995422363,2.44795560836792
1763697774025413400,5.482413330078125,-1.0221590995788574,-3.704869270324707,2.3836987018585205
1763697774035001300,5.49200146484375,-0.8342905044555664,-2.9273407459259033,2.3261427879333496
1763697774044590300,5.50159033203125,-0.5776195526123047,-2.316911220550537,2.2481484413146973
1763697774054178300,5.51117822265625,-0.2191181182861328,-1.944725513458252,2.150825023651123
1763697774063765800,5.520765869140625,0.12945127487182617,-1.768160343170166,1.9110450744628906
1763697774073353700,5.530353759765625,0.4756588935852051,-1.855860710144043,1.6473835706710815
1763697774082942700,5.539942626953125,0.8112454414367676,-2.121084213256836,1.3332388401031494
1763697774092530700,5.54953076171875,1.0913310050964355,-2.4005355834960938,0.9763438701629639
1763697774102118000,5.559117919921875,1.3208832740783691,-2.6814961433410645,0.5876233577728271
1763697774111706000,5.5687060546875,1.4808368682861328,-2.803131103515625,0.20757102966308594
1763697774121295000,5.578295166015625,1.6231904029846191,-2.792245388031006,-0.1320176124572754
1763697774130883000,5.587883056640625,1.740544319152832,-2.5940933227539062,-0.3593015670776367
1763697774140470300,5.59747021484375,1.8502230644226074,-2.213249683380127,-0.5043809413909912
1763697774150058500,5.60705859375,2.033766269683838,-1.73164701461792,-0.6311874389648438
1763697774159647500,5.6166474609375,2.216991901397705,-1.1982550621032715,-0.7245562076568604
1763697774169235500,5.6262353515625,2.396026134490967,-0.6797776222229004,-0.8552896976470947
1763697774178823000,5.635822998046875,2.5473203659057617,-0.23783349990844727,-0.9699361324310303
1763697774188411000,5.645410888671875,2.5875444412231445,0.18894386291503906,-1.0835943222045898
1763697774197999900,5.654999755859375,2.5704522132873535,0.4363274574279785,-1.1932203769683838
1763697774207587800,5.664587890625,2.4794325828552246,0.5301237106323242,-1.320472240447998
1763697774217175000,5.674175048828125,2.358458995819092,0.6112351417541504,-1.4384005069732666
1763697774226763300,5.68376318359375,2.152432441711426,0.647214412689209,-1.5399971008300781
1763697774236352300,5.693352294921875,1.9596076011657715,0.7200851440429688,-1.6225680112838745
1763697774245940200,5.702940185546875,1.7122430801391602,0.7648477554321289,-1.6558696031570435
1763697774255527400,5.71252734375,1.4937858581542969,0.7932963371276855,-1.7148106098175049
1763697774265115600,5.72211572265625,1.2869086265563965,0.8575353622436523,-1.798650860786438
1763697774274704600,5.73170458984375,1.1835856437683105,0.9225373268127441,-1.8671659231185913
1763697774284292600,5.741292724609375,1.1524505615234375,0.9446859359741211,-1.9747473001480103
1763697774293879800,5.7508798828125,1.1351518630981445,0.9203805923461914,-2.073444366455078
1763697774303468000,5.760468017578125,1.160961627960205,0.9694232940673828,-2.137225866317749
1763697774313057000,5.77005712890625,1.2373781204223633,1.1679697036743164,-2.204038619995117
1763697774322645000,5.77964501953125,1.3760261535644531,1.4170279502868652,-2.2229368686676025
1763697774332232200,5.789232177734375,1.6050286293029785,1.665334701538086,-2.2353434562683105
1763697774341820400,5.7988203125,1.8273239135742188,1.9375133514404297,-2.2585840225219727
1763697774351409400,5.808409423828125,2.0103869438171387,2.3539161682128906,-2.2138333320617676
1763697774360997400,5.817997314453125,2.211400032043457,2.81844425201416,-2.1908247470855713
1763697774370584600,5.82758447265625,2.4844117164611816,3.284170627593994,-2.2453560829162598
1763697774380172800,5.8371728515625,2.8799571990966797,3.677135467529297,-2.275052070617676
1763697774389761800,5.84676171875,3.1782164573669434,3.9693775177001953,-2.305867910385132
1763697774399349800,5.856349853515625,3.3339357376098633,4.129196643829346,-2.3712809085845947
1763697774408937000,5.86593701171875,3.4809741973876953,3.984381675720215,-2.468430519104004
1763697774418525200,5.875525146484375,3.707392692565918,3.659513473510742,-2.6269209384918213
1763697774428114200,5.8851142578125,3.655966281890869,3.3500447273254395,-2.6485300064086914
1763697774437702100,5.8947021484375,3.7084527015686035,2.950972080230713,-2.7390475273132324
1763697774447289300,5.904289306640625,3.72017240524292,2.5685954093933105,-2.8408913612365723
1763697774456877600,5.913877685546875,3.6694517135620117,2.397801399230957,-2.8886923789978027
1763697774466466600,5.923466552734375,3.5689640045166016,2.432924747467041,-2.9269471168518066
1763697774476054500,5.933054443359375,3.5075812339782715,2.4913902282714844,-2.969374656677246
1763697774485641700,5.942641845703125,3.5582895278930664,2.480959892272949,-3.067180633544922
1763697774495230000,5.95222998046875,3.6984734535217285,2.42756986618042,-3.245001792907715
1763697774504819000,5.96181884765625,3.8704776763916016,2.3586997985839844,-3.42710542678833
1763697774514407000,5.971406982421875,4.09946346282959,2.191450595855713,-3.56358003616333
1763697774523994000,5.980994140625,4.341823101043701,1.9484810829162598,-3.690505027770996
1763697774533582300,5.990582275390625,4.4805755615234375,1.746004581451416,-3.76482892036438
1763697774543171300,6.00017138671875,4.577335357666016,1.457242488861084,-3.797945499420166
1763697774552759300,6.00975927734375,4.647735118865967,1.1619462966918945,-3.80844783782959
1763697774562346500,6.019346435546875,4.695011615753174,0.956963062286377,-3.810150384902954
1763697774571934700,6.028934814453125,4.68452787399292,0.8507838249206543,-3.79609751701355
1763697774581523700,6.038523681640625,4.689330577850342,0.8210062980651855,-3.719265937805176
1763697774591111700,6.048111572265625,4.654641151428223,0.8665041923522949,-3.593646764755249
1763697774600699000,6.057698974609375,4.674665451049805,0.9283041954040527,-3.4844765663146973
1763697774610287000,6.067287109375,4.78341817855835,0.9223723411560059,-3.4134511947631836
1763697774619875800,6.076875732421875,4.857966899871826,1.0096182823181152,-3.4046549797058105
1763697774629464000,6.086464111328125,4.920164108276367,1.277524471282959,-3.3971400260925293
1763697774639051300,6.09605126953125,4.816577434539795,1.6430997848510742,-3.402066230773926
1763697774648639500,6.105639404296875,4.521202087402344,1.9304556846618652,-3.3741753101348877
1763697774658228500,6.115228515625,4.18466329574585,1.9860811233520508,-3.3670387268066406
1763697774667816400,6.12481640625,3.880890369415283,1.71759033203125,-3.358470916748047
1763697774677403600,6.134403564453125,3.520617961883545,1.0576200485229492,-3.375661849975586
1763697774686992000,6.143991943359375,3.137394428253174,0.1415572166442871,-3.3488214015960693
1763697774696580900,6.153580810546875,2.724400043487549,-0.8121438026428223,-3.304596185684204
1763697774706168800,6.1631689453125,2.249173641204834,-1.5816621780395508,-3.156308889389038
1763697774715756000,6.172756103515625,1.731410026550293,-2.200258255004883,-2.992722749710083
1763697774725344300,6.18234423828125,1.3441953659057617,-2.6894636154174805,-2.8088948726654053
1763697774734933000,6.19193310546875,1.0258593559265137,-2.9638633728027344,-2.6330132484436035
1763697774744521200,6.201521240234375,0.8145952224731445,-3.0975794792175293,-2.4170758724212646
1763697774754108400,6.2111083984375,0.750464916229248,-3.206024169921875,-2.2821571826934814
1763697774763696600,6.220696533203125,0.7448654174804688,-3.3688769340515137,-2.187427520751953
1763697774773285400,6.230285400390625,0.7850594520568848,-3.5285210609436035,-2.0992801189422607
1763697774782873600,6.23987353515625,0.74688720703125,-3.579425811767578,-1.9537334442138672
1763697774792460800,6.249460693359375,0.557715892791748,-3.442284107208252,-1.7726569175720215
1763697774802049000,6.259049072265625,0.29323434829711914,-3.2418742179870605,-1.5576517581939697
1763697774811638000,6.268637939453125,0.0339508056640625,-3.0583114624023438,-1.4012017250061035
1763697774821226000,6.27822607421875,-0.3272123336791992,-2.926760673522949,-1.2699153423309326
1763697774830813200,6.287813232421875,-0.7200422286987305,-2.919412612915039,-1.0980710983276367
1763697774840401400,6.2974013671875,-1.1851606369018555,-3.010603427886963,-0.8996596336364746
1763697774849990400,6.306990478515625,-1.6533417701721191,-3.107332229614258,-0.662848711013794
1763697774859578400,6.316578369140625,-2.109492301940918,-3.1608548164367676,-0.4155561923980713
1763697774869165600,6.32616552734375,-2.5006604194641113,-3.2772655487060547,-0.17639732360839844
1763697774878753800,6.33575390625,-2.877800941467285,-3.426236629486084,0.0850226879119873
1763697774888342500,6.345342529296875,-3.190127372741699,-3.587721347808838,0.3293023109436035
1763697774897930800,6.3549306640625,-3.4743175506591797,-3.7451257705688477,0.6021816730499268
1763697774907518000,6.36451806640625,-3.653550624847412,-3.9282424449920654,0.8575763702392578
1763697774917106200,6.374106201171875,-3.770860195159912,-4.179475784301758,1.13596510887146
1763697774926695000,6.38369482421875,-3.885934352874756,-4.372453689575195,1.3996574878692627
1763697774936283100,6.393283203125,-4.034496784210205,-4.4886698722839355,1.6801698207855225
1763697774945870300,6.402870361328125,-4.177807807922363,-4.490337371826172,1.9376442432403564
1763697774955458600,6.41245849609375,-4.324436187744141,-4.4063496589660645,2.2213568687438965
1763697774965047300,6.42204736328125,-4.515471458435059,-4.224342346191406,2.452573537826538
1763697774974635500,6.431635498046875,-4.712698459625244,-3.99596905708313,2.617527723312378
1763697774984222700,6.44122265625,-4.899027347564697,-3.7316088676452637,2.7554678916931152
1763697774993811000,6.45081103515625,-5.040929794311523,-3.556837558746338,2.8147032260894775
1763697775003399700,6.460399658203125,-5.071874141693115,-3.4734761714935303,2.7911531925201416
1763697775012988000,6.46998779296875,-5.016326427459717,-3.572751998901367,2.692927122116089
1763697775022575000,6.4795751953125,-4.892005920410156,-3.829352378845215,2.57759165763855
1763697775032163300,6.489163330078125,-4.754170894622803,-4.148963928222656,2.450969696044922
1763697775041752000,6.498751953125,-4.597886562347412,-4.384845733642578,2.347890615463257
1763697775051340300,6.50834033203125,-4.4607696533203125,-4.594771385192871,2.23391056060791
1763697775060927500,6.517927490234375,-4.25570011138916,-4.857102394104004,2.1347789764404297
1763697775070515700,6.527515625,-4.115326404571533,-4.99151611328125,2.1024489402770996
1763697775080104400,6.5371044921875,-4.115585803985596,-4.972818851470947,2.1247541904449463
1763697775089692700,6.546692626953125,-4.083820819854736,-4.859631061553955,2.0988893508911133
1763697775099280000,6.55627978515625,-3.9836902618408203,-4.826861381530762,2.044114589691162
1763697775108868000,6.5658681640625,-3.750561237335205,-4.93026065826416,1.9387006759643555
1763697775118456800,6.575456787109375,-3.3893628120422363,-5.0983734130859375,1.770981788635254
1763697775128045000,6.585045166015625,-3.0037641525268555,-5.2644500732421875,1.5789070129394531
1763697775137632300,6.59463232421875,-2.6353464126586914,-5.330008506774902,1.4556379318237305
1763697775147220500,6.604220458984375,-2.3399810791015625,-5.411421298980713,1.3650617599487305
1763697775156809200,6.613809326171875,-2.046705722808838,-5.476192474365234,1.2140309810638428
1763697775166397400,6.6233974609375,-1.8362655639648438,-5.408830165863037,1.1260395050048828
1763697775175984600,6.632984619140625,-1.7763261795043945,-5.110757827758789,1.136183738708496
1763697775185572900,6.64257275390625,-1.7955365180969238,-4.607396125793457,1.1730928421020508
1763697775195161600,6.65216162109375,-1.7700920104980469,-4.0452775955200195,1.2103283405303955
1763697775204749800,6.661749755859375,-1.6839003562927246,-3.4259755611419678,1.2887303829193115
1763697775214337000,6.6713369140625,-1.5819110870361328,-2.8185691833496094,1.3146817684173584
1763697775223925200,6.68092529296875,-1.383082389831543,-2.2742724418640137,1.325773000717163
1763697775233514000,6.690513916015625,-1.0954833030700684,-1.8330872058868408,1.3783166408538818
1763697775243102200,6.700102294921875,-0.7830634117126465,-1.5954911708831787,1.3629026412963867
1763697775252689400,6.709689453125,-0.43832969665527344,-1.514275074005127,1.2328078746795654
1763697775262277600,6.719277587890625,-0.1381673812866211,-1.4232664108276367,1.1630580425262451
1763697775271866400,6.728866455078125,0.056550025939941406,-1.3598766326904297,1.0839745998382568
1763697775281454600,6.73845458984375,0.2267918586730957,-1.3584351539611816,0.987234354019165
1763697775291041800,6.748041748046875,0.3654618263244629,-1.4384212493896484,0.8845622539520264
1763697775300629800,6.757629638671875,0.48517274856567383,-1.6352968215942383,0.7238061428070068
1763697775310218800,6.76721875,0.5300135612487793,-1.9206953048706055,0.48124098777770996
1763697775319807000,6.776806884765625,0.6358246803283691,-2.268277645111084,0.19704937934875488
1763697775329394200,6.786394287109375,0.7498555183410645,-2.5720138549804688,-0.08574390411376953
1763697775338982100,6.795982177734375,0.7777786254882812,-2.6272449493408203,-0.2545328140258789
1763697775348571100,6.805571044921875,0.6919126510620117,-2.3808417320251465,-0.31001877784729004
1763697775358159400,6.815159423828125,0.6039328575134277,-1.8939704895019531,-0.2875101566314697
1763697775367746600,6.82474658203125,0.5348043441772461,-1.2450556755065918,-0.23444700241088867
1763697775377334800,6.834334716796875,0.546229362487793,-0.5465059280395508,-0.18851494789123535
1763697775386923500,6.843923583984375,0.5899815559387207,0.049530982971191406,-0.21011996269226074
1763697775396511700,6.85351171875,0.6670727729797363,0.6223158836364746,-0.19258379936218262
1763697775406099000,6.863098876953125,0.7066545486450195,1.1296234130859375,-0.15627193450927734
1763697775415687200,6.872687255859375,0.6832599639892578,1.546731948852539,-0.1793076992034912
1763697775425276000,6.88227587890625,0.6843442916870117,1.794560432434082,-0.2835876941680908
1763697775434863900,6.89186376953125,0.6959743499755859,1.8764538764953613,-0.41531801223754883
1763697775444451300,6.901451416015625,0.708045482635498,1.8687634468078613,-0.5825169086456299
1763697775454039300,6.911039306640625,0.7671718597412109,1.775191307067871,-0.7308309078216553
1763697775463628300,6.920628173828125,0.8276276588439941,1.7103180885314941,-0.8329589366912842
1763697775473216300,6.93021630859375,0.9079298973083496,1.6856088638305664,-0.8529438972473145
1763697775482803700,6.9398037109375,1.007110595703125,1.7145214080810547,-0.7933809757232666
1763697775492392000,6.949391845703125,1.0533342361450195,1.785989761352539,-0.6278748512268066
1763697775501980700,6.958980712890625,1.05057954788208,1.8552980422973633,-0.4220287799835205
1763697775511569000,6.96856884765625,1.1321697235107422,1.8968467712402344,-0.3240988254547119
1763697775521156000,6.978156005859375,1.2576637268066406,1.8587164878845215,-0.3225386142730713
1763697775530744300,6.987744384765625,1.4061717987060547,1.7151823043823242,-0.390486478805542
1763697775540333000,6.9973330078125,1.3844690322875977,1.6317105293273926,-0.49039459228515625
1763697775549921000,7.006921142578125,1.3443942070007324,1.718773365020752,-0.6490230560302734
1763697775559508500,7.016508544921875,1.4533228874206543,1.7974419593811035,-0.9039275646209717
1763697775569096400,7.026096435546875,1.6796770095825195,1.8151636123657227,-1.183905839920044
1763697775578685400,7.035685546875,1.8275418281555176,1.9237709045410156,-1.4424424171447754
1763697775588273400,7.0452734375,1.8875641822814941,2.075568675994873,-1.5899007320404053
1763697775597860900,7.05486083984375,1.9650182723999023,2.2091569900512695,-1.6501123905181885
1763697775607448800,7.06444873046875,2.059907913208008,2.2332229614257812,-1.6041409969329834
1763697775617037800,7.074037841796875,2.1729469299316406,2.1741933822631836,-1.5812008380889893
1763697775626625800,7.083625732421875,2.3198699951171875,2.0609002113342285,-1.6086914539337158
1763697775636213200,7.093213134765625,2.4628047943115234,1.9037208557128906,-1.701660394668579
1763697775645801500,7.102801513671875,2.653733730316162,1.6991243362426758,-1.8715052604675293
1763697775655390200,7.11239013671875,2.867886543273926,1.531644344329834,-2.1172544956207275
1763697775664978200,7.121978271484375,3.001204490661621,1.4255595207214355,-2.3424887657165527
1763697775674565600,7.131565673828125,3.1051578521728516,1.4599709510803223,-2.5201220512390137
1763697775684153600,7.141153564453125,3.163282871246338,1.620079517364502,-2.6875038146972656
1763697775693742600,7.15074267578125,3.2277021408081055,1.8141417503356934,-2.89048433303833
1763697775703330600,7.16033056640625,3.30136775970459,2.0216736793518066,-3.1221764087677
1763697775712918000,7.16991796875,3.439390182495117,2.193411350250244,-3.363266706466675
1763697775722506000,7.179506103515625,3.621621608734131,2.408456802368164,-3.564452648162842
1763697775732095000,7.189094970703125,3.6999759674072266,2.466522693634033,-3.6878037452697754
1763697775741683000,7.198682861328125,3.7883448600769043,2.350101947784424,-3.715153217315674
1763697775751270400,7.2082705078125,3.9988341331481934,2.26845121383667,-3.7500476837158203
1763697775760858600,7.217858642578125,4.00459623336792,2.1755619049072266,-3.6860663890838623
1763697775770447400,7.227447265625,3.9667277336120605,2.0003738403320312,-3.6112289428710938
1763697775780035300,7.237035400390625,4.000764846801758,1.732591152191162,-3.588345527648926
1763697775789622800,7.246622802734375,4.087475299835205,1.4488210678100586,-3.525582790374756
1763697775799210800,7.256210693359375,4.045665740966797,1.252495288848877,-3.3740057945251465
1763697775808799700,7.2657998046875,3.8531956672668457,1.2129020690917969,-3.154233455657959
1763697775818387700,7.2753876953125,3.6564884185791016,1.2146835327148438,-2.931143283843994
1763697775827975200,7.28497509765625,3.4615283012390137,1.3185420036315918,-2.7110416889190674
1763697775837563100,7.294563232421875,3.2314443588256836,1.5550074577331543,-2.5733654499053955
1763697775847152000,7.304152099609375,3.0850448608398438,1.7524075508117676,-2.531344413757324
1763697775856740000,7.313739990234375,2.9530086517333984,1.8769683837890625,-2.6193833351135254
1763697775866327600,7.32332763671875,2.864126682281494,1.8423423767089844,-2.738170623779297
1763697775875915800,7.332915771484375,2.898207187652588,1.572037696838379,-2.8954074382781982
1763697775885504500,7.34250439453125,2.9284920692443848,1.1362228393554688,-3.008950710296631
1763697775895092500,7.352092529296875,2.933987617492676,0.6302413940429688,-3.0760443210601807
1763697775904680000,7.361679931640625,2.920294761657715,0.11037206649780273,-3.130610704421997
1763697775914268000,7.371267822265625,2.8662705421447754,-0.38506221771240234,-3.1418771743774414
1763697775923857000,7.38085693359375,2.775346279144287,-0.7623496055603027,-3.1598074436187744
1763697775933444900,7.39044482421875,2.6371073722839355,-0.9405407905578613,-3.0868592262268066
1763697775943032300,7.4000322265625,2.495758533477783,-1.112210750579834,-2.9917049407958984
1763697775952620300,7.409620361328125,2.4194726943969727,-1.3541083335876465,-2.9087412357330322
1763697775962209300,7.419209228515625,2.3336563110351562,-1.5625762939453125,-2.857985734939575
1763697775971797200,7.42879736328125,2.309439182281494,-1.7613821029663086,-2.808616876602173
1763697775981384700,7.438384765625,2.3513855934143066,-2.0081915855407715,-2.812161922454834
1763697775990972700,7.44797265625,2.436605930328369,-2.2954659461975098,-2.8268332481384277
1763697776000561700,7.457561767578125,2.448050022125244,-2.53853702545166,-2.772609233856201
1763697776010149600,7.467149658203125,2.236145496368408,-2.544797897338867,-2.6252763271331787
1763697776019737000,7.476737060546875,1.8912739753723145,-2.322075843811035,-2.41090726852417
1763697776029325300,7.4863251953125,1.4776220321655273,-2.1146106719970703,-2.1597771644592285
1763697776038914000,7.4959140625,1.0531320571899414,-1.9773883819580078,-1.9050078392028809
1763697776048502000,7.505501953125,0.5898809432983398,-1.943131446838379,-1.6587398052215576
1763697776058089500,7.51508935546875,0.1535172462463379,-2.0523414611816406,-1.3440537452697754
1763697776067677400,7.524677490234375,-0.31471776962280273,-2.127387046813965,-1.0064477920532227
1763697776077266400,7.534266357421875,-0.7714991569519043,-2.2393407821655273,-0.6226439476013184
1763697776086854400,7.5438544921875,-1.093522071838379,-2.4882187843322754,-0.32034921646118164
1763697776096441900,7.55344189453125,-1.4780588150024414,-2.836538791656494,0.030978679656982422
1763697776106029800,7.56302978515625,-1.7413787841796875,-3.009591579437256,0.3791375160217285
1763697776115618800,7.572618896484375,-1.9734091758728027,-2.793470859527588,0.6188411712646484
1763697776125206800,7.582206787109375,-2.405001640319824,-2.809952735900879,1.1275770664215088
1763697776134794200,7.591794189453125,-2.764441967010498,-2.692978858947754,1.4399502277374268
1763697776144382200,7.60138232421875,-2.9216208457946777,-2.720811367034912,1.7121038436889648
1763697776153971200,7.61097119140625,-3.0118765830993652,-2.7764289379119873,1.910435676574707
1763697776163559200,7.62055908203125,-3.076150894165039,-2.8866982460021973,2.07680344581604
1763697776173146600,7.630146728515625,-3.1850924491882324,-2.9999685287475586,2.268181324005127
1763697776182734600,7.639734619140625,-3.4666247367858887,-3.0372588634490967,2.4648616313934326
1763697776192323600,7.649323486328125,-3.5746960639953613,-3.108820915222168,2.6686487197875977
1763697776201911600,7.65891162109375,-3.7084240913391113,-3.0791497230529785,2.8342151641845703
1763697776211499000,7.6684990234375,-3.853541851043701,-3.082630157470703,2.9852676391601562
1763697776221087000,7.6780869140625,-3.8985443115234375,-3.25827693939209,3.1448700428009033
1763697776230676000,7.687676025390625,-3.8514599800109863,-3.5542867183685303,3.2458415031433105
1763697776240264000,7.697263916015625,-3.73771071434021,-3.898790121078491,3.290100336074829
1763697776249851400,7.706851318359375,-3.601849317550659,-4.204999923706055,3.263275146484375
1763697776259439400,7.716439453125,-3.4965314865112305,-4.408265590667725,3.2720494270324707
1763697776269028400,7.7260283203125,-3.426509380340576,-4.536622047424316,3.2695465087890625
1763697776278616300,7.7356162109375,-3.3913965225219727,-4.674368858337402,3.261472463607788
1763697776288203800,7.745203857421875,-3.366051197052002,-4.791853427886963,3.230133533477783
1763697776297791700,7.754791748046875,-3.4350972175598145,-4.803861141204834,3.200833797454834
1763697776307380700,7.764380615234375,-3.5681848526000977,-4.67451810836792,3.1938858032226562
1763697776316968700,7.77396875,-3.7143361568450928,-4.532766342163086,3.156907081604004
1763697776326556200,7.78355615234375,-3.7487850189208984,-4.56532096862793,3.0807080268859863
1763697776336144100,7.79314404296875,-3.6434144973754883,-4.792097091674805,2.905085563659668
1763697776345733000,7.802733154296875,-3.415445327758789,-5.062228202819824,2.7136552333831787
1763697776355321000,7.812321044921875,-3.1611623764038086,-5.236786842346191,2.523104429244995
1763697776364908300,7.821908203125,-2.9337682723999023,-5.366550445556641,2.3715426921844482
1763697776374496500,7.83149658203125,-2.688788414001465,-5.487973213195801,2.3037097454071045
1763697776384085500,7.84108544921875,-2.468257427215576,-5.599452018737793,2.256350517272949
1763697776393673500,7.850673583984375,-2.377988815307617,-5.543333053588867,2.236173629760742
1763697776403261000,7.860260986328125,-2.441620349884033,-5.284923076629639,2.266932487487793
1763697776412849000,7.869848876953125,-2.5619916915893555,-4.889895439147949,2.289452314376831
1763697776422438000,7.87943798828125,-2.6847848892211914,-4.466858863830566,2.2631406784057617
1763697776432025900,7.88902587890625,-2.819559097290039,-4.04243803024292,2.2434449195861816
1763697776441613300,7.89861328125,-2.943192958831787,-3.572322130203247,2.1747019290924072
1763697776451201300,7.908201171875,-2.966388702392578,-3.129309892654419,1.9606847763061523
1763697776460790300,7.917790283203125,-2.798802375793457,-2.7545969486236572,1.5371167659759521
1763697776470378200,7.927378173828125,-2.4228920936584473,-2.4808733463287354,1.0249018669128418
1763697776479965400,7.93696533203125,-2.0552268028259277,-2.2732300758361816,0.5934081077575684
1763697776489553700,7.9465537109375,-1.7422199249267578,-2.1828973293304443,0.44771623611450195
1763697776499142700,7.956142578125,-1.2995738983154297,-2.1319522857666016,0.6215329170227051
1763697776508730600,7.965730712890625,-0.8316588401794434,-2.16416597366333,0.9282879829406738
1763697776518317800,7.97531787109375,-0.25185680389404297,-2.388777732849121,1.160323143005371
1763697776527906000,7.984906005859375,0.3171682357788086,-2.779082775115967,1.3501830101013184
1763697776537495000,7.9944951171875,0.7734475135803223,-3.00936222076416,1.4345662593841553
1763697776547083000,8.0040830078125,1.0747084617614746,-2.942471981048584,1.3283233642578125
1763697776556670500,8.01367041015625,1.3240985870361328,-2.7568793296813965,1.0316219329833984
1763697776566258400,8.023258544921875,1.6030683517456055,-2.6303553581237793,0.5455031394958496
1763697776575847400,8.032847412109374,1.889864444732666,-2.509799003601074,-0.028917312622070312
1763697776585435400,8.042435302734376,2.184053421020508,-2.285370349884033,-0.5220890045166016
1763697776595022600,8.052022705078125,2.3853068351745605,-1.9488215446472168,-0.9309675693511963
1763697776604610800,8.06161083984375,2.476595401763916,-1.4271526336669922,-1.159700632095337
1763697776614199800,8.07119970703125,2.460097312927246,-0.7942314147949219,-1.1613616943359375
1763697776623787800,8.080787841796875,2.2324118614196777,-0.05772066116333008,-0.9491879940032959
1763697776633375000,8.090375,1.8687968254089355,0.6017470359802246,-0.6233134269714355
1763697776642963200,8.099963134765625,1.394418716430664,1.077023983001709,-0.2735104560852051
1763697776652552200,8.10955224609375,0.8998827934265137,1.3577594757080078,0.10869336128234863
1763697776662140200,8.11914013671875,0.493807315826416,1.50370454788208,0.35866761207580566
1763697776671727400,8.128727294921875,0.022983074188232422,1.5345525741577148,0.38684940338134766
1763697776681315600,8.138315673828124,-0.2665095329284668,1.4083771705627441,0.20763111114501953
1763697776690904600,8.147904541015626,-0.2968120574951172,1.1190834045410156,-0.1204676628112793
1763697776700492500,8.157492431640625,-0.21947526931762695,0.8654336929321289,-0.4952564239501953
1763697776710079700,8.167079833984374,-0.2352447509765625,0.7678775787353516,-0.7562508583068848
1763697776719668000,8.17666796875,-0.25025415420532227,0.7685837745666504,-0.9170432090759277
1763697776729257000,8.186257080078125,-0.21732282638549805,0.8116369247436523,-0.9444048404693604
1763697776738845000,8.195844970703124,-0.20070219039916992,0.8267331123352051,-0.8578143119812012
1763697776748432100,8.20543212890625,-0.12587499618530273,0.7676868438720703,-0.7601239681243896
1763697776758020400,8.215020263671875,-0.01542806625366211,0.7564296722412109,-0.7105526924133301
1763697776767609300,8.224609375,0.05926513671875,0.8489532470703125,-0.5866525173187256
1763697776777197300,8.234197265625,0.08748006820678711,0.9465107917785645,-0.4740867614746094
1763697776786784500,8.243784423828124,0.1817007064819336,1.0985603332519531,-0.4365360736846924
1763697776796372700,8.253372802734376,0.37044239044189453,1.325179100036621,-0.46745991706848145
1763697776805961700,8.262961669921875,0.6000728607177734,1.6000618934631348,-0.6103403568267822
1763697776815549700,8.2725498046875,0.8343524932861328,1.7568893432617188,-0.7797119617462158
1763697776825137000,8.282136962890625,1.1173954010009766,1.8273820877075195,-0.9239704608917236
1763697776834725000,8.29172509765625,1.487276554107666,1.795210361480713,-1.0288751125335693
1763697776844314000,8.301314208984374,1.7472639083862305,1.6659460067749023,-1.1608679294586182
1763697776853902000,8.310902099609375,2.092466354370117,1.4868054389953613,-1.3126022815704346
1763697776863489300,8.3204892578125,2.3890609741210938,1.365377426147461,-1.4883031845092773
1763697776873077500,8.330077392578126,2.654606342315674,1.2971439361572266,-1.6634244918823242
1763697776882666500,8.33966650390625,2.8753185272216797,1.2443132400512695,-1.848038673400879
1763697776892254500,8.34925439453125,3.065855026245117,1.1879944801330566,-2.04482102394104
1763697776901841700,8.358841552734376,3.281403064727783,1.149653434753418,-2.2198312282562256
1763697776911430000,8.368429931640625,3.505216598510742,1.1624813079833984,-2.3819642066955566
1763697776921019000,8.378018798828125,3.696107864379883,1.3070721626281738,-2.5475361347198486
1763697776930606800,8.38760693359375,3.9122490882873535,1.5532851219177246,-2.6751456260681152
1763697776940194000,8.397194091796875,4.103938579559326,1.9022126197814941,-2.831474781036377
1763697776949782300,8.4067822265625,4.439128398895264,2.197042942047119,-3.0523314476013184
1763697776959371000,8.41637109375,4.8173041343688965,2.409938335418701,-3.3058037757873535
1763697776968959200,8.425959228515625,5.172722816467285,2.524688243865967,-3.5370068550109863
1763697776978546400,8.43554638671875,5.377570152282715,2.656853199005127,-3.6520984172821045
1763697776988134700,8.445134765625,5.441311359405518,2.8721718788146973,-3.6728129386901855
1763697776997723400,8.454723388671875,5.425591945648193,2.977057456970215,-3.676377296447754
1763697777007311600,8.4643115234375,5.423004150390625,2.9012088775634766,-3.6867454051971436
1763697777016898800,8.47389892578125,5.477220058441162,2.584653854370117,-3.713421583175659
1763697777026487000,8.483487060546874,5.442739963531494,2.2182164192199707,-3.6951513290405273
1763697777036076000,8.493075927734376,5.336180686950684,1.948979377746582,-3.5903961658477783
1763697777045664000,8.5026640625,5.173563003540039,1.7919316291809082,-3.4147865772247314
1763697777055251200,8.512251220703124,5.014166355133057,1.7788515090942383,-3.221790313720703
1763697777064839400,8.52183935546875,4.880312442779541,1.8977560997009277,-3.0140254497528076
1763697777074428200,8.53142822265625,4.704195499420166,2.128614902496338,-2.818265676498413
1763697777084016400,8.541016357421874,4.49252462387085,2.3785228729248047,-2.58716082572937
1763697777093603600,8.550603515625,4.287100315093994,2.5422778129577637,-2.3570199012756348
1763697777103191800,8.56019189453125,4.050914764404297,2.512589931488037,-2.176647186279297
1763697777112780500,8.569780517578126,3.8231124877929688,2.161813259124756,-2.053743839263916
1763697777122368800,8.57936865234375,3.582683563232422,1.6073827743530273,-1.99143385887146
1763697777131956000,8.5889560546875,3.2537407875061035,1.013556957244873,-1.9217958450317383
1763697777141544200,8.598544189453126,2.982402801513672,0.4046964645385742,-1.9028522968292236
1763697777151133000,8.6081328125,2.764098644256592,-0.22287464141845703,-1.921173095703125
1763697777160721200,8.61772119140625,2.574151039123535,-0.7513208389282227,-1.8747262954711914
1763697777170308400,8.627308349609375,2.3736824989318848,-1.104537010192871,-1.7703888416290283
1763697777179896600,8.636896484375,2.178805351257324,-1.3367996215820312,-1.6637639999389648
1763697777189485300,8.6464853515625,2.0113954544067383,-1.5038065910339355,-1.5949397087097168
1763697777199073500,8.656073486328125,1.89548921585083,-1.628777027130127,-1.5950953960418701
1763697777208660700,8.66566064453125,1.7381558418273926,-1.7119956016540527,-1.6650564670562744
1763697777218249000,8.6752490234375,1.5528688430786133,-1.7273473739624023,-1.7496943473815918
1763697777227837700,8.684837646484375,1.2420639991760254,-1.6791424751281738,-1.8079588413238525
1763697777237426000,8.694426025390625,0.9156622886657715,-1.6204662322998047,-1.8793830871582031
1763697777247013000,8.70401318359375,0.6397800445556641,-1.6742091178894043,-1.940654993057251
1763697777256601300,8.713601318359375,0.38738584518432617,-1.8354730606079102,-1.9739699363708496
1763697777266190000,8.723190185546875,0.04622602462768555,-1.9108281135559082,-1.8804519176483154
1763697777275778300,8.7327783203125,-0.38994789123535156,-1.9085726737976074,-1.6923723220825195
1763697777285365500,8.742365478515625,-0.7897424697875977,-1.9234075546264648,-1.4928669929504395
1763697777294953700,8.75195361328125,-1.162745475769043,-1.9662299156188965,-1.2591221332550049
1763697777304542500,8.76154248046875,-1.5209455490112305,-1.961493968963623,-1.0166592597961426
1763697777314130700,8.771130615234375,-1.8932790756225586,-1.9225716590881348,-0.783527135848999
1763697777323718000,8.7807177734375,-2.1818761825561523,-1.9060111045837402,-0.576972484588623
1763697777333306000,8.79030615234375,-2.4206433296203613,-1.9589910507202148,-0.4212465286254883
1763697777342894800,8.799894775390625,-2.579376220703125,-2.0646023750305176,-0.2810654640197754
1763697777352483000,8.809483154296874,-2.738487720489502,-2.1999926567077637,-0.14514827728271484
1763697777362070300,8.8190703125,-2.8207435607910156,-2.3810830116271973,-0.018922805786132812
1763697777371658500,8.828658447265624,-2.846853733062744,-2.546360969543457,0.16536712646484375
1763697777381247200,8.838247314453126,-2.9256582260131836,-2.640617847442627,0.4078340530395508
1763697777390835500,8.84783544921875,-3.0603532791137695,-2.625420331954956,0.7306549549102783
1763697777400422700,8.857422607421874,-3.233004093170166,-2.5507776737213135,1.0790228843688965
1763697777410011000,8.867010986328125,-3.382275104522705,-2.4637625217437744,1.38685941696167
1763697777419599600,8.876599609375,-3.5253968238830566,-2.3703489303588867,1.667508840560913
1763697777429187800,8.886187744140624,-3.640962600708008,-2.252689838409424,1.9207217693328857
1763697777438775000,8.895775146484375,-3.7191452980041504,-2.1697099208831787,2.0993998050689697
1763697777448363300,8.90536328125,-3.745429039001465,-2.206591844558716,2.1875839233398438
1763697777457952000,8.914951904296874,-3.68093204498291,-2.436075210571289,2.1628198623657227
1763697777467540200,8.924540283203125,-3.5317282676696777,-2.8307931423187256,2.0825958251953125
1763697777477127400,8.93412744140625,-3.3637967109680176,-3.2415921688079834,1.975200891494751
1763697777486715600,8.943715576171876,-3.2313475608825684,-3.615253210067749,1.8659355640411377
1763697777496304400,8.953304443359375,-3.1457791328430176,-3.9092111587524414,1.739469289779663
1763697777505892400,8.962892333984374,-3.0856118202209473,-4.093504905700684,1.6251804828643799
1763697777515479800,8.972479736328125,-3.0556511878967285,-4.258353233337402,1.5503382682800293
1763697777525067800,8.98206787109375,-3.079824924468994,-4.412267684936523,1.4534785747528076
1763697777534656800,8.99165673828125,-3.1438474655151367,-4.460305213928223,1.4183902740478516
1763697777544245000,9.001244873046875,-3.280977725982666,-4.40512228012085,1.4690122604370117
1763697777553832200,9.010832275390625,-3.4737839698791504,-4.26279878616333,1.5004961490631104
1763697777563420400,9.02042041015625,-3.657193183898926,-4.150949954986572,1.5531713962554932
1763697777573009200,9.030009033203125,-3.686918258666992,-4.1809492111206055,1.6293087005615234
1763697777582597400,9.039597412109375,-3.5984225273132324,-4.3665771484375,1.6640889644622803
1763697777592184600,9.0491845703125,-3.4493913650512695,-4.603479862213135,1.6828608512878418
1763697777601772800,9.058772705078125,-3.212395668029785,-4.815110683441162,1.6310811042785645
1763697777611361500,9.068361572265625,-2.883419990539551,-4.977083206176758,1.613703727722168
1763697777620949500,9.077949462890626,-2.6307568550109863,-4.961518287658691,1.6855833530426025
1763697777630537000,9.087536865234375,-2.533247947692871,-4.889351844787598,1.7676830291748047
1763697777640125000,9.097125,-2.322172164916992,-4.892268180847168,1.8231360912322998
1763697777649714000,9.1067138671875,-2.19307279586792,-4.741144180297852,1.8744080066680908
1763697777659302000,9.116302001953125,-2.135924816131592,-4.402118682861328,1.9137239456176758
1763697777668889300,9.125889404296874,-2.0165367126464844,-3.9604134559631348,1.9729363918304443
1763697777688066300,9.14506640625,-1.466280460357666,-2.995635747909546,1.9963407516479492
1763697777697654500,9.154654541015624,-1.15391206741333,-2.5706703662872314,2.0510568618774414
1763697777707241700,9.16424169921875,-0.7873163223266602,-2.1327192783355713,2.152345657348633
1763697777716830000,9.173829833984374,-0.45575761795043945,-1.706632137298584,2.315988540649414
1763697777726418700,9.183418701171876,-0.09293031692504883,-1.3619298934936523,2.4641480445861816
1763697777736006700,9.193006591796875,0.2877163887023926,-1.1739540100097656,2.5782089233398438
1763697777745594000,9.202593994140624,0.6832675933837891,-1.2190275192260742,2.567453622817993
1763697777755182000,9.21218212890625,1.02789306640625,-1.4921684265136719,2.430731773376465
1763697777764771000,9.22177099609375,1.3337945938110352,-1.8497018814086914,2.174565076828003
1763697777774359000,9.231359130859374,1.5961666107177734,-2.2405495643615723,1.8150925636291504
1763697777783946500,9.240946533203125,1.5788912773132324,-2.568765163421631,1.4265966415405273
1763697777793534500,9.250534423828125,1.5914902687072754,-2.8343453407287598,1.0651025772094727
1763697777803123500,9.26012353515625,1.5796279907226562,-2.9860987663269043,0.7540886402130127
1763697777812711400,9.26971142578125,1.3739337921142578,-2.8503503799438477,0.5048630237579346
1763697777822299000,9.279298828125,1.1785144805908203,-2.571413040161133,0.29516029357910156
1763697777831887000,9.28888720703125,0.8876228332519531,-2.098903179168701,0.1647634506225586
1763697777841475800,9.298475830078125,0.5310959815979004,-1.5297670364379883,0.29653048515319824
1763697777851063800,9.308063720703124,0.34349918365478516,-0.9266161918640137,0.5755598545074463
1763697777860651300,9.3176513671875,-0.16113567352294922,-0.32254886627197266,-0.1525731086730957
1763697777870239200,9.3272392578125,-0.6293258666992188,0.3710951805114746,0.20008254051208496
1763697777879828200,9.336828125,-0.7520442008972168,0.8572783470153809,0.4892129898071289
1763697777889416200,9.346416259765626,-0.7990880012512207,1.2274646759033203,0.5141069889068604
1763697777899003600,9.356003662109375,-0.8033361434936523,1.4955239295959473,0.28167200088500977
1763697777908591600,9.365591552734376,-0.6716799736022949,1.5893621444702148,-0.0730433464050293
1763697777918180600,9.3751806640625,-0.544497013092041,1.614811897277832,-0.4145958423614502
1763697777927768600,9.3847685546875,-0.45452070236206055,1.6310853958129883,-0.7199611663818359
1763697777937356000,9.39435595703125,-0.4413590431213379,1.6106314659118652,-0.9381890296936035
1763697777946944300,9.4039443359375,-0.33875370025634766,1.4958057403564453,-1.1370558738708496
1763697777956533000,9.413532958984375,-0.17465639114379883,1.3052396774291992,-1.2964541912078857
1763697777966121000,9.423120849609376,-0.01084280014038086,1.169114112854004,-1.4463772773742676
1763697777975708400,9.43270849609375,0.1358633041381836,1.0829615592956543,-1.6693661212921143
1763697777985296400,9.44229638671875,0.33667898178100586,1.0490169525146484,-1.8134381771087646
1763697777994885400,9.451885498046876,0.5738115310668945,1.088364601135254,-1.887472152709961
1763697778004473300,9.461473388671875,0.7449526786804199,1.1163530349731445,-1.9867830276489258
1763697778014060800,9.471060791015624,0.8151555061340332,1.18009614944458,-2.156350612640381
1763697778023648800,9.480648681640625,0.9877686500549316,1.3153281211853027,-2.300358295440674
1763697778033237800,9.49023779296875,1.1557350158691406,1.603287696838379,-2.4849658012390137
1763697778042825700,9.49982568359375,1.2784676551818848,1.9238286018371582,-2.696732997894287
1763697778052413200,9.5094130859375,1.4318313598632812,2.1566762924194336,-2.97440767288208
1763697778062001200,9.519001220703124,1.7159619331359863,2.251371383666992,-3.2669970989227295
1763697778071590100,9.528590087890626,2.058922290802002,2.1651482582092285,-3.6128625869750977
1763697778081178000,9.53817822265625,2.4659066200256348,1.920334815979004,-3.991142749786377
1763697778090765600,9.547765625,2.9521164894104004,1.596719741821289,-4.289780616760254
1763697778100353800,9.557353759765626,3.4559407234191895,1.3238110542297363,-4.499582767486572
1763697778109942500,9.566942626953125,3.845679759979248,1.2495203018188477,-4.646148681640625
1763697778119530500,9.576530517578124,4.1322174072265625,1.3800921440124512,-4.701416492462158
1763697778129118000,9.586117919921875,4.359141826629639,1.587669849395752,-4.7044525146484375
1763697778138706000,9.595705810546875,4.600403785705566,1.7899069786071777,-4.606500625610352
1763697778148295000,9.605294921875,4.702573299407959,2.0168728828430176,-4.536237716674805
1763697778157883000,9.6148828125,4.806562423706055,2.191049098968506,-4.541690349578857
1763697778167470300,9.62447021484375,4.955882549285889,2.3476405143737793,-4.55492639541626
1763697778177058300,9.634058349609376,5.026880741119385,2.464338779449463,-4.581305503845215
1763697778186647300,9.643647216796875,5.05438232421875,2.5095438957214355,-4.614515781402588
1763697778196235300,9.6532353515625,5.0499701499938965,2.44004487991333,-4.543524742126465
1763697778205822700,9.66282275390625,4.942305564880371,2.2657690048217773,-4.352943420410156
1763697778215410700,9.67241064453125,4.707205295562744,2.1097497940063477,-4.043120861053467
1763697778224999700,9.681999755859374,4.3525390625,2.0547356605529785,-3.677445888519287
1763697778234587600,9.691587646484376,3.953850746154785,1.9617500305175781,-3.3003244400024414
1763697778244175000,9.701175048828125,3.622068405151367,1.7064661979675293,-3.0057573318481445
1763697778253763000,9.71076318359375,3.3903636932373047,1.3050565719604492,-2.833163022994995
1763697778263352000,9.72035205078125,3.192430019378662,1.0138850212097168,-2.7393016815185547
1763697778272940000,9.72993994140625,2.9755091667175293,0.7967047691345215,-2.766432046890259
1763697778282527500,9.739527587890626,2.9844532012939453,0.6151719093322754,-2.8995065689086914
1763697778292115500,9.749115478515625,3.1436595916748047,0.4836544990539551,-3.0186824798583984
1763697778301704400,9.758704345703125,3.3336825370788574,0.5092120170593262,-3.060345411300659
1763697778311292400,9.76829248046875,3.4476046562194824,0.6996674537658691,-2.9308412075042725
1763697778320879900,9.7778798828125,3.429292678833008,0.978569507598877,-2.703707456588745
1763697778330467800,9.7874677734375,3.420055389404297,1.1091980934143066,-2.4528234004974365
1763697778340056800,9.797056884765626,3.4689793586730957,0.9799704551696777,-2.2390010356903076
1763697778349644800,9.806644775390625,3.510080337524414,0.6811261177062988,-2.0483648777008057
1763697778359232300,9.816232177734374,3.4942879676818848,0.2944068908691406,-1.888258457183838
1763697778368820200,9.8258203125,3.4576525688171387,-0.1264171600341797,-1.6943397521972656
1763697778378409200,9.8354091796875,3.3939132690429688,-0.6270608901977539,-1.5513770580291748
1763697778387997200,9.8449970703125,3.271930694580078,-1.0140461921691895,-1.3380045890808105
1763697778397584600,9.854584716796875,3.075225830078125,-1.2336726188659668,-1.1227996349334717
1763697778407172600,9.864172607421875,2.826068878173828,-1.3147392272949219,-0.9216482639312744
1763697778416761600,9.87376171875,2.5841965675354004,-1.413754940032959,-0.8992266654968262
1763697778426349600,9.883349609375,2.419590950012207,-1.5776572227478027,-1.0477142333984375
1763697778435937000,9.89293701171875,2.257643699645996,-1.7509198188781738,-1.306802749633789
1763697778445525000,9.90252490234375,2.0497889518737793,-1.8992629051208496,-1.647603988647461
1763697778455114000,9.912114013671875,1.8397936820983887,-2.0256519317626953,-1.9598445892333984
1763697778464702000,9.921701904296874,1.5505309104919434,-2.0815653800964355,-2.1675431728363037
1763697778474289400,9.931289306640625,1.2051620483398438,-2.0750327110290527,-2.2346651554107666
1763697778483877400,9.94087744140625,0.8305320739746094,-1.9997553825378418,-2.1575493812561035
1763697778493466400,9.95046630859375,0.3899521827697754,-1.8858795166015625,-1.9622538089752197
1763697778503054300,9.960054443359375,-0.008466720581054688,-1.7927088737487793,-1.713618278503418
1763697778512641800,9.969641845703125,-0.3889803886413574,-1.7754249572753906,-1.462095022201538
1763697778522229800,9.979229736328126,-0.7356767654418945,-1.8391923904418945,-1.21335768699646
1763697778531818800,9.98881884765625,-1.049471378326416,-1.9413471221923828,-0.9376718997955322
1763697778541406700,9.99840673828125,-1.3732624053955078,-2.1028871536254883,-0.6670050621032715
1763697778550994000,10.007993896484376,-1.7137303352355957,-2.2871031761169434,-0.43543028831481934
1763697778560582100,10.01758203125,-2.0314555168151855,-2.489838123321533,-0.2073974609375
1763697778570171100,10.027171142578124,-2.3063225746154785,-2.7257227897644043,0.011763572692871094
1763697778579759000,10.036759033203126,-2.6548171043395996,-2.894291400909424,0.2756218910217285
1763697778589346600,10.0463466796875,-2.9885425567626953,-2.974905014038086,0.551560640335083
1763697778598934500,10.0559345703125,-3.318195343017578,-3.0147595405578613,0.8280868530273438
1763697778608523500,10.0655234375,-3.6066341400146484,-3.061359405517578,1.1039385795593262
1763697778618111500,10.075111572265625,-3.7878642082214355,-3.1071410179138184,1.3664569854736328
1763697778627699000,10.084698974609376,-3.9084200859069824,-3.216487169265747,1.583972692489624
1763697778637287000,10.094286865234375,-4.074470520019531,-3.2559292316436768,1.7228257656097412
1763697778646876000,10.1038759765625,-4.224490165710449,-3.2216269969940186,1.8885173797607422
1763697778656464000,10.1134638671875,-4.390756130218506,-3.2262043952941895,2.0392677783966064
1763697778666051000,10.123051025390625,-4.437993049621582,-3.384063720703125,2.1671040058135986
1763697778675639300,10.132639404296874,-4.422095775604248,-3.718764066696167,2.30515193939209
1763697778685228300,10.142228271484376,-4.38148307800293,-4.110334873199463,2.375035285949707
1763697778694816300,10.151816162109375,-4.081536293029785,-4.660850524902344,2.3878655433654785
1763697778704403500,10.161403564453124,-4.002109527587891,-5.062410831451416,2.6619386672973633
1763697778713991700,10.17099169921875,-4.130906105041504,-5.224514961242676,2.9859795570373535
1763697778723580700,10.18058056640625,-4.097826957702637,-5.519887447357178,3.3061435222625732
1763697778733168600,10.190168701171874,-4.147884368896484,-5.89240837097168,3.712714195251465
1763697778742755800,10.199755859375,-4.27503776550293,-6.021282196044922,4.144423007965088
1763697778752344000,10.209343994140625,-4.572693824768066,-5.856039524078369,4.590913772583008
1763697778761933000,10.21893310546875,-4.90293025970459,-5.572150230407715,5.027582168579102
1763697778771521000,10.22852099609375,-5.120852470397949,-5.313206672668457,5.337614059448242
1763697778781108200,10.238108154296874,-5.1998395919799805,-5.090748310089111,5.386880874633789
1763697778790696400,10.247696533203126,-5.051111698150635,-4.972526550292969,5.20015811920166
1763697778800285400,10.257285400390625,-4.690357208251953,-4.96674919128418,4.827559471130371
1763697778809873400,10.266873291015624,-4.299877166748047,-4.889388084411621,4.434467792510986
1763697778819460600,10.276460693359375,-3.8738925457000732,-4.7845964431762695,4.034394264221191
1763697778829048800,10.286048828125,-3.3113667964935303,-4.754136562347412,3.6791703701019287
1763697778838637800,10.295637939453124,-2.625858783721924,-4.860299110412598,3.441173791885376
1763697778848225800,10.305225830078125,-2.0270214080810547,-5.036468029022217,3.2063469886779785
1763697778857813000,10.31481298828125,-1.4231414794921875,-5.331738471984863,3.032867193222046
1763697778867401200,10.324401123046876,-0.9056229591369629,-5.646753311157227,2.928859233856201
1763697778876990200,10.333990234375,-0.5433850288391113,-5.856593132019043,2.810572624206543
1763697778886578200,10.343578125,-0.2559375762939453,-5.838033676147461,2.7324085235595703
1763697778905753600,10.362753662109375,-0.10001945495605469,-5.020691394805908,2.624178647994995
1763697778915342600,10.372342529296875,-0.06118583679199219,-4.2699198722839355,2.4473681449890137
1763697778924930600,10.3819306640625,0.0014958381652832031,-3.4590859413146973,2.1905479431152344
1763697778934517800,10.391517822265625,0.1063852310180664,-2.645003318786621,1.9046955108642578
1763697778944106000,10.40110595703125,0.34512758255004883,-2.0221052169799805,1.5711214542388916
1763697778953695000,10.410695068359376,0.7254180908203125,-1.7276744842529297,1.136113166809082
1763697778963283000,10.420282958984375,1.196059226989746,-1.7200026512145996,0.6300592422485352
1763697778972870100,10.4298701171875,1.5998401641845703,-1.8102869987487793,0.12516522407531738
1763697778982458400,10.439458251953125,1.9677515029907227,-1.9271397590637207,-0.3269379138946533
1763697778992047400,10.44904736328125,2.1725082397460938,-2.0229644775390625,-0.6886997222900391
1763697779001635300,10.45863525390625,2.2225823402404785,-2.1147031784057617,-0.9637601375579834
1763697779011222500,10.468222412109375,2.1261749267578125,-2.266537666320801,-1.2288670539855957
1763697779020810800,10.477810791015624,2.0423593521118164,-2.4878549575805664,-1.5030686855316162
1763697779030399500,10.4873994140625,1.9977564811706543,-2.708655834197998,-1.7926476001739502
1763697779039987700,10.49698779296875,1.8962063789367676,-2.7048897743225098,-2.016317129135132
1763697779049575000,10.506574951171874,1.7550034523010254,-2.3883891105651855,-2.152985095977783
1763697779059163100,10.5161630859375,1.5466747283935547,-1.7353291511535645,-2.2025036811828613
1763697779068752100,10.525752197265625,1.3806777000427246,-0.9457821846008301,-2.276146411895752
1763697779078340000,10.535340087890624,1.338282585144043,-0.12516069412231445,-2.3505377769470215
1763697779087927300,10.54492724609375,1.2726664543151855,0.7141399383544922,-2.423962354660034
1763697779097515500,10.554515625,1.1895055770874023,1.4642977714538574,-2.449962615966797
1763697779107104500,10.5641044921875,1.1668438911437988,2.0209856033325195,-2.480011224746704
1763697779116692500,10.5736923828125,1.1448121070861816,2.3574581146240234,-2.4441611766815186
1763697779126279700,10.58327978515625,1.1005058288574219,2.5242395401000977,-2.475782871246338
1763697779135868000,10.592867919921876,1.06719970703125,2.563321113586426,-2.473013401031494
1763697779145456600,10.60245654296875,1.0484561920166016,2.4434590339660645,-2.415987968444824
1763697779155044900,10.612044921875,1.0798702239990234,2.3295936584472656,-2.3487753868103027
1763697779164632000,10.621632080078125,1.0782089233398438,2.2672882080078125,-2.232595682144165
1763697779174220300,10.63122021484375,1.0700979232788086,2.1730027198791504,-2.094477415084839
1763697779183809000,10.64080908203125,1.1147823333740234,2.1274194717407227,-1.953701138496399
1763697779193397200,10.650397216796875,1.1745662689208984,2.0739645957946777,-1.8580267429351807
1763697779202984400,10.659984375,1.2493791580200195,2.0079054832458496,-1.8057224750518799
1763697779212572700,10.66957275390625,1.3311290740966797,1.9835844039916992,-1.7753862142562866
1763697779222161700,10.67916162109375,1.4209856986999512,2.0264182090759277,-1.791092872619629
1763697779231749600,10.68874951171875,1.49656343460083,2.1548733711242676,-1.829337239265442
1763697779241336800,10.6983369140625,1.6169986724853516,2.327587127685547,-1.8581900596618652
1763697779250925000,10.707925048828125,1.7530207633972168,2.5559611320495605,-1.9342390298843384
1763697779260513800,10.717513671875,1.896653175354004,2.750971794128418,-2.0733823776245117
1763697779270102000,10.72710205078125,2.078158378601074,2.9193010330200195,-2.20015287399292
1763697779279689200,10.736689208984375,2.205106258392334,3.050600051879883,-2.3351891040802
1763697779289277400,10.74627734375,2.330864429473877,3.0963973999023438,-2.4754867553710938
1763697779298866200,10.7558662109375,2.533113479614258,2.9799981117248535,-2.6203207969665527
1763697779308454400,10.765454345703125,2.680135726928711,2.732917308807373,-2.795689344406128
1763697779318041600,10.77504150390625,2.8426003456115723,2.3776941299438477,-3.032066822052002
1763697779327629800,10.7846298828125,3.0277786254882812,2.0137381553649902,-3.187389373779297
1763697779337218600,10.794218505859375,3.1213183403015137,1.7069835662841797,-3.3193936347961426
1763697779346806800,10.803806884765624,3.274397373199463,1.4229545593261719,-3.478745937347412
1763697779356394000,10.81339404296875,3.527740955352783,1.200850486755371,-3.651686668395996
1763697779365982200,10.822982177734374,3.7273402214050293,1.122145652770996,-3.7837791442871094
1763697779375571000,10.832571044921876,3.8681535720825195,1.191007137298584,-3.8535776138305664
1763697779385159200,10.8421591796875,3.9739835262298584,1.4345173835754395,-3.9142844676971436
1763697779394746400,10.851746337890624,4.149028301239014,1.712141990661621,-3.9823107719421387
1763697779404334600,10.86133447265625,4.384044647216797,1.8833603858947754,-4.06210994720459
1763697779413923300,10.87092333984375,4.700445175170898,1.743302345275879,-4.1882123947143555
1763697779423511600,10.880511474609374,4.9624834060668945,1.5272703170776367,-4.249422550201416
1763697779433098800,10.8900986328125,5.101449489593506,1.408926010131836,-4.248072624206543
1763697779442687000,10.89968701171875,5.202016830444336,1.2904143333435059,-4.172778129577637
1763697779452275700,10.909275634765624,5.28827428817749,1.1201577186584473,-4.071988582611084
1763697779461864000,10.918864013671875,5.272679805755615,0.937903881072998,-3.92849063873291
1763697779471451100,10.928451171875,5.163003444671631,0.7736563682556152,-3.7517168521881104
1763697779481039400,10.938039306640626,5.114307403564453,0.566131591796875,-3.6143174171447754
1763697779490628000,10.947628173828125,5.065133094787598,0.4327545166015625,-3.488131046295166
1763697779500216300,10.95721630859375,4.945137977600098,0.49944591522216797,-3.3622498512268066
1763697779509803500,10.966803466796875,4.828452110290527,0.6473393440246582,-3.250946044921875
1763697779519391700,10.976391845703125,4.707484245300293,0.7835326194763184,-3.1859936714172363
1763697779528980500,10.98598046875,4.4887166023254395,0.9632811546325684,-3.1445446014404297
1763697779538568700,10.995568603515625,4.373678684234619,0.904994010925293,-3.1289448738098145
1763697779548156000,11.005156005859375,4.304714679718018,0.6554665565490723,-3.1177194118499756
1763697779557744000,11.014744140625,4.171644687652588,0.3366389274597168,-2.9807159900665283
1763697779567332900,11.024332763671875,3.950565814971924,0.09055614471435547,-2.710031509399414
1763697779576921000,11.033921142578125,3.6760149002075195,0.007747650146484375,-2.3021392822265625
1763697779586508300,11.04350830078125,3.3922152519226074,-0.11291885375976562,-1.837125539779663
1763697779596096300,11.05309619140625,3.1878676414489746,-0.5665321350097656,-1.4956488609313965
1763697779605685200,11.062685302734375,3.1231112480163574,-1.2950286865234375,-1.2835817337036133
1763697779615273500,11.0722734375,3.0751376152038574,-1.9476275444030762,-1.1300036907196045
1763697779624860700,11.081860595703125,2.89479398727417,-2.392669677734375,-1.00569748878479
1763697779634449000,11.091448974609374,2.617842674255371,-2.6440439224243164,-0.9273791313171387
1763697779644037600,11.10103759765625,2.281898021697998,-2.8287649154663086,-0.8356072902679443
1763697779653625900,11.1106259765625,1.966825008392334,-2.943819522857666,-0.7485232353210449
1763697779663213000,11.120213134765624,1.6745376586914062,-3.093618869781494,-0.7660162448883057
1763697779672801300,11.12980126953125,1.4197607040405273,-3.338973045349121,-0.7885091304779053
1763697779682390000,11.13939013671875,1.2031631469726562,-3.4897046089172363,-0.7780001163482666
1763697779691978000,11.14897802734375,0.8724150657653809,-3.5067481994628906,-0.7605819702148438
1763697779701565400,11.1585654296875,0.459043025970459,-3.360948085784912,-0.6905121803283691
1763697779711153400,11.1681533203125,0.011177539825439453,-3.1716041564941406,-0.564490795135498
1763697779720742400,11.177742431640626,-0.39769983291625977,-3.010098934173584,-0.4542222023010254
1763697779730330600,11.18733056640625,-0.8361148834228516,-2.9311437606811523,-0.2867417335510254
1763697779739917800,11.196917724609374,-1.2581348419189453,-2.8842926025390625,-0.09966230392456055
1763697779749505800,11.206505859375,-1.6443963050842285,-2.94549560546875,0.12131261825561523
1763697779759094800,11.2160947265625,-1.961557388305664,-3.113856792449951,0.3324136734008789
1763697779768683000,11.22568310546875,-2.207793712615967,-3.4236793518066406,0.5390124320983887
1763697779778270200,11.235270263671875,-2.439258575439453,-3.715634822845459,0.7671456336975098
1763697779787858400,11.2448583984375,-2.668999671936035,-3.9498629570007324,1.0308794975280762
1763697779797447200,11.254447265625,-2.9311623573303223,-4.10122013092041,1.2642056941986084
1763697779807035400,11.264035400390625,-3.204592227935791,-4.162324905395508,1.4814801216125488
1763697779816622600,11.27362255859375,-3.5420303344726562,-4.080704689025879,1.6544914245605469
1763697779826210600,11.28321044921875,-3.865048408508301,-4.008173942565918,1.8350112438201904
1763697779835799600,11.292799560546875,-4.161919593811035,-3.988058090209961,2.0415866374969482
1763697779845387500,11.302387451171874,-4.373027801513672,-3.933887004852295,2.2689173221588135
1763697779854975000,11.31197509765625,-4.5998125076293945,-3.8837809562683105,2.551466226577759
1763697779864563000,11.32156298828125,-4.827310085296631,-3.747083902359009,2.8726675510406494
1763697779874152000,11.33115185546875,-4.917825698852539,-3.613941192626953,3.0820155143737793
1763697779883740000,11.340739990234376,-4.941799163818359,-3.611501455307007,3.19223690032959
1763697779893327400,11.350327392578125,-4.886170864105225,-3.75034761428833,3.2181520462036133
1763697779902915600,11.35991552734375,-4.781317710876465,-4.003397464752197,3.1906893253326416
1763697779912504300,11.36950439453125,-4.604742050170898,-4.346274375915527,3.1361196041107178
1763697779922092500,11.379092529296875,-4.510292053222656,-4.670310974121094,3.0855045318603516
1763697779931679700,11.3886796875,-4.437798500061035,-4.9164533615112305,3.0517144203186035
1763697779941267700,11.398267822265625,-4.344640731811523,-5.051182746887207,3.0972023010253906
1763697779950856700,11.407856689453125,-4.387240409851074,-5.064673900604248,3.1255741119384766
1763697779960444700,11.417444580078126,-4.448109149932861,-5.039106369018555,3.1964359283447266
1763697779970032000,11.4270322265625,-4.449456691741943,-5.005864143371582,3.28709077835083
1763697779979620000,11.4366201171875,-4.449688911437988,-4.941012382507324,3.355825424194336
1763697779989209000,11.446208984375,-4.460285186767578,-4.931269645690918,3.3742129802703857
1763697779998797000,11.455797119140625,-4.454751491546631,-4.846149921417236,3.318276882171631
1763697780008384500,11.465384521484374,-4.3212080001831055,-4.8285675048828125,3.1945364475250244
1763697780017972700,11.47497265625,-4.041604518890381,-4.965036392211914,3.0043957233428955
1763697780027561500,11.4845615234375,-3.7101821899414062,-5.151523590087891,2.8592026233673096
1763697780037149400,11.4941494140625,-3.373119354248047,-5.27072811126709,2.7700188159942627
1763697780046737000,11.50373681640625,-3.0121216773986816,-5.281805992126465,2.683148145675659
1763697780056324900,11.513324951171874,-2.668264389038086,-5.301296234130859,2.5740926265716553
1763697780065913900,11.522913818359376,-2.226802349090576,-5.3496623039245605,2.514521360397339
1763697780075501800,11.532501708984375,-1.7711291313171387,-5.357190132141113,2.428685188293457
1763697780085089300,11.54208935546875,-1.4311485290527344,-5.315764427185059,2.418154716491699
1763697780094677200,11.55167724609375,-1.2238454818725586,-5.229888916015625,2.4692420959472656
1763697780104266200,11.561266357421875,-1.0187339782714844,-5.050113677978516,2.481396436691284
1763697780113854200,11.570854248046874,-0.932823657989502,-4.659082889556885,2.448115587234497
1763697780123441700,11.580441650390625,-0.9127011299133301,-4.013656139373779,2.375135898590088
1763697780133030000,11.59002978515625,-0.9122843742370605,-3.3320770263671875,2.1990060806274414
1763697780142618600,11.59961865234375,-0.8189873695373535,-2.676483631134033,1.9669501781463623
1763697780152206600,11.60920654296875,-0.6944856643676758,-2.1088638305664062,1.6842458248138428
1763697780161794000,11.6187939453125,-0.4638195037841797,-1.750779151916504,1.3674402236938477
1763697780171382300,11.62838232421875,-0.13731956481933594,-1.675227165222168,1.0429160594940186
1763697780180971000,11.637970947265625,0.2109227180480957,-1.79713773727417,0.7618820667266846
1763697780190559000,11.64755908203125,0.5881829261779785,-2.0161428451538086,0.47762012481689453
1763697780200146400,11.657146484375,0.8875088691711426,-2.2520294189453125,0.246185302734375
1763697780209734400,11.666734375,1.1378169059753418,-2.5346646308898926,0.026260852813720703
1763697780219323400,11.676323486328124,1.3966407775878906,-2.8751649856567383,-0.1933460235595703
1763697780228911400,11.685911376953126,1.5011401176452637,-3.1345667839050293,-0.3712587356567383
1763697780238498800,11.695498779296875,1.5081148147583008,-3.2280220985412598,-0.582360029220581
1763697780248086800,11.705086669921876,1.4947690963745117,-3.1209025382995605,-0.8114519119262695
1763697780257675800,11.71467578125,1.4485359191894531,-2.8160295486450195,-1.0362915992736816
1763697780267263700,11.724263671875,1.4042487144470215,-2.4114890098571777,-1.33646559715271
1763697780276851200,11.733851318359376,1.4762539863586426,-1.9737520217895508,-1.6208174228668213
1763697780286439200,11.743439208984375,1.5672144889831543,-1.451070785522461,-1.7973904609680176
1763697780296028200,11.753028076171875,1.5667552947998047,-0.8820700645446777,-1.8724806308746338
1763697780305616100,11.7626162109375,1.6229653358459473,-0.3568601608276367,-1.848402500152588
1763697780315203600,11.77220361328125,1.6001429557800293,0.1528482437133789,-1.7711925506591797
1763697780324791600,11.78179150390625,1.5232124328613281,0.6235642433166504,-1.6380164623260498
1763697780334380500,11.791380615234376,1.4345965385437012,1.0016345977783203,-1.5135400295257568
1763697780343968500,11.800968505859375,1.2957215309143066,1.235994815826416,-1.4097490310668945
1763697780353556000,11.810555908203124,1.1691207885742188,1.3713350296020508,-1.3641705513000488
1763697780363144000,11.82014404296875,1.0794415473937988,1.4091558456420898,-1.3537499904632568
1763697780372733000,11.82973291015625,1.0440468788146973,1.3888053894042969,-1.421832799911499
1763697780382321000,11.83932080078125,1.0377955436706543,1.380697250366211,-1.5108704566955566
1763697780391908400,11.848908447265625,1.1171183586120605,1.4117279052734375,-1.593050479888916
1763697780401496300,11.858496337890625,1.2183928489685059,1.4823803901672363,-1.5890593528747559
1763697780411085300,11.868085205078126,1.2908649444580078,1.6523089408874512,-1.5387089252471924
1763697780420673300,11.87767333984375,1.3739838600158691,1.813425064086914,-1.4865493774414062
1763697780430260700,11.8872607421875,1.5088224411010742,1.931337833404541,-1.447603702545166
1763697780439848700,11.8968486328125,1.6821236610412598,2.0629725456237793,-1.4510626792907715
1763697780449437700,11.906437744140625,1.8267102241516113,2.256026268005371,-1.468160629272461
1763697780459025700,11.916025634765624,1.8974971771240234,2.4701595306396484,-1.4924533367156982
1763697780468613000,11.925613037109375,1.9621248245239258,2.691354751586914,-1.5930960178375244
1763697780478201000,11.935201171875,2.076444149017334,2.8745107650756836,-1.728317141532898
1763697780487790000,11.9447900390625,2.2213449478149414,2.990907669067383,-1.9041398763656616
1763697780497378000,11.9543779296875,2.3844289779663086,2.94482421875,-2.1911251544952393
1763697780506965500,11.963965576171875,2.59383487701416,2.7505574226379395,-2.4730143547058105
1763697780516553500,11.973553466796876,2.7747879028320312,2.5274105072021484,-2.714898109436035
1763697780526142500,11.983142578125,2.977410316467285,2.273078441619873,-2.916253089904785
1763697780535730400,11.99273046875,3.2240724563598633,1.9713029861450195,-3.1498866081237793
1763697780545318000,12.00231787109375,3.502103328704834,1.70664644241333,-3.31709623336792
1763697780554905900,12.01190576171875,3.804030179977417,1.525383472442627,-3.4796290397644043
1763697780564494800,12.021494873046874,4.066627025604248,1.3682756423950195,-3.692802906036377
1763697780574082800,12.031082763671876,4.356060028076172,1.1870999336242676,-3.863283157348633
1763697780583670000,12.040669921875,4.540811538696289,1.1454033851623535,-3.9874558448791504
1763697780593258200,12.05025830078125,4.5952558517456055,1.2250628471374512,-4.111441612243652
1763697780602847200,12.05984716796875,4.609371662139893,1.3584342002868652,-4.191463470458984
1763697780612435200,12.069435302734375,4.630758762359619,1.5619053840637207,-4.2122297286987305
1763697780622022700,12.079022705078126,4.810011863708496,1.6560163497924805,-4.29875373840332
1763697780631610600,12.088610595703125,5.211281776428223,1.480668544769287,-4.303063869476318
1763697780641199600,12.09819970703125,5.602633476257324,1.3676085472106934,-4.156222343444824
1763697780650787600,12.10778759765625,5.750668525695801,1.6021437644958496,-3.825629711151123
1763697780660375000,12.117375,5.751656532287598,2.04158353805542,-3.380279064178467
1763697780669963000,12.126962890625,5.72924280166626,2.398650646209717,-2.9277782440185547
1763697780679552000,12.136552001953126,5.779081344604492,2.487346649169922,-2.562670946121216
1763697780689140000,12.146139892578125,5.808661460876465,2.363417148590088,-2.3091063499450684
1763697780698727200,12.15572705078125,5.762598037719727,2.0684666633605957,-2.112417221069336
1763697780708315400,12.1653154296875,5.611283302307129,1.6827435493469238,-1.987227439880371
1763697780717904400,12.174904296875,5.440284729003906,1.289149284362793,-2.055710792541504
1763697780727492400,12.184492431640624,5.258172988891602,1.0610861778259277,-2.2334237098693848
1763697780737079600,12.19407958984375,5.010630130767822,1.1543145179748535,-2.454083204269409
1763697780746667800,12.203667724609375,4.727879524230957,1.302558422088623,-2.6354315280914307
1763697780756256800,12.2132568359375,4.448294162750244,1.4155430793762207,-2.7582218647003174
1763697780765844700,12.2228447265625,4.166848182678223,1.3375763893127441,-2.799159288406372
1763697780775432000,12.232431884765624,3.8879823684692383,1.0663843154907227,-2.7801127433776855
1763697780785020200,12.242020263671876,3.561781644821167,0.6891818046569824,-2.7306067943573
1763697780794609200,12.251609130859375,3.2405052185058594,0.28290843963623047,-2.644787549972534
1763697780804197000,12.261197021484374,2.8543620109558105,-0.10056209564208984,-2.5269734859466553
1763697780813784300,12.270784423828125,2.4131455421447754,-0.40393733978271484,-2.3984792232513428
1763697780823372500,12.28037255859375,2.047750949859619,-0.9089231491088867,-2.3597304821014404
1763697780832961500,12.28996142578125,1.7742657661437988,-1.471414566040039,-2.4638912677764893
1763697780842549500,12.299549560546875,1.548231601715088,-1.7523689270019531,-2.526165723800659
1763697780852136700,12.30913671875,1.2681407928466797,-1.7251472473144531,-2.558030366897583
1763697780861725000,12.318724853515626,1.0651116371154785,-1.60345458984375,-2.6055476665496826
1763697780871314000,12.32831396484375,0.9099955558776855,-1.4972825050354004,-2.635396718978882
1763697780880902000,12.33790185546875,0.7035484313964844,-1.3522868156433105,-2.612668037414551
1763697780890489000,12.347489013671876,0.5404653549194336,-1.2051324844360352,-2.5864617824554443
1763697780900077300,12.357077392578125,0.48819780349731445,-1.2347726821899414,-2.5844945907592773
1763697780909666300,12.366666259765625,0.47223949432373047,-1.511519432067871,-2.6030943393707275
