time,seconds_elapsed,z,y,x
1763691408957717800,0.1417177734375,0,0,0
1763691408967797000,0.151796875,0.029321670532226562,-0.03197360038757324,0.0038508623838424683
1763691408987920600,0.171920654296875,0.20229816436767578,0.020983219146728516,-0.13560128211975098
1763691409007997200,0.1919970703125,0.3310537338256836,-0.022486209869384766,-0.2584153413772583
1763691409018102000,0.20210205078125,0.24708938598632812,-0.019936323165893555,-0.19972921907901764
1763691409028181500,0.212181396484375,0.1456003189086914,0.0014071464538574219,-0.027970150113105774
1763691409038261000,0.222260986328125,0.055828094482421875,-0.023057222366333008,0.06845104694366455
1763691409049009200,0.233009033203125,-0.05425262451171875,-0.10843873023986816,0.16459475457668304
1763691409059088600,0.243088623046875,-0.06583786010742188,-0.10121583938598633,0.18552669882774353
1763691409069168000,0.253168212890625,0.06369209289550781,0.002727508544921875,-0.013919427990913391
1763691409078694700,0.262694580078125,0.26106834411621094,0.09868764877319336,-0.2942771315574646
1763691409088774100,0.272774169921875,0.2686290740966797,0.04758167266845703,-0.3792385458946228
1763691409098853600,0.282853515625,0.045264244079589844,-0.050312042236328125,-0.19226543605327606
1763691409108945700,0.292945556640625,-0.19482707977294922,-0.11785888671875,0.13452351093292236
1763691409119025200,0.303025146484375,-0.40118980407714844,-0.11840248107910156,0.4605427384376526
1763691409129104600,0.313104736328125,-0.5912017822265625,-0.15259957313537598,0.5595040321350098
1763691409139126000,0.3231259765625,-0.8015012741088867,-0.2302849292755127,0.5247633457183838
1763691409149205500,0.33320556640625,-0.9596414566040039,-0.21662592887878418,0.4704711139202118
1763691409159285000,0.343284912109375,-1.005213737487793,-0.08270764350891113,0.3877103626728058
1763691409169411600,0.35341162109375,-0.9228105545043945,0.05013561248779297,0.1900869905948639
1763691409179490800,0.36349072265625,-0.6664924621582031,0.09112763404846191,-0.052692800760269165
1763691409189570300,0.3735703125,-0.3609428405761719,0.13330578804016113,-0.3040539622306824
1763691409199656700,0.38365673828125,-0.1373157501220703,0.057164907455444336,-0.3529204726219177
1763691409209736200,0.393736083984375,0.10567378997802734,-0.0981900691986084,-0.2629033029079437
1763691409219815400,0.4038154296875,0.34549617767333984,-0.1752486228942871,-0.15366661548614502
1763691409229900300,0.413900390625,0.6365118026733398,-0.27794790267944336,-0.04774804413318634
1763691409239979500,0.4239794921875,0.7377529144287109,-0.319777250289917,0.04442654550075531
1763691409250059000,0.43405908203125,0.5937089920043945,-0.15845894813537598,-0.08961550891399384
1763691409260089900,0.44408984375,0.6085777282714844,0.057861328125,-0.20818960666656494
1763691409270169300,0.45416943359375,0.9779691696166992,-0.04220938682556152,0.3068181574344635
1763691409280248600,0.46424853515625,1.3107271194458008,-0.0995640754699707,0.7979442477226257
1763691409290956000,0.4749560546875,1.168111801147461,0.2809104919433594,-0.4986284077167511
1763691409301035500,0.485035400390625,0.4827260971069336,0.3128347396850586,-0.8923559188842773
1763691409311115000,0.495114990234375,-0.15213775634765625,0.11397409439086914,-0.4420017600059509
1763691409321209000,0.505208984375,-0.18658733367919922,-0.08177804946899414,0.13497906923294067
1763691409331288600,0.51528857421875,0.1984119415283203,-0.3925766944885254,0.3981916904449463
1763691409341367800,0.525367919921875,0.4629983901977539,-0.5069808959960938,0.28408920764923096
1763691409351452400,0.535452392578125,-0.2010478973388672,-0.5331935882568359,0.34001660346984863
1763691409361532000,0.545531982421875,-1.3331565856933594,-0.4109153747558594,0.014873504638671875
1763691409371611400,0.555611328125,-1.4973459243774414,-0.11007475852966309,-0.9067425727844238
1763691409391168500,0.57516845703125,-0.6409769058227539,-0.01371312141418457,-0.241804838180542
1763691409401248000,0.585248046875,-0.6912555694580078,0.9710793495178223,0.7327771186828613
1763691409411307000,0.59530712890625,-0.9660558700561523,0.5410103797912598,0.6135354042053223
1763691409421386500,0.605386474609375,-1.0942440032958984,-0.4132845401763916,0.6902467012405396
1763691409431465700,0.6154658203125,-0.9703493118286133,-1.2526836395263672,1.5937294960021973
1763691409441593900,0.62559375,-0.8243284225463867,-1.4275972843170166,1.5195611715316772
1763691409451673300,0.63567333984375,-0.6775598526000977,-1.0663976669311523,0.4535558223724365
1763691409461752800,0.6457529296875,-0.36101341247558594,-0.7341444492340088,-0.0906597375869751
1763691409471789600,0.65578955078125,0.32288265228271484,-0.27945590019226074,0.1299530267715454
1763691409481868800,0.665868896484375,0.9698648452758789,0.15150690078735352,0.0853731632232666
1763691409491948300,0.6759482421875,1.277073860168457,0.4417414665222168,-0.4857492446899414
1763691409501999000,0.6859990234375,0.90972900390625,0.6534395217895508,-1.3019614219665527
1763691409512078600,0.69607861328125,-0.0023288726806640625,0.6577804088592529,-1.4878127574920654
1763691409532272000,0.716272216796875,-0.4981985092163086,0.539567232131958,-0.9244678616523743
1763691409542351600,0.7263515625,-0.16389942169189453,0.1778278350830078,-0.3487524390220642
1763691409552430800,0.736430908203125,0.07222461700439453,-0.23805999755859375,0.23928344249725342
1763691409562505500,0.74650537109375,0.10105133056640625,-0.5442178249359131,0.6507591605186462
1763691409572584700,0.756584716796875,-0.17176151275634766,-0.5815169811248779,0.6242873668670654
1763691409582664200,0.766664306640625,-0.6024942398071289,-0.2811877727508545,0.2307581901550293
1763691409592731100,0.776731201171875,-0.8163681030273438,0.14755940437316895,-0.3236576020717621
1763691409602810600,0.786810546875,-0.9354333877563477,0.4703066349029541,-1.0268380641937256
1763691409612889900,0.796889892578125,-0.639042854309082,0.3362720012664795,-1.2249468564987183
1763691409622977000,0.80697705078125,-0.49323272705078125,0.2603139877319336,-0.7137340903282166
1763691409633056300,0.81705615234375,-0.21799564361572266,0.10369277000427246,0.14580929279327393
1763691409643135700,0.8271357421875,0.22468852996826172,-0.08223176002502441,0.6236573457717896
1763691409653228500,0.837228515625,0.05112171173095703,-0.49639391899108887,0.6068347692489624
1763691409663307800,0.847307861328125,-0.2619495391845703,-0.4117259979248047,0.8750714063644409
1763691409673387300,0.85738720703125,-0.5552711486816406,-0.05672597885131836,0.9159455299377441
1763691409683425500,0.867425537109375,-0.782130241394043,-0.1605668067932129,0.41825127601623535
1763691409693504800,0.8775048828125,-0.8628091812133789,-0.2694835662841797,-0.045835018157958984
1763691409703584300,0.887584228515625,-0.8930997848510742,-0.10601592063903809,-0.05972021818161011
1763691409713730300,0.897730224609375,-0.6923322677612305,0.15205764770507812,-0.009606122970581055
1763691409723809800,0.907809814453125,-0.4694480895996094,0.17859315872192383,-0.10963112115859985
1763691409733889300,0.91788916015625,-0.18337059020996094,0.01644134521484375,-0.13854211568832397
1763691409743945000,0.927945068359375,0.1733713150024414,-0.02076435089111328,0.0034245848655700684
1763691409754024400,0.9380244140625,0.44530296325683594,0.05337166786193848,0.1733076572418213
1763691409764104000,0.94810400390625,0.5594615936279297,-0.005832672119140625,0.2104775309562683
1763691409774173200,0.958173095703125,0.4426116943359375,-0.046758413314819336,0.21374893188476562
1763691409784252400,0.96825244140625,0.31681060791015625,-0.10753226280212402,0.32227033376693726
1763691409794332000,0.978331787109375,0.08226585388183594,-0.2431480884552002,0.22722309827804565
1763691409804379100,0.988379150390625,-0.05746936798095703,-0.25316834449768066,0.04789775609970093
1763691409814458600,0.998458740234375,-0.012990951538085938,0.11095762252807617,-0.0933910608291626
1763691409824538000,1.0085380859375,0.032428741455078125,0.4797942638397217,-0.2998555600643158
1763691409834685200,1.018685302734375,-0.1201925277709961,0.4751260280609131,-0.5127537250518799
1763691409844764700,1.0287646484375,-0.5114803314208984,0.20145416259765625,-0.4293336272239685
1763691409854844200,1.03884423828125,-0.7475433349609375,-0.07394552230834961,-0.004892587661743164
1763691409874983400,1.0589833984375,-0.5726766586303711,-0.39565229415893555,0.8072513341903687
1763691409885063000,1.06906298828125,-0.09990596771240234,-0.28299713134765625,0.7257897853851318
1763691409895150000,1.079150146484375,0.45836544036865234,0.012713432312011719,0.3629307150840759
1763691409905229600,1.0892294921875,0.7539520263671875,0.15831756591796875,-0.01345914602279663
1763691409915309000,1.09930908203125,0.7143821716308594,0.17675375938415527,-0.16347157955169678
1763691409925361200,1.109361083984375,0.5758762359619141,0.13503742218017578,-0.03676801919937134
1763691409935440600,1.119440673828125,0.4019289016723633,0.027684688568115234,0.26829731464385986
1763691409945520000,1.12952001953125,0.3598661422729492,-0.015382051467895508,0.5327003002166748
1763691409955619600,1.13961962890625,0.6029958724975586,0.18719220161437988,0.7783989906311035
1763691409965698800,1.14969873046875,0.9194517135620117,0.3983125686645508,0.6864683628082275
1763691409975778300,1.1597783203125,0.8983259201049805,0.4148435592651367,0.2576010227203369
1763691409985849600,1.169849609375,0.6205301284790039,0.40614795684814453,0.05878278613090515
1763691409995929000,1.17992919921875,0.24036121368408203,0.4091036319732666,0.16953304409980774
1763691410006008600,1.190008544921875,0.024886131286621094,0.37242889404296875,0.38212156295776367
1763691410016075300,1.2000751953125,-0.04969978332519531,0.17661762237548828,0.6526586413383484
1763691410026154800,1.21015478515625,-0.06465721130371094,-0.18676495552062988,0.9673559665679932
1763691410036234500,1.220234375,0.12204265594482422,-0.47549891471862793,1.4011943340301514
1763691410046335200,1.230335205078125,0.32743167877197266,-0.6621036529541016,1.8702104091644287
1763691410056415000,1.2404150390625,0.3388700485229492,-0.7808308601379395,1.9866310358047485
1763691410066494500,1.250494384765625,0.12069892883300781,-0.8658294677734375,1.7583601474761963
1763691410076553000,1.260552978515625,-0.08356094360351562,-0.6455478668212891,1.4554781913757324
1763691410086632700,1.2706328125,-0.08799552917480469,-0.2760775089263916,0.962177574634552
1763691410096712400,1.28071240234375,-0.14023590087890625,-0.13097357749938965,0.41714799404144287
1763691410106810400,1.290810302734375,-0.16737747192382812,0.12807011604309082,0.028040945529937744
1763691410116890000,1.30089013671875,-0.06831645965576172,0.32050180435180664,-0.07172361016273499
1763691410126969600,1.310969482421875,0.013612747192382812,0.3200836181640625,0.10169064998626709
1763691410137024500,1.3210244140625,0.17424392700195312,0.2252962589263916,0.4746702313423157
1763691410147104300,1.331104248046875,0.4543323516845703,0.1007993221282959,0.9185636639595032
1763691410157183700,1.341183837890625,0.6950674057006836,-0.0740957260131836,1.2531347274780273
1763691410167224600,1.351224609375,0.7570953369140625,-0.1294703483581543,1.4250311851501465
1763691410177304300,1.36130419921875,1.0168638229370117,-0.11229395866394043,1.445218563079834
1763691410187384000,1.371384033203125,1.5483598709106445,-0.1826462745666504,1.2673215866088867
1763691410197491000,1.381490966796875,2.0869264602661133,-0.16971731185913086,0.9952073097229004
1763691410207570700,1.39157080078125,2.3462953567504883,-0.15808892250061035,0.7585339546203613
1763691410217650200,1.401650146484375,1.806746482849121,-0.2008824348449707,0.4520697593688965
1763691410227756000,1.411756103515625,0.6834297180175781,-0.04007744789123535,0.15999239683151245
1763691410237835800,1.421835693359375,-0.38166332244873047,0.5478305816650391,0.052498459815979004
1763691410247915300,1.431915283203125,-1.1628704071044922,1.083744764328003,-0.1795882284641266
1763691410258013200,1.44201318359375,-1.6400127410888672,1.3412144184112549,-0.6415475606918335
1763691410268093000,1.452093017578125,-1.8678336143493652,1.4230256080627441,-0.9341774582862854
1763691410278172400,1.46217236328125,-1.8503656387329102,1.373443365097046,-0.9287900924682617
1763691410288222700,1.47222265625,-1.4896764755249023,1.1965875625610352,-0.6326454281806946
1763691410298302200,1.48230224609375,-1.0680046081542969,0.9099273681640625,-0.13232865929603577
1763691410308382000,1.4923818359375,-0.751124382019043,0.6204545497894287,0.3748103976249695
1763691410318511000,1.502510986328125,-0.6607160568237305,0.3606903553009033,0.682626485824585
1763691410328590800,1.5125908203125,-0.7412185668945312,0.17363357543945312,0.8029618859291077
1763691410338670300,1.52267041015625,-0.8860006332397461,0.1729879379272461,0.8806277513504028
1763691410348735700,1.53273583984375,-1.067422866821289,0.35622620582580566,1.11372709274292
1763691410358815500,1.5428154296875,-1.388718605041504,0.5328202247619629,1.3242602348327637
1763691410368895000,1.55289501953125,-1.7332324981689453,0.4421815872192383,1.3133606910705566
1763691410378925800,1.56292578125,-1.0155296325683594,0.23327279090881348,0.7134603261947632
1763691410389005600,1.573005615234375,1.0232629776000977,-0.2705962657928467,-1.1782326698303223
1763691410399085300,1.583085205078125,0.8390331268310547,-0.5251986980438232,-1.1455672979354858
1763691410409192200,1.593192138671875,0.6307239532470703,-0.030547142028808594,-0.16756534576416016
1763691410419271700,1.603271728515625,1.3151369094848633,0.07020115852355957,0.2814919352531433
1763691410429351400,1.613351318359375,1.5228967666625977,-0.4577000141143799,0.22233688831329346
1763691410439432400,1.623432373046875,1.3235445022583008,-0.8800265789031982,-0.02167612314224243
1763691410449512200,1.63351220703125,0.7496404647827148,-1.0867621898651123,0.01249849796295166
1763691410459591700,1.643591796875,0.11251544952392578,-1.084001064300537,0.09625750780105591
1763691410469672400,1.65367236328125,-0.4501609802246094,-1.0104000568389893,0.035242319107055664
1763691410479752000,1.663751953125,-1.3565168380737305,-1.6152455806732178,-0.35167694091796875
1763691410489831700,1.673831787109375,-1.7689409255981445,-1.72275710105896,-0.1345059871673584
1763691410499884800,1.683884765625,-1.6597156524658203,-0.4674985408782959,0.8322591781616211
1763691410509964300,1.69396435546875,-1.696631908416748,-0.08344578742980957,1.0547055006027222
1763691410520044000,1.7040439453125,-1.3478145599365234,-0.1419820785522461,0.6902669668197632
1763691410530117400,1.714117431640625,-1.2550067901611328,-0.3713076114654541,-0.08459186553955078
1763691410550276600,1.734276611328125,-1.0014543533325195,0.014860391616821289,-1.0184273719787598
1763691410560356400,1.7443564453125,-1.0883817672729492,0.05910325050354004,-1.303523302078247
1763691410570461000,1.7544609375,-1.3244810104370117,0.09482979774475098,-1.600646734237671
1763691410580540700,1.764540771484375,-1.4003567695617676,0.10505437850952148,-1.7005188465118408
1763691410590620200,1.7746201171875,-1.2168302536010742,-0.04072690010070801,-1.4927115440368652
1763691410601283300,1.785283447265625,-0.78424072265625,-0.19846034049987793,-1.148207664489746
1763691410611362800,1.79536279296875,-0.31970691680908203,-0.2283158302307129,-1.0332341194152832
1763691410621442600,1.805442626953125,0.12418460845947266,-0.3526434898376465,-1.0993027687072754
1763691410641019100,1.82501904296875,0.8605413436889648,-0.41736292839050293,-1.056018352508545
1763691410651099000,1.835098876953125,1.286956787109375,-0.42838263511657715,-1.3152289390563965
1763691410661187600,1.8451875,1.2578372955322266,-0.5323991775512695,-1.6119461059570312
1763691410671267300,1.855267333984375,1.1023530960083008,-0.4603259563446045,-1.5107746124267578
1763691410681347000,1.86534716796875,1.0720901489257812,-0.2652146816253662,-1.3003296852111816
1763691410691430400,1.875430419921875,1.0725655555725098,-0.17955374717712402,-1.0922508239746094
1763691410701510000,1.885510009765625,0.8447756767272949,-0.34647536277770996,-0.8538146018981934
1763691410711589600,1.895589599609375,0.6681451797485352,-0.48214125633239746,-0.5448846817016602
1763691410721595600,1.905595703125,0.653632640838623,-0.6337611675262451,-0.4606356620788574
1763691410731675400,1.91567529296875,0.4585576057434082,-0.9721028804779053,-0.9011387825012207
1763691410741755000,1.9257548828125,-0.4615025520324707,-0.40843987464904785,-1.1493067741394043
1763691410761941000,1.94594091796875,-1.0742583274841309,0.8643956184387207,-2.346376895904541
1763691410772020500,1.9560205078125,-0.8098359107971191,0.9981951713562012,-2.3218116760253906
1763691410782162700,1.96616259765625,-0.5230231285095215,0.7317147254943848,-1.8644990921020508
1763691410792242400,1.976242431640625,-0.6018662452697754,0.37081480026245117,-1.339625358581543
1763691410802322200,1.986322265625,-0.9195194244384766,0.07471752166748047,-0.7969574928283691
1763691410812379000,1.99637890625,-1.0148744583129883,-0.14666318893432617,-0.4036245346069336
1763691410822458600,2.006458740234375,-0.8271899223327637,-0.2595226764678955,-0.4183173179626465
1763691410832538000,2.0165380859375,-0.39471006393432617,-0.43904709815979004,-0.5772504806518555
1763691410842576600,2.02657666015625,0.0766911506652832,-0.4499828815460205,-0.713951587677002
1763691410852656400,2.036656494140625,0.40607404708862305,-0.43030810356140137,-0.5020089149475098
1763691410862736100,2.046736083984375,0.3945927619934082,-0.599076509475708,-0.05048179626464844
1763691410872894000,2.05689404296875,0.10676193237304688,-0.48700499534606934,0.04889106750488281
1763691410882973400,2.066973388671875,-0.4718050956726074,-0.035581111907958984,0.2190384864807129
1763691410893053200,2.07705322265625,-1.1381382942199707,0.37531328201293945,0.5646638870239258
1763691410903064000,2.08706396484375,-1.8591411113739014,0.4369039535522461,0.6622920036315918
1763691410913143600,2.0971435546875,-2.082010507583618,0.26426029205322266,0.6181869506835938
1763691410923223300,2.107223388671875,-1.5436642169952393,0.010359764099121094,0.34928226470947266
1763691410933328600,2.11732861328125,-0.6554560661315918,-0.3726005554199219,0.19426345825195312
1763691410943408400,2.127408447265625,0.1758594512939453,-0.619025468826294,0.1593494415283203
1763691410953488000,2.13748779296875,0.7842593193054199,-0.854332685470581,0.09798908233642578
1763691410963536600,2.14753662109375,1.2735767364501953,-0.8848154544830322,-0.19931697845458984
1763691410973616000,2.1576162109375,1.5434255599975586,-0.6328794956207275,-0.7497258186340332
1763691410983696000,2.16769580078125,1.4869332313537598,-0.31949663162231445,-1.0820064544677734
1763691410993751800,2.177751708984375,1.0250720977783203,0.10023355484008789,-1.122530460357666
1763691411003831600,2.18783154296875,0.2977890968322754,0.40738868713378906,-0.9934730529785156
1763691411013911300,2.197911376953125,-0.27571535110473633,0.5137877464294434,-0.836613655090332
1763691411024039000,2.208038818359375,-0.5471570491790771,0.5499405860900879,-0.740929126739502
1763691411034118400,2.218118408203125,-0.587871789932251,0.5044198036193848,-0.6092190742492676
1763691411044198100,2.2281982421875,-0.5670549869537354,0.37445497512817383,-0.566047191619873
1763691411054260700,2.2382607421875,-3.617434024810791,0.3306388854980469,-1.0069618225097656
1763691411064340500,2.248340576171875,-2.657609224319458,0.8748836517333984,0.15994548797607422
1763691411074420000,2.258419921875,-0.1627962589263916,1.1121039390563965,0.23263931274414062
1763691411084504300,2.26850439453125,-1.314373254776001,0.8345222473144531,-0.16494274139404297
1763691411094584000,2.278583984375,-0.8449656963348389,0.8828110694885254,-0.06695032119750977
1763691411104663600,2.28866357421875,-0.32598185539245605,0.8340387344360352,-0.2171010971069336
1763691411114761200,2.29876123046875,-0.5979676246643066,0.7211875915527344,-0.425692081451416
1763691411124841000,2.308841064453125,-0.29502320289611816,0.7263188362121582,-0.19461536407470703
1763691411134920700,2.318920654296875,-0.35145020484924316,0.644101619720459,-0.14899539947509766
1763691411145005000,2.329005126953125,-0.265399694442749,0.609405517578125,0.012843608856201172
1763691411155084800,2.339084716796875,-0.3264482021331787,0.47339391708374023,0.16028451919555664
1763691411165164500,2.34916455078125,-0.5175209045410156,0.3248424530029297,0.018249988555908203
1763691411175219200,2.35921923828125,-0.13487648963928223,0.26877737045288086,0.13892173767089844
1763691411185299000,2.369298828125,-0.2853505611419678,-0.0004363059997558594,0.06211566925048828
1763691411195378700,2.379378662109375,-0.12782931327819824,-0.0449976921081543,0.13569307327270508
1763691411205470700,2.389470703125,0.05120277404785156,-0.12320613861083984,0.023471355438232422
1763691411215550500,2.399550537109375,0.002597808837890625,-0.29843854904174805,-0.1057119369506836
1763691411225630200,2.409630126953125,-0.019047260284423828,-0.37046146392822266,-0.12308073043823242
1763691411235712500,2.41971240234375,-0.12550616264343262,-0.44667673110961914,0.014005661010742188
1763691411255871700,2.439871826171875,-0.18672990798950195,-0.4579806327819824,0.0726323127746582
1763691411265926100,2.449926025390625,-0.0782766342163086,-0.41530799865722656,0.28451967239379883
1763691411276006000,2.460005859375,-0.7240750789642334,-0.18279552459716797,0.371457576751709
1763691411286085400,2.47008544921875,-0.6211471557617188,0.16321992874145508,1.2638254165649414
1763691411296201200,2.480201171875,0.9289932250976562,0.5015287399291992,0.7833695411682129
1763691411306280700,2.49028076171875,-0.3605201244354248,-0.1706233024597168,-0.3508429527282715
1763691411316360400,2.5003603515625,-0.7605001926422119,-0.3255500793457031,-0.740105152130127
1763691411326411800,2.510411865234375,-0.5408053398132324,-0.07185125350952148,-0.1508173942565918
1763691411336491300,2.5204912109375,-0.46701741218566895,0.20948219299316406,0.22406339645385742
1763691411346571000,2.530571044921875,-0.42206501960754395,0.2213606834411621,-0.026984214782714844
1763691411356692500,2.5406923828125,-0.490525484085083,0.16365718841552734,-0.13730096817016602
1763691411366772200,2.550772216796875,-0.42685937881469727,0.044320106506347656,-0.6237144470214844
1763691411376852000,2.56085205078125,-0.2180929183959961,0.011766910552978516,-0.47722673416137695
1763691411386883800,2.5708837890625,-0.06634664535522461,-0.09778261184692383,-0.6940789222717285
1763691411396963300,2.58096337890625,0.13532018661499023,0.09762287139892578,-0.2476215362548828
1763691411407043000,2.59104296875,0.21703481674194336,0.07641792297363281,0.3211817741394043
1763691411417109500,2.601109619140625,0.15291380882263184,-0.13147401809692383,0.5962638854980469
1763691411427189000,2.61118896484375,0.013276815414428711,-0.09560775756835938,0.5509486198425293
1763691411437268700,2.621268798828125,-0.01423788070678711,0.13833284378051758,0.6714129447937012
1763691411447385600,2.631385498046875,-0.15710735321044922,0.18022632598876953,0.7813034057617188
1763691411457465000,2.641465087890625,-0.40853428840637207,0.1818532943725586,0.6595020294189453
1763691411467544800,2.651544921875,-0.4626162052154541,0.21319246292114258,0.5279970169067383
1763691411477599500,2.661599609375,-0.3214566707611084,0.30353784561157227,0.6392078399658203
1763691411487679200,2.67167919921875,0.020692110061645508,0.3000168800354004,0.35819005966186523
1763691411497759000,2.681759033203125,0.42051100730895996,0.15903425216674805,0.4771604537963867
1763691411507805000,2.691804931640625,0.9770119190216064,0.10579872131347656,0.3565640449523926
1763691411517884700,2.701884765625,0.9853966236114502,-0.11553621292114258,0.28174781799316406
1763691411527964400,2.71196435546875,0.8502540588378906,-0.34688377380371094,0.4869866371154785
1763691411538187000,2.72218701171875,0.9794590473175049,-0.3948545455932617,0.8205528259277344
1763691411548266500,2.7322666015625,1.350165605545044,-0.3883843421936035,0.9938788414001465
1763691411558346200,2.74234619140625,1.1458356380462646,0.06964635848999023,0.7352695465087891
1763691411568317700,2.752317626953125,0.5916001796722412,0.7082791328430176,-0.014751434326171875
1763691411578397400,2.7623974609375,0.6322445869445801,0.8622841835021973,-0.5923948287963867
1763691411588477200,2.772477294921875,0.9031028747558594,1.034287452697754,-0.026294708251953125
1763691411598555000,2.782554931640625,0.9586348533630371,0.5531296730041504,-0.1871662139892578
1763691411608634600,2.792634521484375,1.8357024192810059,0.7601180076599121,-0.5509567260742188
1763691411618714400,2.80271435546875,1.2207858562469482,1.007920742034912,-0.034178733825683594
1763691411628776700,2.812776611328125,-0.09662199020385742,1.4114255905151367,0.10683536529541016
1763691411638856400,2.8228564453125,-0.76275634765625,0.527076244354248,0.26630401611328125
1763691411648936200,2.832936279296875,-0.7879040241241455,-0.07665395736694336,0.052066802978515625
1763691411659011300,2.84301123046875,0.0006687641143798828,-0.1767582893371582,1.13771390914917
1763691411669091000,2.853091064453125,0.4959704875946045,-0.9695489406585693,1.381495475769043
1763691411679170800,2.8631708984375,1.557542085647583,-1.295400857925415,0.8115639686584473
1763691411689284400,2.873284423828125,2.280928134918213,-0.4707522392272949,0.057613372802734375
1763691411699364000,2.883364013671875,1.9268226623535156,-0.19017887115478516,-0.46001625061035156
1763691411709443800,2.89344384765625,1.5217411518096924,-0.07501506805419922,-0.6850852966308594
1763691411719506700,2.903506591796875,1.0349395275115967,-0.3535633087158203,-0.24539566040039062
1763691411729586400,2.91358642578125,0.534569501876831,-0.8431460857391357,0.7248630523681641
1763691411739666200,2.923666259765625,0.18087029457092285,-1.0563690662384033,1.7288556098937988
1763691411749740300,2.933740234375,0.12369823455810547,-0.8360588550567627,2.223212718963623
1763691411759820000,2.943820068359375,0.21939539909362793,-0.46306324005126953,2.105865001678467
1763691411769899800,2.953899658203125,0.39707422256469727,-0.5370221138000488,1.499112606048584
1763691411779986000,2.96398583984375,0.393829345703125,-0.9772427082061768,0.6662874221801758
1763691411790065400,2.9740654296875,0.3935413360595703,-0.996504545211792,-0.046751976013183594
1763691411800145200,2.984145263671875,0.3768126964569092,-0.7071831226348877,-0.6737070083618164
1763691411810206500,2.99420654296875,0.5179834365844727,-0.5855393409729004,-0.9659175872802734
1763691411820286200,3.0042861328125,0.9225678443908691,-0.821056604385376,-0.6803550720214844
1763691411830366000,3.014365966796875,1.0452451705932617,-1.1132209300994873,-0.03275871276855469
1763691411841042400,3.02504248046875,0.6011061668395996,-1.4133446216583252,0.812812328338623
1763691411851122200,3.0351220703125,0.599806547164917,-1.8932502269744873,1.7942829132080078
1763691411861202000,3.045201904296875,0.7513942718505859,-2.1759917736053467,2.2196083068847656
1763691411870712300,3.05471240234375,0.558565616607666,-2.110375165939331,2.3935489654541016
1763691411880792000,3.0647919921875,0.7498245239257812,-1.8935198783874512,2.143019676208496
1763691411890871800,3.074871826171875,1.1907432079315186,-1.7414207458496094,1.6717305183410645
1763691411900969700,3.0849697265625,1.5895812511444092,-1.6329867839813232,1.30173921585083
1763691411911049500,3.095049560546875,2.198762893676758,-1.3602209091186523,1.0069713592529297
1763691411921129000,3.10512890625,2.679069757461548,-1.2924072742462158,0.8644709587097168
1763691411931153200,3.115153076171875,2.8182544708251953,-1.2487926483154297,0.7882719039916992
1763691411941232600,3.125232666015625,2.527684211730957,-1.4117164611816406,0.7014408111572266
1763691411951312400,3.1353125,1.8567545413970947,-1.720104694366455,0.6245441436767578
1763691411961438700,3.145438720703125,0.9778308868408203,-1.938516616821289,0.5785436630249023
1763691411971518500,3.1555185546875,0.33550357818603516,-2.0073153972625732,0.5145406723022461
1763691411981598200,3.16559814453125,0.13680267333984375,-2.1106836795806885,0.26602935791015625
1763691411991673300,3.17567333984375,0.1307215690612793,-1.561901569366455,0.039496421813964844
1763691412001753000,3.185753173828125,0.08176720142364502,-1.4960322380065918,0.10630512237548828
1763691412011832600,3.19583251953125,0.07083654403686523,-1.56268310546875,0.12795639038085938
1763691412021867000,3.205866943359375,0.030558109283447266,-1.4339861869812012,-0.022216796875
1763691412031946500,3.215946533203125,0.038594603538513184,-1.1322612762451172,-0.07975101470947266
1763691412042026200,3.226026123046875,0.1412820816040039,-0.9470906257629395,-0.1678638458251953
1763691412052134400,3.236134521484375,0.23936712741851807,-0.9336614608764648,-0.34584903717041016
1763691412062214000,3.2462138671875,0.25500190258026123,-0.8532915115356445,-0.3767261505126953
1763691412072293600,3.256293701171875,0.13625335693359375,-0.7181787490844727,-0.24139881134033203
1763691412082372400,3.266372314453125,-0.22479939460754395,-0.8983645439147949,-0.25872802734375
1763691412092452000,3.2764521484375,-0.6260976791381836,-0.9428033828735352,-0.26746463775634766
1763691412102531600,3.286531494140625,-0.824350118637085,-0.8991315364837646,-0.08026504516601562
1763691412112601300,3.296601318359375,-0.8123912811279297,-0.9801666736602783,0.2889413833618164
1763691412122680800,3.306680908203125,-0.8386987447738647,-0.972834587097168,0.4711313247680664
1763691412132760600,3.316760498046875,-0.964409589767456,-0.7649171352386475,0.35159778594970703
1763691412142849000,3.32684912109375,-1.1258348226547241,-0.5474047660827637,0.07671260833740234
1763691412152928800,3.3369287109375,-1.1460057497024536,-0.5801777839660645,-0.029260635375976562
1763691412173088800,3.3570888671875,-0.9848368167877197,-0.9859411716461182,0.47757625579833984
1763691412183168300,3.367168212890625,-0.6780350208282471,-1.1003425121307373,0.6319093704223633
1763691412193248000,3.377248046875,-0.4454917907714844,-1.0610167980194092,0.8810033798217773
1763691412203336400,3.38733642578125,-0.2929849624633789,-0.8493807315826416,1.158278465270996
1763691412213416000,3.397416015625,-0.3973839282989502,-0.6544828414916992,1.085252285003662
1763691412223495700,3.40749560546875,-0.6236379146575928,-0.533437967300415,0.6217575073242188
1763691412243634000,3.427634033203125,-1.377671718597412,-0.04087114334106445,-0.4514455795288086
1763691412253713700,3.437713623046875,-1.6469855308532715,-0.1809701919555664,-0.8702211380004883
1763691412263803600,3.4478037109375,-1.5817210674285889,-0.32178306579589844,-0.9727859497070312
1763691412273883100,3.457883056640625,-1.3557665348052979,-0.1332235336303711,-0.6490869522094727
1763691412283963000,3.467962890625,-1.2132041454315186,0.22462034225463867,-0.20076751708984375
1763691412294061600,3.4780615234375,-1.071141242980957,0.5724349021911621,0.25789546966552734
1763691412304141000,3.48814111328125,-1.0463969707489014,0.8340508937835693,0.6634607315063477
1763691412314220800,3.498220703125,-1.0546846389770508,0.9518594741821289,0.8686385154724121
1763691412324268000,3.50826806640625,-1.0643343925476074,1.0224967002868652,0.7619743347167969
1763691412334347500,3.518347412109375,-1.1237499713897705,1.113783359527588,0.34748172760009766
1763691412344427300,3.52842724609375,-1.2239444255828857,1.130179524421692,-0.2415485382080078
1763691412354530800,3.53853076171875,-1.374725103378296,1.1896904706954956,-0.9028549194335938
1763691412364610600,3.548610595703125,-1.5003223419189453,1.2275230884552002,-1.667367935180664
1763691412374690000,3.55868994140625,-1.574728012084961,1.2632699012756348,-2.3831167221069336
1763691412384734200,3.568734130859375,-1.64766526222229,1.3400728702545166,-2.8166561126708984
1763691412394814000,3.57881396484375,-1.6844213008880615,1.3746380805969238,-2.823741912841797
1763691412404893400,3.5888935546875,-1.6021311283111572,1.3974207639694214,-2.6329402923583984
1763691412415007200,3.59900732421875,-1.2700598239898682,1.5866504907608032,-2.369997978210449
1763691412425086700,3.609086669921875,-0.9238190650939941,1.8691191673278809,-1.9600658416748047
1763691412435166500,3.61916650390625,-0.7271444797515869,2.0271263122558594,-1.469186782836914
1763691412445212000,3.6292119140625,-0.609748363494873,2.0151314735412598,-1.0706281661987305
1763691412455291600,3.639291748046875,-0.5067594051361084,2.0073442459106445,-0.8255453109741211
1763691412465371100,3.64937109375,-0.43856263160705566,1.9062821865081787,-0.7578878402709961
1763691412475487000,3.659487060546875,-0.426300048828125,1.8466713428497314,-0.8691921234130859
1763691412495646200,3.679646240234375,-0.17795777320861816,1.98411226272583,-1.4702568054199219
1763691412505693200,3.689693115234375,0.06388330459594727,2.262618064880371,-1.9920434951782227
1763691412515772700,3.699772705078125,0.31954479217529297,2.572322130203247,-2.4591360092163086
1763691412525852400,3.709852294921875,0.5077404975891113,2.648350954055786,-2.87539005279541
1763691412546039600,3.73003955078125,0.5304880142211914,2.402233839035034,-3.0377283096313477
1763691412556119300,3.740119384765625,0.48462533950805664,2.3481099605560303,-2.6252880096435547
1763691412566178600,3.750178466796875,0.5739588737487793,2.23522686958313,-2.1721115112304688
1763691412576258000,3.760258056640625,0.7292306423187256,2.010432243347168,-1.7391958236694336
1763691412586337800,3.770337890625,0.8124961853027344,1.7082159519195557,-1.1876859664916992
1763691412596441600,3.780441650390625,0.774512529373169,1.5473053455352783,-0.7409658432006836
1763691412606521000,3.79052099609375,0.5942065715789795,1.3138796091079712,-0.516972541809082
1763691412616600800,3.800600830078125,0.4737062454223633,1.2013462781906128,-0.617152214050293
1763691412626640000,3.810639892578125,0.3866147994995117,1.227620244026184,-0.9356298446655273
1763691412636719400,3.82071923828125,0.41512370109558105,1.07600998878479,-1.379343032836914
1763691412646799000,3.830799072265625,0.603574275970459,0.8290015459060669,-1.870981216430664
1763691412656910800,3.840910888671875,0.7210216522216797,0.6070853471755981,-2.3150634765625
1763691412666990600,3.850990478515625,0.829218864440918,0.3550504148006439,-2.4851646423339844
1763691412677070000,3.861070068359375,0.8666224479675293,0.1303340494632721,-2.2738475799560547
1763691412687130600,3.871130615234375,1.0203194618225098,0.039034098386764526,-1.8843564987182617
1763691412697210400,3.88121044921875,1.1921894550323486,-0.007563143968582153,-1.4875154495239258
1763691412707289900,3.891289794921875,1.344736099243164,-0.01937684416770935,-1.1252326965332031
1763691412717401300,3.9014013671875,1.4594838619232178,-0.07390764355659485,-0.8098697662353516
1763691412727481000,3.911481201171875,1.5946791172027588,-0.2168886959552765,-0.7505216598510742
1763691412737560600,3.921560546875,1.6512806415557861,-0.23136690258979797,-0.9168014526367188
1763691412747601000,3.931600830078125,1.5733897686004639,-0.3183616101741791,-1.3060874938964844
1763691412757680400,3.941680419921875,1.4470727443695068,-0.36683955788612366,-1.704549789428711
1763691412767760100,3.951760009765625,1.3272085189819336,-0.31895846128463745,-1.9945297241210938
1763691412777838600,3.961838623046875,1.1863811016082764,-0.26391565799713135,-2.120555877685547
1763691412787918000,3.97191796875,1.0621006488800049,-0.21488046646118164,-2.145554542541504
1763691412797997800,3.981997802734375,0.9098589420318604,-0.15752512216567993,-2.125176429748535
1763691412808064300,3.992064208984375,0.6148514747619629,-0.1298612356185913,-1.954498291015625
1763691412818144000,4.00214404296875,0.3910055160522461,-0.06717705726623535,-1.6988801956176758
1763691412828223500,4.012223388671875,0.17988193035125732,0.016990602016448975,-1.5337371826171875
1763691412838298000,4.022298095703125,0.011617064476013184,0.14829522371292114,-1.4713096618652344
1763691412848377600,4.032377685546875,-0.16380596160888672,0.3004356622695923,-1.4016485214233398
1763691412858457300,4.042457275390625,-0.3728959560394287,0.4041967988014221,-1.365234375
1763691412868553700,4.0525537109375,-0.4410361051559448,0.45109325647354126,-1.4070758819580078
1763691412878633200,4.06263330078125,-0.39882612228393555,0.6414341926574707,-1.4551258087158203
1763691412888713000,4.072712890625,-0.2922583818435669,0.843845784664154,-1.3894433975219727
1763691412898839000,4.082839111328125,-0.025606632232666016,1.0024030208587646,-1.186014175415039
1763691412908918500,4.09291845703125,0.07958388328552246,1.0952800512313843,-0.8542394638061523
1763691412918998300,4.102998291015625,0.05419015884399414,1.1188582181930542,-0.37279796600341797
1763691412929011700,4.11301171875,0.08738768100738525,1.0984660387039185,0.08780479431152344
1763691412939091200,4.12309130859375,0.021471917629241943,1.0671755075454712,0.3746204376220703
1763691412949170700,4.133170654296875,-0.07425248622894287,0.9705401659011841,0.5953817367553711
1763691412959290600,4.14329052734375,-0.16768628358840942,0.7799128293991089,0.7857847213745117
1763691412969370000,4.1533701171875,-0.2731265723705292,0.5576033592224121,0.8954830169677734
1763691412979449600,4.16344970703125,-0.40486031770706177,0.3475816249847412,0.8603391647338867
1763691412989514800,4.1735146484375,-0.6594588756561279,0.14486806094646454,0.7215080261230469
1763691412999594500,4.183594482421875,-1.0020670890808105,0.12315574288368225,0.7301549911499023
1763691413019776800,4.20377685546875,-0.9065580368041992,-0.20070931315422058,0.6925172805786133
1763691413029856300,4.213856201171875,-0.9090703725814819,-0.19581641256809235,0.8373937606811523
1763691413039935700,4.223935791015625,-0.8262761831283569,-0.18209391832351685,0.9287939071655273
1763691413049998600,4.23399853515625,-0.8473905920982361,-0.09224313497543335,1.036219596862793
1763691413060078000,4.244078125,-0.9526791572570801,-0.0734049379825592,1.142965316772461
1763691413070157800,4.25415771484375,-1.071717381477356,-0.21002301573753357,1.1727237701416016
1763691413080827400,4.264827392578125,-1.124017596244812,-0.3529823422431946,1.0589466094970703
1763691413090908000,4.274907958984375,-1.0862095355987549,-0.46925267577171326,0.6469078063964844
1763691413100988700,4.28498876953125,-0.9432310461997986,-0.7649960517883301,0.18816471099853516
1763691413111052500,4.295052490234375,-0.7258471250534058,-1.09208083152771,-0.22412681579589844
1763691413121133300,4.30513330078125,-0.6138363480567932,-1.1984667778015137,-0.06225395202636719
1763691413131214000,4.315214111328125,-0.6804424524307251,-0.9824541211128235,0.1514272689819336
1763691413141294300,4.32529443359375,-0.6898389458656311,-0.6175869703292847,0.09674644470214844
1763691413151375000,4.335375,-0.30485251545906067,-0.5351179838180542,-0.20170307159423828
1763691413161455900,4.345455810546875,0.15408936142921448,-0.2482418417930603,0.2266407012939453
1763691413181031400,4.365031494140625,0.43807122111320496,-0.21949529647827148,1.1370601654052734
1763691413191112200,4.3751123046875,0.6939836144447327,-0.22079235315322876,2.1236987113952637
1763691413201208800,4.385208740234375,0.5072304606437683,-0.05906558036804199,2.857999801635742
1763691413211289600,4.39528955078125,0.41095051169395447,-0.07498198747634888,2.9250354766845703
1763691413221370400,4.405370361328125,0.6179250478744507,-0.242986798286438,2.73960542678833
1763691413231427800,4.415427734375,1.1862822771072388,-0.37833184003829956,2.2659683227539062
1763691413241508600,4.425508544921875,2.288198471069336,-0.6273348927497864,2.1758337020874023
1763691413251589400,4.43558935546875,3.4812240600585938,-0.8061991333961487,2.547152519226074
1763691413261680400,4.445680419921875,4.075690746307373,-0.6976213455200195,2.762538433074951
1763691413271761200,4.45576123046875,3.5886054039001465,-0.53318852186203,2.454240322113037
1763691413281842000,4.465842041015625,2.685931444168091,-0.36306411027908325,1.6753730773925781
1763691413291856000,4.47585595703125,2.5382015705108643,-0.45949435234069824,0.9063129425048828
1763691413301936600,4.4859365234375,3.0018701553344727,-0.6846083998680115,0.11037921905517578
1763691413312017200,4.49601708984375,2.9038023948669434,-0.643765389919281,-0.30924320220947266
1763691413322109700,4.506109619140625,1.7577896118164062,-0.27335822582244873,0.28400135040283203
1763691413332190500,4.5161904296875,0.9202636480331421,-0.29875296354293823,1.3109350204467773
1763691413342271200,4.526271240234375,0.4230438470840454,-0.5801137089729309,2.204890251159668
1763691413352368600,4.53636865234375,-0.029396533966064453,-0.5996147394180298,2.483220100402832
1763691413362449400,4.546449462890625,-0.47908174991607666,-0.4733569622039795,2.1016368865966797
1763691413372530200,4.5565302734375,-1.0695685148239136,-0.1499696969985962,2.017672061920166
1763691413382605600,4.56660546875,-1.328376054763794,0.08150684833526611,1.531240463256836
1763691413392686300,4.576686279296875,-0.6575250625610352,0.14993774890899658,0.8260822296142578
1763691413402767000,4.58676708984375,0.38293981552124023,0.20081830024719238,0.7276163101196289
1763691413412881000,4.596880859375,0.5899405479431152,0.986640453338623,-3.5517091751098633
1763691413422961700,4.606961669921875,0.0573047399520874,1.2641634941101074,-9.076601028442383
1763691413433042400,4.61704248046875,0.9903706312179565,2.7456588745117188,-6.246743202209473
1763691413443092700,4.6270927734375,2.365102767944336,2.928236961364746,-2.4187326431274414
1763691413453173200,4.63717333984375,1.8001339435577393,2.646688938140869,-2.2324113845825195
1763691413463254000,4.64725390625,-0.01999378204345703,2.418302536010742,-2.3441057205200195
1763691413473356800,4.657356689453125,-0.6525602340698242,1.8578784465789795,-2.189495086669922
1763691413483437600,4.6674375,-0.6395719051361084,1.507818341255188,-1.9098739624023438
1763691413493518300,4.677518310546875,-0.8766732215881348,1.3826379776000977,-1.176828384399414
1763691413503546600,4.687546630859375,-0.8696951866149902,1.033818244934082,0.398193359375
1763691413513627400,4.69762744140625,-0.8181297779083252,0.26987314224243164,1.3669157028198242
1763691413523708000,4.7077080078125,-0.9585258960723877,-0.47728610038757324,1.4725565910339355
1763691413533789200,4.7177890625,-0.8449947834014893,-1.123274564743042,0.7042026519775391
1763691413543870000,4.727869873046875,-0.5531620979309082,-1.6115918159484863,-0.2894020080566406
1763691413553950700,4.73795068359375,-0.04510307312011719,-1.7610642910003662,-1.5457286834716797
1763691413564042000,4.7480419921875,0.08034420013427734,-1.8028485774993896,-2.850081443786621
1763691413574122800,4.758122802734375,-0.35674238204956055,-2.5364177227020264,-3.763500213623047
1763691413584203500,4.76820361328125,-1.1582443714141846,-4.466300964355469,-4.613686561584473
1763691413594297000,4.778297119140625,0.11754965782165527,-5.1405439376831055,-3.3216018676757812
1763691413604377900,4.7883779296875,1.9547568559646606,-1.840834617614746,-0.2878246307373047
1763691413614458600,4.798458740234375,1.3742002248764038,-0.12082052230834961,0.11180591583251953
1763691413624552200,4.80855224609375,0.5674868822097778,0.009708881378173828,-0.222137451171875
1763691413634633000,4.818633056640625,0.11634266376495361,-0.21736955642700195,0.12190437316894531
1763691413644713700,4.828713623046875,-0.006388545036315918,-0.3649568557739258,0.7137184143066406
1763691413654764300,4.838764404296875,0.2163616418838501,-0.7576279640197754,1.251370906829834
1763691413664844800,4.8488447265625,0.08413779735565186,-1.2141575813293457,1.4102306365966797
1763691413674925600,4.858925537109375,-0.12119805812835693,-1.499298095703125,1.095263957977295
1763691413685032200,4.8690322265625,-0.41196775436401367,-1.4131479263305664,1.1678133010864258
1763691413695113000,4.879113037109375,-0.46931779384613037,-0.9149808883666992,0.4999246597290039
1763691413705193500,4.889193359375,-0.6565114259719849,-0.48903512954711914,-0.9652833938598633
1763691413715229000,4.89922900390625,-0.7306673526763916,-0.17051315307617188,-1.6969633102416992
1763691413725309400,4.909309326171875,-0.5906437635421753,-0.07204389572143555,-0.8409223556518555
1763691413735390200,4.91939013671875,-0.4263373613357544,0.3059873580932617,-0.2966632843017578
1763691413745451500,4.929451416015625,-0.6284260749816895,0.2940373420715332,-0.644627571105957
1763691413755532300,4.9395322265625,-0.702241837978363,-0.5097575187683105,0.4837923049926758
1763691413765613000,4.949613037109375,-0.6240454912185669,-0.0567169189453125,1.172865390777588
1763691413775701200,4.959701171875,-0.801686704158783,0.3499331474304199,1.9898829460144043
1763691413785782000,4.969781982421875,-0.753737211227417,0.998929500579834,2.505917549133301
1763691413795862800,4.97986279296875,-0.7651270031929016,2.143521308898926,2.2848219871520996
1763691413805981200,4.989981201171875,-0.48083844780921936,3.2631309032440186,1.6675915718078613
1763691413816062000,5.00006201171875,-0.15906491875648499,3.4443726539611816,2.1750411987304688
1763691413826142700,5.010142822265625,-0.24222305417060852,2.8564348220825195,2.322525978088379
1763691413836173600,5.020173583984375,-0.3384978771209717,2.3313207626342773,2.4799938201904297
1763691413846254000,5.030254150390625,-0.38568058609962463,1.9834003448486328,2.7064099311828613
1763691413856334800,5.0403349609375,-0.2937338650226593,1.6081442832946777,2.5005664825439453
1763691413866476500,5.0504765625,0.12107092142105103,1.3065385818481445,1.9222612380981445
1763691413876557300,5.060557373046875,0.5807255506515503,1.2202067375183105,1.4368562698364258
1763691413886638000,5.07063818359375,0.8210525512695312,1.3511099815368652,1.765408992767334
1763691413896696800,5.08069677734375,0.8296710848808289,1.3784360885620117,1.9455466270446777
1763691413906777600,5.090777587890625,0.679198145866394,1.2710857391357422,2.1166768074035645
1763691413916858000,5.100858154296875,0.7174198627471924,1.1822853088378906,2.2688980102539062
1763691413926890800,5.110890869140625,0.8331088423728943,1.1229743957519531,2.1015844345092773
1763691413947052300,5.13105224609375,1.291407823562622,0.34131860733032227,0.786705493927002
1763691413957179000,5.141178955078125,1.0692689418792725,0.28527116775512695,0.10389280319213867
1763691413967259600,5.151259765625,0.5775592923164368,0.5115756988525391,-0.43192529678344727
1763691413977340400,5.16134033203125,0.570328414440155,0.7841453552246094,-0.1720280647277832
1763691413987420400,5.17142041015625,0.9792347550392151,1.1659727096557617,-0.2489314079284668
1763691413997501200,5.181501220703125,1.3241466283798218,1.3749370574951172,-1.33799409866333
1763691414007581700,5.191581787109375,1.3036185503005981,1.1314735412597656,-1.7784929275512695
1763691414017622000,5.2016220703125,1.8115904331207275,0.4283571243286133,-2.70883846282959
1763691414027702800,5.211702880859375,2.3690779209136963,0.35465049743652344,-3.079403877258301
1763691414047840500,5.231840576171875,2.622142791748047,1.0719013214111328,-1.7617449760437012
1763691414057921300,5.24192138671875,1.8695249557495117,1.473158836364746,-0.6896405220031738
1763691414068001800,5.252001708984375,1.4502232074737549,1.4930944442749023,0.3600335121154785
1763691414078203600,5.26220361328125,1.8169313669204712,1.6119575500488281,1.1885707378387451
1763691414088284400,5.272284423828125,1.8421318531036377,1.5368118286132812,1.239046573638916
1763691414098365200,5.282365234375,0.6767877340316772,0.8431291580200195,0.5553863048553467
1763691414108313600,5.292313720703125,-0.6346590518951416,-0.03727531433105469,0.021171092987060547
1763691414118392800,5.302392822265625,-1.2407413721084595,-1.497629165649414,-0.5187597274780273
1763691414138579700,5.322579833984375,-0.47288867831230164,-4.543642044067383,0.48107171058654785
1763691414148659000,5.332658935546875,-0.6083952188491821,-3.8761587142944336,0.23824024200439453
1763691414158738200,5.34273828125,-1.1775805950164795,-4.86558723449707,0.3907308578491211
1763691414168795600,5.352795654296875,-1.7842506170272827,-6.309614181518555,0.784588098526001
1763691414178875000,5.362875,-2.4569239616394043,-5.270525932312012,1.0935676097869873
1763691414188954000,5.3729541015625,-2.0855045318603516,-3.660463333129883,1.268911600112915
1763691414199078000,5.383077880859375,-1.2482471466064453,-3.090970993041992,1.6887849569320679
1763691414209157000,5.3931572265625,-0.4145022928714752,-1.5951128005981445,1.1185564994812012
1763691414219236400,5.403236328125,-0.05142557621002197,-0.5138835906982422,0.18408608436584473
1763691414229315600,5.413315673828125,-0.2291387915611267,-0.18930625915527344,0.31481409072875977
1763691414239372300,5.423372314453125,-0.626900315284729,0.1823720932006836,-0.24475979804992676
1763691414249451500,5.433451416015625,-1.0345542430877686,0.5828180313110352,-1.0633623600006104
1763691414259530800,5.44353076171875,-1.001064419746399,1.118539810180664,-1.022505521774292
1763691414269593900,5.45359375,-0.23561044037342072,0.9346675872802734,-0.7753677368164062
1763691414279673000,5.463673095703125,-0.202644482254982,0.22218704223632812,-1.1916720867156982
1763691414289752300,5.47375244140625,-0.5482774376869202,-0.6055612564086914,-1.6231427192687988
1763691414299834400,5.48383447265625,0.26393571496009827,-0.9833316802978516,-1.5802040100097656
1763691414309913600,5.49391357421875,0.7793968915939331,-0.3607349395751953,-0.9869985580444336
1763691414319992800,5.503992919921875,-1.6826308965682983,-0.4553384780883789,-1.967949628829956
1763691414330077000,5.514076904296875,-2.485684394836426,0.6143341064453125,-2.034100294113159
1763691414340156000,5.524156005859375,-1.2566810846328735,1.0769767761230469,-1.3391318321228027
1763691414350235400,5.5342353515625,-1.0324691534042358,0.9938583374023438,-1.8718223571777344
1763691414360289300,5.544289306640625,-1.3701534271240234,0.5490694046020508,-0.4208376407623291
1763691414370368500,5.554368408203125,-1.2742658853530884,-0.023733139038085938,0.5899598598480225
1763691414380447700,5.56444775390625,-1.3191092014312744,0.2600250244140625,0.3438608646392822
1763691414391169300,5.575169189453125,-1.2284646034240723,0.3714895248413086,-0.229600191116333
1763691414401248500,5.58524853515625,-0.8214511871337891,0.24668121337890625,-0.5530157089233398
1763691414411327700,5.59532763671875,-0.7317372560501099,0.6635780334472656,-0.6675512790679932
1763691414421431300,5.605431396484375,-0.6162280440330505,0.8334999084472656,-0.535355806350708
1763691414431510500,5.615510498046875,-0.41418737173080444,0.7776975631713867,-0.2189619541168213
1763691414441589800,5.62558984375,-0.21093657612800598,0.7138290405273438,0.1309647560119629
1763691414461144000,5.64514404296875,0.06764772534370422,0.8990182876586914,0.5525236129760742
1763691414471223300,5.655223388671875,0.1207924634218216,0.918187141418457,0.6748161315917969
1763691414481348600,5.6653486328125,0.1901223361492157,0.7815237045288086,0.6755659580230713
1763691414491427800,5.675427734375,0.18779894709587097,0.605250358581543,0.41071176528930664
1763691414501507000,5.685507080078125,0.03701597452163696,0.4569520950317383,0.11605954170227051
1763691414511531000,5.695531005859375,-0.07338929176330566,0.4223613739013672,-0.12580037117004395
1763691414521610200,5.7056103515625,-0.1111396849155426,0.4795513153076172,-0.3475167751312256
1763691414531689500,5.715689453125,-0.2400975525379181,0.5089015960693359,-0.6020631790161133
1763691414541730000,5.72572998046875,-0.24282196164131165,0.5726184844970703,-0.7755436897277832
1763691414551809300,5.735809326171875,0.01509431004524231,0.7225742340087891,-0.7641661167144775
1763691414561888500,5.745888427734375,0.09751445055007935,0.5468502044677734,-0.7001478672027588
1763691414572000300,5.756000244140625,0.025789886713027954,0.3545675277709961,-0.7852251529693604
1763691414582079200,5.766079345703125,-0.05129498243331909,0.5209493637084961,-0.8426382541656494
1763691414592158700,5.77615869140625,-0.2353273332118988,0.7103204727172852,-0.6559853553771973
1763691414602229500,5.7862294921875,-0.365291953086853,0.710444450378418,-0.3173518180847168
1763691414612308700,5.796308837890625,-0.37839555740356445,0.6397342681884766,-0.07342910766601562
1763691414622388000,5.806387939453125,-0.2506387233734131,0.4646492004394531,0.12176871299743652
1763691414632470000,5.816469970703125,-0.09222620725631714,0.26848602294921875,0.26264524459838867
1763691414642549200,5.82654931640625,0.10368800163269043,0.18035411834716797,0.3969590663909912
1763691414652628500,5.83662841796875,0.3149135410785675,-0.07137012481689453,0.38605237007141113
1763691414662715000,5.84671484375,0.5336878299713135,-0.027749061584472656,0.2528512477874756
1763691414672794000,5.856794189453125,0.5206329822540283,0.3235902786254883,-0.05119752883911133
1763691414682873300,5.866873291015625,0.37199077010154724,0.7645893096923828,-0.4143788814544678
1763691414692988700,5.87698876953125,0.4792783856391907,1.8043909072875977,-1.0111277103424072
1763691414703068000,5.88706787109375,0.46303293108940125,1.8791637420654297,-1.1947283744812012
1763691414713147100,5.897147216796875,0.4491368532180786,0.8853836059570312,-0.7144973278045654
1763691414723187700,5.907187744140625,0.4909324049949646,0.5158042907714844,-0.7386724948883057
1763691414733267000,5.917266845703125,0.340099573135376,-0.013141632080078125,-1.0200726985931396
1763691414743346200,5.92734619140625,0.316469669342041,-0.6787548065185547,-1.0636792182922363
1763691414753430800,5.9374306640625,0.7410083413124084,-1.0215368270874023,-1.0877156257629395
1763691414763510000,5.947510009765625,1.1817346811294556,-0.6628894805908203,-1.4440388679504395
1763691414773589200,5.95758935546875,0.9947868585586548,0.22444438934326172,-2.0968844890594482
1763691414783669000,5.9676689453125,0.7901729345321655,1.1789369583129883,-2.6257848739624023
1763691414793748200,5.977748291015625,1.0569769144058228,2.0759496688842773,-2.857279062271118
1763691414803827500,5.987827392578125,1.2333099842071533,2.911632537841797,-2.1014175415039062
1763691414813920800,5.997920654296875,0.6072725057601929,-0.3910970687866211,-1.856377363204956
1763691414824000000,6.008,0.39110445976257324,-2.025214195251465,-1.73641037940979
1763691414834079200,6.018079345703125,0.013648629188537598,-2.5038938522338867,-1.5291473865509033
1763691414844142300,6.028142333984375,-0.2494816780090332,-1.995635986328125,-1.0516042709350586
1763691414854221600,6.0382216796875,-0.0954827070236206,-1.954197883605957,-0.7446119785308838
1763691414864300800,6.04830078125,0.14561539888381958,-1.9530153274536133,-0.8874247074127197
1763691414874386000,6.058385986328125,0.26062434911727905,-1.2434864044189453,-0.7263190746307373
1763691414884465200,6.068465087890625,0.40320754051208496,-0.3527545928955078,-0.4993703365325928
1763691414894544400,6.07854443359375,0.2615537643432617,-0.19657421112060547,-0.19649291038513184
1763691414904627500,6.08862744140625,0.297473669052124,-0.4957590103149414,0.21125531196594238
1763691414914706700,6.098706787109375,0.9356839656829834,1.8925142288208008,-0.2880725860595703
1763691414924786000,6.108785888671875,1.4602386951446533,3.4467945098876953,-0.13422846794128418
1763691414934856200,6.118856201171875,1.4699711799621582,2.902994155883789,0.6133261919021606
1763691414944935400,6.128935302734375,1.7231800556182861,3.1938037872314453,0.4878603219985962
1763691414955014700,6.1390146484375,2.2268173694610596,3.866048812866211,0.12112140655517578
1763691414965101300,6.149101318359375,2.3846378326416016,3.066913604736328,-0.5194001197814941
1763691414975180500,6.1591806640625,3.6154870986938477,1.6237430572509766,-1.4724018573760986
1763691414985259800,6.169259765625,5.245908737182617,-2.33713436126709,-1.1020104885101318
1763691414995311400,6.179311279296875,4.210916996002197,-7.609095573425293,-1.3952205181121826
1763691415005390600,6.189390625,1.7973227500915527,-9.868861198425293,-2.0655221939086914
1763691415015469800,6.1994697265625,-0.7131683826446533,-7.465429306030273,-1.2821078300476074
1763691415025576000,6.209575927734375,-1.7364519834518433,-4.565839767456055,-1.0080924034118652
1763691415035655200,6.2196552734375,-2.1888599395751953,-1.9351434707641602,-1.469524621963501
1763691415045734400,6.229734375,-1.8069288730621338,-0.031139373779296875,-1.060619592666626
1763691415055800600,6.239800537109375,-1.3478870391845703,-0.39790821075439453,-0.3491995334625244
1763691415065879800,6.2498798828125,-1.10138738155365,-0.6838283538818359,-0.09684300422668457
1763691415075959000,6.259958984375,-0.8115822076797485,-0.3953132629394531,0.2988278865814209
1763691415086041600,6.27004150390625,-0.25082850456237793,0.721435546875,0.05028796195983887
1763691415096120800,6.280120849609375,-0.5600706338882446,0.9379339218139648,0.3676191568374634
1763691415106200000,6.290199951171875,-0.8074988126754761,0.8594350814819336,1.2065573930740356
1763691415116305000,6.300304931640625,-0.7328706979751587,0.7610960006713867,1.8275673389434814
1763691415126384000,6.310384033203125,-0.9880510568618774,0.3915700912475586,2.1680409908294678
1763691415136463600,6.320463623046875,-0.844546914100647,1.2880144119262695,2.7532877922058105
1763691415146541000,6.330541015625,-0.3681910037994385,1.2096567153930664,1.9707767963409424
1763691415156620500,6.34062060546875,-0.4016268253326416,0.606846809387207,0.6547458171844482
1763691415166699800,6.35069970703125,-0.5980528593063354,0.5747079849243164,0.028034687042236328
1763691415176778000,6.360778076171875,-0.6816607713699341,1.2746381759643555,0.3210127353668213
1763691415186857500,6.370857421875,-0.7904131412506104,1.4725990295410156,0.3619832992553711
1763691415196937000,6.38093701171875,-0.9510053396224976,1.7233734130859375,0.37726449966430664
1763691415207026700,6.391026611328125,-1.0640394687652588,1.9534358978271484,0.5905132293701172
1763691415217106200,6.401106201171875,-1.1501587629318237,1.7068443298339844,0.5137851238250732
1763691415227185700,6.411185546875,-1.1145071983337402,1.6347970962524414,0.7066851854324341
1763691415237219800,6.4212197265625,-0.8510469198226929,2.1770572662353516,0.82111656665802
1763691415247299000,6.431299072265625,-0.648503303527832,2.21488094329834,0.8240334987640381
1763691415257378600,6.441378662109375,-0.5603525638580322,1.903141975402832,1.1772741079330444
1763691415267517700,6.451517578125,-0.38914430141448975,2.3597288131713867,2.0587902069091797
1763691415277597000,6.461596923828125,0.24084174633026123,2.6851911544799805,2.6818199157714844
1763691415287676400,6.471676513671875,0.6732010841369629,3.1830978393554688,2.7020089626312256
1763691415297678000,6.481677978515625,0.7306222915649414,3.58614444732666,2.4831671714782715
1763691415307757300,6.49175732421875,0.8738515377044678,3.7648210525512695,2.1865994930267334
1763691415317836800,6.5018369140625,1.077610969543457,3.9292850494384766,1.5605435371398926
1763691415327958300,6.511958251953125,1.4572868347167969,3.450132369995117,0.3565952777862549
1763691415338037500,6.52203759765625,1.878638505935669,0.9775152206420898,-0.3277263641357422
1763691415348117000,6.532116943359375,1.9197747707366943,-0.873072624206543,-0.7793984413146973
1763691415358211300,6.54221142578125,1.9831165075302124,-1.9233675003051758,-1.0678961277008057
1763691415368290800,6.552290771484375,1.517764925956726,-1.8281774520874023,-0.3391427993774414
1763691415378370300,6.562370361328125,0.8641018867492676,-0.8929824829101562,-0.0926821231842041
1763691415388430000,6.57243017578125,0.5880945920944214,0.2385110855102539,-0.849279522895813
1763691415398509300,6.58250927734375,1.0867280960083008,-0.22655105590820312,-2.1684539318084717
1763691415408588800,6.5925888671875,1.9594007730484009,-0.7015781402587891,-2.7427139282226562
1763691415418695000,6.60269482421875,2.6061289310455322,-0.5899229049682617,-3.4030747413635254
1763691415428774400,6.6127744140625,2.2113358974456787,0.17107677459716797,-3.3916754722595215
1763691415438853600,6.622853515625,0.6391541957855225,0.20917034149169922,-2.537865161895752
1763691415448915200,6.632915283203125,-1.2588872909545898,0.17496776580810547,-1.0106950998306274
1763691415458994700,6.64299462890625,-2.706911087036133,0.7852115631103516,0.6933660507202148
1763691415469074000,6.653073974609375,-3.1968870162963867,0.6310768127441406,1.6993412971496582
1763691415479133400,6.663133544921875,-2.721989631652832,0.739598274230957,2.559393882751465
1763691415489213000,6.673212890625,-0.871344804763794,0.919224739074707,3.3781747817993164
1763691415499292200,6.683292236328125,1.7415910959243774,-0.01654052734375,3.8262534141540527
1763691415509363200,6.69336328125,3.915600299835205,-0.8267917633056641,3.9677069187164307
1763691415519442700,6.703442626953125,4.3708720207214355,-1.2726640701293945,4.011504173278809
1763691415529522200,6.713522216796875,3.0175371170043945,-4.473572731018066,3.182039737701416
1763691415539620600,6.72362060546875,-0.313854455947876,-7.312713623046875,2.658118486404419
1763691415549700000,6.7337001953125,-3.76764178276062,4.376152038574219,3.067662239074707
1763691415559779300,6.743779296875,-5.90449333190918,4.897089958190918,0.7724769115447998
1763691415569869800,6.753869873046875,-6.0318827629089355,2.390138626098633,1.014500379562378
1763691415579949000,6.763948974609375,-4.841760635375977,1.0810155868530273,1.8209915161132812
1763691415590028500,6.774028564453125,-3.171323537826538,-0.5719995498657227,1.9246660470962524
1763691415600714000,6.7847138671875,-1.9172484874725342,-6.022418022155762,1.6073689460754395
1763691415610793500,6.79479345703125,-0.7607359886169434,-14.273506164550781,0.29291045665740967
1763691415620873000,6.804873046875,-1.671570062637329,-9.452442169189453,-3.814260244369507
1763691415630930700,6.8149306640625,-2.833916187286377,0.13890457153320312,-6.969560146331787
1763691415641010200,6.82501025390625,-0.6638945937156677,2.792369842529297,-5.456152439117432
1763691415651089400,6.83508935546875,1.2715017795562744,2.1017189025878906,-1.1222963333129883
1763691415661181400,6.845181396484375,1.008378028869629,1.587484359741211,2.6258041858673096
1763691415671261000,6.855260986328125,-0.002229243516921997,1.892059326171875,4.021409034729004
1763691415681340200,6.865340087890625,-0.3985291123390198,1.5264863967895508,3.737973690032959
1763691415691430400,6.875430419921875,0.20523357391357422,0.7073116302490234,2.451098918914795
1763691415701509600,6.885509521484375,0.5997354984283447,0.013686180114746094,1.1550607681274414
1763691415711589000,6.895589111328125,0.7256696224212646,-0.016767501831054688,0.14561152458190918
1763691415731110400,6.9151103515625,0.39767399430274963,-1.7404470443725586,-0.5093107223510742
1763691415741190000,6.92518994140625,-0.07134579122066498,-3.139284133911133,-0.9750864505767822
1763691415751283000,6.935282958984375,-0.2802908420562744,-3.1948986053466797,-2.1968235969543457
1763691415761362400,6.945362548828125,-0.2892160415649414,-2.5080690383911133,-2.96533203125
1763691415771442000,6.95544189453125,-0.3132936358451843,-2.508559226989746,-2.695767879486084
1763691415781526000,6.965526123046875,-0.0674724280834198,-2.110546112060547,-2.3987231254577637
1763691415791605200,6.975605224609375,0.16195717453956604,-0.8422021865844727,-2.233975887298584
1763691415801684700,6.985684814453125,0.14463600516319275,0.9581165313720703,-1.3621379137039185
1763691415811731200,6.995731201171875,0.02928447723388672,1.9465370178222656,-0.13260149955749512
1763691415821810700,7.005810791015625,-0.21488475799560547,1.6698532104492188,1.1096408367156982
1763691415842022700,7.026022705078125,0.07641470432281494,-0.5107097625732422,0.8204123973846436
1763691415852102100,7.03610205078125,0.5211573839187622,-0.6478090286254883,-0.09257745742797852
1763691415862181400,7.046181396484375,1.0371665954589844,0.009607315063476562,-0.8447369337081909
1763691415872267300,7.056267333984375,0.9828425645828247,0.5412368774414062,-1.014360785484314
1763691415882346800,7.0663466796875,0.6783689260482788,0.8754234313964844,-0.807908296585083
1763691415892426000,7.076426025390625,0.39693665504455566,1.0624523162841797,-0.5428476333618164
1763691415902495000,7.086494873046875,0.3403552770614624,1.2335834503173828,-0.44332003593444824
1763691415912574500,7.096574462890625,0.355224609375,1.3857946395874023,-0.5592014789581299
1763691415922653700,7.10665380859375,0.5990504026412964,1.3391008377075195,-0.6348707675933838
1763691415932729900,7.116729736328125,1.023289680480957,1.4004888534545898,-0.8800650835037231
1763691415942809300,7.126809326171875,1.1067606210708618,0.9778347015380859,-1.64701247215271
1763691415952888600,7.136888671875,0.9322853088378906,0.1613016128540039,-2.1027119159698486
1763691415962962200,7.146962158203125,1.0030980110168457,-0.2410411834716797,-2.1411759853363037
1763691415973041400,7.15704150390625,0.9420958161354065,-0.3918190002441406,-2.2937419414520264
1763691415983121000,7.167120849609375,0.800482988357544,-0.4347667694091797,-2.570763111114502
1763691415993206500,7.17720654296875,0.9581217765808105,-0.560856819152832,-2.898193597793579
1763691416003285800,7.18728564453125,1.3163946866989136,-0.8723011016845703,-3.1414079666137695
1763691416013365200,7.197365234375,1.6776306629180908,-1.2536449432373047,-3.2540524005889893
1763691416023444700,7.20744482421875,1.8263243436813354,-1.5655517578125,-3.217494010925293
1763691416033524200,7.217524169921875,1.7192624807357788,-1.7167739868164062,-3.0467116832733154
1763691416043603500,7.227603515625,1.7792961597442627,-1.6687545776367188,-2.7969484329223633
1763691416053660700,7.23766064453125,1.9254428148269653,-1.4756097793579102,-2.5027146339416504
1763691416063740000,7.247739990234375,1.6989271640777588,-1.3787107467651367,-2.2769546508789062
1763691416073819400,7.2578193359375,1.2968202829360962,-1.5277881622314453,-2.2543184757232666
1763691416083929300,7.267929443359375,0.8240114450454712,-1.8923797607421875,-2.2603871822357178
1763691416094008800,7.2780087890625,0.7698052525520325,-2.3839731216430664,-2.2692856788635254
1763691416104088000,7.288088134765625,1.3142640590667725,-3.0737199783325195,-2.1873960494995117
1763691416114148600,7.298148681640625,2.159982442855835,-3.5599327087402344,-2.2101478576660156
1763691416124227800,7.308227783203125,2.976989507675171,-3.487900733947754,-2.420599937438965
1763691416134307300,7.318307373046875,3.552199602127075,-2.930312156677246,-2.61753249168396
1763691416144398000,7.328398193359375,3.639702320098877,-2.4556665420532227,-2.5727357864379883
1763691416154477600,7.3384775390625,3.5945236682891846,-2.354917526245117,-2.2868285179138184
1763691416164556800,7.348556884765625,3.749767780303955,-2.6657285690307617,-2.1382665634155273
1763691416174683600,7.35868359375,3.890242099761963,-3.5586957931518555,-2.299359083175659
1763691416184763000,7.368762939453125,3.929025650024414,-4.833334922790527,-2.851808786392212
1763691416194842400,7.37884228515625,4.001713275909424,-5.958592414855957,-3.576449394226074
1763691416204891000,7.388890869140625,3.6287543773651123,-6.201169013977051,-4.171041488647461
1763691416214970400,7.398970458984375,1.7879815101623535,-5.205694198608398,-3.990873336791992
1763691416225049600,7.409049560546875,0.6776663064956665,-3.5034561157226562,-2.792173147201538
1763691416235115500,7.419115478515625,1.432672381401062,-2.0459537506103516,-0.9100339412689209
1763691416245194800,7.42919482421875,0.5806748270988464,-1.2005729675292969,1.1322646141052246
1763691416255274200,7.439274169921875,-1.69144868850708,-1.0085783004760742,3.174441337585449
1763691416265334300,7.449334228515625,-3.793023109436035,-1.677107810974121,4.007627010345459
1763691416275413800,7.459413818359375,-5.292946815490723,-2.84926700592041,3.215381622314453
1763691416285493000,7.469492919921875,-6.289615154266357,-3.967635154724121,1.8777458667755127
1763691416295586600,7.479586669921875,-5.929054260253906,-4.397799491882324,0.6052751541137695
1763691416305666000,7.489666015625,-4.542703151702881,-4.426068305969238,-0.2765994071960449
1763691416315745300,7.499745361328125,-3.25714111328125,-3.9717893600463867,-0.9811296463012695
1763691416325846800,7.5098466796875,-2.394813299179077,-3.3247337341308594,-1.3581935167312622
1763691416335926000,7.519926025390625,-2.386805772781372,-2.716891288757324,-1.2348116636276245
1763691416346005500,7.530005615234375,-3.1578004360198975,-2.1431074142456055,-0.8263453245162964
1763691416356010800,7.5400107421875,-4.277912139892578,-1.202488899230957,-0.2042604684829712
1763691416366090200,7.55009033203125,-4.624575614929199,-0.1317901611328125,1.1308375597000122
1763691416376169700,7.560169677734375,-4.865217208862305,1.0742864608764648,2.060180187225342
1763691416386326000,7.570325927734375,-5.104697227478027,2.271864891052246,2.0992095470428467
1763691416396405500,7.580405517578125,-5.094261646270752,3.1031570434570312,1.8988053798675537
1763691416406485000,7.590485107421875,-4.821130752563477,3.314311981201172,1.9109203815460205
1763691416416539400,7.600539306640625,-4.405336380004883,3.0509443283081055,1.8926397562026978
1763691416426619000,7.610618896484375,-4.190659999847412,2.6787261962890625,1.8857712745666504
1763691416436698000,7.620697998046875,-4.168826580047607,2.358708381652832,1.9608232975006104
1763691416446785500,7.63078564453125,-4.128640174865723,2.313197135925293,2.0668728351593018
1763691416456865000,7.640864990234375,-3.9716219902038574,2.4736242294311523,2.0879530906677246
1763691416466944300,7.6509443359375,-3.925994634628296,2.7997055053710938,2.1022655963897705
1763691416477052400,7.661052490234375,-4.007778167724609,3.157613754272461,2.2771666049957275
1763691416487132000,7.6711318359375,-4.180366516113281,3.5869789123535156,2.530402421951294
1763691416497211100,7.681211181640625,-4.31934118270874,4.091304302215576,2.784167766571045
1763691416507245300,7.691245361328125,-4.378268241882324,4.616084575653076,2.9361181259155273
1763691416517324800,7.70132470703125,-4.188240051269531,4.976995468139648,2.965756893157959
1763691416527404000,7.711404052734375,-3.6220409870147705,5.08660888671875,2.774407148361206
1763691416537480200,7.721480224609375,-2.875732660293579,5.031989097595215,2.529681921005249
1763691416547559700,7.7315595703125,-2.0421206951141357,4.888147354125977,2.254868984222412
1763691416557639000,7.741638916015625,-1.2237002849578857,4.642491817474365,2.1353158950805664
1763691416567695600,7.751695556640625,-0.11792802810668945,4.1968584060668945,1.7976715564727783
1763691416577775000,7.761775146484375,1.0197925567626953,3.4268970489501953,1.5115362405776978
1763691416587854300,7.771854248046875,1.830599308013916,2.4002342224121094,1.3961901664733887
1763691416598156300,7.78215625,2.231250524520874,1.343745231628418,1.4469047784805298
1763691416608235800,7.79223583984375,2.513112783432007,0.10629940032958984,1.0621803998947144
1763691416618315300,7.802315185546875,2.9545867443084717,-1.5512285232543945,-0.057311803102493286
1763691416628222000,7.812221923828125,3.347275495529175,-3.7809715270996094,-1.6943638324737549
1763691416638301400,7.822301513671875,3.7809014320373535,-6.0225830078125,-2.9887681007385254
1763691416648381000,7.832380859375,3.9859395027160645,-7.69016170501709,-3.9831976890563965
1763691416658449700,7.84244970703125,4.428302764892578,-8.141717910766602,-4.882527828216553
1763691416668529000,7.85252880859375,5.5905303955078125,-6.788090705871582,-5.395322322845459
1763691416678608400,7.8626083984375,4.650095462799072,-4.065487861633301,-4.080439567565918
1763691416688793000,7.87279296875,2.4696435928344727,-0.7686862945556641,-2.3411102294921875
1763691416698872600,7.88287255859375,1.0789098739624023,2.627443313598633,-1.1435385942459106
1763691416708952000,7.8929521484375,-0.19203662872314453,4.964144706726074,0.02616061270236969
1763691416718914600,7.90291455078125,-1.2217416763305664,5.775613784790039,1.3209083080291748
1763691416728994000,7.912994140625,-2.1995463371276855,5.5756940841674805,2.1839606761932373
1763691416739073300,7.9230732421875,-3.446089029312134,4.365729808807373,1.8529894351959229
1763691416749140200,7.93314013671875,-4.4584245681762695,2.013852119445801,1.2359611988067627
1763691416759219700,7.9432197265625,-3.760746955871582,-0.6358652114868164,1.527714490890503
1763691416769299200,7.95329931640625,-0.9899324178695679,-4.513453483581543,2.9934134483337402
1763691416779364400,7.9633642578125,3.379326581954956,-9.828545570373535,4.127575397491455
1763691416789443600,7.973443603515625,6.875030994415283,-15.657675743103027,3.9862964153289795
1763691416799523000,7.983523193359375,6.739941120147705,-16.660964965820312,1.5059857368469238
1763691416809647000,7.993647216796875,3.1424307823181152,-9.59841537475586,-0.37622568011283875
1763691416819726600,8.0037265625,-3.1366658210754395,-1.5701847076416016,2.2124948501586914
1763691416829805800,8.013805908203125,-8.717944145202637,3.681777000427246,5.546494007110596
1763691416839837700,8.023837646484376,-9.7975435256958,8.98088550567627,7.453950881958008
1763691416849917200,8.033917236328126,-6.590061187744141,13.003764152526855,7.844261169433594
1763691416859996400,8.043996337890626,-3.3714144229888916,12.437472343444824,5.0089569091796875
1763691416870148600,8.054148681640624,-3.277836799621582,8.037498474121094,0.6678459644317627
1763691416880227800,8.064227783203124,-4.4546003341674805,3.094088554382324,-0.7349601984024048
1763691416890307300,8.074307373046874,-4.891348361968994,-0.6042718887329102,-1.4567387104034424
1763691416900383200,8.08438330078125,-3.954887866973877,-3.760791778564453,-2.2855424880981445
1763691416910462500,8.09446240234375,-2.6639392375946045,-6.141567230224609,-2.542637348175049
1763691416920542000,8.1045419921875,-1.5714565515518188,-6.369316101074219,-2.906203269958496
1763691416941275000,8.12527490234375,1.6152780055999756,-1.4064502716064453,-2.5222067832946777
1763691416951354000,8.13535400390625,1.9746984243392944,-0.1493062973022461,-0.884956955909729
1763691416961418000,8.14541796875,1.620042085647583,0.33327770233154297,0.13193249702453613
1763691416971497200,8.155497314453125,0.9379724264144897,0.4313488006591797,0.7582964897155762
1763691416981576700,8.16557666015625,0.4568711817264557,0.6079692840576172,0.9956099987030029
1763691417001144600,8.18514453125,0.561501145362854,1.0190601348876953,0.39418351650238037
1763691417011224000,8.19522412109375,0.9145604372024536,1.182805061340332,0.04870152473449707
1763691417021296600,8.205296630859374,0.9676724672317505,1.9170160293579102,-1.250450849533081
1763691417041455400,8.225455322265624,0.4141576290130615,0.7998666763305664,-0.9731634855270386
1763691417051567000,8.235567138671875,0.2872711420059204,0.5820369720458984,-0.6235470771789551
1763691417061646600,8.245646484375,0.012253748252987862,0.6018533706665039,-1.0016158819198608
1763691417071726000,8.25572607421875,-0.2505229711532593,0.683506965637207,-1.6926425695419312
1763691417081807000,8.26580712890625,-0.18869847059249878,0.8110628128051758,-2.058750629425049
1763691417091886300,8.27588623046875,0.24896717071533203,0.8987941741943359,-2.1479263305664062
1763691417101965800,8.2859658203125,0.7385526895523071,0.7647056579589844,-2.1154603958129883
1763691417112039000,8.296038818359374,1.0192936658859253,0.4015798568725586,-2.0759644508361816
1763691417122118100,8.3061181640625,1.1772503852844238,0.09182262420654297,-2.086411237716675
1763691417132197600,8.31619775390625,1.3693346977233887,-0.054386138916015625,-1.9865319728851318
1763691417142288600,8.32628857421875,1.678704023361206,-0.1030263900756836,-1.7377334833145142
1763691417152368000,8.3363681640625,2.2427306175231934,-0.0012645721435546875,-1.430420160293579
1763691417162447400,8.346447265625,2.965502977371216,0.06681060791015625,-1.3766268491744995
1763691417172481800,8.356481689453124,3.4342312812805176,0.030435562133789062,-1.5639535188674927
1763691417182561300,8.366561279296874,3.56268310546875,0.028865814208984375,-1.9107773303985596
1763691417192640500,8.376640625,3.0470826625823975,-0.04551410675048828,-2.628629684448242
1763691417202713000,8.386713134765625,1.680816650390625,-0.3497467041015625,-3.6464924812316895
1763691417212792300,8.396792236328125,0.3836907148361206,-0.7431764602661133,-4.513405799865723
1763691417222871800,8.406871826171875,-0.39654970169067383,-1.0758047103881836,-4.919641494750977
1763691417232926700,8.4169267578125,-0.34265434741973877,-1.204157829284668,-4.905263900756836
1763691417243006200,8.427006103515625,0.2843782901763916,-0.9853439331054688,-4.524277210235596
1763691417253085400,8.43708544921875,0.8409198522567749,-0.6764087677001953,-3.7871570587158203
1763691417263230700,8.447230712890626,1.29182767868042,-0.6106653213500977,-2.939898729324341
1763691417273310200,8.457310302734374,1.7552725076675415,-0.9484519958496094,-1.9084651470184326
1763691417283389400,8.467389404296876,2.737165689468384,-1.6992464065551758,-0.502335786819458
1763691417293452000,8.4774521484375,4.397231578826904,-2.361758232116699,1.1634862422943115
1763691417303531300,8.48753125,5.558978080749512,-2.6564197540283203,2.486366033554077
1763691417313610800,8.49761083984375,5.078327655792236,-3.708833694458008,2.602419853210449
1763691417323697400,8.507697509765626,3.9207353591918945,-5.946834564208984,1.370938777923584
1763691417333777000,8.51777685546875,3.174823045730591,-8.159351348876953,-0.8670393228530884
1763691417343856000,8.527856201171875,2.755336284637451,-9.256258010864258,-3.378584861755371
1763691417353927200,8.53792724609375,3.3678667545318604,-8.26718807220459,-4.516787528991699
1763691417364006400,8.54800634765625,5.881760120391846,-6.0849151611328125,-2.4151570796966553
1763691417374086000,8.5580859375,7.6240973472595215,-4.524476051330566,1.9044773578643799
1763691417384193800,8.56819384765625,5.439777851104736,-4.113593101501465,6.245177745819092
1763691417394273000,8.57827294921875,0.041245222091674805,-3.607121467590332,10.054474830627441
1763691417414437000,8.59843701171875,-8.041664123535156,-1.3751039505004883,12.561352729797363
1763691417424516600,8.6085166015625,-6.907949924468994,0.021437644958496094,8.609892845153809
1763691417434595800,8.618595947265625,-4.109057903289795,0.3710184097290039,3.464064836502075
1763691417444645400,8.628645263671874,-1.7062792778015137,-0.5139455795288086,-0.49434149265289307
1763691417454724900,8.638724853515624,-0.9503152370452881,-1.792501449584961,-3.0370006561279297
1763691417464804000,8.64880419921875,-2.067781925201416,-2.824066162109375,-4.331470489501953
1763691417474895000,8.65889501953125,-3.6380579471588135,-2.932310104370117,-3.895333766937256
1763691417484974300,8.668974365234375,-4.9150390625,-1.845799446105957,-2.3822274208068848
1763691417495053800,8.6790537109375,-5.353443622589111,-0.0299530029296875,-0.4697510898113251
1763691417505105700,8.689105712890624,-5.140022277832031,2.0144243240356445,1.6901204586029053
1763691417515185200,8.69918505859375,-4.814367294311523,3.679070472717285,3.6539623737335205
1763691417525264400,8.709264404296874,-4.517580986022949,4.663893699645996,4.54840087890625
1763691417535318000,8.719318115234374,-4.121859073638916,5.000568389892578,4.237508773803711
1763691417545397200,8.729397216796874,-3.6936960220336914,4.973330497741699,3.3547606468200684
1763691417555476700,8.739476806640624,-3.6562347412109375,4.868857383728027,2.588212490081787
1763691417565573400,8.749573486328124,-3.1132826805114746,4.426464557647705,2.63778018951416
1763691417575652900,8.75965283203125,-3.3247952461242676,4.216673851013184,2.2403883934020996
1763691417585732000,8.769732177734374,-3.287384510040283,3.8831539154052734,1.387617588043213
1763691417595836400,8.77983642578125,-3.0050716400146484,3.7737064361572266,0.7524533271789551
1763691417605915600,8.78991552734375,-2.9132933616638184,3.9380812644958496,0.5779868364334106
1763691417615995100,8.7999951171875,-2.873858690261841,3.9186620712280273,0.5380091667175293
1763691417626101000,8.81010107421875,-2.707975387573242,3.831390380859375,0.5789104700088501
1763691417636180200,8.82018017578125,-2.314598560333252,3.71028995513916,0.7443162798881531
1763691417646259700,8.830259765625,-1.8279016017913818,3.698780059814453,0.8438282608985901
1763691417656359000,8.84035888671875,-1.4233713150024414,3.7387828826904297,0.7871683835983276
1763691417666438100,8.850438232421874,-1.01176118850708,3.6894149780273438,0.5993117094039917
1763691417676517600,8.860517578125,-0.32914280891418457,3.539327621459961,0.6268186569213867
1763691417686587100,8.870587158203126,0.7579286098480225,3.311491012573242,0.904670238494873
1763691417696666400,8.880666259765626,2.255791664123535,3.0063133239746094,1.4417859315872192
1763691417706745900,8.890745849609376,3.817614793777466,2.440614700317383,2.020158290863037
1763691417716799200,8.90079931640625,5.521873474121094,1.3081378936767578,2.0968503952026367
1763691417726878700,8.910878662109376,6.662815093994141,-0.5075893402099609,1.3410812616348267
1763691417736958000,8.9209580078125,6.340786933898926,-2.781670570373535,0.4004422426223755
1763691417747068200,8.931068115234375,5.134744644165039,-4.880023956298828,-0.12028840184211731
1763691417757147600,8.941147705078125,4.197959899902344,-6.270040512084961,-0.3832283318042755
1763691417767227000,8.951226806640625,3.630505323410034,-6.809880256652832,-1.154612421989441
1763691417777270300,8.961270263671874,3.566478967666626,-5.928373336791992,-1.786643385887146
1763691417787349500,8.971349609375,3.483945369720459,-3.54312801361084,-1.5581464767456055
1763691417797429000,8.981428955078124,2.701965093612671,-0.882481575012207,-0.7797698378562927
1763691417807517000,8.991516845703124,1.5310425758361816,1.4038286209106445,-0.014754831790924072
1763691417817596400,9.001596435546874,0.8086025714874268,2.7596797943115234,0.8518704175949097
1763691417827675600,9.011675537109374,0.532759428024292,3.5794572830200195,1.4147343635559082
1763691417837777200,9.021777099609375,-0.4478907585144043,3.8354578018188477,0.5988969802856445
1763691417847856400,9.0318564453125,-1.8551006317138672,2.7908201217651367,0.04815107583999634
1763691417857936000,9.041935791015625,-2.242222309112549,1.034759521484375,1.2691457271575928
1763691417868083200,9.052083251953125,-0.4516134262084961,-1.224050521850586,2.7851734161376953
1763691417878162400,9.062162353515625,2.5546088218688965,-4.5421600341796875,3.981637477874756
1763691417898211600,9.082211669921875,4.460322856903076,-11.812190055847168,2.75722074508667
1763691417908291000,9.092291015625,3.3732974529266357,-10.162672996520996,0.33835554122924805
1763691417918370300,9.102370361328125,-0.32454538345336914,-5.376051902770996,-0.8088675141334534
1763691417928482000,9.11248193359375,-5.5950212478637695,-0.766667366027832,0.7545931935310364
1763691417938561300,9.122561279296875,-8.596678733825684,2.997797966003418,2.858172655105591
1763691417948640800,9.132640869140625,-7.743030548095703,6.568011283874512,3.957059383392334
1763691417958741200,9.1427412109375,-5.063902854919434,9.318628311157227,4.198575973510742
1763691417968820700,9.15282080078125,-3.205641984939575,9.269734382629395,2.9656484127044678
1763691417978900000,9.16289990234375,-3.385714292526245,6.462955474853516,1.3134403228759766
1763691417988930000,9.172929931640626,-4.541490077972412,2.879781723022461,0.4522726535797119
1763691417999009500,9.183009521484376,-5.2381272315979,-0.31032752990722656,-0.3142831325531006
1763691418019166000,9.203166015625,-3.306849718093872,-4.297360420227051,-2.1992411613464355
1763691418029245200,9.2132451171875,-1.7000130414962769,-4.196500778198242,-2.51603364944458
1763691418039324700,9.22332470703125,0.07630103826522827,-3.0147476196289062,-1.7331784963607788
1763691418049393700,9.2333935546875,1.7008663415908813,-1.559159278869629,-0.31146228313446045
1763691418059473200,9.24347314453125,2.343174457550049,-0.5245285034179688,0.6204221248626709
1763691418069552400,9.253552490234375,2.288686990737915,0.05936717987060547,0.9953335523605347
1763691418079678700,9.2636787109375,1.9077309370040894,0.21558284759521484,1.0652507543563843
1763691418089758000,9.273758056640625,1.1853910684585571,0.3612947463989258,0.820268988609314
1763691418099837400,9.28383740234375,0.6336003541946411,0.5469970703125,0.6813477277755737
1763691418109883100,9.293883056640626,0.2708037197589874,0.7815999984741211,0.43126392364501953
1763691418119962400,9.30396240234375,0.09847996383905411,1.0811614990234375,-0.07915246486663818
1763691418130041900,9.314041748046876,-0.0036661140620708466,1.2755126953125,-0.7078385353088379
1763691418140139000,9.324138916015626,-0.08100347965955734,1.2094783782958984,-1.3589410781860352
1763691418150218500,9.334218505859376,-0.15730135142803192,0.9913530349731445,-1.8085441589355469
1763691418160297700,9.344297607421876,-0.13484250009059906,0.7340421676635742,-2.014312982559204
1763691418170410000,9.354409912109375,-0.029528826475143433,0.5409059524536133,-1.889604091644287
1763691418180489200,9.3644892578125,0.14349417388439178,0.5915012359619141,-1.4989608526229858
1763691418190568700,9.374568603515625,0.3609467148780823,0.8779268264770508,-1.0941411256790161
1763691418200648000,9.38464794921875,0.4737039804458618,1.2461519241333008,-0.7392081022262573
1763691418211271700,9.395271728515626,0.5774965286254883,1.4100399017333984,-0.3682980537414551
1763691418221352200,9.405352294921874,0.763671875,1.4329299926757812,-0.241746187210083
1763691418231433000,9.415432861328124,0.7847303748130798,1.3331212997436523,-0.6039738655090332
1763691418250970600,9.434970703125,0.9156297445297241,0.5348386764526367,-1.0900397300720215
1763691418261051100,9.445051025390624,0.908252477645874,0.07185840606689453,-1.3906848430633545
1763691418271214000,9.455214111328125,0.939665675163269,-0.3310251235961914,-1.7725340127944946
1763691418281294600,9.465294677734375,1.286484956741333,-0.7079563140869141,-2.032893419265747
1763691418291375000,9.475375,1.6199536323547363,-0.9594154357910156,-2.3447020053863525
1763691418301376000,9.4853759765625,1.9818226099014282,-0.9644012451171875,-2.5583462715148926
1763691418311456800,9.495456787109376,2.457037925720215,-0.7874469757080078,-2.5486700534820557
1763691418321537300,9.505537353515624,2.71407151222229,-0.8004484176635742,-2.4670093059539795
1763691418331655400,9.515655517578125,2.4163918495178223,-1.057840347290039,-2.5395312309265137
1763691418341736000,9.52573583984375,1.862224817276001,-1.3540382385253906,-2.812391757965088
1763691418351816400,9.53581640625,1.1558711528778076,-1.3764533996582031,-3.272495985031128
1763691418361885700,9.5458857421875,0.33502912521362305,-1.2164411544799805,-3.544558048248291
1763691418371966200,9.55596630859375,-0.06679916381835938,-1.5101242065429688,-3.33663272857666
1763691418382046700,9.566046630859375,-0.007883429527282715,-1.9896621704101562,-2.879006862640381
1763691418392110800,9.57611083984375,0.3310929536819458,-2.2703590393066406,-2.2517638206481934
1763691418402191400,9.58619140625,1.3760130405426025,-2.679112434387207,-1.6492804288864136
1763691418412271900,9.59627197265625,2.109447479248047,-3.1330909729003906,-1.3723798990249634
1763691418422378000,9.6063779296875,2.660973072052002,-3.5283803939819336,-1.4744725227355957
1763691418432458800,9.616458740234375,3.458972692489624,-3.5708742141723633,-1.7320308685302734
1763691418442539300,9.626539306640625,4.292544364929199,-2.9820165634155273,-1.8849910497665405
1763691418452589300,9.63658935546875,4.413093566894531,-2.174314498901367,-1.834185004234314
1763691418462670000,9.646670166015625,4.200233459472656,-1.9246892929077148,-1.596166729927063
1763691418472750300,9.656750244140625,4.43750524520874,-2.401547431945801,-1.3992440700531006
1763691418482798000,9.666798095703125,4.91245698928833,-3.4471540451049805,-1.5708328485488892
1763691418492878600,9.676878662109376,4.987089157104492,-4.870369911193848,-2.4257078170776367
1763691418502959000,9.686958984375,4.210813045501709,-6.337495803833008,-3.531966209411621
1763691418513087000,9.6970869140625,3.0821733474731445,-6.8631391525268555,-4.0395731925964355
1763691418523167500,9.70716748046875,1.2631616592407227,-5.355674743652344,-3.459606170654297
1763691418533248000,9.717248046875,0.7906824946403503,-2.816866874694824,-1.9882898330688477
1763691418543318500,9.727318603515625,1.24159836769104,-1.1165637969970703,0.18286991119384766
1763691418553399000,9.73739892578125,0.012495040893554688,-0.8132047653198242,2.5357825756073
1763691418563479600,9.7474794921875,-2.628793239593506,-1.7704715728759766,3.985957622528076
1763691418573560000,9.75756005859375,-4.916991710662842,-3.2519569396972656,4.080330848693848
1763691418583640800,9.767640869140624,-6.075610637664795,-4.639603614807129,3.3202526569366455
1763691418593721300,9.777721435546875,-5.8784260749816895,-5.061648368835449,2.124396562576294
1763691418603798000,9.787798095703126,-4.145742416381836,-4.454503059387207,0.4595130681991577
1763691418613878500,9.79787841796875,-1.9153202772140503,-3.3938894271850586,-1.0589346885681152
1763691418623959000,9.807958984375,-0.8072113990783691,-2.302823066711426,-1.868045449256897
1763691418634010400,9.81801025390625,-1.0342168807983398,-1.3762216567993164,-1.7738075256347656
1763691418644091100,9.828091064453124,-1.9801417589187622,-0.6128702163696289,-0.8858597278594971
1763691418654171600,9.838171630859375,-3.064927816390991,0.019483566284179688,0.3351978063583374
1763691418664281900,9.84828173828125,-4.164097785949707,0.5234489440917969,1.625091791152954
1763691418674362600,9.858362548828126,-4.8318023681640625,0.9617376327514648,2.960691452026367
1763691418684443100,9.868443115234374,-5.166745662689209,1.4282712936401367,3.8599443435668945
1763691418694569200,9.8785693359375,-5.209394931793213,1.7553653717041016,4.05462121963501
1763691418704649700,9.888649658203125,-4.747006893157959,1.9365739822387695,4.108278274536133
1763691418714730200,9.898730224609375,-4.172647476196289,1.8450689315795898,3.9660239219665527
1763691418724722000,9.908721923828125,-3.753307819366455,1.6309499740600586,3.5472493171691895
1763691418734802400,9.918802490234375,-3.6529483795166016,1.4983062744140625,3.0413572788238525
1763691418744883000,9.928883056640625,-3.679844856262207,1.5206584930419922,2.6700849533081055
1763691418755009000,9.939009033203124,-3.7999322414398193,1.854231834411621,2.561868906021118
1763691418765089500,9.949089599609374,-3.9478261470794678,2.5391845703125,2.8134779930114746
1763691418775170000,9.959170166015625,-4.227200984954834,3.453701972961426,3.3025782108306885
1763691418785247200,9.969247314453124,-4.521248817443848,4.391644477844238,3.6976592540740967
1763691418795327700,9.97932763671875,-4.739232540130615,5.200230598449707,3.8757832050323486
1763691418805408300,9.989408203125,-4.903659343719482,5.7577080726623535,3.8815054893493652
1763691418815455200,9.999455322265625,-4.615416049957275,6.08518648147583,3.7927541732788086
1763691418825535700,10.00953564453125,-3.9877266883850098,6.241828918457031,3.658856153488159
1763691418835616300,10.0196162109375,-3.247729778289795,6.173264503479004,3.1876628398895264
1763691418845710800,10.0297109375,-2.433095932006836,5.88267707824707,2.3853981494903564
1763691418855791400,10.039791259765625,-1.509303092956543,5.311535358428955,1.431868314743042
1763691418865872000,10.049871826171875,-0.476459264755249,4.6697845458984375,0.48070457577705383
1763691418875954700,10.05995458984375,0.7990026473999023,3.9278297424316406,-0.11083963513374329
1763691418886035200,10.07003515625,2.056363582611084,2.9606361389160156,-0.4501267671585083
1763691418896115700,10.08011572265625,2.765374183654785,1.6993122100830078,-1.1411018371582031
1763691418906211000,10.090211181640624,3.3600873947143555,0.007002830505371094,-2.1211371421813965
1763691418916291600,10.10029150390625,4.325751781463623,-2.0681934356689453,-2.7689478397369385
1763691418926372000,10.1103720703125,5.605048179626465,-4.494021415710449,-2.81839919090271
1763691418936473000,10.12047314453125,6.019418716430664,-6.95904541015625,-2.8579955101013184
1763691418946553900,10.130553955078126,5.549770355224609,-8.726201057434082,-2.9568939208984375
1763691418956634400,10.14063427734375,5.545750617980957,-8.743389129638672,-2.8989510536193848
1763691418966673400,10.15067333984375,4.929224967956543,-6.236478805541992,-2.2424609661102295
1763691418976754000,10.16075390625,2.9804673194885254,-2.653888702392578,-1.0501781702041626
1763691418986834700,10.170834716796875,1.0183017253875732,0.2660512924194336,0.346964567899704
1763691418996895000,10.18089501953125,-0.19823122024536133,1.9036426544189453,2.011442184448242
1763691419006975500,10.1909755859375,-0.3651421070098877,3.4659929275512695,3.377934694290161
1763691419017056000,10.201055908203125,-0.7443282604217529,4.438812255859375,3.1171889305114746
1763691419027126000,10.2111259765625,-1.9810925722122192,3.454763412475586,2.1835782527923584
1763691419037206500,10.22120654296875,-2.2155983448028564,1.8870859146118164,2.909180164337158
1763691419047287000,10.231287109375,0.036065101623535156,-0.07976531982421875,4.2659502029418945
1763691419057401300,10.2414013671875,3.222656011581421,-3.417469024658203,5.181303024291992
1763691419067482000,10.251482177734376,4.136557579040527,-8.255867004394531,5.6502485275268555
1763691419077562600,10.261562744140624,3.854971408843994,-12.222204208374023,4.325380325317383
1763691419087612200,10.271612060546875,1.6302502155303955,-11.43984317779541,1.5939528942108154
1763691419097693000,10.28169287109375,-3.792774200439453,-6.893032073974609,0.4974842071533203
1763691419107773400,10.2917734375,-8.836207389831543,-2.012516975402832,2.336177349090576
1763691419117826800,10.301826904296876,-9.825006484985352,2.2461910247802734,3.9324488639831543
1763691419127907600,10.311907470703124,-7.354687690734863,6.275782108306885,3.5930421352386475
1763691419137988000,10.321988037109374,-3.8743607997894287,8.891765594482422,2.451352119445801
1763691419148199700,10.33219970703125,-1.621650218963623,8.599851608276367,0.37455421686172485
1763691419158280400,10.342280517578125,-2.449911117553711,6.119515419006348,-1.3632757663726807
1763691419168361000,10.35236083984375,-4.623935699462891,3.217087745666504,-1.7542349100112915
1763691419178338300,10.36233837890625,-5.388540744781494,0.7750644683837891,-1.8850284814834595
1763691419188418800,10.372418701171876,-4.582050800323486,-1.3622550964355469,-1.9958407878875732
1763691419198499600,10.38249951171875,-3.1873879432678223,-3.1594390869140625,-2.0479884147644043
1763691419208585500,10.39258544921875,-1.31150484085083,-4.124839782714844,-1.8209338188171387
1763691419218666000,10.402666015625,0.9713121056556702,-3.999192237854004,-1.2347874641418457
1763691419228746500,10.41274658203125,2.739814519882202,-3.1024036407470703,-0.34903764724731445
1763691419238837000,10.4228369140625,3.532243490219116,-1.7615108489990234,0.33489108085632324
1763691419248916200,10.432916259765625,3.3902711868286133,-0.4917259216308594,0.6500171422958374
1763691419258995700,10.44299560546875,2.740043878555298,0.43462657928466797,0.9108661413192749
1763691419269013200,10.45301318359375,1.8759689331054688,1.285858154296875,1.1365911960601807
1763691419279092500,10.463092529296874,1.144873857498169,1.8834171295166016,1.046177625656128
1763691419289172000,10.473171875,0.5796881914138794,2.132473945617676,0.6569775342941284
1763691419299267600,10.483267578125,0.12624475359916687,1.9928703308105469,0.06747269630432129
1763691419309346800,10.493346923828126,-0.32260942459106445,1.6107187271118164,-0.6868374347686768
1763691419319426000,10.503426025390626,-0.4590095281600952,1.2488794326782227,-1.2494884729385376
1763691419329604400,10.513604248046875,-0.5101521611213684,0.9764242172241211,-1.6775047779083252
1763691419339683600,10.52368359375,-0.6885287165641785,0.7099447250366211,-2.024487018585205
1763691419349763000,10.53376318359375,-0.6912634372711182,0.6263923645019531,-2.1882781982421875
1763691419359750000,10.54375,-0.5968753099441528,0.6186408996582031,-1.9584810733795166
1763691419369829000,10.5538291015625,-0.3195668160915375,0.6338939666748047,-1.4475656747817993
1763691419379908400,10.563908447265625,-0.08624452352523804,0.9296026229858398,-0.8851608037948608
1763691419389993200,10.5739931640625,0.013544619083404541,1.425553321838379,-0.21347081661224365
1763691419400072400,10.584072509765624,0.29461199045181274,1.859720230102539,0.41272950172424316
1763691419410151700,10.594151611328124,0.706476092338562,1.8584623336791992,0.8978297710418701
1763691419420822000,10.604822021484376,0.9749199151992798,1.4662199020385742,1.0058796405792236
1763691419430901200,10.6149013671875,1.057805061340332,0.9145679473876953,0.6461522579193115
1763691419440980500,10.62498046875,1.3844130039215088,0.0812368392944336,-0.038788557052612305
1763691419451083500,10.63508349609375,1.8929253816604614,-0.601231575012207,-0.7444407939910889
1763691419461162800,10.645162841796875,2.166393280029297,-0.8274402618408203,-1.5471638441085815
1763691419471242000,10.655241943359375,2.1851840019226074,-0.9189596176147461,-2.275423288345337
1763691419481296400,10.66529638671875,2.2036895751953125,-1.235513687133789,-2.7771036624908447
1763691419491375600,10.675375732421875,2.263042449951172,-1.6784124374389648,-3.2102744579315186
1763691419501454800,10.685454833984375,2.06571364402771,-1.8795442581176758,-3.787790060043335
1763691419521012700,10.7050126953125,0.6728787422180176,-2.186664581298828,-4.740042209625244
1763691419531092000,10.715092041015625,0.185621976852417,-2.5231313705444336,-4.6970953941345215
1763691419541173500,10.725173583984375,0.6171737909317017,-2.8617782592773438,-3.921914577484131
1763691419551252700,10.735252685546875,1.732010841369629,-3.0653514862060547,-2.9398961067199707
1763691419561332200,10.745332275390625,2.284064292907715,-3.4604434967041016,-2.195068359375
1763691419571434000,10.75543408203125,2.3123531341552734,-4.392057418823242,-1.8682225942611694
1763691419581513200,10.76551318359375,3.1275341510772705,-4.908605575561523,-1.8637523651123047
1763691419591592400,10.775592529296874,4.647896766662598,-4.113149642944336,-1.9100677967071533
1763691419601680400,10.785680419921874,5.138747215270996,-2.922943115234375,-1.5606545209884644
1763691419611759600,10.795759521484374,4.571090221405029,-2.5742807388305664,-1.0152215957641602
1763691419621838800,10.8058388671875,4.729837894439697,-3.071523666381836,-0.7754769325256348
1763691419631896800,10.815896728515625,5.563812732696533,-4.153635025024414,-1.2448110580444336
1763691419641976000,10.82597607421875,5.30258321762085,-5.305047035217285,-2.391085147857666
1763691419652055300,10.83605517578125,3.807640790939331,-6.134609222412109,-3.6759209632873535
1763691419662133800,10.8461337890625,2.0469565391540527,-5.986189842224121,-4.1377739906311035
1763691419672213000,10.856212890625,1.0435271263122559,-4.168397903442383,-3.0741279125213623
1763691419682292200,10.866292236328125,2.2989864349365234,-2.223414421081543,-1.364067792892456
1763691419692345000,10.876344970703125,2.350393772125244,-1.4736909866333008,0.6522223949432373
1763691419702424300,10.88642431640625,-0.6725407838821411,-2.1458282470703125,2.7097275257110596
1763691419712503600,10.896503662109374,-4.320396423339844,-3.840707778930664,3.9836349487304688
1763691419722567700,10.906567626953125,-7.044902324676514,-5.542551040649414,4.06341552734375
1763691419732647000,10.91664697265625,-7.827252388000488,-6.4658098220825195,3.107999086380005
1763691419742726100,10.92672607421875,-6.6063690185546875,-6.095245361328125,1.7491453886032104
1763691419752817400,10.9368173828125,-4.359114646911621,-4.764835357666016,0.33369898796081543
1763691419762896600,10.946896728515625,-2.4670751094818115,-3.4150562286376953,-0.7633953094482422
1763691419772975900,10.956975830078125,-1.728014349937439,-2.3804311752319336,-1.2236069440841675
1763691419783071700,10.96707177734375,-2.1598148345947266,-1.711888313293457,-1.1657918691635132
1763691419793151000,10.97715087890625,-2.9308390617370605,-1.2640199661254883,-0.7245210409164429
1763691419803230500,10.98723046875,-3.7537293434143066,-0.8006744384765625,0.17051881551742554
1763691419813331200,10.997331298828126,-4.919376850128174,-0.240692138671875,1.3261362314224243
1763691419823410400,11.007410400390626,-5.702457427978516,0.5880203247070312,2.218189239501953
1763691419833490000,11.017489990234376,-5.583069324493408,1.6627874374389648,2.8402528762817383
1763691419843542800,11.027542724609376,-5.257126331329346,2.573805809020996,3.047201156616211
1763691419853622000,11.0376220703125,-4.98796272277832,2.9563560485839844,3.0674779415130615
1763691419863701200,11.047701171875,-4.813777923583984,2.8708620071411133,2.9175026416778564
1763691419873835000,11.0578349609375,-4.608712673187256,2.5993213653564453,2.5847079753875732
1763691419883914200,11.067914306640626,-4.635574817657471,2.394655227661133,2.4231810569763184
1763691419893993500,11.077993408203126,-4.615849494934082,2.639561653137207,2.508251667022705
1763691419904018700,11.088018798828125,-4.501613616943359,3.311830520629883,2.775913715362549
1763691419914098000,11.098097900390625,-4.488358020782471,4.166294097900391,3.1539437770843506
1763691419924177200,11.10817724609375,-4.588706970214844,5.129688262939453,3.4651870727539062
1763691419934282200,11.1182822265625,-4.786875247955322,6.079776763916016,3.6086602210998535
1763691419944361500,11.128361572265625,-4.893926620483398,6.792303562164307,3.6210460662841797
1763691419954441000,11.13844091796875,-4.790623664855957,7.0779829025268555,3.6028335094451904
1763691419964504800,11.1485048828125,-4.318171977996826,7.011342525482178,3.489581823348999
1763691419974584000,11.158583984375,-3.6412458419799805,6.743898391723633,3.233579635620117
1763691419984663300,11.168663330078125,-2.9648680686950684,6.388437271118164,2.6687889099121094
1763691419994722300,11.178722412109375,-1.857330083847046,5.849972248077393,2.0098071098327637
1763691420014880800,11.198880859375,1.6217832565307617,4.187961578369141,0.7007408142089844
1763691420025020700,11.209020751953124,2.806929111480713,3.105250358581543,0.3041451573371887
1763691420035100200,11.21910009765625,3.033658981323242,1.6638507843017578,-0.12727656960487366
1763691420055245000,11.2392451171875,4.400114059448242,-3.4265708923339844,-2.2893383502960205
1763691420065324300,11.24932421875,4.957457065582275,-6.726807594299316,-3.054114818572998
1763691420075403500,11.259403564453125,4.914393901824951,-9.579957962036133,-3.5795552730560303
1763691420085489200,11.2694892578125,4.646483898162842,-11.414713859558105,-4.285910606384277
1763691420095568600,11.279568603515624,5.243359088897705,-11.140583038330078,-4.882101535797119
1763691420105647900,11.28964794921875,4.851665019989014,-7.606966018676758,-4.099415302276611
1763691420115725600,11.2997255859375,2.6716814041137695,-2.836470603942871,-2.3480753898620605
1763691420125805000,11.30980517578125,0.7883846759796143,0.882176399230957,-0.10158377885818481
1763691420135884300,11.31988427734375,0.03806638717651367,3.984516143798828,2.439755916595459
1763691420145971000,11.329970947265625,-0.6810119152069092,6.8839521408081055,3.6509532928466797
1763691420156050200,11.34005029296875,-3.0708703994750977,6.813400745391846,2.469029664993286
1763691420166129400,11.35012939453125,-5.022993087768555,5.115991115570068,1.9787906408309937
1763691420176204800,11.360204833984374,-3.061257839202881,2.9790401458740234,2.846526861190796
1763691420186284300,11.3702841796875,1.0576186180114746,-0.7194709777832031,3.682177782058716
1763691420196363500,11.380363525390624,3.9821836948394775,-6.723907470703125,5.316192150115967
1763691420206386000,11.390385986328125,4.523021697998047,-14.291932106018066,5.522830009460449
1763691420216465200,11.400465087890625,4.281502723693848,-16.920679092407227,2.343255043029785
1763691420226544400,11.41054443359375,1.5514278411865234,-12.150813102722168,-0.774762749671936
1763691420236685600,11.420685546875,-4.050885200500488,-4.408182144165039,0.57277911901474
1763691420246765000,11.43076513671875,-9.202781677246094,1.3267221450805664,3.9528706073760986
1763691420256844300,11.44084423828125,-10.685771942138672,5.383005142211914,5.4634881019592285
1763691420266933500,11.45093359375,-8.15320873260498,9.086957931518555,6.018719673156738
1763691420277012700,11.4610126953125,-3.7795305252075195,10.424407958984375,4.8056182861328125
1763691420287092200,11.47109228515625,-1.3492693901062012,8.268972396850586,1.2695802450180054
1763691420297124000,11.4811240234375,-2.8977437019348145,4.981210231781006,-1.1795488595962524
1763691420307203300,11.491203369140624,-5.2163190841674805,1.944498062133789,-2.1778311729431152
1763691420317282600,11.501282470703124,-5.488781452178955,-0.8949689865112305,-2.922271966934204
1763691420327417300,11.511417236328125,-4.531049728393555,-3.584071159362793,-3.234869956970215
1763691420337496600,11.52149658203125,-2.819185256958008,-5.122036933898926,-3.247709274291992
1763691420347575800,11.531575927734375,-0.5856651067733765,-5.078678131103516,-2.7902588844299316
1763691420357622800,11.541622802734375,1.5948541164398193,-3.70505428314209,-1.8543201684951782
1763691420367702000,11.551701904296875,3.037869453430176,-1.9504871368408203,-0.8835345506668091
1763691420377781500,11.561781494140625,3.4787778854370117,-0.6467370986938477,0.027476787567138672
1763691420387869000,11.571868896484375,2.9261269569396973,0.23322486877441406,0.8076052665710449
1763691420397948400,11.581948486328125,1.9388792514801025,1.051804542541504,1.3996672630310059
1763691420408027600,11.592027587890625,1.0491611957550049,1.8211040496826172,1.7687708139419556
1763691420418197200,11.602197265625,0.3546861410140991,2.2872581481933594,1.796648621559143
1763691420428276500,11.6122763671875,-0.005902409553527832,2.3144874572753906,1.4520885944366455
1763691420438355700,11.622355712890625,-0.12911449372768402,2.073772430419922,0.815613865852356
1763691420448327400,11.632327392578125,0.004888013005256653,1.7929353713989258,-0.06211113929748535
1763691420458407000,11.642406982421875,0.20050634443759918,1.431351661682129,-0.9325578212738037
1763691420468486100,11.652486083984375,0.2004617154598236,1.0396556854248047,-1.8494126796722412
1763691420478568200,11.662568115234375,-0.132162943482399,0.7311477661132812,-2.624784469604492
1763691420488647700,11.672647705078125,-0.583629310131073,0.5781459808349609,-2.9744534492492676
1763691420498727000,11.682726806640625,-0.6781291961669922,0.6258716583251953,-2.7904021739959717
1763691420508861200,11.692861083984376,-0.48191317915916443,0.8351383209228516,-2.2261157035827637
1763691420529019600,11.71301953125,0.3847881257534027,1.2311468124389648,-0.7137137651443481
1763691420539088100,11.723088134765625,0.8957524299621582,1.2845640182495117,-0.030605077743530273
1763691420549167400,11.73316748046875,1.121751308441162,1.0491523742675781,0.23795604705810547
1763691420559246800,11.743246826171875,1.222652554512024,0.6119794845581055,-0.030043363571166992
1763691420569313300,11.753313232421876,1.6101001501083374,-0.020536422729492188,-0.5999245643615723
1763691420579392500,11.763392578125,2.234921455383301,-0.5255842208862305,-1.2760738134384155
1763691420589472000,11.773471923828126,2.760700225830078,-0.6692123413085938,-1.7189615964889526
1763691420599517200,11.78351708984375,2.970841407775879,-0.8329315185546875,-1.7647953033447266
1763691420609596400,11.793596435546876,2.855581521987915,-1.2649240493774414,-1.8366845846176147
1763691420619675600,11.803675537109376,2.2845993041992188,-1.5509634017944336,-2.21968936920166
1763691420630366700,11.81436669921875,1.4903385639190674,-1.3367347717285156,-3.0501585006713867
1763691420640446000,11.824446044921874,0.42685115337371826,-0.8884096145629883,-3.86468505859375
1763691420650525400,11.834525390625,-0.524471640586853,-0.7400760650634766,-4.136844158172607
1763691420670067700,11.854067626953125,-0.8195780515670776,-1.5701427459716797,-3.3284010887145996
1763691420680147000,11.86414697265625,-0.5241997241973877,-2.456660270690918,-2.5391714572906494
1763691420700327400,11.884327392578125,1.5650445222854614,-4.532747268676758,-1.3669722080230713
1763691420710406700,11.89440673828125,3.270143747329712,-4.82181453704834,-1.1499347686767578
1763691420721078500,11.90507861328125,4.322544097900391,-4.020992279052734,-1.0476009845733643
1763691420741237200,11.9252373046875,3.4530138969421387,-2.898916244506836,-0.8611979484558105
1763691420751335700,11.935335693359375,3.9182558059692383,-3.1472082138061523,-0.79012131690979
1763691420761415000,11.945414794921875,5.036044120788574,-3.8156280517578125,-1.2770562171936035
1763691420771494100,11.955494140625,5.385994911193848,-4.560873031616211,-2.275712013244629
1763691420791039700,11.975039794921875,3.1715941429138184,-5.646810531616211,-5.509879112243652
1763691420811227100,11.99522705078125,1.2564504146575928,-3.266171455383301,-4.244438171386719
1763691420821306400,12.005306396484375,2.252758026123047,-1.3411502838134766,-2.498333215713501
1763691420831385900,12.0153857421875,1.7437248229980469,-0.16296100616455078,-0.2976377010345459
1763691420841424000,12.025423828125,-0.8003333806991577,-0.21988868713378906,2.489590644836426
1763691420851503400,12.03550341796875,-3.2638585567474365,-1.622847557067871,4.759426116943359
1763691420861582600,12.04558251953125,-5.1625261306762695,-3.6410369873046875,5.581218719482422
1763691420871727400,12.055727294921875,-6.551511764526367,-5.403834342956543,4.972075939178467
1763691420881806600,12.065806640625,-6.648292541503906,-6.104221343994141,3.6015143394470215
1763691420891885800,12.0758857421875,-5.319086074829102,-5.620388984680176,2.1530303955078125
1763691420901943800,12.08594384765625,-3.7753517627716064,-4.641725540161133,0.7501546144485474
1763691420912023000,12.09602294921875,-2.658592700958252,-3.7481508255004883,-0.4340484142303467
1763691420922102500,12.1061025390625,-2.1333813667297363,-2.9719715118408203,-1.0489143133163452
1763691420932140800,12.116140869140626,-2.2158455848693848,-2.295647621154785,-0.947805643081665
1763691420942220000,12.126219970703126,-2.9476327896118164,-1.6932144165039062,-0.27700376510620117
1763691420952299500,12.136299560546876,-3.8720617294311523,-1.025050163269043,0.7972186803817749
1763691420962400500,12.146400390625,-4.631951332092285,-0.2367706298828125,1.9009757041931152
1763691420972479700,12.156479736328125,-4.928119659423828,0.6562919616699219,2.469052791595459
1763691420982559000,12.16655908203125,-4.807162284851074,1.5584630966186523,2.542858362197876
1763691420992629000,12.17662890625,-4.598243236541748,2.2593917846679688,2.6095385551452637
1763691421002708500,12.18670849609375,-4.505938529968262,2.6118688583374023,2.6443920135498047
1763691421012787700,12.19678759765625,-4.466416835784912,2.5809507369995117,2.545945405960083
1763691421022843000,12.2068427734375,-4.39616060256958,2.5119094848632812,2.414893627166748
1763691421032922000,12.216922119140625,-4.300915718078613,2.696197509765625,2.442411184310913
1763691421043001300,12.22700146484375,-4.287835597991943,3.143230438232422,2.50421404838562
1763691421053129000,12.23712890625,-4.180352210998535,3.79763126373291,2.665421962738037
1763691421063208200,12.247208251953126,-4.129236221313477,4.492133140563965,3.019583225250244
1763691421073287700,12.25728759765625,-4.115910053253174,5.309148788452148,3.2096199989318848
1763691421083326500,12.267326416015624,-4.148252010345459,6.109623908996582,3.3668508529663086
1763691421093405700,12.27740576171875,-4.180454254150391,6.525872707366943,3.609907388687134
1763691421103485200,12.287485107421874,-4.016560077667236,6.643641948699951,3.7217867374420166
1763691421113575200,12.2975751953125,-3.581295967102051,6.534769058227539,3.672125816345215
1763691421123654400,12.307654296875,-3.1276659965515137,6.266841411590576,3.414431095123291
1763691421133733600,12.317733642578125,-2.506460428237915,5.840421676635742,2.7601959705352783
1763691421143821800,12.32782177734375,-1.362598180770874,5.274526596069336,2.104088306427002
1763691421153901000,12.337901123046874,-0.01412200927734375,4.571305274963379,1.3748793601989746
1763691421163980300,12.347980224609374,1.5943162441253662,3.7232933044433594,0.9758946895599365
1763691421174070000,12.358070068359375,2.878113031387329,2.7457752227783203,0.7721918821334839
1763691421184149200,12.368149169921875,3.429417848587036,1.5199708938598633,0.43818771839141846
1763691421194228500,12.378228515625,4.464204788208008,-0.48569583892822266,-0.6528378129005432
1763691421204319500,12.388319580078125,5.941439628601074,-3.4457178115844727,-2.4618730545043945
1763691421224478200,12.408478271484375,3.827176332473755,-9.323182106018066,-4.574392795562744
1763691421234577200,12.4185771484375,3.4083821773529053,-10.302141189575195,-4.751578330993652
1763691421254736000,12.43873583984375,4.354153156280518,-5.547045707702637,-3.7224020957946777
1763691421264837600,12.448837646484375,2.4171340465545654,-1.8214082717895508,-1.9817650318145752
1763691421274916900,12.458916748046875,0.55387282371521,1.0665998458862305,-0.05122905969619751
1763691421284996000,12.46899609375,-0.3597283363342285,3.519723892211914,1.903967261314392
1763691421305149000,12.48914892578125,-2.389920473098755,6.080865859985352,1.8305171728134155
1763691421315228200,12.499228271484375,-3.732645034790039,4.519641876220703,1.4613169431686401
1763691421325262300,12.509262451171875,-1.9577683210372925,2.636913299560547,2.6486239433288574
1763691421335341800,12.519341796875,1.8135113716125488,-0.4148674011230469,4.332082271575928
1763691421345421000,12.529421142578125,5.143313407897949,-5.770623207092285,6.1977314949035645
1763691421355494700,12.53949462890625,5.6115217208862305,-13.481413841247559,6.478022575378418
1763691421365574100,12.54957421875,4.462213039398193,-17.268753051757812,3.036242961883545
1763691421375653400,12.5596533203125,1.2379984855651855,-13.62794303894043,-0.885134220123291
1763691421385720300,12.56972021484375,-4.721636772155762,-6.254551887512207,-0.8605787754058838
1763691421395799800,12.5797998046875,-9.118390083312988,-0.45880794525146484,2.1471104621887207
1763691421405879300,12.58987939453125,-9.777641296386719,3.8918542861938477,3.8329813480377197
1763691421415956700,12.599956787109376,-7.1020588874816895,8.342938423156738,4.544341564178467
1763691421426036000,12.610035888671876,-3.017857551574707,11.75093936920166,5.086908340454102
1763691421436115500,12.620115478515626,-1.4380083084106445,11.548381805419922,3.579925537109375
1763691421446223600,12.6302236328125,-3.304520845413208,8.008729934692383,0.9802432060241699
1763691421456303000,12.64030322265625,-5.118097305297852,3.9410581588745117,-0.2693197727203369
1763691421466382300,12.65038232421875,-5.348797798156738,0.5025177001953125,-1.0382885932922363
1763691421486505000,12.6705048828125,-3.5144920349121094,-5.15593147277832,-3.054523468017578
1763691421496584200,12.680584228515626,-1.8289461135864258,-5.792027473449707,-3.7646732330322266
1763691421506670600,12.690670654296875,0.0750647783279419,-4.634076118469238,-3.2655282020568848
1763691421516750000,12.70075,1.7269160747528076,-2.662764549255371,-1.7793868780136108
1763691421526829300,12.710829345703125,2.540943145751953,-1.2081317901611328,-0.31220197677612305
1763691421536903700,12.720903564453126,2.5770130157470703,-0.15739727020263672,0.6706432104110718
1763691421546983000,12.73098291015625,2.2360856533050537,0.6071672439575195,1.162492036819458
1763691421557062400,12.7410625,1.657599687576294,1.0862674713134766,1.4214234352111816
1763691421567117800,12.751117919921874,1.2215752601623535,1.3331899642944336,1.5287597179412842
1763691421577197000,12.761197021484374,0.7688659429550171,1.3836793899536133,1.1207096576690674
1763691421587276500,12.771276611328124,0.14424747228622437,1.3144092559814453,0.26305997371673584
1763691421597437700,12.781437744140625,-0.21391253173351288,1.1501884460449219,-0.6743549108505249
1763691421607517000,12.791516845703125,-0.3127802014350891,0.985072135925293,-1.4411985874176025
1763691421617596400,12.801596435546875,-0.3898504376411438,0.9268283843994141,-1.9400405883789062
1763691421627630300,12.81163037109375,-0.5066446661949158,0.8440990447998047,-1.9681358337402344
1763691421637709800,12.821709716796875,-0.5564762353897095,0.7800664901733398,-1.6136454343795776
1763691421647789000,12.8317890625,-0.3298128843307495,0.8944406509399414,-1.195959210395813
1763691421657852400,12.841852294921875,-0.0023638010025024414,1.1265220642089844,-0.8961648941040039
1763691421678011100,12.86201123046875,0.30579110980033875,1.3487615585327148,-0.7390197515487671
1763691421688145700,12.872145751953125,0.3612344563007355,1.2759132385253906,-0.8967154026031494
1763691421698225000,12.882224853515625,0.33826491236686707,0.9803485870361328,-0.9574872255325317
1763691421708304400,12.892304443359375,0.43130308389663696,0.4956521987915039,-0.9316402673721313
1763691421718378800,12.902378662109374,0.6836186051368713,0.02093219757080078,-1.0255398750305176
1763691421728458000,12.9124580078125,0.9357515573501587,-0.36163330078125,-1.276525855064392
1763691421738537500,12.922537353515626,1.3170863389968872,-0.56268310546875,-1.5756007432937622
1763691421748555000,12.932554931640626,1.9616683721542358,-0.31832313537597656,-1.8599556684494019
1763691421758634500,12.942634521484376,2.466732978820801,0.037156105041503906,-1.999524474143982
1763691421768713700,12.952713623046876,2.7215158939361572,-0.16914844512939453,-1.8670965433120728
1763691421778849800,12.962849853515625,2.8009963035583496,-0.8335390090942383,-1.8307472467422485
1763691421788929300,12.97292919921875,2.5779271125793457,-1.0951261520385742,-2.2900662422180176
1763691421799008800,12.9830087890625,1.8945740461349487,-0.8574628829956055,-3.25248122215271
1763691421809042400,12.99304248046875,0.5856766700744629,-0.5682735443115234,-4.432293891906738
1763691421819121700,13.00312158203125,-0.7714896202087402,-0.7383699417114258,-5.164387226104736
1763691421829201200,13.013201171875,-1.1174468994140625,-1.5716962814331055,-5.115814685821533
1763691421839290400,13.023290283203124,-0.45824623107910156,-2.765779495239258,-4.24983024597168
1763691421849369600,13.03336962890625,0.27231287956237793,-3.500554084777832,-3.1011815071105957
1763691421859449000,13.043448974609374,0.9834926128387451,-3.8737049102783203,-2.289564371109009
1763691421869556000,13.053555908203125,1.9641541242599487,-4.207038879394531,-1.8007031679153442
1763691421879635500,13.063635498046875,3.3603134155273438,-4.111217498779297,-1.4351770877838135
1763691421889715000,13.07371484375,4.398850440979004,-3.2115421295166016,-1.2105834484100342
1763691421899808300,13.083808349609376,4.368125915527344,-2.2929067611694336,-0.7935080528259277
1763691421909887500,13.093887451171875,4.010491371154785,-2.0769004821777344,-0.26259517669677734
1763691421919967000,13.103967041015625,4.480462074279785,-2.5142812728881836,-0.13896775245666504
1763691421930044400,13.11404443359375,5.275859832763672,-3.4894561767578125,-0.8740110397338867
1763691421940124000,13.1241240234375,4.998538017272949,-4.881156921386719,-2.2860050201416016
1763691421950203100,13.134203125,4.026817798614502,-6.206945419311523,-3.8695151805877686
1763691421960282600,13.14428271484375,3.2419304847717285,-6.9280853271484375,-4.857715129852295
1763691421970344700,13.1543447265625,2.452284812927246,-5.882333755493164,-4.138396739959717
1763691421980424200,13.164424072265625,2.9661028385162354,-3.5175790786743164,-2.1802539825439453
1763691421990503700,13.174503662109375,3.0387048721313477,-1.7405319213867188,0.5552475452423096
1763691422001175000,13.185175048828125,1.0276117324829102,-1.0588903427124023,4.143701553344727
1763691422011254300,13.195254150390625,-1.9240033626556396,-2.0806188583374023,7.039870262145996
1763691422021333800,13.205333740234375,-4.813131809234619,-4.055538177490234,8.345684051513672
1763691422031403300,13.2154033203125,-6.947402477264404,-5.448650360107422,7.607006072998047
1763691422041482800,13.225482666015624,-6.984954357147217,-5.407994270324707,5.300702095031738
1763691422051562200,13.235562255859374,-5.038727283477783,-4.296866416931152,2.4534969329833984
