time,seconds_elapsed,z,y,x
1763691408957717800,0.1417177734375,9.4629545211792,2.562349319458008,0.2392714023590088
1763691408967797000,0.151796875,9.476299285888672,2.5154435634613037,0.2066303789615631
1763691408987920600,0.171920654296875,9.488391876220703,2.4761364459991455,0.09763956069946289
1763691409007997200,0.1919970703125,9.49372673034668,2.4571094512939453,-0.04638528451323509
1763691409018102000,0.20210205078125,9.49414348602295,2.4544124603271484,-0.08648044615983963
1763691409028181500,0.212181396484375,9.492294311523438,2.461251735687256,-0.09481137990951538
1763691409038261000,0.222260986328125,9.4901704788208,2.4694933891296387,-0.09303765743970871
1763691409049009200,0.233009033203125,9.489277839660645,2.4731574058532715,-0.08653835952281952
1763691409059088600,0.243088623046875,9.488157272338867,2.4776253700256348,-0.08141375333070755
1763691409069168000,0.253168212890625,9.485021591186523,2.4891412258148193,-0.09456294775009155
1763691409078694700,0.262694580078125,9.480780601501465,2.503955602645874,-0.12407518178224564
1763691409088774100,0.272774169921875,9.476762771606445,2.5178306102752686,-0.14792074263095856
1763691409098853600,0.282853515625,9.472835540771484,2.5329554080963135,-0.1411428302526474
1763691409108945700,0.292945556640625,9.468587875366211,2.55078125,-0.0987728163599968
1763691409119025200,0.303025146484375,9.463395118713379,2.5716397762298584,-0.03493361175060272
1763691409129104600,0.313104736328125,9.45826244354248,2.5905494689941406,0.02646382711827755
1763691409139126000,0.3231259765625,9.454482078552246,2.6033272743225098,0.07637622207403183
1763691409149205500,0.33320556640625,9.451516151428223,2.612637758255005,0.11555103957653046
1763691409159285000,0.343284912109375,9.448822975158691,2.6210005283355713,0.1431286484003067
1763691409169411600,0.35341162109375,9.447225570678711,2.626124143600464,0.1542884260416031
1763691409179490800,0.36349072265625,9.447951316833496,2.6238434314727783,0.14848031103610992
1763691409189570300,0.3735703125,9.450268745422363,2.6166021823883057,0.12729783356189728
1763691409199656700,0.38365673828125,9.454228401184082,2.6032652854919434,0.10470865666866302
1763691409209736200,0.393736083984375,9.459845542907715,2.583279609680176,0.09151966869831085
1763691409219815400,0.4038154296875,9.465629577636719,2.5619747638702393,0.09235839545726776
1763691409229900300,0.413900390625,9.471338272094727,2.5400657653808594,0.11047766357660294
1763691409239979500,0.4239794921875,9.4752197265625,2.52370285987854,0.14664731919765472
1763691409250059000,0.43405908203125,9.474627494812012,2.522977590560913,0.19077597558498383
1763691409260089900,0.44408984375,9.46939754486084,2.5383055210113525,0.24064992368221283
1763691409270169300,0.45416943359375,9.461350440979004,2.5604238510131836,0.3121849596500397
1763691409280248600,0.46424853515625,9.447745323181152,2.599017858505249,0.39447614550590515
1763691409290956000,0.4749560546875,9.42510986328125,2.668942451477051,0.46308329701423645
1763691409301035500,0.485035400390625,9.400187492370605,2.742856025695801,0.5325433611869812
1763691409311115000,0.495114990234375,9.37393569946289,2.8132975101470947,0.6205554008483887
1763691409321209000,0.505208984375,9.347368240356445,2.8765408992767334,0.7229212522506714
1763691409331288600,0.51528857421875,9.32231330871582,2.9306211471557617,0.8223837018013
1763691409341367800,0.525367919921875,9.297616958618164,2.9831342697143555,0.9086304306983948
1763691409351452400,0.535452392578125,9.27559757232666,3.0316479206085205,0.9709696173667908
1763691409361532000,0.545531982421875,9.264660835266113,3.055828094482422,0.9991803169250488
1763691409371611400,0.555611328125,9.267919540405273,3.037936210632324,1.02323579788208
1763691409391168500,0.57516845703125,9.287010192871094,2.9106500148773193,1.2041393518447876
1763691409401248000,0.585248046875,9.285733222961426,2.8630807399749756,1.3222382068634033
1763691409411307000,0.59530712890625,9.287198066711426,2.8170511722564697,1.4080413579940796
1763691409421386500,0.605386474609375,9.295522689819336,2.7586050033569336,1.4675660133361816
1763691409431465700,0.6154658203125,9.30697250366211,2.685544013977051,1.5292150974273682
1763691409441593900,0.62559375,9.320333480834961,2.6105973720550537,1.5768827199935913
1763691409451673300,0.63567333984375,9.335957527160645,2.5495195388793945,1.5843756198883057
1763691409461752800,0.6457529296875,9.350625038146973,2.5057380199432373,1.5676368474960327
1763691409471789600,0.65578955078125,9.36124324798584,2.4812731742858887,1.542977213859558
1763691409481868800,0.665868896484375,9.369316101074219,2.479166269302368,1.4966779947280884
1763691409491948300,0.6759482421875,9.374615669250488,2.503469705581665,1.4211267232894897
1763691409501999000,0.6859990234375,9.374571800231934,2.554989814758301,1.3265830278396606
1763691409512078600,0.69607861328125,9.369525909423828,2.621297836303711,1.2292991876602173
1763691409532272000,0.716272216796875,9.362173080444336,2.7325711250305176,1.0262316465377808
1763691409542351600,0.7263515625,9.36077880859375,2.7662174701690674,0.9456408023834229
1763691409552430800,0.736430908203125,9.359070777893066,2.788743495941162,0.8950377106666565
1763691409562505500,0.74650537109375,9.356669425964355,2.804778575897217,0.8696797490119934
1763691409572584700,0.756584716796875,9.353596687316895,2.8191773891448975,0.8560624718666077
1763691409582664200,0.766664306640625,9.350993156433105,2.8329896926879883,0.8387410640716553
1763691409592731100,0.776731201171875,9.35123062133789,2.8411998748779297,0.8077555298805237
1763691409602810600,0.786810546875,9.355766296386719,2.8361237049102783,0.7722864151000977
1763691409612889900,0.796889892578125,9.365286827087402,2.8032126426696777,0.7770444750785828
1763691409622977000,0.80697705078125,9.374530792236328,2.7571327686309814,0.8287156820297241
1763691409633056300,0.81705615234375,9.384225845336914,2.6995198726654053,0.9051397442817688
1763691409643135700,0.8271357421875,9.392985343933105,2.6407670974731445,0.9841567873954773
1763691409653228500,0.837228515625,9.396683692932129,2.6027042865753174,1.048160195350647
1763691409663307800,0.847307861328125,9.394792556762695,2.5957720279693604,1.0817731618881226
1763691409673387300,0.85738720703125,9.392356872558594,2.611180305480957,1.065722942352295
1763691409683425500,0.867425537109375,9.392032623291016,2.633730888366699,1.0117172002792358
1763691409693504800,0.8775048828125,9.391152381896973,2.659517526626587,0.9505919814109802
1763691409703584300,0.887584228515625,9.389843940734863,2.6835880279541016,0.8941855430603027
1763691409713730300,0.897730224609375,9.391045570373535,2.6959986686706543,0.8427603840827942
1763691409723809800,0.907809814453125,9.396075248718262,2.69014310836792,0.804533839225769
1763691409733889300,0.91788916015625,9.40446949005127,2.666231870651245,0.7858341932296753
1763691409743945000,0.927945068359375,9.414591789245605,2.6312146186828613,0.7826581597328186
1763691409754024400,0.9380244140625,9.42451286315918,2.5940942764282227,0.7871555089950562
1763691409764104000,0.94810400390625,9.432998657226562,2.5606770515441895,0.7948894500732422
1763691409774173200,0.958173095703125,9.439274787902832,2.533346652984619,0.807855486869812
1763691409784252400,0.96825244140625,9.444084167480469,2.509510040283203,0.8258442878723145
1763691409794332000,0.978331787109375,9.448201179504395,2.4894676208496094,0.8392992615699768
1763691409804379100,0.988379150390625,9.45030403137207,2.480741500854492,0.8414596319198608
1763691409814458600,0.998458740234375,9.44886589050293,2.492588520050049,0.822394609451294
1763691409824538000,1.0085380859375,9.445128440856934,2.523162603378296,0.7704398036003113
1763691409834685200,1.018685302734375,9.440001487731934,2.563521146774292,0.6965013146400452
1763691409844764700,1.0287646484375,9.433993339538574,2.603520631790161,0.6259647011756897
1763691409854844200,1.03884423828125,9.428946495056152,2.634185791015625,0.5713214874267578
1763691409874983400,1.0589833984375,9.42681884765625,2.6556432247161865,0.5030114054679871
1763691409885063000,1.06906298828125,9.42978286743164,2.6512131690979004,0.46973222494125366
1763691409895150000,1.079150146484375,9.434456825256348,2.641674757003784,0.42774778604507446
1763691409905229600,1.0892294921875,9.439995765686035,2.6281027793884277,0.38722336292266846
1763691409915309000,1.09930908203125,9.44578742980957,2.610132932662964,0.36699703335762024
1763691409925361200,1.109361083984375,9.451377868652344,2.5881028175354004,0.378909707069397
1763691409935440600,1.119440673828125,9.455963134765625,2.565181255340576,0.4183109700679779
1763691409945520000,1.12952001953125,9.458449363708496,2.5475282669067383,0.46713951230049133
1763691409955619600,1.13961962890625,9.457927703857422,2.5420711040496826,0.5058243870735168
1763691409965698800,1.14969873046875,9.454997062683105,2.5509791374206543,0.5156784653663635
1763691409975778300,1.1597783203125,9.449983596801758,2.5723869800567627,0.5010328888893127
1763691409985849600,1.169849609375,9.443293571472168,2.60048508644104,0.4817385673522949
1763691409995929000,1.17992919921875,9.437002182006836,2.625074863433838,0.4715573191642761
1763691410006008600,1.190008544921875,9.433215141296387,2.637275457382202,0.4791918098926544
1763691410016075300,1.2000751953125,9.43323802947998,2.6318492889404297,0.5077183246612549
1763691410026154800,1.21015478515625,9.436698913574219,2.6099777221679688,0.5541893243789673
1763691410036234500,1.220234375,9.44088077545166,2.582655191421509,0.6083108186721802
1763691410046335200,1.230335205078125,9.443892478942871,2.5604891777038574,0.6535933017730713
1763691410056415000,1.2404150390625,9.444534301757812,2.5517501831054688,0.6780307292938232
1763691410066494500,1.250494384765625,9.442262649536133,2.5599629878997803,0.678715705871582
1763691410076553000,1.260552978515625,9.43712043762207,2.5840721130371094,0.6585631370544434
1763691410086632700,1.2706328125,9.430501937866211,2.616853713989258,0.622975766658783
1763691410096712400,1.28071240234375,9.424173355102539,2.6489527225494385,0.5817161798477173
1763691410106810400,1.290810302734375,9.418891906738281,2.674940347671509,0.5473189353942871
1763691410116890000,1.30089013671875,9.41553783416748,2.690674304962158,0.5275487303733826
1763691410126969600,1.310969482421875,9.414191246032715,2.6955692768096924,0.5265718698501587
1763691410137024500,1.3210244140625,9.414355278015137,2.691593885421753,0.5437176823616028
1763691410147104300,1.331104248046875,9.415114402770996,2.683248281478882,0.5711259841918945
1763691410157183700,1.341183837890625,9.415279388427734,2.6769087314605713,0.5975505709648132
1763691410167224600,1.351224609375,9.414105415344238,2.6777966022491455,0.611896276473999
1763691410177304300,1.36130419921875,9.412068367004395,2.6868934631347656,0.6032867431640625
1763691410187384000,1.371384033203125,9.410117149353027,2.700923442840576,0.5701742768287659
1763691410197491000,1.381490966796875,9.406909942626953,2.7214503288269043,0.5235973000526428
1763691410207570700,1.39157080078125,9.401008605957031,2.749746561050415,0.4799176752567291
1763691410217650200,1.401650146484375,9.391193389892578,2.787916660308838,0.4509771168231964
1763691410227756000,1.411756103515625,9.37683391571045,2.8377418518066406,0.4388600289821625
1763691410237835800,1.421835693359375,9.358680725097656,2.8981375694274902,0.431600958108902
1763691410247915300,1.431915283203125,9.338909149169922,2.963904857635498,0.4128338694572449
1763691410258013200,1.44201318359375,9.3196382522583,3.0288448333740234,0.37528669834136963
1763691410268093000,1.452093017578125,9.30140495300293,3.0903966426849365,0.32200247049331665
1763691410278172400,1.46217236328125,9.284351348876953,3.146951913833618,0.2605835199356079
1763691410288222700,1.47222265625,9.269092559814453,3.196099042892456,0.19810228049755096
1763691410298302200,1.48230224609375,9.255142211914062,3.2394254207611084,0.13729779422283173
1763691410308382000,1.4923818359375,9.241430282592773,3.2803165912628174,0.07677391916513443
1763691410318511000,1.502510986328125,9.22661018371582,3.3226423263549805,0.009623442776501179
1763691410328590800,1.5125908203125,9.211188316345215,3.364516258239746,-0.06639277935028076
1763691410338670300,1.52267041015625,9.19628620147705,3.4024834632873535,-0.14765727519989014
1763691410348735700,1.53273583984375,9.182808876037598,3.434248924255371,-0.22876523435115814
1763691410358815500,1.5428154296875,9.171873092651367,3.4566869735717773,-0.3137681782245636
1763691410368895000,1.55289501953125,9.164909362792969,3.4648125171661377,-0.41217494010925293
1763691410378925800,1.56292578125,9.162300109863281,3.455713987350464,-0.5297912359237671
1763691410389005600,1.573005615234375,9.16543960571289,3.4305686950683594,-0.6295287013053894
1763691410399085300,1.583085205078125,9.175015449523926,3.396491765975952,-0.6732953190803528
1763691410409192200,1.593192138671875,9.185304641723633,3.363191604614258,-0.6996553540229797
1763691410419271700,1.603271728515625,9.192289352416992,3.3389194011688232,-0.7237597703933716
1763691410429351400,1.613351318359375,9.194427490234375,3.325120687484741,-0.7592501044273376
1763691410439432400,1.623432373046875,9.1890287399292,3.3284075260162354,-0.8086020946502686
1763691410449512200,1.63351220703125,9.174203872680664,3.3566720485687256,-0.8585593700408936
1763691410459591700,1.643591796875,9.149931907653809,3.4088242053985596,-0.9105169773101807
1763691410469672400,1.65367236328125,9.11670970916748,3.479673147201538,-0.9735814929008484
1763691410479752000,1.663751953125,9.076547622680664,3.558245897293091,-1.0609184503555298
1763691410489831700,1.673831787109375,9.031340599060059,3.6318743228912354,-1.1894363164901733
1763691410499884800,1.683884765625,8.981494903564453,3.7001283168792725,-1.3461756706237793
1763691410509964300,1.69396435546875,8.931061744689941,3.758115291595459,-1.5109893083572388
1763691410520044000,1.7040439453125,8.883131980895996,3.8005387783050537,-1.6781697273254395
1763691410530117400,1.714117431640625,8.838744163513184,3.8267602920532227,-1.8446968793869019
1763691410550276600,1.734276611328125,8.758135795593262,3.8398399353027344,-2.172804117202759
1763691410560356400,1.7443564453125,8.719544410705566,3.830760955810547,-2.337779998779297
1763691410570461000,1.7544609375,8.677290916442871,3.816067695617676,-2.5124964714050293
1763691410580540700,1.764540771484375,8.625701904296875,3.7981176376342773,-2.7096049785614014
1763691410590620200,1.7746201171875,8.560962677001953,3.777843475341797,-2.933974027633667
1763691410601283300,1.785283447265625,8.475824356079102,3.7569291591644287,-3.1962878704071045
1763691410611362800,1.79536279296875,8.378314971923828,3.741347312927246,-3.4607160091400146
1763691410621442600,1.805442626953125,8.273181915283203,3.73069429397583,-3.7157466411590576
1763691410641019100,1.82501904296875,8.095170974731445,3.7080342769622803,-4.109633922576904
1763691410651099000,1.835098876953125,8.019067764282227,3.687171697616577,-4.274307727813721
1763691410661187600,1.8451875,7.9478840827941895,3.6633846759796143,-4.425057888031006
1763691410671267300,1.855267333984375,7.876896858215332,3.6458539962768555,-4.564278602600098
1763691410681347000,1.86534716796875,7.798486232757568,3.6418237686157227,-4.700118541717529
1763691410691430400,1.875430419921875,7.706704616546631,3.656172037124634,-4.838335990905762
1763691410701510000,1.885510009765625,7.600792407989502,3.688899517059326,-4.978991508483887
1763691410711589600,1.895589599609375,7.481481552124023,3.734074354171753,-5.12391471862793
1763691410721595600,1.905595703125,7.349334716796875,3.78341007232666,-5.2766923904418945
1763691410731675400,1.91567529296875,7.197020053863525,3.8326783180236816,-5.44828987121582
1763691410741755000,1.9257548828125,7.02146053314209,3.8836417198181152,-5.637979030609131
1763691410761941000,1.94594091796875,6.695291519165039,3.978426456451416,-5.959494590759277
1763691410772020500,1.9560205078125,6.576156139373779,4.0183916091918945,-6.064411640167236
1763691410782162700,1.96616259765625,6.478272914886475,4.054222106933594,-6.145376682281494
1763691410802322200,1.986322265625,6.309963226318359,4.117304801940918,-6.277144908905029
1763691410812379000,1.99637890625,6.22371244430542,4.140528678894043,-6.347582817077637
1763691410822458600,2.006458740234375,6.132018089294434,4.155755519866943,-6.42638635635376
1763691410832538000,2.0165380859375,6.031746864318848,4.16752815246582,-6.513072490692139
1763691410842576600,2.02657666015625,5.920229911804199,4.184634208679199,-6.603794574737549
1763691410852656400,2.036656494140625,5.795080661773682,4.213918209075928,-6.695544719696045
1763691410862736100,2.046736083984375,5.657717704772949,4.255097389221191,-6.786365509033203
1763691410872894000,2.05689404296875,5.509969711303711,4.305588722229004,-6.875502109527588
1763691410882973400,2.066973388671875,5.363739490509033,4.362154960632324,-6.955018997192383
1763691410893053200,2.07705322265625,5.236605167388916,4.41950798034668,-7.015432834625244
1763691410903064000,2.08706396484375,5.1383748054504395,4.467974662780762,-7.057244300842285
1763691410913143600,2.0971435546875,5.066526889801025,4.502134323120117,-7.087417125701904
1763691410923223300,2.107223388671875,5.008352279663086,4.521089553833008,-7.11663818359375
1763691410933328600,2.11732861328125,4.948981761932373,4.52937650680542,-7.152812957763672
1763691410943408400,2.127408447265625,4.881046772003174,4.532169342041016,-7.19758415222168
1763691410953488000,2.13748779296875,4.800815582275391,4.5329060554504395,-7.250884056091309
1763691410963536600,2.14753662109375,4.711753845214844,4.533818244934082,-7.308506011962891
1763691410973616000,2.1576162109375,4.615590572357178,4.538235187530518,-7.366893768310547
1763691410983696000,2.16769580078125,4.519270896911621,4.549759864807129,-7.419317245483398
1763691410993751800,2.177751708984375,4.428328990936279,4.56978178024292,-7.461728572845459
1763691411003831600,2.18783154296875,4.344743728637695,4.595142364501953,-7.495214939117432
1763691411013911300,2.197911376953125,4.270908355712891,4.620756149291992,-7.521857261657715
1763691411034118400,2.218118408203125,4.160917282104492,4.658267974853516,-7.5602707862854
1763691411044198100,2.2281982421875,4.125507354736328,4.665092468261719,-7.575453281402588
1763691411054260700,2.2382607421875,4.087460994720459,4.664711952209473,-7.596282005310059
1763691411064340500,2.248340576171875,4.044954299926758,4.642457485198975,-7.632582664489746
1763691411074420000,2.258419921875,4.033883094787598,4.601665496826172,-7.663083553314209
1763691411084504300,2.26850439453125,4.038012981414795,4.554230690002441,-7.689202308654785
1763691411094584000,2.278583984375,4.063870429992676,4.504065990447998,-7.7051100730896
1763691411104663600,2.28866357421875,4.099292755126953,4.456849098205566,-7.7137980461120605
1763691411114761200,2.29876123046875,4.121013641357422,4.423227787017822,-7.7215728759765625
1763691411124841000,2.308841064453125,4.126308441162109,4.410364627838135,-7.726101398468018
1763691411134920700,2.318920654296875,4.1200456619262695,4.417665958404541,-7.725273132324219
1763691411145005000,2.329005126953125,4.108144760131836,4.439715385437012,-7.718968391418457
1763691411155084800,2.339084716796875,4.092868804931641,4.467586994171143,-7.710997581481934
1763691411165164500,2.34916455078125,4.078313827514648,4.493724346160889,-7.703517436981201
1763691411175219200,2.35921923828125,4.069579601287842,4.515988349914551,-7.695113182067871
1763691411185299000,2.369298828125,4.062378406524658,4.533746242523193,-7.688472747802734
1763691411195378700,2.379378662109375,4.056204795837402,4.547329425811768,-7.683709144592285
1763691411205470700,2.389470703125,4.049846649169922,4.556046962738037,-7.681898593902588
1763691411215550500,2.399550537109375,4.03883695602417,4.5612335205078125,-7.684616565704346
1763691411225630200,2.409630126953125,4.020201206207275,4.566277503967285,-7.691390037536621
1763691411235712500,2.41971240234375,3.9910566806793213,4.573470592498779,-7.702286720275879
1763691411245792000,2.4297919921875,3.9531290531158447,4.583337783813477,-7.715968608856201
1763691411255871700,2.439871826171875,3.9085428714752197,4.595333576202393,-7.731532573699951
1763691411265926100,2.449926025390625,3.8567421436309814,4.610844135284424,-7.748293399810791
1763691411276006000,2.460005859375,3.7978639602661133,4.630914688110352,-7.765386581420898
1763691411286085400,2.47008544921875,3.7644290924072266,4.65346622467041,-7.768187046051025
1763691411296201200,2.480201171875,3.7500369548797607,4.667154312133789,-7.766934871673584
1763691411306280700,2.49028076171875,3.724691390991211,4.666069984436035,-7.7797722816467285
1763691411316360400,2.5003603515625,3.700773239135742,4.660284042358398,-7.794639587402344
1763691411326411800,2.510411865234375,3.6803789138793945,4.656012058258057,-7.806840419769287
1763691411336491300,2.5204912109375,3.664705514907837,4.653105735778809,-7.8159403800964355
1763691411346571000,2.530571044921875,3.651132583618164,4.6509013175964355,-7.823601245880127
1763691411356692500,2.5406923828125,3.635955810546875,4.651100158691406,-7.8305487632751465
1763691411366772200,2.550772216796875,3.619865655899048,4.649960994720459,-7.838674545288086
1763691411376852000,2.56085205078125,3.604874610900879,4.650754928588867,-7.845109462738037
1763691411386883800,2.5708837890625,3.591519594192505,4.653903484344482,-7.849366188049316
1763691411396963300,2.58096337890625,3.578835964202881,4.663787841796875,-7.849292755126953
1763691411407043000,2.59104296875,3.562253713607788,4.677878379821777,-7.848451137542725
1763691411417109500,2.601109619140625,3.5435240268707275,4.690114498138428,-7.8496270179748535
1763691411427189000,2.61118896484375,3.523655891418457,4.698193550109863,-7.853739261627197
1763691411437268700,2.621268798828125,3.4995033740997314,4.704639911651611,-7.860675811767578
1763691411447385600,2.631385498046875,3.4735114574432373,4.709353923797607,-7.8693766593933105
1763691411457465000,2.641465087890625,3.452967643737793,4.708868980407715,-7.878702640533447
1763691411467544800,2.651544921875,3.4337306022644043,4.700140476226807,-7.89231014251709
1763691411477599500,2.661599609375,3.415652275085449,4.685173988342285,-7.909035682678223
1763691411487679200,2.67167919921875,3.399690628051758,4.6652655601501465,-7.92765998840332
1763691411497759000,2.681759033203125,3.376490831375122,4.646311283111572,-7.948678016662598
1763691411507805000,2.691804931640625,3.359070062637329,4.63247537612915,-7.964119911193848
1763691411517884700,2.701884765625,3.338900566101074,4.623859882354736,-7.977596759796143
1763691411527964400,2.71196435546875,3.311863899230957,4.618628025054932,-7.991884231567383
1763691411538187000,2.72218701171875,3.2795848846435547,4.617283344268799,-8.005961418151855
1763691411548266500,2.7322666015625,3.2359235286712646,4.618988037109375,-8.022726058959961
1763691411558346200,2.74234619140625,3.1706290245056152,4.625958442687988,-8.04474925994873
1763691411568317700,2.752317626953125,3.0927722454071045,4.644872188568115,-8.06413745880127
1763691411578397400,2.7623974609375,3.0040476322174072,4.684783935546875,-8.074583053588867
1763691411588477200,2.772477294921875,2.9084067344665527,4.747649192810059,-8.072879791259766
1763691411598555000,2.782554931640625,2.8292036056518555,4.807487964630127,-8.065608978271484
1763691411608634600,2.792634521484375,2.766014337539673,4.846567630767822,-8.064138412475586
1763691411618714400,2.80271435546875,2.7289700508117676,4.865165710449219,-8.065560340881348
1763691411628776700,2.812776611328125,2.71645450592041,4.879559516906738,-8.061089515686035
1763691411638856400,2.8228564453125,2.7191755771636963,4.894444942474365,-8.051141738891602
1763691411648936200,2.832936279296875,2.725381374359131,4.895066261291504,-8.048665046691895
1763691411659011300,2.84301123046875,2.7448697090148926,4.870462417602539,-8.056964874267578
1763691411669091000,2.853091064453125,2.7705726623535156,4.825769424438477,-8.075039863586426
1763691411679170800,2.8631708984375,2.7876393795013428,4.7753682136535645,-8.099093437194824
1763691411689284400,2.873284423828125,2.796755075454712,4.738650321960449,-8.117496490478516
1763691411699364000,2.883364013671875,2.8001937866210938,4.725066184997559,-8.124226570129395
1763691411709443800,2.89344384765625,2.799440860748291,4.730294704437256,-8.121442794799805
1763691411719506700,2.903506591796875,2.794893741607666,4.744563579559326,-8.1146821975708
1763691411729586400,2.91358642578125,2.783675193786621,4.758757591247559,-8.110225677490234
1763691411739666200,2.923666259765625,2.7705888748168945,4.764430046081543,-8.11137580871582
1763691411749740300,2.933740234375,2.76540207862854,4.758869171142578,-8.116409301757812
1763691411759820000,2.943820068359375,2.7745375633239746,4.743906021118164,-8.122049331665039
1763691411769899800,2.953899658203125,2.794473648071289,4.722296714782715,-8.127805709838867
1763691411779986000,2.96398583984375,2.8128178119659424,4.697232246398926,-8.135997772216797
1763691411790065400,2.9740654296875,2.8157989978790283,4.671802997589111,-8.14959716796875
1763691411800145200,2.984145263671875,2.794095039367676,4.648072719573975,-8.170608520507812
1763691411810206500,2.99420654296875,2.748566150665283,4.628518581390381,-8.197108268737793
1763691411820286200,3.0042861328125,2.6891653537750244,4.6143388748168945,-8.224759101867676
1763691411830366000,3.014365966796875,2.6272714138031006,4.605131149291992,-8.249884605407715
1763691411841042400,3.02504248046875,2.5724575519561768,4.5958967208862305,-8.27227783203125
1763691411851122200,3.0351220703125,2.549684524536133,4.576608657836914,-8.290002822875977
1763691411861202000,3.045201904296875,2.5490541458129883,4.543022155761719,-8.308649063110352
1763691411870712300,3.05471240234375,2.5646650791168213,4.494345188140869,-8.330289840698242
1763691411880792000,3.0647919921875,2.595808744430542,4.420871257781982,-8.359908103942871
1763691411890871800,3.074871826171875,2.625922679901123,4.327383995056152,-8.399325370788574
1763691411900969700,3.0849697265625,2.635540008544922,4.216925621032715,-8.452327728271484
1763691411911049500,3.095049560546875,2.621302604675293,4.0946245193481445,-8.516642570495605
1763691411921129000,3.10512890625,2.5801165103912354,3.968428611755371,-8.588653564453125
1763691411931153200,3.115153076171875,2.5135622024536133,3.844658136367798,-8.664351463317871
1763691411941232600,3.125232666015625,2.4313201904296875,3.7262279987335205,-8.739238739013672
1763691411951312400,3.1353125,2.3415493965148926,3.614514112472534,-8.810381889343262
1763691411961438700,3.145438720703125,2.2515039443969727,3.5064585208892822,-8.877266883850098
1763691411971518500,3.1555185546875,2.1715633869171143,3.399735689163208,-8.938485145568848
1763691411981598200,3.16559814453125,2.1029138565063477,3.2937724590301514,-8.994399070739746
1763691411991673300,3.17567333984375,2.040123224258423,3.193885326385498,-9.044742584228516
1763691412001753000,3.185753173828125,1.9866381883621216,3.100191354751587,-9.089140892028809
1763691412011832600,3.19583251953125,1.9453933238983154,3.014420509338379,-9.126834869384766
1763691412021867000,3.205866943359375,1.9165557622909546,2.939066171646118,-9.157461166381836
1763691412031946500,3.215946533203125,1.9039267301559448,2.877321243286133,-9.17967700958252
1763691412042026200,3.226026123046875,1.911465048789978,2.831310987472534,-9.192408561706543
1763691412052134400,3.236134521484375,1.9377986192703247,2.8011064529418945,-9.196146965026855
1763691412062214000,3.2462138671875,1.977035403251648,2.7900893688201904,-9.191143989562988
1763691412072293600,3.256293701171875,2.0261311531066895,2.798633575439453,-9.177844047546387
1763691412082372400,3.266372314453125,2.082826852798462,2.820709705352783,-9.158374786376953
1763691412092452000,3.2764521484375,2.1438937187194824,2.8556110858917236,-9.13343334197998
1763691412102531600,3.286531494140625,2.2080776691436768,2.9007933139801025,-9.103856086730957
1763691412112601300,3.296601318359375,2.2803092002868652,2.948873996734619,-9.070541381835938
1763691412122680800,3.306680908203125,2.362211227416992,2.9926373958587646,-9.035179138183594
1763691412132760600,3.316760498046875,2.4524128437042236,3.0273654460906982,-8.999505996704102
1763691412142849000,3.32684912109375,2.5517873764038086,3.0522704124450684,-8.963393211364746
1763691412152928800,3.3369287109375,2.6583893299102783,3.0710947513580322,-8.925902366638184
1763691412163008300,3.34700830078125,2.769056797027588,3.086379051208496,-8.886899948120117
1763691412173088800,3.3570888671875,2.8841440677642822,3.097702980041504,-8.846261024475098
1763691412183168300,3.367168212890625,2.9998819828033447,3.105410575866699,-8.804971694946289
1763691412193248000,3.377248046875,3.111049175262451,3.1080546379089355,-8.765372276306152
1763691412203336400,3.38733642578125,3.2210254669189453,3.1014082431793213,-8.727923393249512
1763691412213416000,3.397416015625,3.336379051208496,3.080251455307007,-8.692008018493652
1763691412223495700,3.40749560546875,3.453505039215088,3.0415308475494385,-8.659836769104004
1763691412243634000,3.427634033203125,3.6742560863494873,2.918377637863159,-8.611231803894043
1763691412253713700,3.437713623046875,3.7782890796661377,2.84035062789917,-8.592283248901367
1763691412263803600,3.4478037109375,3.8758418560028076,2.758195161819458,-8.575581550598145
1763691412273883100,3.457883056640625,3.9589955806732178,2.674980401992798,-8.563948631286621
1763691412283963000,3.467962890625,4.022826194763184,2.5903589725494385,-8.560215950012207
1763691412294061600,3.4780615234375,4.068309307098389,2.5015766620635986,-8.565123558044434
1763691412304141000,3.48814111328125,4.099720001220703,2.4057443141937256,-8.577591896057129
1763691412314220800,3.498220703125,4.121252059936523,2.3004627227783203,-8.596135139465332
1763691412324268000,3.50826806640625,4.136843681335449,2.1847145557403564,-8.618813514709473
1763691412334347500,3.518347412109375,4.14906644821167,2.0575952529907227,-8.644186019897461
1763691412344427300,3.52842724609375,4.158358097076416,1.9211896657943726,-8.67107105255127
1763691412354530800,3.53853076171875,4.164880275726318,1.7773008346557617,-8.69858455657959
1763691412364610600,3.548610595703125,4.166992664337158,1.6284657716751099,-8.726663589477539
1763691412374690000,3.55868994140625,4.160272598266602,1.4791492223739624,-8.7564058303833
1763691412384734200,3.568734130859375,4.1444573402404785,1.3342993259429932,-8.787121772766113
1763691412394814000,3.57881396484375,4.121247291564941,1.1959357261657715,-8.817904472351074
1763691412404893400,3.5888935546875,4.091787338256836,1.067164421081543,-8.848097801208496
1763691412415007200,3.59900732421875,4.059426784515381,0.9493679404258728,-8.876380920410156
1763691412425086700,3.609086669921875,4.027561664581299,0.8462831974029541,-8.901288986206055
1763691412435166500,3.61916650390625,3.999596118927002,0.7576166391372681,-8.921862602233887
1763691412445212000,3.6292119140625,3.9794373512268066,0.6785624027252197,-8.937226295471191
1763691412455291600,3.639291748046875,3.966721296310425,0.60494464635849,-8.948159217834473
1763691412465371100,3.64937109375,3.9577152729034424,0.5336052179336548,-8.956681251525879
1763691412475487000,3.659487060546875,3.951835870742798,0.46155354380607605,-8.963277816772461
1763691412485566500,3.66956640625,3.951613187789917,0.3886156380176544,-8.96683406829834
1763691412495646200,3.679646240234375,3.9572367668151855,0.3147338330745697,-8.967251777648926
1763691412505693200,3.689693115234375,3.967097043991089,0.24235258996486664,-8.965143203735352
1763691412515772700,3.699772705078125,3.979292154312134,0.17473798990249634,-8.961310386657715
1763691412525852400,3.709852294921875,3.991363286972046,0.11565769463777542,-8.95689868927002
1763691412546039600,3.73003955078125,3.9998984336853027,0.03160509467124939,-8.953782081604004
1763691412556119300,3.740119384765625,3.992549180984497,0.006852056831121445,-8.957114219665527
1763691412566178600,3.750178466796875,3.97748064994812,-0.00948413833975792,-8.963813781738281
1763691412576258000,3.760258056640625,3.9520680904388428,-0.02172476425766945,-8.975025177001953
1763691412586337800,3.770337890625,3.9154860973358154,-0.03319806233048439,-8.991008758544922
1763691412596441600,3.780441650390625,3.8690032958984375,-0.04701269045472145,-9.011048316955566
1763691412606521000,3.79052099609375,3.8143386840820312,-0.0649234727025032,-9.034212112426758
1763691412616600800,3.800600830078125,3.754991292953491,-0.08630485087633133,-9.05886173248291
1763691412626640000,3.810639892578125,3.690793037414551,-0.11228185892105103,-9.08492374420166
1763691412636719400,3.82071923828125,3.6232290267944336,-0.14472515881061554,-9.111621856689453
1763691412646799000,3.830799072265625,3.551018714904785,-0.18227042257785797,-9.139333724975586
1763691412656910800,3.840910888671875,3.4681339263916016,-0.22087199985980988,-9.170259475708008
1763691412666990600,3.850990478515625,3.3753881454467773,-0.25568798184394836,-9.203899383544922
1763691412677070000,3.861070068359375,3.2771589756011963,-0.28433388471603394,-9.238493919372559
1763691412687130600,3.871130615234375,3.1780478954315186,-0.30516254901885986,-9.272393226623535
1763691412697210400,3.88121044921875,3.080303192138672,-0.3181135952472687,-9.304887771606445
1763691412707289900,3.891289794921875,2.987778663635254,-0.32522791624069214,-9.334762573242188
1763691412717401300,3.9014013671875,2.9021027088165283,-0.3303975760936737,-9.361572265625
1763691412727481000,3.911481201171875,2.819956064224243,-0.3381044864654541,-9.386368751525879
1763691412737560600,3.921560546875,2.737293004989624,-0.35202521085739136,-9.410297393798828
1763691412747601000,3.931600830078125,2.654787540435791,-0.37233099341392517,-9.433126449584961
1763691412757680400,3.941680419921875,2.570276975631714,-0.39747971296310425,-9.455477714538574
1763691412767760100,3.951760009765625,2.4817168712615967,-0.42545950412750244,-9.477892875671387
1763691412777838600,3.961838623046875,2.385575532913208,-0.4557252526283264,-9.501144409179688
1763691412787918000,3.97191796875,2.282729387283325,-0.48711273074150085,-9.524823188781738
1763691412797997800,3.981997802734375,2.1745805740356445,-0.5172332525253296,-9.548510551452637
1763691412808064300,3.992064208984375,2.0610504150390625,-0.544076681137085,-9.572169303894043
1763691412818144000,4.00214404296875,1.9437917470932007,-0.567696213722229,-9.595300674438477
1763691412828223500,4.012223388671875,1.8260102272033691,-0.5889061689376831,-9.617134094238281
1763691412838298000,4.022298095703125,1.710967779159546,-0.6070131659507751,-9.637142181396484
1763691412848377600,4.032377685546875,1.600717306137085,-0.6220712065696716,-9.655108451843262
1763691412858457300,4.042457275390625,1.4953871965408325,-0.6343275904655457,-9.671185493469238
1763691412868553700,4.0525537109375,1.3951759338378906,-0.6424977779388428,-9.685611724853516
1763691412878633200,4.06263330078125,1.3018896579742432,-0.6433501243591309,-9.69853401184082
1763691412888713000,4.072712890625,1.2160245180130005,-0.6325955390930176,-9.710380554199219
1763691412898839000,4.082839111328125,1.1376934051513672,-0.6071115136146545,-9.721494674682617
1763691412908918500,4.09291845703125,1.0627752542495728,-0.5666674375534058,-9.732409477233887
1763691412918998300,4.102998291015625,0.9868670105934143,-0.5147682428359985,-9.743279457092285
1763691412929011700,4.11301171875,0.9099997878074646,-0.457416832447052,-9.753617286682129
1763691412939091200,4.12309130859375,0.8293839693069458,-0.3988044261932373,-9.763373374938965
1763691412949170700,4.133170654296875,0.7451490759849548,-0.3418872654438019,-9.772319793701172
1763691412959290600,4.14329052734375,0.6610202193260193,-0.2867510914802551,-9.780143737792969
1763691412969370000,4.1533701171875,0.581584095954895,-0.23341143131256104,-9.786606788635254
1763691412979449600,4.16344970703125,0.5067357420921326,-0.1803486943244934,-9.791888236999512
1763691412989514800,4.1735146484375,0.43486282229423523,-0.12737728655338287,-9.796175003051758
1763691412999594500,4.183594482421875,0.3670417070388794,-0.07569769024848938,-9.79948616027832
1763691413019776800,4.20377685546875,0.2549440562725067,0.02554147131741047,-9.803302764892578
1763691413029856300,4.213856201171875,0.2058757096529007,0.0770292580127716,-9.80418586730957
1763691413039935700,4.223935791015625,0.16004598140716553,0.12693336606025696,-9.804522514343262
1763691413049998600,4.23399853515625,0.11742763221263885,0.1750359833240509,-9.804384231567383
1763691413060078000,4.244078125,0.08215401321649551,0.21998868882656097,-9.803838729858398
1763691413070157800,4.25415771484375,0.05563843995332718,0.2600303888320923,-9.803044319152832
1763691413080827400,4.264827392578125,0.03413068503141403,0.2945634424686432,-9.802165985107422
1763691413090908000,4.274907958984375,0.01820826344192028,0.31935644149780273,-9.801431655883789
1763691413100988700,4.28498876953125,0.007203041575849056,0.33923831582069397,-9.800777435302734
1763691413111052500,4.295052490234375,0.00544719910249114,0.35928258299827576,-9.800065040588379
1763691413121133300,4.30513330078125,0.01775360107421875,0.3860771358013153,-9.799031257629395
1763691413131214000,4.315214111328125,0.03843140974640846,0.41856148838996887,-9.797637939453125
1763691413141294300,4.32529443359375,0.05703810229897499,0.4530615508556366,-9.796012878417969
1763691413151375000,4.335375,0.06475269049406052,0.48961225152015686,-9.794205665588379
1763691413161455900,4.345455810546875,0.05868178978562355,0.5324835777282715,-9.792006492614746
1763691413181031400,4.365031494140625,0.010428299196064472,0.612626850605011,-9.787489891052246
1763691413191112200,4.3751123046875,-0.029134076088666916,0.6447886824607849,-9.785386085510254
1763691413201208800,4.385208740234375,-0.07394567877054214,0.6581590175628662,-9.784260749816895
1763691413211289600,4.39528955078125,-0.1276952475309372,0.6483888626098633,-9.784358024597168
1763691413221370400,4.405370361328125,-0.18762877583503723,0.6161723732948303,-9.78547477722168
1763691413231427800,4.415427734375,-0.24493102729320526,0.5682072639465332,-9.787110328674316
1763691413241508600,4.425508544921875,-0.28988116979599,0.5141594409942627,-9.788870811462402
1763691413251589400,4.43558935546875,-0.31847649812698364,0.45707836747169495,-9.790814399719238
1763691413261680400,4.445680419921875,-0.33326542377471924,0.39287224411964417,-9.793108940124512
1763691413271761200,4.45576123046875,-0.34450894594192505,0.31597763299942017,-9.795501708984375
1763691413281842000,4.465842041015625,-0.36872556805610657,0.22149226069450378,-9.797212600708008
1763691413291856000,4.47585595703125,-0.414538711309433,0.11098933964967728,-9.797255516052246
1763691413301936600,4.4859365234375,-0.4797537326812744,-0.012060674838721752,-9.794900894165039
1763691413312017200,4.49601708984375,-0.5650296211242676,-0.13753633201122284,-9.789392471313477
1763691413322109700,4.506109619140625,-0.672935962677002,-0.259674072265625,-9.780088424682617
1763691413332190500,4.5161904296875,-0.8018290996551514,-0.3861211836338043,-9.766185760498047
1763691413342271200,4.526271240234375,-0.9500942230224609,-0.5320504903793335,-9.746005058288574
1763691413352368600,4.53636865234375,-1.1191785335540771,-0.7073516249656677,-9.716865539550781
1763691413362449400,4.546449462890625,-1.2957900762557983,-0.9061077833175659,-9.678340911865234
1763691413372530200,4.5565302734375,-1.4611872434616089,-1.1151952743530273,-9.632843017578125
1763691413382605600,4.56660546875,-1.6038947105407715,-1.3234272003173828,-9.58365535736084
1763691413392686300,4.576686279296875,-1.7158080339431763,-1.5219290256500244,-9.534680366516113
1763691413402767000,4.58676708984375,-1.7881689071655273,-1.7126511335372925,-9.488924026489258
1763691413412881000,4.596880859375,-1.8280459642410278,-1.8916088342666626,-9.447245597839355
1763691413422961700,4.606961669921875,-1.842246413230896,-2.0031638145446777,-9.421456336975098
1763691413433042400,4.61704248046875,-1.8457472324371338,-2.032311201095581,-9.41452693939209
1763691413443092700,4.6270927734375,-1.8732424974441528,-2.0534441471099854,-9.404504776000977
1763691413453173200,4.63717333984375,-1.9509638547897339,-2.1247706413269043,-9.372804641723633
1763691413463254000,4.64725390625,-2.080397844314575,-2.2505369186401367,-9.31544017791748
1763691413473356800,4.657356689453125,-2.2444827556610107,-2.4101014137268066,-9.237104415893555
1763691413483437600,4.6674375,-2.400270462036133,-2.5763070583343506,-9.152689933776855
1763691413493518300,4.677518310546875,-2.517657995223999,-2.7260091304779053,-9.07748031616211
1763691413503546600,4.687546630859375,-2.5837607383728027,-2.8498432636260986,-9.020695686340332
1763691413513627400,4.69762744140625,-2.6045985221862793,-2.959362268447876,-8.979344367980957
1763691413523708000,4.7077080078125,-2.594341278076172,-3.0664658546447754,-8.946316719055176
1763691413533789200,4.7177890625,-2.5599145889282227,-3.1805436611175537,-8.916354179382324
1763691413543870000,4.727869873046875,-2.5117170810699463,-3.3004467487335205,-8.886434555053711
1763691413553950700,4.73795068359375,-2.4587836265563965,-3.42279052734375,-8.854901313781738
1763691413564042000,4.7480419921875,-2.4011363983154297,-3.5438573360443115,-8.823039054870605
1763691413574122800,4.758122802734375,-2.343266010284424,-3.6594090461730957,-8.79137134552002
1763691413584203500,4.76820361328125,-2.2889530658721924,-3.7580490112304688,-8.764026641845703
1763691413594297000,4.778297119140625,-2.2123985290527344,-3.8156723976135254,-8.75878620147705
1763691413604377900,4.7883779296875,-2.099339485168457,-3.8420615196228027,-8.775063514709473
1763691413614458600,4.798458740234375,-1.9743096828460693,-3.8752899169921875,-8.789460182189941
1763691413624552200,4.80855224609375,-1.8481042385101318,-3.9185914993286133,-8.797700881958008
1763691413634633000,4.818633056640625,-1.7229775190353394,-3.961352586746216,-8.803942680358887
1763691413644713700,4.828713623046875,-1.6123368740081787,-4.0049967765808105,-8.805154800415039
1763691413654764300,4.838764404296875,-1.5140595436096191,-4.062361717224121,-8.796319007873535
1763691413664844800,4.8488447265625,-1.427016258239746,-4.148642539978027,-8.770563125610352
1763691413674925600,4.858925537109375,-1.3549997806549072,-4.270977020263672,-8.723136901855469
1763691413685032200,4.8690322265625,-1.2978596687316895,-4.430928707122803,-8.651752471923828
1763691413695113000,4.879113037109375,-1.2463213205337524,-4.623324394226074,-8.558149337768555
1763691413705193500,4.889193359375,-1.1916307210922241,-4.830474853515625,-8.45085334777832
1763691413715229000,4.89922900390625,-1.1255481243133545,-5.025554180145264,-8.345498085021973
1763691413725309400,4.909309326171875,-1.041926383972168,-5.200738430023193,-8.248459815979004
1763691413735390200,4.91939013671875,-0.9447489976882935,-5.364354610443115,-8.154847145080566
1763691413745451500,4.929451416015625,-0.8335506319999695,-5.520984649658203,-8.061904907226562
1763691413755532300,4.9395322265625,-0.7120164632797241,-5.665205478668213,-7.973008155822754
1763691413765613000,4.949613037109375,-0.5940219163894653,-5.791082859039307,-7.891822814941406
1763691413775701200,4.959701171875,-0.47655028104782104,-5.9010396003723145,-7.817993640899658
1763691413785782000,4.969781982421875,-0.3500601053237915,-6.003305912017822,-7.746492862701416
1763691413795862800,4.97986279296875,-0.21692311763763428,-6.10156774520874,-7.674255847930908
1763691413805981200,4.989981201171875,-0.08459968119859695,-6.192296028137207,-7.603860855102539
1763691413816062000,5.00006201171875,0.041716378182172775,-6.272881507873535,-7.537877559661865
1763691413826142700,5.010142822265625,0.15422001481056213,-6.348278522491455,-7.473014831542969
1763691413836173600,5.020173583984375,0.2515229284763336,-6.4263596534729,-7.403311729431152
1763691413846254000,5.030254150390625,0.33365598320961,-6.5162153244018555,-7.3210649490356445
1763691413856334800,5.0403349609375,0.40151873230934143,-6.618742942810059,-7.22505521774292
1763691413866476500,5.0504765625,0.45101600885391235,-6.731532573699951,-7.117123603820801
1763691413876557300,5.060557373046875,0.47988361120224,-6.845749855041504,-7.005412578582764
1763691413886638000,5.07063818359375,0.49120813608169556,-6.957505226135254,-6.893636703491211
1763691413896696800,5.08069677734375,0.4853418469429016,-7.06669807434082,-6.78208065032959
1763691413906777600,5.090777587890625,0.461497962474823,-7.173197269439697,-6.6710309982299805
1763691413916858000,5.100858154296875,0.4263173043727875,-7.276890754699707,-6.560144424438477
1763691413926890800,5.110890869140625,0.38552963733673096,-7.378756999969482,-6.4479217529296875
1763691413947052300,5.13105224609375,0.2971840798854828,-7.584152698516846,-6.20988655090332
1763691413957179000,5.141178955078125,0.2562170624732971,-7.681029319763184,-6.091512680053711
1763691413967259600,5.151259765625,0.22599783539772034,-7.77022647857666,-5.978536128997803
1763691413977340400,5.16134033203125,0.20945312082767487,-7.853816986083984,-5.868908405303955
1763691413987420400,5.17142041015625,0.21020843088626862,-7.937031269073486,-5.755842208862305
1763691413997501200,5.181501220703125,0.2268853485584259,-8.023730278015137,-5.633707046508789
1763691414007581700,5.191581787109375,0.2519785761833191,-8.114643096923828,-5.500860214233398
1763691414017622000,5.2016220703125,0.2873833179473877,-8.208331108093262,-5.358272552490234
1763691414027702800,5.211702880859375,0.3353944420814514,-8.29848575592041,-5.214694023132324
1763691414047840500,5.231840576171875,0.4548284113407135,-8.457221031188965,-4.943575382232666
1763691414057921300,5.24192138671875,0.5170629024505615,-8.521929740905762,-4.82490873336792
1763691414068001800,5.252001708984375,0.5790632963180542,-8.580307960510254,-4.713107585906982
1763691414078203600,5.26220361328125,0.6503927707672119,-8.633321762084961,-4.605771541595459
1763691414088284400,5.272284423828125,0.7349979877471924,-8.67913818359375,-4.505854606628418
1763691414098365200,5.282365234375,0.819495439529419,-8.72024154663086,-4.410918235778809
1763691414108313600,5.292313720703125,0.8800348043441772,-8.759466171264648,-4.320611000061035
1763691414118392800,5.302392822265625,0.903496265411377,-8.802264213562012,-4.227791786193848
1763691414138579700,5.322579833984375,0.8508076071739197,-8.90871524810791,-4.010149955749512
1763691414148659000,5.332658935546875,0.8016563653945923,-8.97366714477539,-3.8731162548065186
1763691414158738200,5.34273828125,0.7501580119132996,-9.042064666748047,-3.7213854789733887
1763691414168795600,5.352795654296875,0.7048187255859375,-9.108098983764648,-3.5659685134887695
1763691414178875000,5.362875,0.6634495258331299,-9.165996551513672,-3.4226815700531006
1763691414188954000,5.3729541015625,0.6180171966552734,-9.213918685913086,-3.3003265857696533
1763691414199078000,5.383077880859375,0.5622041821479797,-9.252790451049805,-3.2000300884246826
1763691414209157000,5.3931572265625,0.495915025472641,-9.281865119934082,-3.125930070877075
1763691414219236400,5.403236328125,0.4238036274909973,-9.300582885742188,-3.0805749893188477
1763691414229315600,5.413315673828125,0.34880292415618896,-9.31336498260498,-3.051222801208496
1763691414239372300,5.423372314453125,0.2664155066013336,-9.32343578338623,-3.0286900997161865
1763691414249451500,5.433451416015625,0.17254741489887238,-9.33148193359375,-3.0106587409973145
1763691414259530800,5.44353076171875,0.0712340921163559,-9.337130546569824,-2.997218132019043
1763691414269593900,5.45359375,-0.03143947571516037,-9.341594696044922,-2.9839584827423096
1763691414279673000,5.463673095703125,-0.1346399188041687,-9.347308158874512,-2.9631218910217285
1763691414289752300,5.47375244140625,-0.24238088726997375,-9.352917671203613,-2.938462734222412
1763691414299834400,5.48383447265625,-0.3461380898952484,-9.357403755187988,-2.913684129714966
1763691414309913600,5.49391357421875,-0.41956156492233276,-9.362834930419922,-2.886464834213257
1763691414319992800,5.503992919921875,-0.4647221863269806,-9.368535995483398,-2.860936164855957
1763691414330077000,5.514076904296875,-0.49712830781936646,-9.369497299194336,-2.8523271083831787
1763691414340156000,5.524156005859375,-0.49260905385017395,-9.36880874633789,-2.8553714752197266
1763691414350235400,5.5342353515625,-0.4469369947910309,-9.372722625732422,-2.850037097930908
1763691414360289300,5.544289306640625,-0.3763590455055237,-9.376664161682129,-2.8472681045532227
1763691414370368500,5.554368408203125,-0.30338409543037415,-9.374287605285645,-2.8637497425079346
1763691414380447700,5.56444775390625,-0.2522198557853699,-9.369036674499512,-2.885812759399414
1763691414391169300,5.575169189453125,-0.23064696788787842,-9.366183280944824,-2.8968582153320312
1763691414401248500,5.58524853515625,-0.2351495325565338,-9.366067886352539,-2.8968710899353027
1763691414411327700,5.59532763671875,-0.2480238676071167,-9.364775657653809,-2.899972677230835
1763691414421431300,5.605431396484375,-0.2556532323360443,-9.361369132995605,-2.910292863845825
1763691414431510500,5.615510498046875,-0.25414562225341797,-9.357524871826172,-2.922757625579834
1763691414441589800,5.62558984375,-0.2467571347951889,-9.3552885055542,-2.930542469024658
1763691414461144000,5.64514404296875,-0.2404947280883789,-9.355767250061035,-2.9295382499694824
1763691414471223300,5.655223388671875,-0.25043830275535583,-9.355956077575684,-2.9280967712402344
1763691414481348600,5.6653486328125,-0.2692468762397766,-9.355722427368164,-2.9271774291992188
1763691414491427800,5.675427734375,-0.29297682642936707,-9.356000900268555,-2.924004554748535
1763691414501507000,5.685507080078125,-0.3167557716369629,-9.357331275939941,-2.917259454727173
1763691414511531000,5.695531005859375,-0.3354673385620117,-9.35951042175293,-2.9081621170043945
1763691414521610200,5.7056103515625,-0.34551340341567993,-9.36240291595459,-2.897658586502075
1763691414531689500,5.715689453125,-0.3482939600944519,-9.366068840026855,-2.885451316833496
1763691414541730000,5.72572998046875,-0.35035914182662964,-9.37058162689209,-2.8705127239227295
1763691414551809300,5.735809326171875,-0.3567034602165222,-9.375469207763672,-2.8537232875823975
1763691414561888500,5.745888427734375,-0.3695063591003418,-9.380117416381836,-2.8367676734924316
1763691414572000300,5.756000244140625,-0.39328205585479736,-9.384478569030762,-2.819091796875
1763691414582079200,5.766079345703125,-0.42832669615745544,-9.38852596282959,-2.800448179244995
1763691414592158700,5.77615869140625,-0.4689663052558899,-9.392158508300781,-2.7816920280456543
1763691414602229500,5.7862294921875,-0.5086127519607544,-9.395999908447266,-2.761681318283081
1763691414612308700,5.796308837890625,-0.5453961491584778,-9.400856971740723,-2.7380306720733643
1763691414622388000,5.806387939453125,-0.581707775592804,-9.406476020812988,-2.7111310958862305
1763691414632470000,5.816469970703125,-0.6198910474777222,-9.41223430633545,-2.682529926300049
1763691414642549200,5.82654931640625,-0.6596238017082214,-9.418140411376953,-2.652151107788086
1763691414652628500,5.83662841796875,-0.6955189108848572,-9.425172805786133,-2.6177785396575928
1763691414662715000,5.84671484375,-0.7270476818084717,-9.432951927185059,-2.5809316635131836
1763691414672794000,5.856794189453125,-0.7520585656166077,-9.44243049621582,-2.5387609004974365
1763691414682873300,5.866873291015625,-0.7733495235443115,-9.456060409545898,-2.480975389480591
1763691414692988700,5.87698876953125,-0.8039054870605469,-9.47408390045166,-2.401219129562378
1763691414703068000,5.88706787109375,-0.8426148891448975,-9.494935035705566,-2.303602695465088
1763691414713147100,5.897147216796875,-0.8882247805595398,-9.511249542236328,-2.2175581455230713
1763691414723187700,5.907187744140625,-0.9343572854995728,-9.520978927612305,-2.155996561050415
1763691414733267000,5.917266845703125,-0.9722731113433838,-9.528056144714355,-2.1074211597442627
1763691414743346200,5.92734619140625,-1.0102577209472656,-9.531064987182617,-2.075713872909546
1763691414753430800,5.9374306640625,-1.0625594854354858,-9.528092384338379,-2.0632030963897705
1763691414763510000,5.947510009765625,-1.1261796951293945,-9.520744323730469,-2.0633766651153564
1763691414773589200,5.95758935546875,-1.1875627040863037,-9.5120267868042,-2.069160223007202
1763691414783669000,5.9676689453125,-1.2412062883377075,-9.502923965454102,-2.0794785022735596
1763691414793748200,5.977748291015625,-1.278090476989746,-9.493499755859375,-2.1000795364379883
1763691414803827500,5.987827392578125,-1.2779823541641235,-9.484997749328613,-2.1382181644439697
1763691414813920800,5.997920654296875,-1.2343153953552246,-9.481547355651855,-2.178786516189575
1763691414824000000,6.008,-1.1572895050048828,-9.482734680175781,-2.2155795097351074
1763691414834079200,6.018079345703125,-1.0747147798538208,-9.483610153198242,-2.2531096935272217
1763691414844142300,6.028142333984375,-1.0106606483459473,-9.481122016906738,-2.292876720428467
1763691414854221600,6.0382216796875,-0.9706456661224365,-9.476869583129883,-2.327483654022217
1763691414864300800,6.04830078125,-0.9456884860992432,-9.47305679321289,-2.353139638900757
1763691414874386000,6.058385986328125,-0.9265072345733643,-9.470292091369629,-2.3718230724334717
1763691414884465200,6.068465087890625,-0.9063965082168579,-9.468897819519043,-2.3851189613342285
1763691414894544400,6.07854443359375,-0.8729885816574097,-9.471214294433594,-2.3883819580078125
1763691414904627500,6.08862744140625,-0.8209680318832397,-9.477580070495605,-2.3815689086914062
1763691414914706700,6.098706787109375,-0.7467908263206482,-9.486658096313477,-2.369809865951538
1763691414924786000,6.108785888671875,-0.6481267809867859,-9.499143600463867,-2.348738431930542
1763691414934856200,6.118856201171875,-0.5305265784263611,-9.51350212097168,-2.319960117340088
1763691414944935400,6.128935302734375,-0.40008482336997986,-9.527076721191406,-2.2902257442474365
1763691414955014700,6.1390146484375,-0.25416484475135803,-9.537834167480469,-2.2661631107330322
1763691414965101300,6.149101318359375,-0.09522075951099396,-9.543379783630371,-2.2550458908081055
1763691414975180500,6.1591806640625,0.07593122124671936,-9.540483474731445,-2.267990827560425
1763691414985259800,6.169259765625,0.2805924117565155,-9.528149604797363,-2.303478956222534
1763691414995311400,6.179311279296875,0.5214338302612305,-9.50955581665039,-2.338128089904785
1763691415005390600,6.189390625,0.7738624811172485,-9.48671817779541,-2.360869884490967
1763691415015469800,6.1994697265625,0.9985077381134033,-9.465024948120117,-2.363611936569214
1763691415025576000,6.209575927734375,1.1812762022018433,-9.448487281799316,-2.345432758331299
1763691415035655200,6.2196552734375,1.314388632774353,-9.437346458435059,-2.3193225860595703
1763691415045734400,6.229734375,1.407394528388977,-9.429855346679688,-2.2950925827026367
1763691415055800600,6.239800537109375,1.474001407623291,-9.424281120300293,-2.27609920501709
1763691415065879800,6.2498798828125,1.5187052488327026,-9.41988754272461,-2.264871597290039
1763691415075959000,6.259958984375,1.5468883514404297,-9.415792465209961,-2.262826442718506
1763691415086041600,6.27004150390625,1.5751806497573853,-9.40859317779541,-2.273231267929077
1763691415096120800,6.280120849609375,1.6158043146133423,-9.395562171936035,-2.298468589782715
1763691415106200000,6.290199951171875,1.6687421798706055,-9.377874374389648,-2.3326315879821777
1763691415116305000,6.300304931640625,1.7348099946975708,-9.357275009155273,-2.3669049739837646
1763691415126384000,6.310384033203125,1.8094853162765503,-9.335675239562988,-2.3961048126220703
1763691415136463600,6.320463623046875,1.8860032558441162,-9.315141677856445,-2.4169247150421143
1763691415146541000,6.330541015625,1.960186243057251,-9.296265602111816,-2.430539846420288
1763691415156620500,6.34062060546875,2.0264716148376465,-9.277811050415039,-2.4466376304626465
1763691415166699800,6.35069970703125,2.0763065814971924,-9.259552955627441,-2.4738683700561523
1763691415176778000,6.360778076171875,2.1121885776519775,-9.242107391357422,-2.508484363555908
1763691415186857500,6.370857421875,2.137594223022461,-9.226227760314941,-2.5451502799987793
1763691415196937000,6.38093701171875,2.150524377822876,-9.213446617126465,-2.580317497253418
1763691415207026700,6.391026611328125,2.149808168411255,-9.204537391662598,-2.6125080585479736
1763691415217106200,6.401106201171875,2.136596202850342,-9.199845314025879,-2.6397321224212646
1763691415227185700,6.411185546875,2.114297389984131,-9.199498176574707,-2.658830165863037
1763691415237219800,6.4212197265625,2.0825355052948,-9.20368480682373,-2.669387102127075
1763691415247299000,6.431299072265625,2.0399160385131836,-9.211225509643555,-2.6762797832489014
1763691415257378600,6.441378662109375,1.98944890499115,-9.22081470489502,-2.681244134902954
1763691415267517700,6.451517578125,1.93290376663208,-9.233652114868164,-2.678424596786499
1763691415277597000,6.461596923828125,1.8752161264419556,-9.25032901763916,-2.6618356704711914
1763691415287676400,6.471676513671875,1.821176290512085,-9.27030086517334,-2.629680871963501
1763691415297678000,6.481677978515625,1.7755379676818848,-9.291994094848633,-2.583930015563965
1763691415307757300,6.49175732421875,1.7373980283737183,-9.314682960510254,-2.5275535583496094
1763691415317836800,6.5018369140625,1.7080475091934204,-9.337482452392578,-2.4625964164733887
1763691415327958300,6.511958251953125,1.686779260635376,-9.359149932861328,-2.3940505981445312
1763691415338037500,6.52203759765625,1.668197751045227,-9.379012107849121,-2.3284378051757812
1763691415348117000,6.532116943359375,1.6505448818206787,-9.398371696472168,-2.262014150619507
1763691415358211300,6.54221142578125,1.6365759372711182,-9.417720794677734,-2.190553665161133
1763691415368290800,6.552290771484375,1.6220587491989136,-9.438289642333984,-2.1114003658294678
1763691415378370300,6.562370361328125,1.6023074388504028,-9.460580825805664,-2.0249457359313965
1763691415388430000,6.57243017578125,1.5766520500183105,-9.482734680175781,-1.9396661520004272
1763691415398509300,6.58250927734375,1.5497987270355225,-9.501870155334473,-1.8662738800048828
1763691415408588800,6.5925888671875,1.5271034240722656,-9.516578674316406,-1.8091620206832886
1763691415418695000,6.60269482421875,1.512280821800232,-9.526082992553711,-1.7711962461471558
1763691415428774400,6.6127744140625,1.5043983459472656,-9.530577659606934,-1.753641963005066
1763691415438853600,6.622853515625,1.4978805780410767,-9.531883239746094,-1.7521240711212158
1763691415448915200,6.632915283203125,1.4797579050064087,-9.53403377532959,-1.7558200359344482
1763691415458994700,6.64299462890625,1.4362307786941528,-9.54129695892334,-1.752508282661438
1763691415469074000,6.653073974609375,1.3643149137496948,-9.555659294128418,-1.7315917015075684
1763691415479133400,6.663133544921875,1.2691179513931274,-9.576704978942871,-1.6871447563171387
1763691415489213000,6.673212890625,1.1707440614700317,-9.601879119873047,-1.6135860681533813
1763691415499292200,6.683292236328125,1.097619891166687,-9.627462387084961,-1.509166955947876
1763691415509363200,6.69336328125,1.0652010440826416,-9.651395797729492,-1.373417615890503
1763691415519442700,6.703442626953125,1.0837628841400146,-9.671830177307129,-1.2047960758209229
1763691415529522200,6.713522216796875,1.151327133178711,-9.686524391174316,-1.0080102682113647
1763691415539620600,6.72362060546875,1.226841926574707,-9.69739055633545,-0.7911081314086914
1763691415549700000,6.7337001953125,1.268271803855896,-9.708600997924805,-0.552204430103302
1763691415559779300,6.743779296875,1.2677946090698242,-9.718863487243652,-0.3267822265625
1763691415569869800,6.753869873046875,1.2144958972930908,-9.73009204864502,-0.14387959241867065
1763691415579949000,6.763948974609375,1.120195984840393,-9.74245548248291,0.011590569280087948
1763691415590028500,6.774028564453125,1.0074472427368164,-9.753552436828613,0.15376049280166626
1763691415600714000,6.7847138671875,0.8834876418113708,-9.762103080749512,0.30199432373046875
1763691415610793500,6.79479345703125,0.7884502410888672,-9.76401138305664,0.46132245659828186
1763691415620873000,6.804873046875,0.7423012852668762,-9.757316589355469,0.643538236618042
1763691415630930700,6.8149306640625,0.7170047760009766,-9.747618675231934,0.8001412153244019
1763691415641010200,6.82501025390625,0.6705700159072876,-9.74323558807373,0.8888692855834961
1763691415651089400,6.83508935546875,0.614270031452179,-9.742962837219238,0.9315187335014343
1763691415661181400,6.845181396484375,0.5572661757469177,-9.742111206054688,0.9752475619316101
1763691415671261000,6.855260986328125,0.4908697307109833,-9.738931655883789,1.0405056476593018
1763691415681340200,6.865340087890625,0.4091181457042694,-9.733099937438965,1.1268494129180908
1763691415691430400,6.875430419921875,0.31901776790618896,-9.72465705871582,1.2246049642562866
1763691415701509600,6.885509521484375,0.22971296310424805,-9.713478088378906,1.3288923501968384
1763691415711589000,6.895589111328125,0.143059641122818,-9.699823379516602,1.4364389181137085
1763691415731110400,6.9151103515625,-0.001652208506129682,-9.667290687561035,1.6473782062530518
1763691415741190000,6.92518994140625,-0.044733043760061264,-9.648468971252441,1.753691554069519
1763691415751283000,6.935282958984375,-0.07018259167671204,-9.629504203796387,1.854211688041687
1763691415761362400,6.945362548828125,-0.07552463561296463,-9.612476348876953,1.940354824066162
1763691415771442000,6.95544189453125,-0.06591742485761642,-9.597929954528809,2.0114073753356934
1763691415781526000,6.965526123046875,-0.057906877249479294,-9.5850830078125,2.0720136165618896
1763691415791605200,6.975605224609375,-0.06445726752281189,-9.573583602905273,2.1243207454681396
1763691415801684700,6.985684814453125,-0.08755296468734741,-9.563690185546875,2.167614459991455
1763691415811731200,6.995731201171875,-0.1250433474779129,-9.555621147155762,2.2011055946350098
1763691415821810700,7.005810791015625,-0.17253467440605164,-9.55064582824707,2.2194125652313232
1763691415842022700,7.026022705078125,-0.28269678354263306,-9.544876098632812,2.232893228530884
1763691415852102100,7.03610205078125,-0.3314845860004425,-9.540539741516113,2.2446866035461426
1763691415862181400,7.046181396484375,-0.3868393301963806,-9.535078048706055,2.2589869499206543
1763691415872267300,7.056267333984375,-0.4444209337234497,-9.529757499694824,2.270817756652832
1763691415882346800,7.0663466796875,-0.5010532140731812,-9.524077415466309,2.2828214168548584
1763691415892426000,7.076426025390625,-0.5591946840286255,-9.517633438110352,2.296156644821167
1763691415902495000,7.086494873046875,-0.6194392442703247,-9.510018348693848,2.3121907711029053
1763691415912574500,7.096574462890625,-0.6817129254341125,-9.50069808959961,2.332892417907715
1763691415922653700,7.10665380859375,-0.745402991771698,-9.488910675048828,2.3612160682678223
1763691415932729900,7.116729736328125,-0.8099178671836853,-9.473037719726562,2.4033241271972656
1763691415942809300,7.126809326171875,-0.8738390207290649,-9.45178508758545,2.463848352432251
1763691415952888600,7.136888671875,-0.9431474208831787,-9.427913665771484,2.5288949012756348
1763691415962962200,7.146962158203125,-1.0204458236694336,-9.402981758117676,2.5909500122070312
1763691415973041400,7.15704150390625,-1.0976741313934326,-9.377872467041016,2.649717330932617
1763691415983121000,7.167120849609375,-1.1710125207901,-9.352885246276855,2.7060418128967285
1763691415993206500,7.17720654296875,-1.241816759109497,-9.328617095947266,2.757747173309326
1763691416003285800,7.18728564453125,-1.3096320629119873,-9.305455207824707,2.804238796234131
1763691416013365200,7.197365234375,-1.3708144426345825,-9.283638954162598,2.8469791412353516
1763691416023444700,7.20744482421875,-1.4230659008026123,-9.263556480407715,2.8864822387695312
1763691416033524200,7.217524169921875,-1.463939905166626,-9.24559497833252,2.9233946800231934
1763691416043603500,7.227603515625,-1.489996075630188,-9.230415344238281,2.957994222640991
1763691416053660700,7.23766064453125,-1.5064895153045654,-9.219286918640137,2.984232187271118
1763691416063740000,7.247739990234375,-1.5168875455856323,-9.21246337890625,2.9999938011169434
1763691416073819400,7.2578193359375,-1.5170103311538696,-9.208282470703125,3.0127389430999756
1763691416083929300,7.267929443359375,-1.508646845817566,-9.205595016479492,3.0251264572143555
1763691416094008800,7.2780087890625,-1.4971431493759155,-9.204154014587402,3.0352118015289307
1763691416104088000,7.288088134765625,-1.4804887771606445,-9.204373359680176,3.042705535888672
1763691416114148600,7.298148681640625,-1.4560691118240356,-9.206122398376465,3.0491905212402344
1763691416124227800,7.308227783203125,-1.4247065782546997,-9.208539009094238,3.0567004680633545
1763691416134307300,7.318307373046875,-1.3842953443527222,-9.211759567260742,3.0655505657196045
1763691416144398000,7.328398193359375,-1.3284703493118286,-9.216850280761719,3.074934720993042
1763691416154477600,7.3384775390625,-1.2528446912765503,-9.22403621673584,3.085113763809204
1763691416164556800,7.348556884765625,-1.1551085710525513,-9.233207702636719,3.09580135345459
1763691416174683600,7.35868359375,-1.030862808227539,-9.24512004852295,3.1041040420532227
1763691416184763000,7.368762939453125,-0.8747789859771729,-9.260775566101074,3.105347156524658
1763691416194842400,7.37884228515625,-0.6743807196617126,-9.2821626663208,3.091449022293091
1763691416204891000,7.388890869140625,-0.42252111434936523,-9.308886528015137,3.0555691719055176
1763691416214970400,7.398970458984375,-0.1389344334602356,-9.336823463439941,2.995795249938965
1763691416225049600,7.409049560546875,0.14432820677757263,-9.362886428833008,2.913060188293457
1763691416235115500,7.419115478515625,0.43510282039642334,-9.385623931884766,2.8091180324554443
1763691416245194800,7.42919482421875,0.7393997311592102,-9.402998924255371,2.6846396923065186
1763691416255274200,7.439274169921875,1.028971791267395,-9.413628578186035,2.548569440841675
1763691416265334300,7.449334228515625,1.2871946096420288,-9.415535926818848,2.4209892749786377
1763691416275413800,7.459413818359375,1.5234516859054565,-9.408510208129883,2.3085529804229736
1763691416285493000,7.469492919921875,1.7472916841506958,-9.394515991210938,2.2046375274658203
1763691416295586600,7.479586669921875,1.9623851776123047,-9.37644100189209,2.0980417728424072
1763691416305666000,7.489666015625,2.1696035861968994,-9.355486869812012,1.9844595193862915
1763691416315745300,7.499745361328125,2.3675312995910645,-9.331745147705078,1.8664697408676147
1763691416325846800,7.5098466796875,2.5554230213165283,-9.305671691894531,1.7448947429656982
1763691416335926000,7.519926025390625,2.7333202362060547,-9.277793884277344,1.6192306280136108
1763691416346005500,7.530005615234375,2.900390625,-9.248795509338379,1.4892572164535522
1763691416356010800,7.5400107421875,3.051344633102417,-9.22053337097168,1.3570048809051514
1763691416366090200,7.55009033203125,3.187059164047241,-9.192948341369629,1.2258634567260742
1763691416376169700,7.560169677734375,3.31387996673584,-9.162225723266602,1.1145508289337158
1763691416386326000,7.570325927734375,3.4384710788726807,-9.126060485839844,1.0306997299194336
1763691416396405500,7.580405517578125,3.558600425720215,-9.087301254272461,0.9631733298301697
1763691416406485000,7.590485107421875,3.6705546379089355,-9.049078941345215,0.9008790850639343
1763691416416539400,7.600539306640625,3.769402503967285,-9.014452934265137,0.8376343846321106
1763691416426619000,7.610618896484375,3.8538999557495117,-8.984904289245605,0.7676855325698853
1763691416436698000,7.620697998046875,3.9230258464813232,-8.96125602722168,0.6900320649147034
1763691416446785500,7.63078564453125,3.9765725135803223,-8.94360065460205,0.607664942741394
1763691416456865000,7.640864990234375,4.016736030578613,-8.930804252624512,0.5262703895568848
1763691416466944300,7.6509443359375,4.046675682067871,-8.921380043029785,0.4514162838459015
1763691416477052400,7.661052490234375,4.065700531005859,-8.915807723999023,0.3857962489128113
1763691416487132000,7.6711318359375,4.07084846496582,-8.91560173034668,0.33259060978889465
1763691416497211100,7.681211181640625,4.059898853302002,-8.921982765197754,0.2929662764072418
1763691416507245300,7.691245361328125,4.031851768493652,-8.935525894165039,0.2663086950778961
1763691416517324800,7.70132470703125,3.98752498626709,-8.95582103729248,0.2515963315963745
1763691416527404000,7.711404052734375,3.9309580326080322,-8.980856895446777,0.24931764602661133
1763691416537480200,7.721480224609375,3.8662843704223633,-9.008598327636719,0.2595864534378052
1763691416547559700,7.7315595703125,3.7975339889526367,-9.037162780761719,0.2807256281375885
1763691416557639000,7.741638916015625,3.726515531539917,-9.065742492675781,0.3094852864742279
1763691416567695600,7.751695556640625,3.6546716690063477,-9.093735694885254,0.3431244194507599
1763691416577775000,7.761775146484375,3.583249807357788,-9.12063980102539,0.3803032636642456
1763691416587854300,7.771854248046875,3.511751651763916,-9.146714210510254,0.41908586025238037
1763691416598156300,7.78215625,3.434959888458252,-9.173898696899414,0.45938873291015625
1763691416608235800,7.79223583984375,3.3537299633026123,-9.20171070098877,0.5013986825942993
1763691416618315300,7.802315185546875,3.2696690559387207,-9.229589462280273,0.5425231456756592
1763691416628222000,7.812221923828125,3.1920299530029297,-9.255131721496582,0.5690927505493164
1763691416638301400,7.822301513671875,3.1245570182800293,-9.277989387512207,0.571344256401062
1763691416648381000,7.832380859375,3.0737438201904297,-9.296151161193848,0.5514159798622131
1763691416658449700,7.84244970703125,3.046297788619995,-9.307365417480469,0.5132290720939636
1763691416668529000,7.85252880859375,3.0539886951446533,-9.30784797668457,0.45552220940589905
1763691416678608400,7.8626083984375,3.0892493724823,-9.299426078796387,0.38420426845550537
1763691416688793000,7.87279296875,3.119424343109131,-9.291940689086914,0.31528934836387634
1763691416698872600,7.88287255859375,3.1248433589935303,-9.29166316986084,0.2659493684768677
1763691416708952000,7.8929521484375,3.1038825511932373,-9.299219131469727,0.2466239482164383
1763691416718914600,7.90291455078125,3.055931806564331,-9.31472110748291,0.2600423991680145
1763691416728994000,7.912994140625,2.975435495376587,-9.339468002319336,0.3025174140930176
1763691416739073300,7.9230732421875,2.8541131019592285,-9.375117301940918,0.3627680540084839
1763691416749140200,7.93314013671875,2.681638479232788,-9.423453330993652,0.4215678870677948
1763691416759219700,7.9432197265625,2.4622037410736084,-9.480892181396484,0.46970102190971375
1763691416769299200,7.95329931640625,2.2319605350494385,-9.535398483276367,0.5147010684013367
1763691416779364400,7.9633642578125,2.0434792041778564,-9.574478149414062,0.5691606402397156
1763691416789443600,7.973443603515625,1.9301632642745972,-9.594133377075195,0.6304427981376648
1763691416799523000,7.983523193359375,1.8801966905593872,-9.601305961608887,0.6709352135658264
1763691416809647000,7.993647216796875,1.858600378036499,-9.606158256530762,0.6616040468215942
1763691416819726600,8.0037265625,1.8304928541183472,-9.613870620727539,0.6270290017127991
1763691416829805800,8.013805908203125,1.7644544839859009,-9.626585006713867,0.621243953704834
1763691416839837700,8.023837646484376,1.6598788499832153,-9.641629219055176,0.6739322543144226
1763691416849917200,8.033917236328126,1.547407627105713,-9.65096378326416,0.7967444062232971
1763691416859996400,8.043996337890626,1.4583240747451782,-9.649097442626953,0.9688107371330261
1763691416870148600,8.054148681640624,1.3876556158065796,-9.641386032104492,1.1351120471954346
1763691416880227800,8.064227783203124,1.3016445636749268,-9.637093544006348,1.2659119367599487
1763691416890307300,8.074307373046874,1.181309461593628,-9.63784408569336,1.3736222982406616
1763691416900383200,8.08438330078125,1.0476551055908203,-9.640898704528809,1.45803701877594
1763691416910462500,8.09446240234375,0.9231552481651306,-9.644670486450195,1.5160892009735107
1763691416920542000,8.1045419921875,0.80568528175354,-9.649604797363281,1.5512537956237793
1763691416941275000,8.12527490234375,0.5793541073799133,-9.661267280578613,1.5794461965560913
1763691416951354000,8.13535400390625,0.48938876390457153,-9.665271759033203,1.5853760242462158
1763691416961418000,8.14541796875,0.41623663902282715,-9.666933059692383,1.5961041450500488
1763691416971497200,8.155497314453125,0.35887446999549866,-9.667442321777344,1.6069062948226929
1763691416981576700,8.16557666015625,0.313590407371521,-9.66783332824707,1.614013433456421
1763691417001144600,8.18514453125,0.24586334824562073,-9.668468475341797,1.6219255924224854
1763691417011224000,8.19522412109375,0.21898680925369263,-9.667354583740234,1.6323851346969604
1763691417021296600,8.205296630859374,0.18554337322711945,-9.664149284362793,1.6553497314453125
1763691417041455400,8.225455322265624,0.09103807061910629,-9.6527681350708,1.7280524969100952
1763691417051567000,8.235567138671875,0.036473311483860016,-9.647485733032227,1.7592822313308716
1763691417061646600,8.245646484375,-0.025606432929635048,-9.64054012298584,1.7971400022506714
1763691417071726000,8.25572607421875,-0.09508867561817169,-9.631298065185547,1.8437541723251343
1763691417081807000,8.26580712890625,-0.1705569177865982,-9.62055778503418,1.8937177658081055
1763691417091886300,8.27588623046875,-0.25057658553123474,-9.608627319335938,1.9447062015533447
1763691417101965800,8.2859658203125,-0.3346134126186371,-9.595005989074707,1.998570442199707
1763691417112039000,8.296038818359374,-0.4229797124862671,-9.579113960266113,2.057196617126465
1763691417122118100,8.3061181640625,-0.5154889225959778,-9.560851097106934,2.12009334564209
1763691417132197600,8.31619775390625,-0.6109668016433716,-9.540550231933594,2.185180425643921
1763691417142288600,8.32628857421875,-0.7063650488853455,-9.5194673538208,2.247480630874634
1763691417152368000,8.3363681640625,-0.7977842092514038,-9.498112678527832,2.306462287902832
1763691417162447400,8.346447265625,-0.880397379398346,-9.476950645446777,2.362774133682251
1763691417172481800,8.356481689453124,-0.948682427406311,-9.456928253173828,2.4159646034240723
1763691417182561300,8.366561279296874,-1.002650499343872,-9.438458442687988,2.465885877609253
1763691417202713000,8.386713134765625,-1.0706350803375244,-9.406876564025879,2.5563244819641113
1763691417212792300,8.396792236328125,-1.0886356830596924,-9.395673751831055,2.5897042751312256
1763691417222871800,8.406871826171875,-1.0988926887512207,-9.389446258544922,2.607893943786621
1763691417232926700,8.4169267578125,-1.1024894714355469,-9.388343811035156,2.610344648361206
1763691417243006200,8.427006103515625,-1.097236156463623,-9.392232894897461,2.598541736602783
1763691417253085400,8.43708544921875,-1.0814955234527588,-9.400338172912598,2.5757319927215576
1763691417263230700,8.447230712890626,-1.0535943508148193,-9.411666870117188,2.5457544326782227
1763691417273310200,8.457310302734374,-1.0142076015472412,-9.425337791442871,2.5109341144561768
1763691417283389400,8.467389404296876,-0.968463122844696,-9.440396308898926,2.4721198081970215
1763691417293452000,8.4774521484375,-0.918031632900238,-9.45528507232666,2.4341702461242676
1763691417303531300,8.48753125,-0.8484803438186646,-9.467820167541504,2.4105684757232666
1763691417313610800,8.49761083984375,-0.7369856834411621,-9.47680950164795,2.4119105339050293
1763691417323697400,8.507697509765626,-0.5742411613464355,-9.483481407165527,2.4298617839813232
1763691417333777000,8.51777685546875,-0.36890462040901184,-9.492298126220703,2.435279130935669
1763691417343856000,8.527856201171875,-0.13192421197891235,-9.508535385131836,2.3959832191467285
1763691417353927200,8.53792724609375,0.1280992180109024,-9.533904075622559,2.2931768894195557
1763691417364006400,8.54800634765625,0.4138476848602295,-9.562715530395508,2.1339097023010254
1763691417374086000,8.5580859375,0.7413247227668762,-9.583700180053711,1.9425543546676636
1763691417384193800,8.56819384765625,1.1081537008285522,-9.587589263916016,1.737961769104004
1763691417394273000,8.57827294921875,1.4736595153808594,-9.57169246673584,1.5431855916976929
1763691417414437000,8.59843701171875,2.080786943435669,-9.494244575500488,1.3038607835769653
1763691417424516600,8.6085166015625,2.335508108139038,-9.439401626586914,1.2702276706695557
1763691417434595800,8.618595947265625,2.573880434036255,-9.378385543823242,1.261513113975525
1763691417444645400,8.628645263671874,2.7938315868377686,-9.316661834716797,1.2508798837661743
1763691417454724900,8.638724853515624,2.995346784591675,-9.258731842041016,1.2141507863998413
1763691417464804000,8.64880419921875,3.1731677055358887,-9.209400177001953,1.1350599527359009
1763691417474895000,8.65889501953125,3.3255128860473633,-9.169020652770996,1.020003318786621
1763691417484974300,8.668974365234375,3.456861734390259,-9.133465766906738,0.8945895433425903
1763691417495053800,8.6790537109375,3.5755810737609863,-9.098240852355957,0.7795116901397705
1763691417505105700,8.689105712890624,3.688722610473633,-9.060773849487305,0.682695209980011
1763691417515185200,8.69918505859375,3.7990102767944336,-9.020370483398438,0.6089565753936768
1763691417525264400,8.709264404296874,3.9010722637176514,-8.979766845703125,0.5619693398475647
1763691417535318000,8.719318115234374,3.9888110160827637,-8.942848205566406,0.5340834856033325
1763691417545397200,8.729397216796874,4.058913707733154,-8.912785530090332,0.5077988505363464
1763691417555476700,8.739476806640624,4.11053466796875,-8.89138126373291,0.4660794734954834
1763691417565573400,8.749573486328124,4.145087242126465,-8.877839088439941,0.4154563546180725
1763691417575652900,8.75965283203125,4.162991523742676,-8.871437072753906,0.37080609798431396
1763691417585732000,8.769732177734374,4.164276123046875,-8.872320175170898,0.333356112241745
1763691417595836400,8.77983642578125,4.1529459953308105,-8.878788948059082,0.30091866850852966
1763691417605915600,8.78991552734375,4.133495330810547,-8.888632774353027,0.2771476209163666
1763691417615995100,8.7999951171875,4.106476783752441,-8.901451110839844,0.2672359049320221
1763691417626101000,8.81010107421875,4.070225715637207,-8.917936325073242,0.27212879061698914
1763691417636180200,8.82018017578125,4.024150848388672,-8.93829345703125,0.28898221254348755
1763691417646259700,8.830259765625,3.9683213233947754,-8.962370872497559,0.31421878933906555
1763691417656359000,8.84035888671875,3.9034204483032227,-8.989799499511719,0.34234774112701416
1763691417666438100,8.850438232421874,3.8287429809570312,-9.020865440368652,0.3675728142261505
1763691417676517600,8.860517578125,3.7436585426330566,-9.055745124816895,0.3858623802661896
1763691417686587100,8.870587158203126,3.6510555744171143,-9.092947006225586,0.39812079071998596
1763691417696666400,8.880666259765626,3.5564041137695312,-9.129974365234375,0.40736350417137146
1763691417706745900,8.890745849609376,3.4638237953186035,-9.165112495422363,0.4159678816795349
1763691417716799200,8.90079931640625,3.375896692276001,-9.197430610656738,0.42542627453804016
1763691417726878700,8.910878662109376,3.293872594833374,-9.226859092712402,0.4311016798019409
1763691417736958000,8.9209580078125,3.2192606925964355,-9.253216743469238,0.42980101704597473
1763691417747068200,8.931068115234375,3.150834083557129,-9.276728630065918,0.4300243854522705
1763691417757147600,8.941147705078125,3.0951778888702393,-9.294726371765137,0.4453411400318146
1763691417767227000,8.951226806640625,3.067601203918457,-9.302253723144531,0.47780221700668335
1763691417777270300,8.961270263671874,3.0807762145996094,-9.296066284179688,0.5122157335281372
1763691417787349500,8.971349609375,3.130581855773926,-9.278021812438965,0.5368021726608276
1763691417797429000,8.981428955078124,3.1895298957824707,-9.256808280944824,0.555679976940155
1763691417807517000,8.991516845703124,3.2252726554870605,-9.243155479431152,0.5762725472450256
1763691417817596400,9.001596435546874,3.219038963317871,-9.243762969970703,0.6008464097976685
1763691417827675600,9.011675537109374,3.169739007949829,-9.258694648742676,0.632238507270813
1763691417837777200,9.021777099609375,3.0810048580169678,-9.28613567352295,0.6674487590789795
1763691417847856400,9.0318564453125,2.9490840435028076,-9.326760292053223,0.6963019967079163
1763691417857936000,9.041935791015625,2.775710105895996,-9.377764701843262,0.7234227657318115
1763691417868083200,9.052083251953125,2.583472967147827,-9.429535865783691,0.7615299820899963
1763691417878162400,9.062162353515625,2.4115376472473145,-9.47100830078125,0.8092403411865234
1763691417898211600,9.082211669921875,2.1816225051879883,-9.520715713500977,0.8757216334342957
1763691417908291000,9.092291015625,2.1070172786712646,-9.539050102233887,0.8587000966072083
1763691417918370300,9.102370361328125,2.047138214111328,-9.555500030517578,0.8197798728942871
1763691417928482000,9.11248193359375,1.9748355150222778,-9.573203086853027,0.790054202079773
1763691417938561300,9.122561279296875,1.8688452243804932,-9.594220161437988,0.7929273843765259
1763691417948640800,9.132640869140625,1.7371089458465576,-9.61557674407959,0.8327773213386536
1763691417958741200,9.1427412109375,1.6008795499801636,-9.632352828979492,0.9084911942481995
1763691417968820700,9.15282080078125,1.4749506711959839,-9.642158508300781,1.0117701292037964
1763691417978900000,9.16289990234375,1.3568118810653687,-9.647310256958008,1.1219884157180786
1763691417988930000,9.172929931640626,1.2332156896591187,-9.651209831237793,1.226262092590332
1763691417999009500,9.183009521484376,1.0974677801132202,-9.655043601989746,1.3213880062103271
1763691418019166000,9.203166015625,0.8106849193572998,-9.663549423217773,1.4591047763824463
1763691418029245200,9.2132451171875,0.6682718992233276,-9.669130325317383,1.493894100189209
1763691418039324700,9.22332470703125,0.5315747261047363,-9.675121307373047,1.5099092721939087
1763691418049393700,9.2333935546875,0.40783971548080444,-9.679924964904785,1.5175999402999878
1763691418059473200,9.24347314453125,0.30094313621520996,-9.682770729064941,1.5243953466415405
1763691418069552400,9.253552490234375,0.21275903284549713,-9.684187889099121,1.5302374362945557
1763691418079678700,9.2636787109375,0.14656345546245575,-9.684736251831055,1.534535527229309
1763691418089758000,9.273758056640625,0.09815094619989395,-9.684858322143555,1.537621259689331
1763691418099837400,9.28383740234375,0.05873997136950493,-9.684776306152344,1.540138840675354
1763691418109883100,9.293883056640626,0.02430286630988121,-9.683977127075195,1.5460907220840454
1763691418119962400,9.30396240234375,-0.008995180949568748,-9.682008743286133,1.558531403541565
1763691418130041900,9.314041748046876,-0.04538465291261673,-9.67857551574707,1.5790841579437256
1763691418140139000,9.324138916015626,-0.08738498389720917,-9.673587799072266,1.6076258420944214
1763691418150218500,9.334218505859376,-0.13518103957176208,-9.667097091674805,1.6429669857025146
1763691418160297700,9.344297607421876,-0.18827752768993378,-9.659235954284668,1.6834831237792969
1763691418170410000,9.354409912109375,-0.2451568990945816,-9.650379180908203,1.7264026403427124
1763691418180489200,9.3644892578125,-0.3050627112388611,-9.64089584350586,1.769301176071167
1763691418190568700,9.374568603515625,-0.36868664622306824,-9.63064193725586,1.8125145435333252
1763691418200648000,9.38464794921875,-0.4378258287906647,-9.619099617004395,1.8578542470932007
1763691418211271700,9.395271728515626,-0.5171371698379517,-9.604702949523926,1.9111826419830322
1763691418221352200,9.405352294921874,-0.5974389314651489,-9.588284492492676,1.9693281650543213
1763691418231433000,9.415432861328124,-0.6827217936515808,-9.568913459777832,2.0347402095794678
1763691418250970600,9.434970703125,-0.8605676889419556,-9.52341079711914,2.1758809089660645
1763691418261051100,9.445051025390624,-0.9532276391983032,-9.495382308959961,2.2582013607025146
1763691418271214000,9.455214111328125,-1.0462967157363892,-9.464518547058105,2.3448948860168457
1763691418281294600,9.465294677734375,-1.136139154434204,-9.432703018188477,2.429750919342041
1763691418291375000,9.475375,-1.2198328971862793,-9.401572227478027,2.508549928665161
1763691418301376000,9.4853759765625,-1.2937095165252686,-9.372875213623047,2.577967643737793
1763691418311456800,9.495456787109376,-1.3541615009307861,-9.347064018249512,2.639890670776367
1763691418321537300,9.505537353515624,-1.395412564277649,-9.325364112854004,2.694586753845215
1763691418331655400,9.515655517578125,-1.4185822010040283,-9.307781219482422,2.7428488731384277
1763691418341736000,9.52573583984375,-1.4272139072418213,-9.293848037719727,2.785290241241455
1763691418351816400,9.53581640625,-1.4274548292160034,-9.28303337097168,2.82099986076355
1763691418361885700,9.5458857421875,-1.4234741926193237,-9.275252342224121,2.848473072052002
1763691418371966200,9.55596630859375,-1.416782021522522,-9.270368576049805,2.8676419258117676
1763691418382046700,9.566046630859375,-1.40831458568573,-9.267497062683105,2.8810648918151855
1763691418392110800,9.57611083984375,-1.399501085281372,-9.266083717346191,2.889893054962158
1763691418402191400,9.58619140625,-1.3874565362930298,-9.264985084533691,2.8992085456848145
1763691418412271900,9.59627197265625,-1.3657121658325195,-9.26321792602539,2.9151358604431152
1763691418422378000,9.6063779296875,-1.3345569372177124,-9.259634017944336,2.940837860107422
1763691418432458800,9.616458740234375,-1.2961174249649048,-9.25466537475586,2.973487615585327
1763691418442539300,9.626539306640625,-1.2481106519699097,-9.250298500061035,3.007424831390381
1763691418452589300,9.63658935546875,-1.1822341680526733,-9.248505592346191,3.039381980895996
1763691418462670000,9.646670166015625,-1.08992600440979,-9.24938678741455,3.0710413455963135
1763691418472750300,9.656750244140625,-0.9688892960548401,-9.253107070922852,3.100266695022583
1763691418482798000,9.666798095703125,-0.8174858093261719,-9.260672569274902,3.1212260723114014
1763691418492878600,9.676878662109376,-0.6255942583084106,-9.273458480834961,3.127614736557007
1763691418502959000,9.686958984375,-0.38144445419311523,-9.292069435119629,3.1116442680358887
1763691418513087000,9.6970869140625,-0.08809880167245865,-9.31422233581543,3.0672266483306885
1763691418523167500,9.70716748046875,0.22385308146476746,-9.33602523803711,2.9931435585021973
1763691418533248000,9.717248046875,0.537512481212616,-9.356508255004883,2.887425422668457
1763691418543318500,9.727318603515625,0.8569765090942383,-9.374336242675781,2.7491443157196045
1763691418553399000,9.73739892578125,1.17460036277771,-9.386552810668945,2.585214138031006
1763691418563479600,9.7474794921875,1.4646815061569214,-9.391494750976562,2.4134886264801025
1763691418573560000,9.75756005859375,1.7154934406280518,-9.389988899230957,2.248464345932007
1763691418583640800,9.767640869140624,1.931376338005066,-9.384754180908203,2.089630365371704
1763691418593721300,9.777721435546875,2.121048927307129,-9.377318382263184,1.933242678642273
1763691418603798000,9.787798095703126,2.28960919380188,-9.368144989013672,1.779306411743164
1763691418613878500,9.79787841796875,2.444823741912842,-9.356842994689941,1.625643253326416
1763691418623959000,9.807958984375,2.594590425491333,-9.342264175415039,1.469893455505371
1763691418634010400,9.81801025390625,2.7409920692443848,-9.323619842529297,1.314329743385315
1763691418644091100,9.828091064453124,2.885906219482422,-9.299675941467285,1.1653177738189697
1763691418654171600,9.838171630859375,3.031376600265503,-9.269010543823242,1.032760500907898
1763691418664281900,9.84828173828125,3.1775293350219727,-9.23166275024414,0.9220108985900879
1763691418674362600,9.858362548828126,3.319340229034424,-9.189990043640137,0.8345367908477783
1763691418684443100,9.868443115234374,3.4526302814483643,-9.146730422973633,0.7661924958229065
1763691418694569200,9.8785693359375,3.569978713989258,-9.106139183044434,0.7098526358604431
1763691418704649700,9.888649658203125,3.669180154800415,-9.070545196533203,0.6578212380409241
1763691418714730200,9.898730224609375,3.754821300506592,-9.039422988891602,0.6004575490951538
1763691418724722000,9.908721923828125,3.830235004425049,-9.011876106262207,0.534578800201416
1763691418734802400,9.918802490234375,3.898979663848877,-8.986473083496094,0.4600462317466736
1763691418744883000,9.928883056640625,3.9611282348632812,-8.96289348602295,0.3826008439064026
1763691418755009000,9.939009033203124,4.0188188552856445,-8.939979553222656,0.31023216247558594
1763691418765089500,9.949089599609374,4.071684837341309,-8.917877197265625,0.25145456194877625
1763691418775170000,9.959170166015625,4.11829948425293,-8.897494316101074,0.21117667853832245
1763691418785247200,9.969247314453124,4.154526710510254,-8.88110637664795,0.1903613656759262
1763691418795327700,9.97932763671875,4.175731182098389,-8.871268272399902,0.18509165942668915
1763691418805408300,9.989408203125,4.177771091461182,-8.870219230651855,0.18925650417804718
1763691418815455200,9.999455322265625,4.158660888671875,-8.879030227661133,0.19686639308929443
1763691418825535700,10.00953564453125,4.1209821701049805,-8.896360397338867,0.2065160572528839
1763691418835616300,10.0196162109375,4.068732261657715,-8.9200439453125,0.22049106657505035
1763691418845710800,10.0297109375,4.005753040313721,-8.94800853729248,0.23975732922554016
1763691418855791400,10.039791259765625,3.935540199279785,-8.97856616973877,0.2593775689601898
1763691418865872000,10.049871826171875,3.8605234622955322,-9.010634422302246,0.2742178738117218
1763691418875954700,10.05995458984375,3.7835474014282227,-9.042927742004395,0.2839098274707794
1763691418886035200,10.07003515625,3.7065036296844482,-9.07449722290039,0.2927839756011963
1763691418896115700,10.08011572265625,3.6278793811798096,-9.105783462524414,0.30591386556625366
1763691418906211000,10.090211181640624,3.544572353363037,-9.138033866882324,0.3205127418041229
1763691418916291600,10.10029150390625,3.459688186645508,-9.170226097106934,0.32846447825431824
1763691418926372000,10.1103720703125,3.379995584487915,-9.199947357177734,0.3271033763885498
1763691418936473000,10.12047314453125,3.3106064796447754,-9.22537612915039,0.32049307227134705
1763691418946553900,10.130553955078126,3.254676580429077,-9.245586395263672,0.3108270466327667
1763691418956634400,10.14063427734375,3.221893310546875,-9.257414817810059,0.30008214712142944
1763691418966673400,10.15067333984375,3.2214515209198,-9.257819175720215,0.2922705113887787
1763691418976754000,10.16075390625,3.2411932945251465,-9.25106143951416,0.28793203830718994
1763691418986834700,10.170834716796875,3.2556042671203613,-9.245944023132324,0.28972288966178894
1763691418996895000,10.18089501953125,3.2448604106903076,-9.249245643615723,0.3044622242450714
1763691419006975500,10.1909755859375,3.204058885574341,-9.262164115905762,0.3416360020637512
1763691419017056000,10.201055908203125,3.132213592529297,-9.284432411193848,0.39868515729904175
1763691419027126000,10.2111259765625,3.0169849395751953,-9.320023536682129,0.45315811038017273
1763691419037206500,10.22120654296875,2.851891279220581,-9.369664192199707,0.49649131298065186
1763691419047287000,10.231287109375,2.668492555618286,-9.421099662780762,0.5407464504241943
1763691419057401300,10.2414013671875,2.5175039768218994,-9.459635734558105,0.5897828936576843
1763691419067482000,10.251482177734376,2.417834520339966,-9.482747077941895,0.6340087652206421
1763691419077562600,10.261562744140624,2.34498929977417,-9.499385833740234,0.6580901145935059
1763691419087612200,10.271612060546875,2.2809255123138428,-9.51555061340332,0.6496747732162476
1763691419097693000,10.28169287109375,2.2089779376983643,-9.534648895263672,0.6174727082252502
1763691419107773400,10.2917734375,2.108611583709717,-9.558629035949707,0.5972790718078613
1763691419117826800,10.301826904296876,1.9829740524291992,-9.584155082702637,0.6182049512863159
1763691419127907600,10.311907470703124,1.8491640090942383,-9.606864929199219,0.6775994896888733
1763691419137988000,10.321988037109374,1.718932867050171,-9.624597549438477,0.7633906602859497
1763691419148199700,10.33219970703125,1.5984821319580078,-9.636580467224121,0.866924524307251
1763691419158280400,10.342280517578125,1.4889495372772217,-9.644380569458008,0.9691885709762573
1763691419168361000,10.35236083984375,1.3657957315444946,-9.652679443359375,1.0633677244186401
1763691419178338300,10.36233837890625,1.2146220207214355,-9.662848472595215,1.1508498191833496
1763691419188418800,10.372418701171876,1.0416498184204102,-9.672710418701172,1.2345064878463745
1763691419198499600,10.38249951171875,0.8670287132263184,-9.680116653442383,1.3091914653778076
1763691419208585500,10.39258544921875,0.6998201012611389,-9.685206413269043,1.3701876401901245
1763691419218666000,10.402666015625,0.5450654029846191,-9.688756942749023,1.414658784866333
1763691419228746500,10.41274658203125,0.40656107664108276,-9.691447257995605,1.4425474405288696
1763691419238837000,10.4228369140625,0.29314589500427246,-9.693344116210938,1.45723295211792
1763691419248916200,10.432916259765625,0.21084396541118622,-9.694289207458496,1.4651612043380737
1763691419258995700,10.44299560546875,0.15505878627300262,-9.694211959838867,1.4726142883300781
1763691419269013200,10.45301318359375,0.11888155341148376,-9.692938804626465,1.4843153953552246
1763691419279092500,10.463092529296874,0.09096221625804901,-9.691048622131348,1.4985620975494385
1763691419289172000,10.473171875,0.062408607453107834,-9.688770294189453,1.5146689414978027
1763691419299267600,10.483267578125,0.027545832097530365,-9.68579387664795,1.534612774848938
1763691419309346800,10.493346923828126,-0.016644621267914772,-9.6815824508667,1.5611169338226318
1763691419319426000,10.503426025390626,-0.07139840722084045,-9.67547607421875,1.5970124006271362
1763691419329604400,10.513604248046875,-0.1370890587568283,-9.667256355285645,1.641869068145752
1763691419339683600,10.52368359375,-0.20966601371765137,-9.657337188720703,1.691827654838562
1763691419349763000,10.53376318359375,-0.28779545426368713,-9.645780563354492,1.7454174757003784
1763691419359750000,10.54375,-0.3696305453777313,-9.633271217346191,1.798291563987732
1763691419369829000,10.5538291015625,-0.45710933208465576,-9.619654655456543,1.850319743156433
1763691419379908400,10.563908447265625,-0.5509271025657654,-9.604316711425781,1.9036684036254883
1763691419389993200,10.5739931640625,-0.6526007056236267,-9.586496353149414,1.9605045318603516
1763691419400072400,10.584072509765624,-0.7607751488685608,-9.565163612365723,2.024658203125
1763691419410151700,10.594151611328124,-0.8704618215560913,-9.539421081542969,2.1005029678344727
1763691419420822000,10.604822021484376,-0.9828347563743591,-9.507447242736816,2.1938257217407227
1763691419430901200,10.6149013671875,-1.0845284461975098,-9.473078727722168,2.2923710346221924
1763691419440980500,10.62498046875,-1.1830918788909912,-9.435870170593262,2.394794225692749
1763691419451083500,10.63508349609375,-1.2742414474487305,-9.397658348083496,2.49613618850708
1763691419461162800,10.645162841796875,-1.3532081842422485,-9.36070442199707,2.5916080474853516
1763691419471242000,10.655241943359375,-1.4171791076660156,-9.327018737792969,2.6774439811706543
1763691419481296400,10.66529638671875,-1.4641464948654175,-9.29793930053711,2.752269744873047
1763691419491375600,10.675375732421875,-1.4968446493148804,-9.27363109588623,2.815952777862549
1763691419501454800,10.685454833984375,-1.5196378231048584,-9.253857612609863,2.8683106899261475
1763691419521012700,10.7050126953125,-1.5373010635375977,-9.227531433105469,2.942744255065918
1763691419531092000,10.715092041015625,-1.5359740257263184,-9.219527244567871,2.968416690826416
1763691419541173500,10.725173583984375,-1.5334126949310303,-9.215377807617188,2.982591152191162
1763691419551252700,10.735252685546875,-1.5313007831573486,-9.213794708251953,2.988558769226074
1763691419561332200,10.745332275390625,-1.5220123529434204,-9.213512420654297,2.9941704273223877
1763691419571434000,10.75543408203125,-1.5013209581375122,-9.213398933410645,3.0049452781677246
1763691419581513200,10.76551318359375,-1.4745702743530273,-9.213069915771484,3.019164800643921
1763691419591592400,10.775592529296874,-1.4396400451660156,-9.214310646057129,3.032212972640991
1763691419601680400,10.785680419921874,-1.3795863389968872,-9.219869613647461,3.0432121753692627
1763691419611759600,10.795759521484374,-1.2867013216018677,-9.229517936706543,3.054633855819702
1763691419621838800,10.8058388671875,-1.1658536195755005,-9.242237091064453,3.0646719932556152
1763691419631896800,10.815896728515625,-1.0114723443984985,-9.259653091430664,3.0669431686401367
1763691419641976000,10.82597607421875,-0.802275538444519,-9.28459358215332,3.0533688068389893
1763691419652055300,10.83605517578125,-0.5272082686424255,-9.315896987915039,3.017695426940918
1763691419662133800,10.8461337890625,-0.20337316393852234,-9.347925186157227,2.9572510719299316
1763691419672213000,10.856212890625,0.13129183650016785,-9.37563705444336,2.8723790645599365
1763691419682292200,10.866292236328125,0.46798470616340637,-9.397045135498047,2.7653040885925293
1763691419692345000,10.876344970703125,0.8200069665908813,-9.411614418029785,2.6304948329925537
1763691419702424300,10.88642431640625,1.1676737070083618,-9.41806411743164,2.4712345600128174
1763691419712503600,10.896503662109374,1.4811650514602661,-9.414487838745117,2.311699867248535
1763691419722567700,10.906567626953125,1.7549479007720947,-9.401795387268066,2.167205572128296
1763691419732647000,10.91664697265625,1.9979830980300903,-9.383832931518555,2.030304431915283
1763691419742726100,10.92672607421875,2.221362829208374,-9.362832069396973,1.8903213739395142
1763691419752817400,10.9368173828125,2.429793119430542,-9.339131355285645,1.745602011680603
1763691419762896600,10.946896728515625,2.62284517288208,-9.313446044921875,1.5971198081970215
1763691419772975900,10.956975830078125,2.802983283996582,-9.286176681518555,1.4424296617507935
1763691419783071700,10.96707177734375,2.973687171936035,-9.256450653076172,1.2828443050384521
1763691419793151000,10.97715087890625,3.136899471282959,-9.223252296447754,1.1233280897140503
1763691419803230500,10.98723046875,3.2951536178588867,-9.185640335083008,0.9676615595817566
1763691419823410400,11.007410400390626,3.5873847007751465,-9.100245475769043,0.6975668668746948
1763691419833490000,11.017489990234376,3.7150304317474365,-9.055843353271484,0.6005358099937439
1763691419843542800,11.027542724609376,3.8360819816589355,-9.009939193725586,0.5252214670181274
1763691419853622000,11.0376220703125,3.952306032180786,-8.963201522827148,0.45899930596351624
1763691419863701200,11.047701171875,4.060838222503662,-8.917614936828613,0.39513760805130005
1763691419873835000,11.0578349609375,4.160181045532227,-8.874472618103027,0.32715338468551636
1763691419883914200,11.067914306640626,4.247405529022217,-8.835488319396973,0.2531382739543915
1763691419893993500,11.077993408203126,4.322242736816406,-8.800938606262207,0.17911627888679504
1763691419904018700,11.088018798828125,4.3850178718566895,-8.770919799804688,0.1138627827167511
1763691419914098000,11.098097900390625,4.437372207641602,-8.745050430297852,0.06483116745948792
1763691419924177200,11.10817724609375,4.477719306945801,-8.724624633789062,0.03669021651148796
1763691419934282200,11.1182822265625,4.502281188964844,-8.712008476257324,0.02752343751490116
1763691419944361500,11.128361572265625,4.506232261657715,-8.70995044708252,0.03193128854036331
1763691419954441000,11.13844091796875,4.4870476722717285,-8.719789505004883,0.0453498512506485
1763691419964504800,11.1485048828125,4.445720672607422,-8.740789413452148,0.06759543716907501
1763691419974584000,11.158583984375,4.385993480682373,-8.770618438720703,0.09851353615522385
1763691419984663300,11.168663330078125,4.3115105628967285,-8.806964874267578,0.13649329543113708
1763691419994722300,11.178722412109375,4.226141452789307,-8.847516059875488,0.1777355819940567
1763691420014880800,11.198880859375,4.048524856567383,-8.928211212158203,0.2585999667644501
1763691420025020700,11.209020751953124,3.9618794918060303,-8.965834617614746,0.29615291953086853
1763691420035100200,11.21910009765625,3.8668127059936523,-9.005796432495117,0.3373236656188965
1763691420055245000,11.2392451171875,3.633519411087036,-9.098883628845215,0.42218926548957825
1763691420065324300,11.24932421875,3.5166873931884766,-9.143547058105469,0.44592952728271484
1763691420075403500,11.259403564453125,3.4163405895233154,-9.181060791015625,0.455127477645874
1763691420085489200,11.2694892578125,3.3434696197509766,-9.20781421661377,0.4558010399341583
1763691420095568600,11.279568603515624,3.3138720989227295,-9.218823432922363,0.449379026889801
1763691420105647900,11.28964794921875,3.3315839767456055,-9.213247299194336,0.43242937326431274
1763691420115725600,11.2997255859375,3.3666586875915527,-9.201494216918945,0.41048380732536316
1763691420125805000,11.30980517578125,3.381798267364502,-9.196541786193848,0.39678698778152466
1763691420135884300,11.31988427734375,3.3640849590301514,-9.202803611755371,0.4021550714969635
1763691420145971000,11.329970947265625,3.3154542446136475,-9.218962669372559,0.4346126317977905
1763691420156050200,11.34005029296875,3.2232069969177246,-9.24929141998291,0.481587290763855
1763691420166129400,11.35012939453125,3.063706398010254,-9.30088996887207,0.5268247127532959
1763691420176204800,11.360204833984374,2.854292154312134,-9.364033699035645,0.5816116333007812
1763691420186284300,11.3702841796875,2.661536693572998,-9.416094779968262,0.650974690914154
1763691420196363500,11.380363525390624,2.535106897354126,-9.445850372314453,0.7207889556884766
1763691420206386000,11.390385986328125,2.461766481399536,-9.460614204406738,0.7790207266807556
1763691420216465200,11.400465087890625,2.410310745239258,-9.472111701965332,0.7999413013458252
1763691420226544400,11.41054443359375,2.3645927906036377,-9.486235618591309,0.7683945894241333
1763691420236685600,11.420685546875,2.296053409576416,-9.506887435913086,0.7194540500640869
1763691420246765000,11.43076513671875,2.1888020038604736,-9.533171653747559,0.7058184742927551
1763691420256844300,11.44084423828125,2.0537891387939453,-9.560322761535645,0.743355929851532
1763691420266933500,11.45093359375,1.91187584400177,-9.582528114318848,0.8308253884315491
1763691420277012700,11.4610126953125,1.7846636772155762,-9.594313621520996,0.9667007923126221
1763691420287092200,11.47109228515625,1.6826393604278564,-9.595685005187988,1.1233679056167603
1763691420297124000,11.4811240234375,1.588474988937378,-9.593639373779297,1.2685579061508179
1763691420307203300,11.491203369140624,1.4704465866088867,-9.594552040100098,1.397405982017517
1763691420317282600,11.501282470703124,1.3247671127319336,-9.599270820617676,1.5064504146575928
1763691420327417300,11.511417236328125,1.167419195175171,-9.60622787475586,1.5899430513381958
1763691420337496600,11.52149658203125,1.0102592706680298,-9.614978790283203,1.6437599658966064
1763691420347575800,11.531575927734375,0.856299877166748,-9.625725746154785,1.6680967807769775
1763691420357622800,11.541622802734375,0.7102799415588379,-9.637322425842285,1.6697026491165161
1763691420367702000,11.551701904296875,0.5810171961784363,-9.64786148071289,1.6587893962860107
1763691420377781500,11.561781494140625,0.4812350869178772,-9.655964851379395,1.6435097455978394
1763691420387869000,11.571868896484375,0.4118167757987976,-9.661452293395996,1.6300703287124634
1763691420397948400,11.581948486328125,0.36479970812797546,-9.664949417114258,1.6205183267593384
1763691420408027600,11.592027587890625,0.3303568661212921,-9.666516304016113,1.61855149269104
1763691420418197200,11.602197265625,0.30184271931648254,-9.665576934814453,1.629696011543274
1763691420428276500,11.6122763671875,0.27240023016929626,-9.661934852600098,1.656257152557373
1763691420438355700,11.622355712890625,0.23319940268993378,-9.655941009521484,1.6967053413391113
1763691420448327400,11.632327392578125,0.18118594586849213,-9.647845268249512,1.748326301574707
1763691420458407000,11.642406982421875,0.11789807677268982,-9.637575149536133,1.8093178272247314
1763691420468486100,11.652486083984375,0.046664442867040634,-9.625445365905762,1.8759037256240845
1763691420478568200,11.662568115234375,-0.03214073181152344,-9.612322807312012,1.9423198699951172
1763691420488647700,11.672647705078125,-0.11905539035797119,-9.598827362060547,2.0046725273132324
1763691420498727000,11.682726806640625,-0.2132008969783783,-9.584877967834473,2.0627810955047607
1763691420508861200,11.692861083984376,-0.313028484582901,-9.569808959960938,2.1192374229431152
1763691420529019600,11.71301953125,-0.5271573662757874,-9.531956672668457,2.2437195777893066
1763691420539088100,11.723088134765625,-0.6400430202484131,-9.507255554199219,2.3179357051849365
1763691420549167400,11.73316748046875,-0.7530483603477478,-9.478140830993652,2.401700019836426
1763691420559246800,11.743246826171875,-0.8631255626678467,-9.445276260375977,2.492419958114624
1763691420569313300,11.753313232421876,-0.9674667119979858,-9.41012191772461,2.5853400230407715
1763691420579392500,11.763392578125,-1.0624510049819946,-9.374971389770508,2.674227237701416
1763691420589472000,11.773471923828126,-1.1423346996307373,-9.342095375061035,2.7551262378692627
1763691420599517200,11.78351708984375,-1.2036890983581543,-9.31286334991455,2.8270273208618164
1763691420609596400,11.793596435546876,-1.2462352514266968,-9.287529945373535,2.891209125518799
1763691420619675600,11.803675537109376,-1.2714426517486572,-9.266304969787598,2.94777774810791
1763691420630366700,11.81436669921875,-1.2843512296676636,-9.247954368591309,2.9993605613708496
1763691420640446000,11.824446044921874,-1.2869763374328613,-9.235005378723145,3.037884473800659
1763691420650525400,11.834525390625,-1.28683340549469,-9.22652816772461,3.063598394393921
1763691420670067700,11.854067626953125,-1.293412685394287,-9.219730377197266,3.0812418460845947
1763691420680147000,11.86414697265625,-1.2983900308609009,-9.218221664428711,3.0836594104766846
1763691420700327400,11.884327392578125,-1.3038386106491089,-9.216185569763184,3.087447166442871
1763691420710406700,11.89440673828125,-1.2973724603652954,-9.21536922454834,3.0925986766815186
1763691420721078500,11.90507861328125,-1.2758276462554932,-9.214119911193848,3.1052587032318115
1763691420741237200,11.9252373046875,-1.148751139640808,-9.212450981140137,3.1593503952026367
1763691420751335700,11.935335693359375,-1.0466368198394775,-9.212712287902832,3.193878412246704
1763691420761415000,11.945414794921875,-0.9218109846115112,-9.215850830078125,3.2231597900390625
1763691420771494100,11.955494140625,-0.7602817416191101,-9.224924087524414,3.2393102645874023
1763691420791039700,11.975039794921875,-0.2899817228317261,-9.262568473815918,3.207977294921875
1763691420811227100,11.99522705078125,0.32297855615615845,-9.312359809875488,3.057126760482788
1763691420821306400,12.005306396484375,0.6394392251968384,-9.331103324890137,2.948223829269409
1763691420831385900,12.0153857421875,0.973384439945221,-9.344315528869629,2.8118817806243896
1763691420841424000,12.025423828125,1.2965586185455322,-9.352485656738281,2.649592161178589
1763691420851503400,12.03550341796875,1.5892555713653564,-9.352755546569824,2.4840734004974365
1763691420861582600,12.04558251953125,1.8554202318191528,-9.34261417388916,2.333103895187378
1763691420871727400,12.055727294921875,2.1046035289764404,-9.32448673248291,2.189743757247925
1763691420881806600,12.065806640625,2.3332860469818115,-9.302617073059082,2.0463342666625977
1763691420891885800,12.0758857421875,2.542339324951172,-9.278336524963379,1.9024611711502075
1763691420901943800,12.08594384765625,2.731480121612549,-9.252817153930664,1.759200930595398
1763691420912023000,12.09602294921875,2.9003405570983887,-9.227948188781738,1.6134949922561646
1763691420922102500,12.1061025390625,3.0506348609924316,-9.204707145690918,1.4619801044464111
1763691420932140800,12.116140869140626,3.191185235977173,-9.181411743164062,1.2993873357772827
1763691420942220000,12.126219970703126,3.327733039855957,-9.155533790588379,1.1281675100326538
1763691420952299500,12.136299560546876,3.4589619636535645,-9.12568187713623,0.9632738828659058
1763691420962400500,12.146400390625,3.5847983360290527,-9.091363906860352,0.8165223598480225
1763691420972479700,12.156479736328125,3.703226089477539,-9.053940773010254,0.6947382092475891
1763691420982559000,12.16655908203125,3.812917470932007,-9.015597343444824,0.5924939513206482
1763691420992629000,12.17662890625,3.91230845451355,-8.978570938110352,0.4994991719722748
1763691421002708500,12.18670849609375,4.002076148986816,-8.943498611450195,0.40938618779182434
1763691421012787700,12.19678759765625,4.082707405090332,-8.910616874694824,0.3206099569797516
1763691421022843000,12.2068427734375,4.154439449310303,-8.88012981414795,0.23308660089969635
1763691421032922000,12.216922119140625,4.21840238571167,-8.851726531982422,0.14964599907398224
1763691421043001300,12.22700146484375,4.274231910705566,-8.825835227966309,0.07710136473178864
1763691421053129000,12.23712890625,4.32275390625,-8.802482604980469,0.022124826908111572
1763691421063208200,12.247208251953126,4.363872051239014,-8.78219223022461,-0.0106249013915658
1763691421073287700,12.25728759765625,4.395911693572998,-8.766180038452148,-0.02091561257839203
1763691421083326500,12.267326416015624,4.414773464202881,-8.75671100616455,-0.012962478213012218
1763691421093405700,12.27740576171875,4.4149489402771,-8.756629943847656,0.007332461420446634
1763691421103485200,12.287485107421874,4.394008636474609,-8.767082214355469,0.036676958203315735
1763691421113575200,12.2975751953125,4.352845191955566,-8.787374496459961,0.07195216417312622
1763691421123654400,12.307654296875,4.29506254196167,-8.815346717834473,0.11176502704620361
1763691421133733600,12.317733642578125,4.224478244781494,-8.848729133605957,0.1553797423839569
1763691421143821800,12.32782177734375,4.1473612785339355,-8.884221076965332,0.200961634516716
1763691421153901000,12.337901123046874,4.070201873779297,-8.918722152709961,0.24543052911758423
1763691421163980300,12.347980224609374,3.994992256164551,-8.951399803161621,0.2878366708755493
1763691421174070000,12.358070068359375,3.9195449352264404,-8.983194351196289,0.33133742213249207
1763691421184149200,12.368149169921875,3.8350164890289307,-9.017663955688477,0.38050591945648193
1763691421194228500,12.378228515625,3.7391932010650635,-9.055397033691406,0.4342975318431854
1763691421204319500,12.388319580078125,3.6436448097229004,-9.0919771194458,0.4797946512699127
1763691421224478200,12.408478271484375,3.4730489253997803,-9.15669059753418,0.5131742358207703
1763691421234577200,12.4185771484375,3.3965277671813965,-9.185297966003418,0.5140990018844604
1763691421244656600,12.42865673828125,3.357781410217285,-9.199479103088379,0.5150507092475891
1763691421254736000,12.43873583984375,3.3710927963256836,-9.194995880126953,0.5081019401550293
1763691421264837600,12.448837646484375,3.4060611724853516,-9.182847023010254,0.4944165349006653
1763691421274916900,12.458916748046875,3.4229562282562256,-9.17667293548584,0.49236178398132324
1763691421284996000,12.46899609375,3.40537428855896,-9.182178497314453,0.5112992525100708
1763691421305149000,12.48914892578125,3.257369041442871,-9.229742050170898,0.6097579002380371
1763691421315228200,12.499228271484375,3.0984222888946533,-9.28113842010498,0.6562216877937317
1763691421325262300,12.509262451171875,2.8883633613586426,-9.345425605773926,0.7005361914634705
1763691421335341800,12.519341796875,2.68137264251709,-9.402243614196777,0.7605575323104858
1763691421345421000,12.529421142578125,2.5308988094329834,-9.437499046325684,0.8357968330383301
1763691421355494700,12.53949462890625,2.4395062923431396,-9.45413875579834,0.9156799912452698
1763691421365574100,12.54957421875,2.3759121894836426,-9.465386390686035,0.9653422832489014
1763691421375653400,12.5596533203125,2.320730447769165,-9.48034954071045,0.9526569843292236
1763691421385720300,12.56972021484375,2.2517173290252686,-9.501747131347656,0.903858482837677
1763691421395799800,12.5797998046875,2.152355670928955,-9.527261734008789,0.8769502639770508
1763691421405879300,12.58987939453125,2.030937671661377,-9.552630424499512,0.8904751539230347
1763691421415956700,12.599956787109376,1.9035179615020752,-9.574809074401855,0.9327564835548401
1763691421426036000,12.610035888671876,1.785997986793518,-9.590092658996582,1.0053461790084839
1763691421436115500,12.620115478515626,1.6829487085342407,-9.596848487854004,1.1129101514816284
1763691421446223600,12.6302236328125,1.5821876525878906,-9.598770141601562,1.2372032403945923
1763691421456303000,12.64030322265625,1.4675052165985107,-9.600471496582031,1.359319806098938
1763691421466382300,12.65038232421875,1.3352681398391724,-9.60281753540039,1.4742307662963867
1763691421486505000,12.6705048828125,1.0411380529403687,-9.609428405761719,1.6568962335586548
1763691421496584200,12.680584228515626,0.8885867595672607,-9.615331649780273,1.710610032081604
1763691421506670600,12.690670654296875,0.7408519983291626,-9.623204231262207,1.736506700515747
1763691421516750000,12.70075,0.6037711501121521,-9.631421089172363,1.7440071105957031
1763691421526829300,12.710829345703125,0.4853855073451996,-9.638420104980469,1.7423114776611328
1763691421536903700,12.720903564453126,0.3903118371963501,-9.64374828338623,1.7367089986801147
1763691421546983000,12.73098291015625,0.319931298494339,-9.647305488586426,1.7313364744186401
1763691421557062400,12.7410625,0.27132707834243774,-9.649197578430176,1.7290844917297363
1763691421567117800,12.751117919921874,0.23821385204792023,-9.64948558807373,1.7323576211929321
1763691421577197000,12.761197021484374,0.212130606174469,-9.64771842956543,1.7455426454544067
1763691421587276500,12.771276611328124,0.18547631800174713,-9.643827438354492,1.7699096202850342
1763691421597437700,12.781437744140625,0.15112298727035522,-9.638458251953125,1.8021349906921387
1763691421607517000,12.791516845703125,0.1066652238368988,-9.632155418395996,1.8386377096176147
1763691421617596400,12.801596435546875,0.05243478715419769,-9.625035285949707,1.8778504133224487
1763691421627630300,12.81163037109375,-0.009956767782568932,-9.61721134185791,1.9182082414627075
1763691421637709800,12.821709716796875,-0.08178886026144028,-9.608599662780762,1.959212064743042
1763691421647789000,12.8317890625,-0.16180776059627533,-9.598816871643066,2.0017268657684326
1763691421657852400,12.841852294921875,-0.24681733548641205,-9.587401390075684,2.0472469329833984
1763691421678011100,12.86201123046875,-0.42477887868881226,-9.55815601348877,2.152115821838379
1763691421688145700,12.872145751953125,-0.5182085037231445,-9.539287567138672,2.214462995529175
1763691421698225000,12.882224853515625,-0.6146841049194336,-9.517436027526855,2.2827532291412354
1763691421708304400,12.892304443359375,-0.7145389318466187,-9.492188453674316,2.357581615447998
1763691421718378800,12.902378662109374,-0.815517783164978,-9.463968276977539,2.43692946434021
1763691421728458000,12.9124580078125,-0.9138861894607544,-9.433844566345215,2.5174953937530518
1763691421738537500,12.922537353515626,-1.0073224306106567,-9.403053283691406,2.59582257270813
1763691421748555000,12.932554931640626,-1.0910816192626953,-9.373083114624023,2.6693131923675537
1763691421758634500,12.942634521484376,-1.1601113080978394,-9.345137596130371,2.7373218536376953
1763691421768713700,12.952713623046876,-1.2112720012664795,-9.320295333862305,2.7991621494293213
1763691421778849800,12.962849853515625,-1.2475122213363647,-9.298223495483398,2.8560681343078613
1763691421788929300,12.97292919921875,-1.2734565734863281,-9.27861499786377,2.9079220294952393
1763691421799008800,12.9830087890625,-1.2920397520065308,-9.261033058166504,2.9553825855255127
1763691421809042400,12.99304248046875,-1.3033044338226318,-9.245790481567383,2.9978580474853516
1763691421819121700,13.00312158203125,-1.3094104528427124,-9.233343124389648,3.0333516597747803
1763691421829201200,13.013201171875,-1.3155561685562134,-9.224028587341309,3.058922529220581
1763691421839290400,13.023290283203124,-1.3227123022079468,-9.217400550842285,3.07576584815979
1763691421849369600,13.03336962890625,-1.3290395736694336,-9.2127046585083,3.087085485458374
1763691421859449000,13.043448974609374,-1.3302074670791626,-9.20911979675293,3.09726619720459
1763691421869556000,13.053555908203125,-1.3229182958602905,-9.206241607666016,3.1089208126068115
1763691421879635500,13.063635498046875,-1.307250738143921,-9.204107284545898,3.121842622756958
1763691421889715000,13.07371484375,-1.276943325996399,-9.203057289123535,3.1374411582946777
1763691421899808300,13.083808349609376,-1.2174917459487915,-9.203438758850098,3.159877300262451
1763691421909887500,13.093887451171875,-1.1260583400726318,-9.205330848693848,3.188145399093628
1763691421919967000,13.103967041015625,-1.0096014738082886,-9.209121704101562,3.216080904006958
1763691421930044400,13.11404443359375,-0.8642641305923462,-9.217268943786621,3.2350242137908936
1763691421940124000,13.1241240234375,-0.6743265986442566,-9.23291301727295,3.235584259033203
1763691421950203100,13.134203125,-0.4280453324317932,-9.257074356079102,3.208385944366455
1763691421960282600,13.14428271484375,-0.1349555253982544,-9.287989616394043,3.144108533859253
1763691421970344700,13.1543447265625,0.1763010323047638,-9.321654319763184,3.040736675262451
1763691421980424200,13.164424072265625,0.49854776263237,-9.353139877319336,2.9052741527557373
1763691421990503700,13.174503662109375,0.8445370197296143,-9.378534317016602,2.7386579513549805
1763691422001175000,13.185175048828125,1.2157092094421387,-9.395854949951172,2.5318686962127686
1763691422011254300,13.195254150390625,1.5356241464614868,-9.4008207321167,2.331698179244995
1763691422021333800,13.205333740234375,1.8188083171844482,-9.39313793182373,2.1520400047302246
1763691422031403300,13.2154033203125,2.077280044555664,-9.374707221984863,1.992525339126587
1763691422051562200,13.235562255859374,2.533723831176758,-9.321026802062988,1.6938353776931763
1763691422071111400,13.255111328125,2.9097814559936523,-9.256335258483887,1.422610878944397
1763691422081191000,13.26519091796875,3.0890252590179443,-9.219696044921875,1.2749539613723755
1763691422091282700,13.27528271484375,3.260007381439209,-9.181093215942383,1.1181514263153076
1763691422101362200,13.285362060546875,3.4199557304382324,-9.140657424926758,0.9605526328086853
1763691422111441400,13.29544140625,3.568621873855591,-9.097468376159668,0.819392204284668
1763691422121520000,13.30552001953125,3.709117889404297,-9.050257682800293,0.7110944390296936
1763691422131599600,13.315599609375,3.8449676036834717,-8.998995780944824,0.6361479759216309
1763691422141678800,13.325678955078125,3.973886251449585,-8.946459770202637,0.582635760307312
1763691422151712500,13.33571240234375,4.089178562164307,-8.897120475769043,0.5387517213821411
1763691422171871200,13.355871337890624,4.267353534698486,-8.81833267211914,0.4439401626586914
1763691422182012200,13.36601220703125,4.330270290374756,-8.790386199951172,0.38503748178482056
1763691422192091600,13.376091552734374,4.378410816192627,-8.769079208374023,0.32118797302246094
1763691422202171100,13.386171142578124,4.414066791534424,-8.753227233886719,0.25964856147766113
1763691422212249300,13.396249267578124,4.439352035522461,-8.741780281066895,0.20933383703231812
1763691422222328800,13.406328857421874,4.4545745849609375,-8.734739303588867,0.17746922373771667
1763691422232408300,13.416408203125,4.458828449249268,-8.732789039611816,0.166193887591362
1763691422242500600,13.42650048828125,4.4482598304748535,-8.738085746765137,0.1709715574979782
1763691422252580000,13.436580078125,4.418099880218506,-8.753103256225586,0.18428665399551392
1763691422262659300,13.446659423828125,4.365781784057617,-8.778916358947754,0.2023591250181198
1763691422272703000,13.456702880859375,4.289696216583252,-8.815813064575195,0.22432871162891388
