time,seconds_elapsed,z,y,x
1763696718541260300,0.05026025390625,-0.47206513880789275,-0.04716770162731409,0.3507283313810825
1763696718551284200,0.0602841796875,-0.7435457459509373,-0.11002777016609906,0.2704077172145247
1763696718561307400,0.070307373046875,-0.7031096906661987,-0.11415186435878276,0.36310762822180986
1763696718571330300,0.080330322265625,-0.7294961778104305,0.27905425726771355,-0.1504571034491062
1763696718581354500,0.0903544921875,-0.6602987229436635,0.23261282408833503,-0.028272154760360716
1763696718591377200,0.100377197265625,-0.1700502771914005,0.12946546108573675,0.33000732265263794
1763696718601400300,0.110400390625,-0.33229134193658827,-0.10506576384454965,0.5496075204327702
1763696718611424500,0.120424560546875,-0.21416472872793674,-0.22505495605468748,0.7001689610391855
1763696718621447400,0.130447509765625,-0.6954980466187,-0.3823413210019469,-0.20768822619020938
1763696718631470300,0.14047021484375,-0.542731497183442,-0.5301517093345522,-0.03975362597852945
1763696718641494300,0.150494384765625,-0.3440466616600752,-0.6507537727460265,0.2615741301566362
1763696718651517400,0.160517333984375,-0.6616057138890028,-0.566655978128314,0.7603232777506113
1763696718661540400,0.170540283203125,-0.4658545937299728,-0.6970528748452663,0.9573013093560934
1763696718671563300,0.180563232421875,-0.31033786880373954,-0.23109423621892927,0.06418693322837353
1763696718681587200,0.190587158203125,0.34674481470286844,0.09662702132314444,-0.9129121325314045
1763696718691610400,0.2006103515625,0.4051970036715269,0.04302314916849136,-1.0030378091365098
1763696718701633500,0.210633544921875,0.9318009573966264,0.434753353023529,-1.1782482455700636
1763696718711657200,0.2206572265625,1.075246720778942,0.4065542634993791,-1.0388228237450121
1763696718721680400,0.230680419921875,2.7198136704593896,0.4522133141294121,-2.2302812640219924
1763696718731703300,0.240703369140625,2.7986756102502346,0.4596402492597699,-2.1447540211230516
1763696718741727200,0.250727294921875,1.2089642863512038,1.6197940352126956,-1.0421090058088303
1763696718751750100,0.260750244140625,1.2689508452802896,1.6253008159354327,-0.9799047708302736
1763696718761773300,0.270773193359375,0.0979506711423397,1.8572610213339327,-0.6898252616792917
1763696718771796200,0.280796142578125,-0.3428063062101602,1.8288076647877691,-1.2020365329146385
1763696718781820400,0.2908203125,-0.2701590031504631,1.807296674725413,-1.1475672761023044
1763696718791843000,0.300843017578125,1.0451619636386633,1.0347288324296473,-0.4618289914757013
1763696718801866200,0.3108662109375,1.0982026489526033,0.9858484816655516,-0.44359249303936954
1763696718811890200,0.32089013671875,0.45702539058625696,0.6306085180789232,-0.47763738598227495
1763696718821913300,0.330913330078125,0.5616986479818821,0.228670223942399,-0.11530512604713439
1763696718831936000,0.34093603515625,1.0580389808684587,-0.009975158308446407,0.023956629648804663
1763696718841960200,0.350960205078125,1.6300883424729107,-0.12361878088414668,0.2991951280206442
1763696718851983400,0.3609833984375,1.5950877562403678,-0.14101649040877817,0.25770810237824915
1763696718862006300,0.37100634765625,-1.8630203155130147,-0.682275284691155,-1.458524153587222
1763696718872030200,0.3810302734375,-1.9064456157416103,-0.6868927153587341,-1.5004975014418362
1763696718882053000,0.39105322265625,-0.7028337963342666,1.0428843740954994,0.8800725237250328
1763696718892076300,0.401076171875,-0.6124228730469942,-0.14787117860913276,1.4914257217139004
1763696718902099200,0.41109912109375,-0.6421890657573938,-0.10179156447947024,1.4933452915996313
1763696718912123100,0.421123046875,-0.5933779808372259,-0.8989902824237942,0.699813571730256
1763696718922146300,0.431146240234375,-0.6126560972809791,-0.8392357786849141,0.718985889711976
1763696718932169200,0.441169189453125,-0.7693436195522546,0.3583566343024373,-0.10353694684207439
1763696718942193200,0.451193115234375,-0.5803951651453971,0.41809710951596496,0.2684890241116285
1763696718952216000,0.461216064453125,-0.5886790093660355,0.4586413013502955,0.2848100443154573
1763696718962239200,0.4712392578125,-0.5283844074010848,-0.04630523957908153,0.5400765987604856
1763696718972263200,0.48126318359375,-0.5278261889964342,-0.03153583273142576,0.5491822807580232
1763696718982286300,0.491286376953125,0.75329440202713,-0.3688450028300285,0.4391495421558618
1763696718992309000,0.50130908203125,0.7674310639292001,-0.0385293448805809,0.3897773162215948
1763696719002332200,0.511332275390625,0.6997083577901124,0.10865706633478403,0.6574485942095518
1763696719012356400,0.5213564453125,0.9414321245729923,-0.18647008159458636,1.2088187404006718
1763696719022379300,0.531379150390625,0.9898995106220245,-0.2445367783769965,1.2180214530318976
1763696719032402200,0.541402099609375,1.6413269448459147,-1.0363713389396667,2.8809242698699236
1763696719042426000,0.551426025390625,1.711820284742117,-1.0775786708578468,2.918217935475707
1763696719052449300,0.56144921875,1.8421172282159328,0.13044102811962366,2.7590532094359395
1763696719062472200,0.57147216796875,2.365608602878451,0.289911459107697,2.0862270133525134
1763696719072496000,0.58149609375,2.475744801855087,0.25261048697829247,2.1543010171473025
1763696719082519300,0.591519287109375,3.0315473775357007,-0.06286503697484731,0.5072364054322243
1763696719092542200,0.601542236328125,3.179471163114905,-0.12438625812530517,0.5836901150375604
1763696719102565400,0.6115654296875,2.2496716086685655,0.5547893069848417,-1.0090063621520995
1763696719112589000,0.621589111328125,2.9789883382588624,0.16861586047410965,-1.712426433941722
1763696719122612200,0.6316123046875,3.318890447460115,-0.1466273160278797,-2.2650603164583445
1763696719132635100,0.64163525390625,3.4192952337563036,-0.29982758070528504,-2.8270997407019136
1763696719142659000,0.6516591796875,3.6351124058663844,-0.5272510194569826,-2.853020363900065
1763696719152682200,0.66168212890625,2.929172460210323,-0.26117314814031123,-4.130607520100474
1763696719162705200,0.671705078125,3.098767394849658,-0.5618821878552437,-4.268620152518153
1763696719172729300,0.681729248046875,2.0040423588797447,-0.6758084267646074,-4.903690910702943
1763696719182752300,0.691752197265625,-0.5461141253590583,-1.6246224782824514,-5.396826894590259
1763696719192775200,0.701775146484375,-0.35105478685647246,-1.9743594605386257,-5.643545985442399
1763696719202798000,0.711798095703125,-2.4029028530061245,-1.1165683267265558,-5.8472185462504624
1763696719212822300,0.721822265625,-2.17218183401376,-1.4390420390039682,-6.118459499418735
1763696719222845400,0.731845458984375,-3.4018191982984542,-1.1715414414077996,-3.1310306650727986
1763696719232868000,0.7418681640625,-3.4355563404664395,-1.895060298374295,-1.6387550485312938
1763696719242892300,0.751892333984375,-4.071893465325236,-1.8153905493319034,-0.5577414347887039
1763696719252915200,0.761915283203125,-5.013003518337011,-1.1445546502828596,-0.39510406420230865
1763696719262938400,0.7719384765625,-4.883921211349964,-1.3230962769657373,-0.6636141311019659
1763696719272962000,0.781962158203125,-5.566168146729469,-0.40409576443135736,-0.913466843804717
1763696719282985200,0.791985107421875,-5.480298374003172,-0.5454705667585135,-1.1782888698413967
1763696719293008400,0.80200830078125,-3.598811842951178,-1.4945798018306493,-0.6111620593309403
1763696719303032000,0.812031982421875,-3.2076269980192182,-1.5568611936986445,-0.21377456036657094
1763696719313055200,0.82205517578125,-2.716359146091342,-1.6536808149844406,0.14472498953789473
1763696719323078100,0.832078125,-2.704900178965926,-1.4950626169115304,0.2847369790792465
1763696719333101300,0.842101318359375,-2.707376798212528,-1.576468980488181,0.00547463201880455
1763696719343125000,0.852125,-3.3112966313302516,-0.8938251547455787,0.38622400765419
1763696719353148200,0.862148193359375,-2.9295483077853914,-1.2138900523155927,1.0068648200787604
1763696719363171000,0.872171142578125,-2.4716882199406625,-1.4521224698513746,1.6249715839810668
1763696719373195300,0.8821953125,-2.162985989514738,-1.2316098334014416,1.981691995383799
1763696719383218200,0.89221826171875,-2.207339510504156,-1.2578875994741916,1.7360514935486018
1763696719393241000,0.902240966796875,-2.1745150992669164,0.02787467987537384,2.565089849476516
1763696719403265300,0.912265380859375,-2.2587369586557147,0.024929858595132828,2.349121432327479
1763696719413288200,0.9222880859375,-1.8128911337316036,0.6429740786552429,2.3458327660456297
1763696719423311400,0.932311279296875,-1.1972358546346424,0.4758241990804672,2.4032906832799315
1763696719433334000,0.942333984375,-0.8126473392277955,0.27301556162536145,2.5444042043223978
1763696719443358200,0.952358154296875,-0.4769526185885071,0.18191431798636912,2.5975837135851383
1763696719453381400,0.96238134765625,-0.6337608446300029,0.2251420498162508,2.4922639749795197
1763696719463404300,0.972404296875,0.9761901342213153,0.3868389246821403,2.21695548011139
1763696719473428200,0.98242822265625,0.8365306113794445,0.43111061260700223,2.1653918816126883
1763696719483451100,0.992451171875,2.9383140903040763,0.5569675278067588,1.64200250601992
1763696719493474300,1.002474365234375,3.278059839899838,0.48096214649081226,1.2379437125980852
1763696719503498200,1.012498291015625,3.193807731503248,0.5120581265002488,1.1905397179968655
1763696719513521200,1.022521240234375,3.00944777393043,0.10483809256851673,0.8869131834000349
1763696719523544300,1.03254443359375,2.966378447532654,0.12146306415498256,0.8661177942611277
1763696719533567200,1.042567138671875,2.5808663875401017,0.09638882865309714,0.7440087603528052
1763696719543591200,1.052591064453125,2.3913316576778887,0.3401712815314531,0.4989325048042461
1763696719553614000,1.062614013671875,2.384249590462446,0.3430447911411524,0.4936736709605902
1763696719563637200,1.07263720703125,1.7264111201524734,0.6956324866533279,0.17400193742662667
1763696719573661400,1.082661376953125,1.7231880664527415,0.6974713925182819,0.15915811363589016
1763696719583684000,1.09268408203125,0.29744097782969475,0.25239655196666716,-0.058869354934804136
1763696719593707300,1.102707275390625,0.052201019619405264,-0.22130933978557585,-0.01188501051776111
1763696719603731200,1.112731201171875,-0.28109862257689233,-0.547619853746891,-0.009527743334509432
1763696719613754400,1.12275439453125,-1.0323083272844553,-0.6038344929218292,-0.03925133901219815
1763696719623777000,1.132777099609375,-1.0701584577292202,-0.5902601410776377,-0.013379559924453496
1763696719633801200,1.14280126953125,-2.2624825749248263,-0.7931307378530502,-0.6616627778384834
1763696719643824000,1.15282421875,-2.3244211447045204,-1.2263146496027708,-0.690884853734821
1763696719653847300,1.162847412109375,-2.4099989487469196,-1.6183149025708436,-0.661646338160336
1763696719663870200,1.1728701171875,-2.645349088844657,-1.6585627418071032,-0.7164381779905408
1763696719673894100,1.18289404296875,-2.799049704259634,-1.590536668807268,-0.6723289871510117
1763696719683917300,1.192917236328125,-2.0673037016957996,-1.1608154647320508,-1.833415304713696
1763696719693940200,1.202940185546875,-2.286003151243925,-1.0518921486765145,-1.8133773098133503
1763696719703964200,1.212964111328125,1.7990473172962664,1.8478876283109187,-3.516399809463322
1763696719713987000,1.222987060546875,2.812749728310108,1.421725578022003,-3.2170076975658533
1763696719724010200,1.23301025390625,2.6375632572740315,1.527600027900934,-3.2985356416955587
1763696719734034200,1.2430341796875,4.224911359173059,0.22241993137598037,-1.472994577488303
1763696719744057000,1.25305712890625,4.118582735785842,0.2938444146424532,-1.5492580252185464
1763696719754080300,1.263080322265625,3.0622394529193637,0.36854105144739147,0.32667320979386566
1763696719764103200,1.273103271484375,3.011073913827538,0.4028057246208191,0.3255474206343293
1763696719774127400,1.28312744140625,5.091882993784546,0.2391711596906185,0.8365062075905502
1763696719784150000,1.29314990234375,5.113711963754892,0.3060346186518669,0.7554910352885723
1763696719794173200,1.303173095703125,4.768901331984996,0.28328035053014755,0.41402427058648317
1763696719804197400,1.313197265625,4.133624237573146,0.15245499926805495,0.3288075549414381
1763696719814220300,1.32322021484375,4.222698359298706,0.09468319377899169,0.3314302315952256
1763696719824243200,1.3332431640625,1.830574089938402,-0.3166390147745609,0.6577610211595892
1763696719834267100,1.34326708984375,1.0784475626468657,-0.5544365480244159,0.9690119131550192
1763696719844290300,1.353290283203125,0.5112555779457092,-0.8561866212248802,1.2331471259713171
1763696719854313200,1.363313232421875,0.15878946298658847,-1.2173059982389212,1.4599261293396353
1763696719864336100,1.373336181640625,0.27237375659048557,-1.282553254175186,1.5257602452531456
1763696719874360300,1.3833603515625,-0.5415127690434456,-1.7887340130746363,2.161984265126288
1763696719884383200,1.39338330078125,-0.8349144083544612,-2.040695096233487,2.472997841234505
1763696719894406400,1.403406494140625,-1.2781716780900954,-2.2074217819601296,2.505792149594426
1763696719904430000,1.41343017578125,-1.9577932334020733,-2.169589771693945,2.219927335529029
1763696719914453200,1.423453369140625,-1.8979297163307665,-2.197523488280177,2.290657991312444
1763696719924476200,1.43347607421875,-3.010838936027884,-1.5710931326687334,1.9256937754385173
1763696719934500000,1.4435,-3.0243986748248335,-1.5616279697090387,2.017273157983273
1763696719944523000,1.45352294921875,-3.149172470963001,-1.6492776115894316,2.38061474109143
1763696719954546200,1.463546142578125,-3.3520810616612433,-1.7346926262855529,2.457106152358651
1763696719964569000,1.473569091796875,-3.4549060608416795,-1.6717174069344996,2.6069489233016965
1763696719974593300,1.48359326171875,-2.7634546592652796,-2.476893971890211,2.5935978588193653
1763696719984616200,1.4936162109375,-2.903138439765572,-2.3801935930699107,2.7764836521863936
1763696719994639000,1.50363916015625,-2.356478370961547,-2.6568998259067533,2.157930751951784
1763696720004663300,1.513663330078125,-2.532484341686964,-2.5179402680277825,2.365682983288914
1763696720014686200,1.523686279296875,-1.3924106362104416,-2.046606950625777,0.2587833303943276
1763696720024709000,1.533709228515625,-0.614198650547862,-1.909025695362687,-0.24601415745317934
1763696720034733300,1.5437333984375,-0.8071347132861614,-1.7124001304566858,-0.014442951372265814
1763696720044756200,1.553756103515625,0.5098761062860488,-1.8942033892840147,-0.7342094700679183
1763696720054779400,1.563779296875,0.34354338831305503,-1.6876520581692456,-0.512699347013235
1763696720064803000,1.573802978515625,1.0912275492429733,-1.9769611674696206,-1.0873948392122983
1763696720074826200,1.583826171875,1.1021633692771196,-1.5357190369486808,-1.2117810973376035
1763696720084849200,1.59384912109375,1.0226409197509287,-1.375512692901492,-1.0191241438016294
1763696720094872300,1.603872314453125,0.22690321426987647,-1.074325514280796,-1.2758084560900926
1763696720104896300,1.613896240234375,0.17837912959754465,-0.9401689727693796,-1.1113821562603114
1763696720114919200,1.623919189453125,-1.082464397072792,-0.8779290819555521,-1.0277402887165545
1763696720124942300,1.6339423828125,-1.2316262000143527,-0.011766425639390945,-1.4524302206262945
1763696720134966000,1.643966064453125,-1.0174386749327182,0.32296938683986665,-1.5698022160753606
1763696720144989200,1.6539892578125,-0.9179957194060087,-0.03513035009205341,-1.5364526119202375
1763696720155012000,1.66401220703125,-0.9674807580649852,0.09516717790365219,-1.4307611173927783
1763696720165036300,1.674036376953125,-0.40092064152657986,-0.5544932466477155,-1.5384250810369848
1763696720175059200,1.68405908203125,-0.43580783051252364,-0.45318274368345735,-1.4604109902471303
1763696720185082000,1.69408203125,-0.41434710933268065,-0.06895721637010574,-1.3111629703268408
1763696720195105300,1.704105224609375,-0.7405892342329025,0.17919336858987808,-1.038694521190226
1763696720205129200,1.714129150390625,-0.7712871548354625,0.23338380846083162,-1.0198135873705148
1763696720215152400,1.72415234375,-0.9560609539061784,0.6554080282926559,-0.9105737527117133
1763696720225175000,1.734175048828125,-0.9983569578438997,0.6965057623565196,-0.9267179550439119
1763696720235199200,1.74419921875,-0.6834066268086433,0.4012754463136196,-0.13549889603108167
1763696720245222100,1.75422216796875,-0.5160960037142038,0.3417477370679378,0.18358225119858979
1763696720255245300,1.764245361328125,-0.3911357450932264,0.18719956491291523,0.12838818724304438
1763696720265269200,1.774269287109375,-0.4051543335735798,0.12596972792446612,-0.16502046633064746
1763696720275292200,1.784292236328125,-0.4437047212421894,0.14493044898211954,-0.20600421862602233
1763696720285315300,1.7943154296875,-0.5442004006922244,0.003471475502848625,-0.534430409567058
1763696720295338200,1.804338134765625,-0.5748281786680222,0.015880875220894812,-0.5713938203051686
1763696720305362200,1.814362060546875,-0.7334399470001459,0.29260639728009696,0.8215469772592187
1763696720315385000,1.824385009765625,-0.8517927701801061,0.3160013013929128,1.347550919264555
1763696720325408300,1.834408203125,-0.6508914276510477,0.4774971007287502,1.3959446555554866
1763696720335432200,1.84443212890625,-0.29257834022939205,0.7163081949353217,1.0170984831929206
1763696720345455000,1.854455078125,-0.3469417985796928,0.7750935613811015,0.9901561157315969
1763696720355478300,1.864478271484375,0.3175543760538101,0.8193506362587213,0.3180602797493338
1763696720365502200,1.874502197265625,0.7608183677911758,0.6069786361664533,0.30571225482970477
1763696720375525000,1.884525146484375,0.8103098361909389,0.33072014709711073,0.7317509709998965
1763696720385548000,1.894548095703125,0.8690449337542057,0.028097090454399586,1.1987126491889357
1763696720395571200,1.9045712890625,0.8393658348053693,0.07662614356279372,1.198887421233952
1763696720405595400,1.914595458984375,1.272497139585018,-0.49755906102657316,1.571853303386271
1763696720415618300,1.924618408203125,1.2482371430754662,-0.46133507047891614,1.5668836982801555
1763696720425641200,1.93464111328125,1.2242600551605225,-0.24061405197530983,0.7059352694809437
1763696720435665200,1.9446650390625,0.8240238887667656,0.3381675404936075,0.2582821028739214
1763696720445688300,1.954688232421875,0.4880056352615356,0.5835185578629374,-0.049288347043097015
1763696720455711200,1.964711181640625,0.3635205929368734,0.7142167756140232,0.019176994156837462
1763696720465735200,1.974735107421875,0.33099837951660155,0.7483063844814896,-0.0073345806717872615
1763696720475758300,1.98475830078125,0.8400970716893672,0.34627281327694653,0.554257392065227
1763696720485781200,1.99478125,1.123063533964753,0.07454992181062697,0.6078410982146859
1763696720495804400,2.004804443359375,0.5740057563692331,0.20320932721048593,0.6095037707298994
1763696720505828000,2.014828125,0.3227911076635122,0.18527590337395666,0.6039996203556657
1763696720515851300,2.024851318359375,0.2684346635758877,0.234060100287199,0.5413070173382759
1763696720525874200,2.034874267578125,0.20766192270517347,-0.1574859791725874,0.748643069089949
1763696720535898000,2.044898193359375,0.15225859991312027,-0.09772738378047943,0.6910057036355137
1763696720545921300,2.05492138671875,-0.21805589094758032,-0.6963757062360644,1.1554410782173274
1763696720555944200,2.064944091796875,0.42287002300620075,-0.8213017703264951,1.3042092056661843
1763696720565968400,2.074968505859375,0.406364293885231,-0.7722384642109275,1.320911041881144
1763696720575991000,2.084990966796875,2.46611655728817,0.43686113895773887,0.45730859144181013
1763696720586014200,2.09501416015625,2.468009239166975,0.46449411903172727,0.4925333418190479
1763696720596037000,2.105037109375,1.8025217154085635,0.7794780600756406,-0.27796675429195167
1763696720606061300,2.115061279296875,1.8393243826270103,0.42683892663717266,-0.3075651892200112
1763696720616084200,2.125084228515625,1.8384978686749933,0.4335898622021079,-0.30222704306244846
1763696720626107100,2.135107177734375,0.9796972655594348,0.09671177699714899,-0.22856851713359355
1763696720636131300,2.14513134765625,0.9752975692957639,0.09721066642999648,-0.23831483512222765
1763696720646154200,2.155154296875,2.2775258302778005,-0.08955167610943317,-0.6522402119114995
1763696720656177400,2.165177490234375,1.9231167645573615,-0.013882394880056381,-1.0550371687039732
1763696720666200000,2.175199951171875,1.9117343697994946,-0.03232289145588874,-1.1031097102165222
1763696720676224300,2.185224365234375,0.9322311655074358,0.22342297093868255,-0.6990899336308241
1763696720686247200,2.1952470703125,0.9360878409355878,0.20519377902597188,-0.7105854333743452
1763696720696270300,2.205270263671875,0.7148632568240165,0.40949236277788875,-1.3034963812217115
1763696720706294300,2.215294189453125,0.5589782831072807,0.02043546978533268,-1.2803054752483962
1763696720716317200,2.225317138671875,0.25600889724493026,-0.0419081736639142,-1.2503384992688893
1763696720726340400,2.23534033203125,0.6917939314037561,-0.1536050460860133,-1.1720225029230118
1763696720736364000,2.245364013671875,0.6922989583164453,-0.13934621910899878,-1.154524547894299
1763696720746387200,2.25538720703125,0.9880623583227396,-0.24681553696393965,-0.9645727616637945
1763696720756410000,2.26541015625,0.9922305839180946,-0.23613281490802762,-0.9425903546974063
1763696720766432500,2.2754326171875,1.6505232277363537,-0.7122185875341296,-1.0640805991202593
1763696720776456400,2.28545654296875,1.8229653685003517,-0.9051797847136854,-1.1826268990457056
1763696720786479400,2.295479248046875,1.8428934732854365,-0.9399801721990108,-1.1743462696954607
1763696720796502300,2.305502197265625,0.8588292446881532,-1.0280533001884817,-1.540800870257616
1763696720806526500,2.3155263671875,0.8873544974267482,-1.065211064454913,-1.5162418908014892
1763696720816549600,2.325549560546875,1.528706527838111,-0.47102732019275423,-1.7432351214423774
1763696720826572500,2.335572509765625,0.9871540113061666,-0.4199219868555665,-1.9822864541456102
1763696720836596500,2.345596435546875,1.0296639502555132,-0.4526490751981735,-1.9247613168939948
1763696720846619400,2.355619384765625,0.7489344532519578,-0.39972120260894295,-1.1032128783300519
1763696720856642600,2.365642578125,0.782981684282422,-0.43307256032973523,-1.0672630285486577
1763696720866665500,2.37566552734375,-0.27555881636738777,-0.18251812909841536,-1.4313240119725466
1763696720876689400,2.385689453125,-0.794326669639349,-0.20447803197205067,-1.7560624543115495
1763696720886712600,2.395712646484375,-0.8621575123280286,-0.280476399025321,-1.6924623810604214
1763696720896735500,2.405735595703125,-0.6644067427843808,-0.4673647060319781,-1.8012129708975553
1763696720906759400,2.415759521484375,-0.5879027642965317,-0.5422668022811412,-1.7334312280476092
1763696720916782300,2.4257822265625,-1.2920914823710918,-1.8831947962746023,-1.249029754757881
1763696720926805500,2.435805419921875,-1.1690367651104927,-1.9728528553679585,-1.1217445603206753
1763696720936829400,2.445829345703125,0.6149819098800421,-1.7290815084055065,2.2192840691894293
1763696720946852400,2.455852294921875,-0.16346505358219146,-2.2482994435325265,1.2718980046480894
1763696720956875500,2.46587548828125,0.026547230663895607,-2.3654776699751614,1.4428718264251947
1763696720966898400,2.4758984375,-1.6495388928741215,-2.268330716431141,0.5302428947493434
1763696720976922600,2.485922607421875,-1.432593008995056,-2.370763501423597,0.7186386837095021
1763696720986945300,2.4959453125,-0.1485790346175432,-2.300758821827173,1.1268734476417301
1763696720996968400,2.505968505859375,0.6155407128065824,-1.9520242946118116,1.0878963589936494
1763696721006992600,2.51599267578125,1.335540163475275,-0.8652256677269935,-1.3394739957928656
1763696721017015600,2.526015625,0.5636930366694927,-1.5612404316961765,-0.8313783431828021
1763696721027038500,2.53603857421875,0.720550654810667,-1.6301877111941574,-0.7401981890887022
1763696721037062400,2.5460625,-0.9033768269449471,-2.1077689830750224,0.878406636339426
1763696721047085600,2.55608544921875,-0.7757078938871622,-2.159352455317974,0.9477665882915258
1763696721057108500,2.5661083984375,-1.4135294120848179,-1.1445973203808069,0.40488603802621365
1763696721067131400,2.57613134765625,-1.1951584638386965,-1.1079928060829638,0.6002583880007266
1763696721077155300,2.5861552734375,-0.44722471206188197,-1.1532067432940005,0.5636310773491859
1763696721087178500,2.596178466796875,-0.43515053564757106,-1.0413275000423192,0.36196927184164523
1763696721097201400,2.606201416015625,-0.29327216771245,-1.110571716660261,0.404271705520153
1763696721107225300,2.616225341796875,-0.9896107568085193,-0.024745149677991865,-0.24194003988206386
1763696721117248500,2.62624853515625,-0.8529764270067215,-0.10680617777109146,-0.22440146058201788
1763696721127271400,2.636271484375,-0.4009580509275198,-0.47225277033448215,1.0354752668827771
1763696721137294600,2.646294677734375,-1.145721940496564,-1.5068898328274487,1.8791963742882012
1763696721147318300,2.656318359375,-1.0188614012122155,-1.5905027665376663,1.8767916512340306
1763696721157341400,2.666341552734375,-0.5926230708166956,-1.9221493808299301,1.3395558288574219
1763696721167364400,2.6763642578125,-0.4870747841522097,-1.9958891553014515,1.3275181850612163
1763696721177388500,2.686388427734375,-2.5360508019968866,-0.23769290383160113,1.0267711514234543
1763696721187411500,2.696411376953125,-2.0936720686614514,0.02728080563545227,1.3212778293669223
1763696721197434400,2.706434326171875,-1.7239672341316938,-1.3452981719017028,2.613772631841898
1763696721207458600,2.71645849609375,-1.5455726147040725,-1.989172414267063,3.26814313378036
1763696721217481500,2.7264814453125,-1.4762836821615695,-1.9646230794221162,3.3307319841623304
1763696721227504400,2.73650439453125,-1.0706094163671136,-2.7019021661937237,2.7020746001511813
1763696721237527300,2.74652734375,-1.0378753137618302,-2.618414320167899,2.8030285447627303
1763696721247551500,2.756551513671875,-0.004572422482073307,-2.086789323410392,2.322458027938008
1763696721257574700,2.76657470703125,-0.5921461009547114,-2.2982909704089165,2.336034133347869
1763696721267597300,2.776597412109375,-0.5726160555765032,-2.164587433362007,2.467043609005213
1763696721277621500,2.78662158203125,-1.8166303202599285,-1.314004623493552,1.596665380820632
1763696721287644400,2.79664453125,-1.8549904460534452,-0.7337894910901784,1.4668956760913132
1763696721297667600,2.80666748046875,-1.2543401361256836,-0.47151744179725646,1.7068939342558382
1763696721307691500,2.81669140625,-0.7013403429061174,0.18108020524978638,1.7374235125541686
1763696721317714400,2.82671435546875,-0.644971389952302,0.29465690006911754,1.8440140017479658
1763696721327737600,2.836737548828125,0.6628107057645917,1.4724690923094748,0.9954998148471117
1763696721337760500,2.846760498046875,0.6680161654531955,1.544144335466623,1.0479080474764109
1763696721347784400,2.856784423828125,0.15301380219459532,0.9644868369460106,0.19085282672345638
1763696721357807400,2.866807373046875,0.027204233267903326,0.5688800839185715,0.45887832497656345
1763696721367830500,2.87683056640625,-0.5310498272180557,0.3398445337951183,0.7201496727943419
1763696721377854500,2.8868544921875,-1.942455963538587,-0.8694429931610822,1.0578718076080083
1763696721387877400,2.89687744140625,-1.8846958484873175,-0.7993027044862508,1.1248872422605751
1763696721397900300,2.906900390625,-1.497278831656277,-2.467393737617135,0.602262713560462
1763696721407923500,2.91692333984375,-1.577834131361544,-0.8502166069045662,-2.1976807246685026
1763696721417947600,2.92694775390625,-1.3440677533239125,0.7908879273623227,-3.771449214026332
1763696721427970300,2.93697021484375,-1.6476903423979878,1.5632418346464634,-3.153126761546731
1763696721437993500,2.946993408203125,-1.5640505206808446,1.6968594469755887,-3.055985653221607
1763696721448017400,2.957017333984375,-0.8381266483992338,2.008041365388036,-2.7421809850901364
1763696721458040600,2.96704052734375,-0.6891385945893824,2.130189489197731,-2.6421733814179897
1763696721468063200,2.977063232421875,0.515497891690582,3.0843387642636895,-2.039746417206526
1763696721478087400,2.98708740234375,0.3972708868473768,2.6729557654336094,-1.3582722197651862
1763696721488110600,2.997110595703125,0.5817062477439642,2.768725877666473,-1.2791080821573733
1763696721498133500,3.007133544921875,-1.0580066860340536,1.2686308195456861,-1.5601567281126976
1763696721508156400,3.017156494140625,-0.8435269000075757,1.3480322730407117,-1.49485803425014
1763696721518180400,3.027180419921875,-1.76211371717453,0.4363301008209586,-2.2027233950108287
1763696721528203500,3.03720361328125,-0.02470832479894161,0.8273810902401805,-1.6457529445946215
1763696721538226400,3.047226318359375,0.9171060040246695,1.8827911839097737,-2.0251719484090804
1763696721548250400,3.05725048828125,0.7234241644203663,2.2594781324118376,-0.8779694139659404
1763696721558273500,3.0672734375,0.8793360261440276,2.3013494811967012,-0.8579559689849615
1763696721568296400,3.07729638671875,1.380100605213642,3.0781071763977406,1.0285101040452718
1763696721578319600,3.087319580078125,1.4389058454036712,3.1474481313884257,1.054065985584259
1763696721588343300,3.09734326171875,0.33133506412506103,2.0196496778562665,1.108359885829687
1763696721598366500,3.107366455078125,-0.02753330995864235,1.5608894263014197,0.45405251225531096
1763696721608389400,3.117389404296875,0.02853634038819,1.6297379216000436,0.47681671724915503
1763696721618413600,3.12741357421875,0.4956920981109142,0.7250467971861362,-0.19051321950554848
1763696721628436500,3.1374365234375,0.5060650235652924,0.8116396234899759,-0.16284546037912367
1763696721638459400,3.14745947265625,-0.11881108834147452,0.6572615472048521,0.35489597245454785
1763696721648483600,3.157483642578125,-0.06543254024214111,0.2807572617933154,0.6410182684123515
1763696721658506500,3.167506591796875,-0.058293189881509166,1.5685361416622996,-0.07583060927093029
1763696721668529400,3.177529296875,-0.7262684479355812,1.6272621791362762,-0.5344570053130387
1763696721678552300,3.18755224609375,-0.7065899339973926,1.721975183531642,-0.5097428352952004
1763696721688576500,3.197576416015625,0.48205870955586433,0.9781418528109789,0.30123978559076786
1763696721698599700,3.207599609375,0.5633773948490619,1.0317160604797304,0.3130833681195974
1763696721708622300,3.217622314453125,0.5855787417957559,0.3893757496833801,0.06473404571712017
1763696721718646500,3.227646484375,1.2705027508974074,0.3247320125982165,0.3283563405752182
1763696721728669400,3.23766943359375,1.2511316954731941,0.31416166487559677,0.3264554753899574
1763696721738692600,3.247692626953125,1.43450673366189,0.7519481019847094,0.7303332131564617
1763696721748715500,3.257715576171875,0.0229834007024765,0.1570424731887877,-0.12228782454133033
1763696721758739500,3.267739501953125,-0.4635819726228714,-0.305324862947315,-0.4031348104447126
1763696721768763000,3.277762939453125,-0.4211749095261097,-0.30662761610895395,-0.29008418532609936
1763696721778785800,3.287785888671875,-0.4514157340109348,-0.31044118304774165,-0.2907669068932533
1763696721788809700,3.297809814453125,0.33716274736523627,-0.15177783065885306,0.2409925298988819
1763696721798832600,3.30783251953125,0.2985369563728571,-0.14855916087329388,0.24182196646034715
1763696721808855800,3.317855712890625,-0.14077683643400668,-0.16170754239037632,0.4523527226001024
1763696721818878700,3.327878662109375,-0.18349077352285384,-0.1618701856061816,0.4520008404225111
1763696721828902700,3.337902587890625,-0.10455986928218043,0.4154242370449006,1.2535539541840552
1763696721838925600,3.347925537109375,-0.3201759567290544,0.47878947862684723,1.503146554645896
1763696721848948700,3.35794873046875,-0.39051147571504113,0.4853247256144881,1.5030238050490616
1763696721858972700,3.36797265625,-0.2802888040313497,0.6267831145718693,1.7339806786239147
1763696721868995600,3.37799560546875,-0.3562093931406736,0.6243934429563581,1.730363657170534
1763696721879018800,3.388018798828125,-0.36231172860376537,1.517653072773665,2.1419179209142922
1763696721889042700,3.398042724609375,0.09102415981478988,1.537131387964636,1.7322013939917087
1763696721899065900,3.40806591796875,-0.054018005913496016,1.5215454040370882,1.7177409069627523
1763696721909088500,3.418088623046875,1.696706302240491,0.7650399310089647,2.0103116484075785
1763696721919111700,3.428111572265625,1.5337813468843697,0.7187893442265689,1.981128808543086
1763696721929135900,3.438135986328125,1.5547610065490007,0.6792834093987942,1.570655910295248
1763696721939158800,3.44815869140625,1.384570005712658,0.584060117393732,1.520345526728034
1763696721949181700,3.458181640625,2.0902157907277346,-1.196147767136991,1.4269453584969043
1763696721959205600,3.46820556640625,2.7549650633394718,-1.8635875940069555,1.2994476903527974
1763696721969228800,3.478228759765625,2.5518247097119686,-1.9287524323567746,1.2379361138135194
1763696721979251700,3.488251708984375,2.9379654229968786,-2.088135185061395,1.8517413811296224
1763696721989274600,3.498274658203125,2.688571559977531,-2.0709353361964227,1.7931711187392472
1763696721999298800,3.508298828125,2.7478207445427776,-2.1749793557778,1.1298282057940958
1763696722009321700,3.51832177734375,2.6622970087751745,-2.338062424305081,0.548861962762475
1763696722019345000,3.528344970703125,2.347685992696881,-2.2510338369324803,0.46175592623949047
1763696722029368600,3.53836865234375,2.4139900642096994,-2.668107156358659,-0.7984516406148672
1763696722039391700,3.548391845703125,2.1238474266946317,-2.5870921301871537,-0.9023743719041347
1763696722049414700,3.55841455078125,2.169805460271239,-4.83258440734446,-1.015040381619334
1763696722059438600,3.5684384765625,2.2030250083059073,-3.5370091745108363,-1.2134756262958049
1763696722069461800,3.578461669921875,1.531520708476007,-3.462956096306443,-0.6703747112780809
1763696722079484700,3.588484619140625,0.920628405997157,-4.504147402748465,-0.5160615169227123
1763696722089507800,3.5985078125,0.7293354342907666,-4.297381552100181,-0.5869353805691003
1763696722099531800,3.60853173828125,1.7956880699962376,-4.926546885633468,-1.0328314743757248
1763696722109554700,3.6185546875,1.6126795270323753,-4.67801402335763,-1.112841415157914
1763696722119577600,3.62857763671875,2.1421400392323733,-3.8268385082930325,-2.4062837276160716
1763696722129601800,3.638601806640625,2.2531179497301577,-3.264379689593613,-3.471339309248328
1763696722139624700,3.648624755859375,2.114630101016164,-2.995154167900979,-3.5554981864035127
1763696722149647600,3.658647705078125,2.2679320725023744,-3.2680306133165953,-4.53985350690186
1763696722159670500,3.66867041015625,2.1472160273224112,-3.0018910749405623,-4.635141680836678
1763696722169694700,3.67869482421875,2.490221655496955,-2.9527544113278386,-4.736045356565714
1763696722179718000,3.6887177734375,0.9374386710226535,-2.3319307896822687,-3.92781466473639
1763696722189740500,3.698740478515625,0.34938159294724463,-1.8475171875633298,-3.518279924121499
1763696722199764700,3.7087646484375,-0.43624622192978857,-1.4060326265886425,-2.8314807322651148
1763696722209787600,3.71878759765625,-0.5121797070533037,-1.1805120988488196,-2.9399089582800864
1763696722219810800,3.728810791015625,-0.8821019837260246,-1.0355231976777315,-1.9344658415675162
1763696722229833700,3.738833740234375,-0.933940892034769,-0.8355392622545361,-2.031959416592121
1763696722239857700,3.748857666015625,-0.9785358205646276,-1.034057070647925,-1.7972703707516193
1763696722249880800,3.758880859375,-0.26540917827486993,-1.5632352587752043,-1.3831336892992256
1763696722259903700,3.76890380859375,0.0023638065218925474,-1.387298553893715,-1.7082570393025873
1763696722269927700,3.778927734375,0.041886254093050954,-1.1506645114652811,-1.9969541541844604
1763696722279950600,3.78895068359375,0.02653612474799156,-1.0525481283672153,-2.0484207220494746
1763696722289973800,3.798973876953125,-0.33742519769370555,-0.7966472215414047,-2.2999124341309067
1763696722299996700,3.80899658203125,-0.7932166625708341,-0.30746231336742635,-2.2674504264652726
1763696722310020600,3.8190205078125,-1.2567992197155953,0.0055760465666651726,-2.1044033060342073
1763696722320043800,3.829043701171875,-1.619408543026447,0.28803602062463757,-1.890629037928581
1763696722330066700,3.839066650390625,-1.6209434975087642,0.31935031955987214,-1.9052613743931055
1763696722340090600,3.849090576171875,-1.879034461724758,0.3833712485715747,-1.3848334789544343
1763696722350113500,3.859113525390625,-1.8666987117648124,0.42567163642346856,-1.3894663994520902
1763696722360136700,3.86913671875,-2.156864145633578,0.1624985466375947,-1.3006301781356333
1763696722370159600,3.87915966796875,-1.9395897604525087,-0.026271920853853225,-1.275932374730706
1763696722380183800,3.889183837890625,-1.966639095419645,-0.1266650167122483,-1.221796879917383
1763696722390206700,3.899206787109375,-2.1401041494905946,-0.009184592452645302,-1.0410270557910204
1763696722400229600,3.909229736328125,-2.10115277980566,0.09033990387767553,-1.0472557210475206
1763696722410253800,3.91925390625,-2.5275223353654144,0.43686260026246304,-0.7096481525242329
1763696722420276700,3.92927685546875,-2.476213588410616,0.5592100460365415,-0.7187094108581542
1763696722430299600,3.939299560546875,-1.6796031917482614,0.5869365496128797,-0.9184142370790243
1763696722440322600,3.949322509765625,-1.2915198199629783,0.846742501053214,-1.1512877579301595
1763696722450346800,3.9593466796875,-1.2601765871942043,0.9621034489408135,-1.1855436632752419
1763696722460370000,3.969369873046875,-1.2285264804333447,1.4352932078644633,-1.2369190457254648
1763696722470392800,3.979392822265625,-1.2114192782878874,1.537835298450291,-1.2828957840025423
1763696722480416800,3.989416748046875,-0.9406360057592391,1.3289394500359892,-1.2230378198891878
1763696722490439700,3.999439697265625,-0.9283879340827464,1.4302680731788278,-1.2776444393455981
1763696722500462800,4.009462890625,-0.8204863622903823,1.5771508252725004,-1.3059212702810763
1763696722510485800,4.01948583984375,-0.6062012220531702,1.6277543465673923,-1.4598679694116115
1763696722520509700,4.029509765625,-0.6034276656866073,1.7263211037814616,-1.5297522374987602
1763696722530532600,4.03953271484375,-0.34025720624923705,1.7656190949469803,-1.7059937705457209
1763696722540555800,4.0495556640625,-0.19012275888323782,2.036822054192424,-1.8907494494378565
1763696722550579700,4.059579833984375,-0.027416999235749244,2.184615783651173,-1.9806284578055142
1763696722560602600,4.0696025390625,-0.011280687949061393,2.2295038499087094,-1.9180664954304694
1763696722570625800,4.079625732421875,-0.031611528316140176,2.2969515384986994,-2.0007330882012844
1763696722580648700,4.089648681640625,-0.5344307018280029,2.3995386372700334,-1.7747826446115968
1763696722590672600,4.099672607421875,-0.5464280136138201,2.4602409432530403,-1.8451549884766338
1763696722600695600,4.109695556640625,-0.8542559454232453,2.7909540760874747,-1.5741905141621828
1763696722610718700,4.11971875,-0.7831763300716876,2.948824086141586,-1.4609920050054788
1763696722620743000,4.129742919921875,-0.7693699230372906,3.012043635642528,-1.5057383247047662
1763696722630765600,4.139765625,-0.4101028958916664,3.3677374804764986,-1.1805518463373184
1763696722640788700,4.149788818359375,-0.38406419927179813,3.429878002569079,-1.2109276953786612
1763696722650811600,4.159811767578125,0.009701894325017928,3.509280625107884,-1.0150690231919288
1763696722660835800,4.1698359375,0.378269833779335,3.395356724286079,-1.1457687022477387
1763696722670858500,4.1798583984375,0.3945037602216005,3.4345530086427924,-1.1669102744758129
1763696722680881700,4.189881591796875,0.7541460504204034,3.275916690391302,-1.24125444458127
1763696722690905900,4.19990576171875,0.7628373063981533,3.296871215614676,-1.2529051348865032
1763696722700928800,4.2099287109375,0.5290466707020998,3.812946761062741,-1.011293596306443
1763696722710951700,4.21995166015625,0.5375736760288476,3.823741711321473,-1.0121937600165605
1763696722720975600,4.2299755859375,0.42377252480387684,4.158115120229125,-0.8813713313639163
1763696722730998800,4.239998779296875,0.6828618524074554,4.261785922583937,-1.0049339981466532
1763696722741021700,4.250021728515625,0.695897275069356,4.257161769914627,-0.9833353298008441
1763696722751044900,4.260044921875,1.5659849958747625,4.378408560970425,-0.998805870655179
1763696722761068800,4.27006884765625,1.5779180102527142,4.362299722212553,-0.9665367552131414
1763696722771092000,4.280092041015625,2.1688409991532565,4.33485232783854,-0.9117799136310816
1763696722781115000,4.290114990234375,2.4075018712341785,4.079471207103133,-1.011657168921828
1763696722791138000,4.300137939453125,2.507599491277337,3.7845010033011435,-1.2123761406213045
1763696722801161700,4.31016162109375,2.4419506688028574,3.451131802999973,-1.4013929840892552
1763696722811185000,4.320184814453125,2.4143477916061875,3.395512207108736,-1.378690738415718
1763696722821207800,4.330207763671875,2.4191449627548454,2.7203713043421507,-1.9431810629427433
1763696722831231700,4.340231689453125,2.38892342749238,2.655802093797922,-1.91668527020514
1763696722841255000,4.3502548828125,2.319010517832637,2.241129405772686,-2.4886352630883453
1763696722851277800,4.36027783203125,2.3743285004287955,2.0064841990739106,-2.6271084987550974
1763696722861302000,4.370302001953125,2.361893966269493,1.9346961431920526,-2.575849436160922
1763696722871324700,4.38032470703125,2.715154446476698,1.1190513757139444,-2.8529040440440174
1763696722881347800,4.390347900390625,2.705896788787842,1.040865143227577,-2.795295320162177
1763696722891370800,4.400370849609375,3.364685107168555,-0.10531681599617004,-3.2844238219738005
1763696722901395000,4.41039501953125,3.4227480045586822,-0.6182768597722054,-3.501934353998303
1763696722911417600,4.42041748046875,3.400159740653634,-0.7108335629165172,-3.4534424180299044
1763696722921440800,4.430440673828125,2.8826106155216693,-1.0291256055951117,-3.865350317516923
1763696722931465000,4.44046484375,2.8576918628424406,-1.1322291294559836,-3.8157062889039515
1763696722941487900,4.45048779296875,2.3528958362996577,-1.5675465461030602,-4.078471674671769
1763696722951510800,4.4605107421875,2.078099820998311,-1.6478972631469369,-4.086484300735592
1763696722961533700,4.47053369140625,2.0633535027652976,-1.6494786871194838,-4.269630206343531
1763696722971558000,4.480557861328125,2.127515301552415,-1.8155016084909439,-4.447426567617058
1763696722981580800,4.490580810546875,2.125841815382242,-1.944132664579153,-4.368598530095816
1763696722991604000,4.50060400390625,2.1266057854920626,-2.161473100733757,-4.454364842447638
1763696723001628000,4.5106279296875,1.428532919949293,-1.8536799479767678,-4.407055394262075
1763696723011650800,4.52065087890625,0.9709639240056276,-1.6630770043611525,-4.390490043908358
1763696723021674000,4.530674072265625,0.4643769223928451,-1.2916817325264214,-4.311984662470222
1763696723031697000,4.54069677734375,0.5032797767609357,-1.4386243981137872,-4.203552929323911
1763696723041720800,4.550720947265625,-0.6764145759642124,0.11279051287770271,-3.7264620713084935
1763696723051743700,4.56074365234375,-0.6085445703089237,-0.026651860082149505,-3.6037908004075287
1763696723061767000,4.570766845703125,-1.0332418087422848,0.7492258374139666,-3.0014766489207743
1763696723071790800,4.580790771484375,-0.7317156074255704,0.5603831814691425,-2.7903613708913326
1763696723081813800,4.590813720703125,-0.6661153002679348,0.39695422211363907,-2.6784429646730423
1763696723091837000,4.6008369140625,0.8581471076428889,0.5193349856354296,-3.497020862993598
1763696723101859800,4.61085986328125,0.813733965420723,0.2309958904109895,-3.4605788457810878
1763696723111883800,4.6208837890625,0.20739713428914547,-2.781361487355828,-1.029416112974286
1763696723121906700,4.63090673828125,-2.409802549391985,-3.5396570586711165,-0.31014088492691516
1763696723131929900,4.640929931640625,-2.7557968379884956,-2.885207646277547,-0.5502461105972528
1763696723141954000,4.6509541015625,-1.8670126000195741,-2.679402457354963,-0.7399912683397531
1763696723151976700,4.660976806640625,-1.8404817359685897,-2.7817846812039613,-0.704231972694397
1763696723162000000,4.670999755859375,0.18431494938731194,-2.7259306920349595,-1.1844780798703431
1763696723172022800,4.681022705078125,0.23685411491990088,-2.817516504320502,-1.1303642123669386
1763696723182047000,4.691046875,1.0103063388347626,-2.000971427001804,-0.9928156903296709
1763696723192070000,4.70106982421875,0.8462602704942226,-1.593989878001064,-0.5744581763118505
1763696723202092800,4.7110927734375,0.8954875349998473,-1.7562734667137265,-0.5271306079477072
1763696723212116700,4.72111669921875,0.2669914790302515,-1.8110400990374385,0.37599136745333667
1763696723222140000,4.731139892578125,0.30501287438869473,-2.008783123666048,0.40514615026712414
1763696723232163000,4.7411630859375,-0.8132318611174821,-2.2530022143959996,1.2867927914410828
1763696723242185700,4.751185791015625,-1.3564257151156662,-2.419563480427861,1.6951538121014833
1763696723252210000,4.7612099609375,-1.7814403489351271,-2.6246345098569988,2.041819131827354
1763696723262232800,4.77123291015625,-2.095785699814558,-2.875544038136303,2.360828967386484
1763696723272256000,4.781256103515625,-2.049242559826374,-3.0192499137595292,2.378464577320218
1763696723282279700,4.79127978515625,-2.689163096129894,-3.1450629898175597,2.9988036303192374
1763696723292302800,4.801302734375,-2.6371862406551836,-3.234845552073419,3.0240391938626763
1763696723302325800,4.81132568359375,-2.602841487982869,-3.033986002859473,3.260028800907731
1763696723312349000,4.821348876953125,-2.6104958021283147,-2.890298831936717,3.3259611164987084
1763696723322372900,4.831372802734375,-2.5681512828737496,-2.9284023526206613,3.3501410335093733
1763696723332395800,4.841395751953125,-2.4787562586307526,-2.527273329040408,3.329879751247167
1763696723342419000,4.8514189453125,-2.450097150379419,-2.562090375399589,3.3439825108796355
1763696723352442600,4.861442626953125,-2.3689479764342307,-2.4837428148716687,3.403773839497566
1763696723362465800,4.8714658203125,-2.4454765048414466,-2.5694924683496354,3.568901273334026
1763696723372488700,4.88148876953125,-2.5197078622221944,-2.743880190223455,3.7777380850374698
1763696723382511900,4.891511962890625,-2.512676063889265,-3.052145344406366,3.9473441255927084
1763696723392535800,4.901535888671875,-2.5062580135405064,-3.104063747692108,3.940613940554857
1763696723402558700,4.911558837890625,-2.432299627882242,-3.5826825459271667,4.316653823325038
1763696723412582000,4.921581787109375,-2.427863106739521,-3.6155624867439267,4.3122751698493955
1763696723422605800,4.931605712890625,-2.265122860300541,-3.878390124092996,4.482303819730878
1763696723432629000,4.94162890625,-2.1438614561975,-3.977785148824751,4.446255185750126
1763696723442651600,4.951651611328125,-2.139568727439642,-3.963352426585555,4.45264517904818
1763696723452674800,4.9616748046875,-1.9145804068803787,-3.8947248805612324,4.194509791168571
1763696723462699000,4.971698974609375,-1.912125414943695,-3.8595676424622534,4.2041614166110755
1763696723472722000,4.981721923828125,-1.394043205848336,-3.8549908360660075,3.6914264137625694
1763696723482744800,4.991744873046875,-1.1210767440617084,-3.933056657043099,3.4678953062742948
1763696723492768800,5.001768798828125,-0.9056406802237034,-4.041727459642291,3.2152824812084435
1763696723502792000,5.0117919921875,-0.6764543234527111,-4.115285155545175,2.9875930849969383
1763696723512814800,5.02181494140625,-0.712708124616742,-4.062864940217137,2.9721833344191313
1763696723522838800,5.0318388671875,-0.7134913839489221,-3.9864123996555803,2.616711607903242
1763696723532862000,5.041862060546875,-0.7803677023917436,-3.9023581519186497,2.5832658498972654
1763696723542884900,5.051884765625,-0.4052437654227018,-3.318317323747277,1.590613241174817
1763696723552908000,5.061907958984375,-0.05654314047694206,-3.009012889644503,0.8924170415133237
1763696723562931700,5.071931640625,-0.1600263113051653,-2.8694410450860857,0.8317425003200769
1763696723572955000,5.081954833984375,0.8796037371695041,-2.781094653113186,-0.7023007123708724
1763696723582977800,5.091977783203125,0.7841238400548696,-2.6258245964244007,-0.7640490202754735
1763696723593001700,5.102001708984375,1.5194190595328807,-2.955686957648396,-1.519153686594963
1763696723603024600,5.112024658203125,1.4500596921026705,-3.146523710019886,-1.756540885478258
1763696723613047800,5.1220478515625,1.4178051897078752,-2.969523467560112,-1.7770324693650006
1763696723623070700,5.13207080078125,1.1618588363051414,-3.248219412909448,-1.9419997442036867
1763696723633095000,5.142094970703125,1.2051719083309174,-3.043104252077639,-1.9069623330920933
1763696723643117800,5.152117919921875,1.5102958418786525,-3.2488688167288897,-1.5310294178277253
1763696723653140700,5.162140625,1.7690917394936083,-3.020867578089237,-1.234609599739313
1763696723663165000,5.1721650390625,2.2009359270721673,-2.726952144037187,-1.028144193342328
1763696723673187800,5.182187744140625,2.2996359552770853,-2.4971248590141535,-0.9795265851676463
1763696723683210800,5.192210693359375,2.7500340366780756,-2.226889137365669,-1.0041016389757393
1763696723693233700,5.202233642578125,3.161815679436922,-2.385109422162175,-1.1897685874938964
1763696723703257900,5.2122578125,3.1922534877985713,-2.18302676089406,-1.209224983114004
1763696723713281000,5.222281005859375,3.4693630407392977,-3.1716303864866493,-1.68723354049623
1763696723723303700,5.2323037109375,3.4920302150994535,-3.6377924387305973,-1.9190788873434066
1763696723733328000,5.242327880859375,3.470466033545136,-4.000804497623443,-2.2805600834071633
1763696723743350800,5.252350830078125,3.2165637531906364,-4.157978926628828,-2.5891367877572775
1763696723753374000,5.2623740234375,3.133952689999342,-4.000909419302642,-2.709795549792051
1763696723763396900,5.27239697265625,2.3176900828838347,-3.726377315634489,-2.795042222183943
1763696723773421000,5.282421142578125,2.2557652493685483,-3.4796427349522707,-2.851702267038822
1763696723783444200,5.2924443359375,2.506053430879116,-3.217373316007852,-2.7728555248171087
1763696723793467100,5.302467041015625,2.678310278204083,-2.8168258917078375,-2.8178286390095946
1763696723803491000,5.312490966796875,2.612330616340041,-2.6273165885478256,-2.976577769985795
1763696723813514200,5.32251416015625,3.267375072017312,-2.5460142698675394,-2.9103385804027315
1763696723823537200,5.332537109375,3.210016523504257,-2.356246315771341,-3.0814509338676928
1763696723833560300,5.342560302734375,3.1619524575591087,-2.346602581374347,-2.825403458178043
1763696723843584000,5.352583984375,2.697680749106407,-2.027870685973763,-2.7515239829748865
1763696723853607200,5.362607177734375,2.1828040580540895,-1.6047493185549973,-2.681929637745023
1763696723863630000,5.372630126953125,1.570765800410509,-1.0669169915899634,-2.545446114590764
1763696723873654000,5.382654052734375,1.5571616379499436,-0.8983344488635658,-2.704731836661696
1763696723883677200,5.39267724609375,0.3855927240133285,0.3050564212694764,-2.308638761422038
1763696723893700000,5.4027001953125,-0.025120412731170653,0.8866951567351817,-2.229226786532998
1763696723903723300,5.41272314453125,-0.26396365564167495,1.253293257421255,-2.258497889202833
1763696723913747200,5.422747314453125,-0.2929688008517027,1.501260887029767,-2.3802216501206157
1763696723923770000,5.43277001953125,-0.24274551104605196,1.6591221292555332,-2.490713822928071
1763696723933793000,5.44279296875,-0.4632932188093662,2.0842297020554543,-2.417344927595556
1763696723943817200,5.452817138671875,-0.40722529462873935,2.216006070432067,-2.502871001450717
1763696723953840000,5.462840087890625,-0.5888970360308885,2.328750990602374,-2.4494141365513205
1763696723963863000,5.472863037109375,-0.4564063819050789,2.5316028826773165,-2.5563193907827135
1763696723973886000,5.482885986328125,-0.5897369939863681,2.820661232087016,-2.484519936724007
1763696723983910100,5.49291015625,-0.7809680063724518,3.0008015261381864,-2.29533738130033
1763696723993933300,5.502933349609375,-0.7432207517802715,3.0459511659413576,-2.3052266148909926
1763696724003956000,5.5129560546875,-0.9698083242297172,3.031841976568103,-1.931605483700335
1763696724013980200,5.522980224609375,-0.9385802422732115,3.0511306144058703,-1.9148539631247519
1763696724024003000,5.533003173828125,-0.9808522808134555,2.9673107599467037,-1.7331877746805548
1763696724034026200,5.543026123046875,-1.0696487546414137,2.9818676930874584,-1.4304469368770718
1763696724044049200,5.553049072265625,-1.0421809020012616,2.976957709214091,-1.38577397467494
1763696724054073000,5.563072998046875,-1.1267442683041096,2.7732109141260386,-0.7054413484841585
1763696724064096300,5.57309619140625,-1.1016957517653703,2.764602660256624,-0.660146747252345
1763696724074119200,5.583119140625,-1.0478905118197201,2.700617971602082,-0.14931728576421738
1763696724084143000,5.59314306640625,-1.0823416474759577,2.8390888691812752,0.03519084810763597
1763696724094166000,5.603166015625,-1.0341595081090926,2.94848097179234,0.02437894671410322
1763696724104189200,5.613189208984375,-1.0199293227046728,3.0283167250514027,0.03955167366564274
1763696724114212000,5.623212158203125,-1.0179635755896568,3.0179724411696194,0.05576280375421047
1763696724124236000,5.633236083984375,-1.1972031214088201,3.2582863411545753,0.14728665671944619
1763696724134259200,5.64325927734375,-1.3770505699932574,3.3468536824017763,0.3141998049288988
1763696724144282000,5.6532822265625,-1.4756962376624345,3.3588878190666436,0.5919646069079637
1763696724154306000,5.66330615234375,-1.5129986710965633,3.375460768204927,0.838999047319591
1763696724164329000,5.673328857421875,-1.513879545584321,3.362459832334518,0.8546309162154794
1763696724174352100,5.68335205078125,-1.2266858210027216,2.9822756893664595,0.887636529238522
1763696724184375000,5.693375,-1.2336124053955078,2.9672499696701764,0.8981485709026455
1763696724194399200,5.703399169921875,-1.2127671857655047,2.7490140459805725,0.7717489271283149
1763696724204422100,5.713422119140625,-1.1293757858514786,2.7595044603347776,0.6378250253289938
1763696724214445000,5.723445068359375,-1.1377052227795124,2.7479449554443356,0.6420037723183631
1763696724224469200,5.73346923828125,-1.0633300730139017,2.825883350649476,0.3835796306252479
1763696724234492200,5.7434921875,-1.0669517706423997,2.817749728554487,0.38926001434922214
1763696724244515000,5.75351513671875,-0.4681809908509254,2.521998603507876,-0.0046957566007971765
1763696724254538000,5.7635380859375,-0.23122166199088096,2.3500427849560976,-0.09626724810004234
1763696724264562200,5.773562255859375,-0.23358429946899412,2.338482695543766,-0.08484159872233867
1763696724274585000,5.783585205078125,0.37915655348598953,1.9676257683694363,-0.3181274997666478
1763696724284608000,5.79360791015625,0.3725707453548908,1.9518506916105747,-0.306873699824512
1763696724294632200,5.803632080078125,0.9329688321322203,1.7455957130938768,-0.48442923807948823
1763696724304655000,5.813655029296875,0.9207488175064324,1.729748155620694,-0.48023412447720765
1763696724314678300,5.82367822265625,1.3389350666105746,1.4851877041071653,-0.5387842208623885
1763696724324701200,5.833701171875,1.5123369923174381,1.3484382234930992,-0.6778919550403952
1763696724334725000,5.84372509765625,1.4905869328022003,1.341739602637291,-0.6970186803147196
1763696724344748000,5.853748046875,1.7317150717794894,1.09889881452322,-1.2547133533522485
1763696724354771200,5.863771240234375,1.7098329103171825,1.0942466048032045,-1.2769164173319936
1763696724364795100,5.873795166015625,1.301402916073799,1.6955010181039571,-1.4503493226990103
1763696724374818000,5.883818115234375,1.2299684959352015,2.015582282286882,-1.4523177001625298
1763696724384841200,5.89384130859375,1.1146125164836644,2.210977428615093,-1.3289312667295337
1763696724394864000,5.903864013671875,1.0553741455733776,2.2201117521852254,-1.2130027480870484
1763696724404888000,5.91388818359375,1.0486217487037182,2.199595618379116,-1.1966522095277905
1763696724414911000,5.923910888671875,1.1460334906637668,1.9662077182650566,-1.1006558873236179
1763696724424934100,5.93393408203125,1.011441480344534,1.8287059579789637,-0.9444655009195208
1763696724434958300,5.943958251953125,0.6194844819962978,1.803262889164686,-0.6467828232884406
1763696724444981000,5.95398095703125,0.4329892659604549,1.6458301014840602,-0.2466390113532543
1763696724455004200,5.964004150390625,0.449718282443285,1.6044745932668447,-0.17868892619907856
1763696724465027000,5.974027099609375,0.3892050692915916,0.6963935341536999,0.6082055476129055
1763696724475051300,5.98405126953125,0.43118952306210995,0.6624620384573936,0.6954185516417026
1763696724485074000,5.994073974609375,0.641522710803151,-0.3820832545876503,1.4462217213749884
1763696724495097000,6.00409716796875,0.8778449108034372,-0.6458779834032058,1.6395552589982747
1763696724505121300,6.014121337890625,1.0069511831879616,-0.6207330207526683,1.756650775593519
1763696724515144200,6.024144287109375,0.9794278009682893,-0.3296224149882793,1.686088462114334
1763696724525167000,6.0341669921875,1.0431640678197145,-0.2980833673864603,1.7221160533070563
1763696724535190000,6.04418994140625,1.1618488994330167,0.740868051174283,0.9170183988064528
1763696724545214200,6.054214111328125,1.3796172056108713,1.2926473626881838,0.3764057934731245
1763696724555237000,6.064237060546875,1.4099638285577296,1.785291763666272,-0.07310206108987331
1763696724565260300,6.07426025390625,1.3447574891537426,2.070210529053211,-0.4504962810784578
1763696724575284200,6.0842841796875,1.3657482547342776,2.088137230888009,-0.447910940760374
1763696724585307100,6.09430712890625,1.3595938237577676,1.9671271711975336,-1.213663842344284
1763696724595330300,6.104330322265625,1.3425509190201759,1.9416618905514478,-1.2044763272821903
1763696724605353200,6.114353271484375,0.8841945720911025,1.2923656231373548,-1.7006722832620143
1763696724615377200,6.124377197265625,0.5205237570285797,1.0027046316593884,-1.7585668383479118
1763696724625400000,6.134400146484375,0.48627077429294585,0.939340120729804,-1.7299790417671204
1763696724635423200,6.14442333984375,0.07933774060904979,0.41724692242741585,-1.7130419354915618
1763696724645447000,6.154447021484375,0.053980011990666384,0.3565793954968452,-1.6801333531022071
1763696724655470000,6.164469970703125,-0.03350187210738659,0.19916297442913053,-1.8115818046987056
1763696724665493000,6.174492919921875,0.07267945176362992,0.27916180929541584,-1.9011597842931747
1763696724675516200,6.18451611328125,0.40723172436952587,0.2775748323649168,-2.0279864213079213
1763696724685540000,6.1945400390625,0.8714806364685297,0.16788228550255296,-2.142509457066655
1763696724695563000,6.20456298828125,0.8461205697625875,0.1018809963285923,-2.1090227825284003
1763696724705586200,6.214586181640625,1.4394891982495783,0.0023725743502378462,-2.1173405290186404
1763696724715609000,6.224609130859375,1.3909908325403928,-0.09188216488361359,-2.0852976235479117
1763696724725633000,6.234633056640625,1.6439140387296676,-0.6417009899795055,-1.8075912737578153
1763696724735656000,6.244656005859375,1.3308283325225114,-0.9116720693424344,-1.6116636279881
1763696724745679000,6.25467919921875,1.2599112142562865,-1.0317159143492578,-1.589261242043972
1763696724755703300,6.264703369140625,0.6208440799117088,-1.1553791188970208,-1.1993570845723152
1763696724765726200,6.274726318359375,0.5601759684592486,-1.269884326738119,-1.1768956619173288
1763696724775749400,6.284749267578125,0.5711988822549581,-1.3282877081289888,-1.1608102040350436
1763696724785772500,6.2947724609375,0.5249602781713009,-1.4381371991187333,-1.132041790190339
1763696724795796500,6.30479638671875,0.8616583306342362,-1.7339771714925765,-1.1456629037857056
1763696724805819400,6.3148193359375,0.9819412450939417,-1.917349287071824,-1.1680600290328265
1763696724815842300,6.32484228515625,0.9437912549197673,-2.0327344926178452,-1.1346914279162883
1763696724825866500,6.334866455078125,0.9273568374693393,-1.7945561433568595,-1.2110586282819509
1763696724835889700,6.3448896484375,0.8909697653144597,-1.912205786703527,-1.1796791551560162
1763696724845912600,6.35491259765625,0.6661421882748604,-1.4655714417502284,-1.4572498958677054
1763696724855935500,6.364935546875,0.4319529086500406,-1.3357926769316195,-1.4219693236500024
1763696724865959400,6.37495947265625,0.41591245895326134,-1.4475234516233204,-1.3799936377078295
1763696724875982600,6.384982666015625,0.3501309500098228,-1.725705017709732,-1.3816051645576952
1763696724886005500,6.395005615234375,0.350233241340518,-1.8247727101832627,-1.3334528358072042
1763696724896029400,6.405029541015625,0.24767887579500675,-1.724591211248934,-1.3433476223558187
1763696724906052400,6.41505224609375,0.2595534379839897,-1.8135981129571794,-1.2913982394099235
1763696724916075500,6.425075439453125,0.16861586047410965,-1.3925079591050744,-1.2547586537986992
1763696724926098400,6.435098388671875,0.10037819055020808,-1.1784656877130268,-1.2288240020751953
1763696724936122400,6.445122314453125,0.10721534309387207,-1.258530573552847,-1.1899193941414357
1763696724946145500,6.4551455078125,0.2766588865637779,-1.311294780012965,-1.2907961818635463
1763696724956168400,6.46516845703125,0.27670857092440126,-1.3871753659054635,-1.2622867112159728
1763696724966192400,6.4751923828125,-0.037898645761609076,-1.5656569329641759,-1.4298083467125893
1763696724976215300,6.48521533203125,-0.43737434917688367,-1.4836784685879945,-1.3978449362188576
1763696724986238500,6.495238525390625,-0.8758096055835485,-1.3101165300138293,-1.231577100175619
1763696724996261400,6.505261474609375,-1.0595967317044734,-1.1352559299312532,-1.1407727936565875
1763696725006285300,6.515285400390625,-1.0164853197306394,-1.1834784013085067,-1.0852163261294365
1763696725016308500,6.52530859375,-0.7554395973622798,-0.8122396352097392,-1.132345741572976
1763696725026331400,6.535331298828125,-0.48424832855463024,-0.5537544109791517,-1.1889946805119513
1763696725036355600,6.54535546875,-0.168156426268816,-0.34764205580353735,-1.2339309698253869
1763696725046378500,6.55537841796875,-0.12414894223809242,-0.3945321095332503,-1.182020165324211
1763696725056401400,6.5654013671875,0.09349602982103825,-0.27378786117210985,-1.1753396646469831
1763696725066424300,6.57542431640625,0.22890753982961176,-0.2653071792051196,-1.079648170608282
1763696725076448500,6.585448486328125,0.24362463196814058,-0.34126433746516704,-1.047868299987912
1763696725086471700,6.5954716796875,-0.036115269476175306,-0.5805486021414399,-0.9498024780333042
1763696725096494300,6.605494384765625,-0.20957564737200735,-0.7670002712965012,-0.856964619860053
1763696725106518500,6.6155185546875,-0.21125965493619442,-0.9672992640182375,-0.7994792300969362
1763696725116541400,6.62554150390625,-0.02618541161417961,-1.1319684326931834,-0.7533604530006647
1763696725126564600,6.635564697265625,-0.018901099824905395,-1.2291928353875874,-0.7291495563298463
1763696725136587300,6.645587158203125,0.32922143297195433,-1.2480989036485552,-0.6317974356025458
1763696725146611500,6.655611572265625,0.3352642202675342,-1.339696260241419,-0.6121113228797912
1763696725156634600,6.665634521484375,0.23471184219419955,-1.04199524323605,-0.1973480339616537
1763696725166657500,6.675657470703125,0.07733458409309386,-0.9195529587853699,0.10639233627319335
1763696725176681500,6.685681396484375,0.08040741566717624,-1.005289168259874,0.11958499532341957
1763696725186704400,6.695704345703125,-0.2726999198049307,-0.8024394681420177,0.6065367376178503
1763696725196727600,6.7057275390625,-0.2717307825118303,-0.8908351791493594,0.6162918234348297
1763696725206750500,6.71575048828125,-0.7676017443209886,-0.6982672190710901,1.0678607021808624
1763696725216774400,6.7257744140625,-0.9816390472769737,-0.7321198043122887,1.2973749757319688
1763696725226797300,6.73579736328125,-1.1055167713582514,-0.8094188787005842,1.4541104287981985
1763696725236820500,6.745820556640625,-1.2488801171541213,-0.9029718994058669,1.6229326254993677
1763696725246843600,6.75584375,-1.220654139623046,-0.9953587258759885,1.6490747824937104
1763696725256867300,6.765867431640625,-1.582685370784998,-1.0753543458718806,2.0009096138119697
1763696725266890500,6.775890380859375,-1.539901875591278,-1.157397984438762,2.03565417945683
1763696725276913400,6.785913330078125,-1.698158839136362,-1.0006204457964747,2.2901292912632227
1763696725286937600,6.7959375,-1.6877338912338018,-0.8912222787708044,2.3664549905747174
1763696725296960300,6.805960205078125,-1.6371534585535525,-0.9560106850236654,2.4036913730353118
1763696725306983400,6.8159833984375,-1.4944190583109855,-0.7889443920791148,2.4427315900474786
1763696725317006300,6.82600634765625,-1.4503478613942862,-0.8544663002382964,2.473193948328495
1763696725327030500,6.836030517578125,-1.2901836029231548,-0.9119706138975918,2.499322076797485
1763696725337053400,6.846053466796875,-1.2539940991669893,-1.0034037198394536,2.5474685603290794
1763696725347076400,6.856076416015625,-1.2149252405822277,-1.1525658881071954,2.5744325551003215
1763696725357100500,6.8661005859375,-1.3032137648880482,-1.4283430964656174,2.538898300382495
1763696725367123500,6.87612353515625,-1.2825818957477808,-1.4956959463790058,2.548705408647656
1763696725377146400,6.886146484375,-1.3415759365081785,-1.906405575992167,2.5662515867322684
1763696725387169300,6.896169189453125,-1.32316583507061,-1.9587008497662841,2.5746494127213952
1763696725397193500,6.906193359375,-1.3941425745695828,-2.006300659200549,2.6350644261956213
1763696725407216600,6.916216552734375,-1.2542834375023841,-2.091510798974335,2.558282215288281
1763696725417239600,6.926239501953125,-1.2419196304917335,-2.11607270103991,2.564375855988264
1763696725427263500,6.936263427734375,-0.9876765738755464,-2.322518964345008,2.409451251736283
1763696725437286400,6.946286376953125,-0.8579588915944099,-2.438827276085317,2.333349424308538
1763696725447309600,6.9563095703125,-0.6775052938103675,-2.469615213058889,2.1947329807788134
1763696725457332500,6.96633251953125,-0.6186322490811348,-2.4560540129572153,2.0047721344590186
1763696725467356400,6.9763564453125,-0.6227922913700342,-2.44910697029829,2.0026351224303243
1763696725477379600,6.986379638671875,-0.6942904243946075,-2.4102986623458564,1.7095388958066702
1763696725487402500,6.996402587890625,-0.6948404594928026,-2.390062952916324,1.7111942617982625
1763696725497426400,7.006426513671875,-0.5936094515055418,-2.4379516622945663,1.6179852322250603
1763696725507449300,7.016449462890625,-0.5544307028055191,-2.4886466612651943,1.6034586942225695
1763696725517472500,7.026472412109375,-0.5293073674649,-2.459190557417273,1.6044231553405521
1763696725527495400,7.036495361328125,-0.44332127488255496,-2.3817231407247483,1.6054396389067171
1763696725537519400,7.046519287109375,-0.444466353264451,-2.321091708020866,1.6092244181424378
1763696725547542500,7.05654248046875,-0.28326924461424347,-2.353054241731763,1.6163783815503119
1763696725557565400,7.0665654296875,-0.21729893510043619,-2.3875885256268083,1.5948562855720518
1763696725567588600,7.076588623046875,-0.21294483154416083,-2.3869828148186207,1.5510159748017787
1763696725577612300,7.0866123046875,-0.20699381418526172,-2.297021388864517,1.5179180073201655
1763696725587635500,7.096635498046875,-0.2137567324489355,-2.1967305843368172,1.515863997399807
1763696725597658400,7.106658447265625,-0.2139303354501724,-2.002925045287609,1.3703911121040582
1763696725607682600,7.1166826171875,-0.22320026809871196,-1.8844605784267185,1.3638473895490169
1763696725617705500,7.12670556640625,-0.11980886720716953,-1.729627159589529,1.1722153951466083
1763696725627728400,7.136728271484375,-0.05073883811235427,-1.5652841541290283,1.0497282486408948
1763696725637751300,7.146751220703125,-0.06058978551924228,-1.4266373154610394,1.0359878925800323
1763696725647775500,7.156775390625,0.1409241359502077,-1.261653235618025,0.8384411211758851
1763696725657798700,7.166798583984375,0.12891045755147934,-1.1189498150356114,0.8178589363962412
1763696725667821300,7.1768212890625,0.18986790733933448,-0.9927813496686517,0.6126537591934204
1763696725677845500,7.186845458984375,0.2671037072330713,-0.9171000857405364,0.5150602309256792
1763696725687868400,7.196868408203125,0.3264391087770462,-0.8674521116048097,0.43161096334457394
1763696725697891600,7.2068916015625,0.29150574256181716,-0.8596174724563955,0.3869990836799144
1763696725707914200,7.216914306640625,0.28288404468894,-0.7091128766037523,0.3538730591475963
1763696725717938400,7.2269384765625,0.2701981661170721,-0.671196110663563,0.2998427782744169
1763696725727961600,7.236961669921875,0.27316344566345213,-0.5121738618344068,0.26704057886898513
1763696725737984500,7.246984619140625,0.37287352769374843,-0.41830315348207947,0.20183248589932917
1763696725748008400,7.257008544921875,0.5393418547451496,-0.4219952859982848,0.03200081989467144
1763696725758031400,7.26703125,0.7323340315848589,-0.3790703365072608,-0.14483634095788
1763696725768054500,7.277054443359375,0.9729705876529217,-0.33149726894944903,-0.35859891862571236
1763696725778077200,7.2870771484375,0.9845727626413107,-0.17169366048425436,-0.40300446206331253
1763696725788101000,7.29710107421875,1.429946878400445,-0.3915826120778918,-0.8720546369642018
1763696725798124000,7.3071240234375,1.435075473460555,-0.2436807460695505,-0.9239701176404952
1763696725808147200,7.317147216796875,1.7344757686644792,-0.8587000653505324,-1.4221628003954887
1763696725818170000,7.327170166015625,1.7391244712531566,-1.0973130066365002,-1.670521475148201
1763696725828194000,7.337194091796875,1.7436048315376043,-0.9587634908631444,-1.7285089692145585
1763696725838217000,7.347217041015625,1.7126292630374431,-1.3222636255338787,-2.115407515129447
1763696725848240000,7.357240234375,1.7252748095989225,-1.1789721759304403,-2.175744202670455
1763696725858264000,7.36726416015625,2.03986916680336,-1.5514669334396718,-2.605465406745672
1763696725868287000,7.377286865234375,2.0522820736527443,-1.4062714037805795,-2.673995337614417
1763696725878310100,7.38731005859375,2.6626626272171734,-1.6588883204996585,-3.2527240308523178
1763696725888333000,7.3973330078125,3.141119512888789,-1.6249977413356302,-3.7918583803266284
1763696725898357200,7.407357177734375,3.1299247496575116,-1.5063435971215366,-3.874001826006174
1763696725908380000,7.4173798828125,3.4479438206136224,-1.1259075252190232,-4.487919321525097
1763696725918403000,7.427403076171875,3.4232267279863358,-1.0414081640630959,-4.5643853060901165
1763696725928427000,7.437427001953125,3.2564895208656788,-0.9157526166543364,-4.415376647883654
1763696725938450200,7.4474501953125,3.22735578083992,-0.8608861772179603,-4.478633606785536
1763696725948473000,7.45747314453125,2.6936083851009607,-0.8677613236844539,-3.9727246505647895
1763696725958496000,7.46749609375,2.1837983297884462,-0.753622903329134,-3.554057339945435
1763696725968520200,7.477520263671875,2.1689368607431647,-0.7012295760080218,-3.6060669286459683
1763696725978543000,7.487543212890625,1.5739654732346533,-0.519905917391181,-2.9527766231596466
1763696725988566300,7.497566162109375,1.5747329504758119,-0.45464638649523254,-3.002273352256417
1763696725998589000,7.5075888671875,1.4260779280126095,-0.5348474659353495,-2.697159940102696
1763696726008613000,7.517613037109375,1.4164093514353036,-0.518331799942255,-2.644026315808296
1763696726018636000,7.527635986328125,1.4277344630479811,-0.44491058990061283,-2.6938813568234443
1763696726028659200,7.5376591796875,1.2835995483577252,-0.11312018322348594,-2.504374684011936
1763696726038683100,7.54768310546875,1.2936316975504158,-0.04268763360381126,-2.555498722049594
1763696726048706000,7.5577060546875,1.18767307651937,0.4801332944512367,-2.4446686955899
1763696726058729200,7.567729248046875,1.1950889057338236,0.5462614248752594,-2.496975805932283
1763696726068752100,7.577752197265625,0.5708341405957937,1.3401619780570269,-2.1534283259660003
1763696726078776000,7.587776123046875,0.32974165745377537,1.6522189257383346,-1.9548966351777315
1763696726088799000,7.597799072265625,0.33505086977779863,1.7068682152926922,-2.001783474037051
1763696726098822100,7.607822265625,-0.18534604600071905,1.9716297433137893,-1.4483675012320278
1763696726108846000,7.61784619140625,-0.1822159312814474,2.0116613094508646,-1.4846435142278671
1763696726118869000,7.627868896484375,-0.5883370640605687,2.1182792711734773,-0.9367676398932934
1763696726128892200,7.63789208984375,-0.785016404980421,2.172123674085736,-0.6119172616124153
1763696726138915000,7.6479150390625,-0.786374249330163,2.1897505161911246,-0.6311380949109793
1763696726148939000,7.65793896484375,-0.8669511763453484,2.1575638183355332,-0.07360299634933472
1763696726158962000,7.6679619140625,-0.8705214360475539,2.1665841601371763,-0.0864396815687418
1763696726168985000,7.677985107421875,-0.674652826988697,2.0513918468147514,0.2073474499285221
1763696726179008000,7.688008056640625,-0.6220125391691923,1.9368571206182241,0.30915538102090356
1763696726189032200,7.6980322265625,-0.5536918671369552,1.8533289425820112,0.40803076579272746
1763696726199055000,7.70805517578125,-0.5820528692245484,1.798553980821371,0.539441807988286
1763696726209078000,7.718078125,-0.5996686054140329,1.7774533251255749,0.5430383711755276
1763696726219102200,7.728102294921875,-0.5764297686457633,1.5272919848650692,0.7682178303927183
1763696726229125000,7.738125,-0.6035708735495805,1.4930407556951044,0.7749690582185983
1763696726239148000,7.74814794921875,-0.5903951656341553,1.381089031729102,0.8533347389250994
1763696726249171000,7.7581708984375,-0.4270119451165199,1.1699603096961975,0.9607803836435079
1763696726259195100,7.768195068359375,-0.4657973105847835,1.1220932276278734,0.9675649292171001
1763696726269218000,7.778218017578125,-0.3805523917585611,1.0423924989253281,0.9301590354084968
1763696726279241000,7.788240966796875,-0.427992772847414,0.9866811330974101,0.9338882850646972
1763696726289265200,7.79826513671875,-0.641235710555315,1.002080946803093,0.9639648588985205
1763696726299288000,7.8082880859375,-0.7923620915681123,0.9521873273432254,0.9210609521955251
1763696726309311200,7.818311279296875,-0.9046534227520227,0.9108329881697893,0.8512363053411245
1763696726319334100,7.828334228515625,-0.9721236154347658,0.9156886115074158,0.7710527615576982
1763696726329358000,7.838358154296875,-1.0191770430326461,0.857658447343111,0.7722878563106059
1763696726339381000,7.848381103515625,-1.0054776035040616,1.046162080591917,0.5685743789702653
1763696726349404200,7.858404052734375,-1.0441793823421002,0.989808909729123,0.5757096376776695
1763696726359427000,7.868427001953125,-1.0660293951004742,1.2166998490393162,0.6443932978034019
1763696726369451000,7.878450927734375,-1.182484860226512,1.2274486220687628,0.7492787366449832
1763696726379474200,7.88847412109375,-1.2150853995800017,1.1595742324993015,0.7705196775943041
1763696726389497000,7.8984970703125,-1.2462532757818698,0.965287924195826,0.8690653920203447
1763696726399521000,7.90852099609375,-1.2874848653584718,0.8807821332991123,0.8918062161386012
1763696726409544000,7.9185439453125,-1.0751391687512397,0.28645547343492506,0.8278864094138145
1763696726419567000,7.928567138671875,-1.1898843228280545,0.14671090265810488,0.8476870884269475
1763696726429590000,7.938590087890625,-1.2339806541860103,0.05912643496841192,0.8644143513441085
1763696726439614000,7.948614013671875,-1.3302555010706185,-0.06903086612820625,0.6528834782510996
1763696726449637000,7.95863720703125,-1.3603940342247485,-0.13918547558933494,0.6697597942501307
1763696726459660000,7.968659912109375,-1.183872515192628,0.12457330513000488,0.4290601098179817
1763696726469683200,7.97868310546875,-1.1277321102976798,0.39176936682164665,0.4941945530295372
1763696726479707000,7.988706787109375,-1.0146423222124576,0.6861828135237097,0.613219576382637
1763696726489730000,7.99872998046875,-1.0146803161352873,0.6464177893683314,0.6404103656470775
1763696726499753000,8.0087529296875,-0.7899789958238601,0.8643488848924636,0.7277081253498793
1763696726509777200,8.018777099609375,-0.24850538974702358,1.1471233317270875,0.7971551710635423
1763696726519800000,8.028800048828124,-0.2529378192365169,1.1139031991705297,0.8140636357665062
1763696726529823000,8.038822998046875,-0.0439583841919899,1.2136930684387683,0.9572206453353166
1763696726539846100,8.04884619140625,-0.0714729985833168,1.2439037900462746,1.0255079996198415
1763696726549870000,8.0588701171875,-0.08721826472580432,1.2254109787613152,1.0197036972552538
1763696726559893200,8.068893310546875,-0.2848363478004932,1.3694436021208762,0.9892050986170768
1763696726569916000,8.078916015625,-0.3056897507369518,1.363811441452801,0.9691489835381507
1763696726579940000,8.088940185546875,-0.1119458787471056,1.2739642895281313,0.36986207091808315
1763696726589963300,8.09896337890625,-0.09243219998180865,1.4068217311397193,0.06186170515120029
1763696726599986200,8.108986083984375,-0.10938333478271961,1.6666373271912336,-0.22377309955060481
1763696726610009000,8.119009033203126,-0.23264321922659872,1.881727938592434,-0.35260464664697644
1763696726620033000,8.129032958984375,-0.2504875034749508,1.8779560188382862,-0.37114626550972457
1763696726630056200,8.13905615234375,-0.43190556237697597,1.8215446880474686,-0.31759996876120566
1763696726640079000,8.1490791015625,-0.5128220966100693,1.7996347617954014,-0.22660218549668787
1763696726650102000,8.15910205078125,-0.6670481972038745,1.8323226871713996,-0.0922381387144327
1763696726660126000,8.1691259765625,-0.753820471727848,1.773945024743676,-0.032222353690862654
1763696726670149000,8.179149169921875,-0.7779951280415057,1.7370511721104382,-0.03759644794464111
1763696726680172000,8.189172119140625,-0.7092419098109006,1.4053534121528266,-0.24727672473490236
1763696726690196000,8.199196044921875,-0.7411275788933038,1.366416947776079,-0.2614911280483007
1763696726700219100,8.20921923828125,-0.27698446525633336,1.1981254969507455,-0.9591279402613639
1763696726710242000,8.219241943359375,-0.2858879026800394,1.3009358830839395,-1.2359312037318944
1763696726720265200,8.22926513671875,-0.25875088942945,1.5332380337879061,-1.468298528626561
1763696726730289000,8.239288818359375,-0.18532967938780784,1.7459817898020147,-1.6199585781246422
1763696726740312000,8.24931201171875,-0.20034195508062838,1.7390177960082887,-1.634608450245857
1763696726750335000,8.2593349609375,0.02181494144499302,1.8502952739745377,-1.6540128234177827
1763696726760359200,8.269359130859375,0.012592939591407774,1.839613720962405,-1.6591162840366362
1763696726770382000,8.279382080078125,0.20335574994385242,1.75782391102612,-1.4108774362713097
1763696726780405200,8.2894052734375,0.32361645257174965,1.6394266641825437,-1.30598907482028
1763696726790428200,8.29942822265625,0.30495091506838795,1.5953966760590672,-1.303156481742859
1763696726800452400,8.309452392578125,0.6293669935852289,1.2919222632840275,-1.2350602661162615
1763696726810475000,8.31947509765625,0.6064221713274717,1.2291706235557793,-1.2277350377947092
1763696726820498200,8.329498291015625,1.0320505531311035,0.9033613371148705,-1.3073878357023
1763696726830521000,8.33952099609375,1.1071136851608752,0.7958385355070233,-1.2419395042359829
1763696726840545300,8.349545166015625,1.1067080269694327,0.738745652192831,-1.2111550743937491
1763696726850568200,8.359568115234374,1.0306307494610547,1.0767731996938585,-0.8403595220178365
1763696726860591000,8.369591064453125,1.0382102448046207,1.0172405220121146,-0.7997340816408395
1763696726870615300,8.379615234375,1.3697031298398972,0.6424880487039685,-0.4346311879485845
1763696726880638200,8.38963818359375,1.3697206654965877,0.33199703516513107,-0.20202420907914637
1763696726890661000,8.3996611328125,1.4124936392962932,-0.006361936247348785,-0.005769815573096275
1763696726900684000,8.40968408203125,1.4439631287932395,-0.30707769796401263,0.11855974392890929
1763696726910708200,8.419708251953125,1.4344634790420532,-0.4178653465867042,0.154745156031847
1763696726920731400,8.4297314453125,1.3137638004750012,-0.7162852524511516,0.283626387488842
1763696726930754300,8.43975439453125,1.3136515722721813,-0.8196843982577323,0.32385435298085213
1763696726940778200,8.4497783203125,1.0915537124574184,-0.7627544504202902,0.2325187160640955
1763696726950801200,8.45980126953125,1.1464029084980487,-0.49719051997512576,-0.043380292043089866
1763696726960824300,8.46982421875,1.1531225721418856,-0.5710207492090761,-0.010270634123682976
1763696726970847200,8.47984716796875,1.0427309370994566,0.11622574802339077,-0.7517880891174078
1763696726980871200,8.48987109375,1.0448270325958728,0.0404931922994554,-0.7255763740181922
1763696726990894300,8.499894287109376,0.9209025467634201,0.21988632124513385,-1.0273650256633757
1763696727000917200,8.509917236328125,0.7092272967636585,0.5781605379611253,-1.6297621792584658
1763696727010940400,8.5199404296875,0.7000865434527397,0.4790931377485394,-1.613759723484516
1763696727020964000,8.529964111328125,0.39147301422357556,0.6158779819369316,-2.0283178452193735
1763696727030987300,8.5399873046875,0.3780605749428272,0.505291701105237,-2.017985251775384
1763696727041010200,8.55001025390625,0.09308335736691951,0.29525048204809423,-2.1962492305606602
1763696727051034000,8.5600341796875,0.02599193486869335,0.019062062540277838,-2.2198744362980127
1763696727061057000,8.57005712890625,-0.14331307691335676,-0.1811607962053269,-2.1894342898488044
1763696727071080200,8.580080078125,-0.2988017447888851,-0.3254507553268224,-2.06174606756866
1763696727081103400,8.590103271484375,-0.30718145059943197,-0.45045324565432965,-2.054160727006197
1763696727091127000,8.600126953125,-0.16988661106228828,-0.8554517310790717,-1.8582126229703426
1763696727101150200,8.610150146484376,-0.17295827359259128,-0.985947411995381,-1.8490011425107717
1763696727111173000,8.620173095703125,-0.16726444586515427,-1.3226558397218584,-1.408905843937397
1763696727121196300,8.6301962890625,-0.18048866909742353,-1.5523076220475136,-1.1229998210787773
1763696727131220200,8.64022021484375,-0.17263327942192552,-1.6749096271045505,-1.1094254692345857
1763696727141243100,8.6502431640625,-0.2664344296693802,-1.773292406053841,-0.689296853891015
1763696727151266000,8.66026611328125,-0.24921090766787526,-1.8737281720101833,-0.66938803832829
1763696727161290200,8.670290283203125,-0.24821838949918745,-1.678898112218827,-0.445355995580554
1763696727171313400,8.6803134765625,-0.22425065393447874,-1.7600576614275574,-0.4203682693183422
1763696727181336000,8.690336181640625,-0.08234978190660476,-1.631555784676969,-0.40704935353994365
1763696727191359200,8.700359130859376,0.09498188446462154,-1.349339263986051,-0.443302570182085
1763696727201383200,8.710383056640625,0.11646715556383132,-1.4169589481420815,-0.4235118280410766
1763696727211406300,8.72040625,0.14465104751884936,-1.4464783264845609,-0.35812487137317656
1763696727221429000,8.730428955078125,0.20741934612095356,-1.682874760764837,-0.39854105291366576
1763696727231453200,8.740453125,0.27238544702827927,-1.9604322036035358,-0.48330666379034515
1763696727241476400,8.750476318359375,0.28713001169562336,-2.0131223219141363,-0.4723205748736858
1763696727251499300,8.760499267578124,0.2696884630292654,-2.2656287639960646,-0.5341325956642627
1763696727261522200,8.770522216796875,0.2442120764672756,-2.650641934555769,-0.7160761397451162
1763696727271546000,8.780546142578125,0.26710078462362286,-2.6714669881805775,-0.6938602162837981
1763696727281569300,8.7905693359375,0.08124035935997963,-2.6960867579132315,-0.7798340339064598
1763696727291592200,8.80059228515625,0.039134325036406514,-2.6241020104154944,-0.8061030321508645
1763696727301615400,8.810615478515626,0.07537994289398194,-2.6061492973566054,-0.7662012298732995
1763696727311639300,8.820639404296875,0.14903379264771938,-2.4569258273556827,-0.7624538600385189
1763696727321662200,8.830662109375,0.19176000469624996,-2.4255321795739233,-0.7156266424119472
1763696727331685400,8.840685302734375,0.22495149568021297,-2.113863208296895,-0.4867249478012323
1763696727341709000,8.850708984375,0.19430559752583504,-1.9662438124917447,-0.25598259375989435
1763696727351732200,8.860732177734375,0.23230653461813924,-1.9352263045459985,-0.21593641457557677
1763696727361755100,8.870755126953124,-0.08137129226326942,-1.8020391925886272,0.27036592389941216
1763696727371778300,8.8807783203125,-0.04965396548509597,-1.7759889516614376,0.30293840620219703
1763696727381802200,8.89080224609375,-0.3160568309724331,-1.9812075728677212,0.7664473135888576
1763696727391825200,8.9008251953125,-0.3533411442279816,-2.2128664572320877,1.0005565137147903
1763696727401848300,8.910848388671875,-0.40201778911352154,-2.447817368879169,1.2290151407331227
1763696727411872300,8.920872314453124,-0.4311994599342346,-2.7101269737035034,1.390104697355628
1763696727421895200,8.930895263671875,-0.40208442460894583,-2.6820377742946144,1.4186375488787888
1763696727431918000,8.94091796875,-0.5160030647337437,-3.095087829554081,1.6846861941009759
1763696727441941200,8.950941162109375,-0.4869470661193132,-3.0564319356843828,1.7129712083429096
1763696727451965200,8.960965087890624,-0.4626052365452051,-3.201232913067937,1.9831079996615648
1763696727461988000,8.970988037109375,-0.361374813079834,-3.2714322384536265,2.119860987406969
1763696727472011300,8.98101123046875,-0.3381938439786434,-3.2075293828636404,2.1422154425561426
1763696727482034200,8.9910341796875,-0.05216507152318954,-3.226697316931188,2.2720926993131636
1763696727492058400,9.001058349609375,-0.03871639188528061,-3.1448247971475123,2.2845511988699436
1763696727502081300,9.011081298828126,0.07314122405648231,-3.0566151832967994,2.276349772235751
1763696727512104200,9.021104248046875,0.097000823071599,-3.0344942446425556,2.245306983718276
1763696727522128100,9.031128173828124,0.11652443870902061,-3.0721061824172735,2.1196645880520344
1763696727532151300,9.0411513671875,0.15977905854582786,-3.1150024903357028,1.9624609329521654
1763696727542174200,9.05117431640625,0.1517600027412176,-3.0201193900704384,1.9502239671915769
1763696727552197000,9.061197021484375,0.06574819119572639,-2.9954312312766906,1.927552701178193
1763696727562221300,9.07122119140625,0.06293371829688549,-2.8956296715706586,1.9169564883619545
1763696727572244200,9.081244140625,-0.15738719497323037,-2.7138012783020735,2.0377631344348193
1763696727582267400,9.091267333984375,-0.19476678529679775,-2.5565251424878834,2.081336903223395
1763696727592291000,9.101291015625,-0.18668109399676322,-2.4336367217049,2.0728876393079756
1763696727602314200,9.111314208984375,-0.18543956950306892,-2.16322988127321,1.8720856655001639
1763696727612337200,9.121337158203126,-0.17296762594282625,-2.027690945492685,1.8610341101318597
1763696727622360300,9.1313603515625,-0.24747312408983707,-1.6118620731696485,1.5584598610669373
1763696727632384300,9.14138427734375,-0.16961890003681182,-1.3868413116455078,1.2923966027975082
1763696727642407200,9.1514072265625,0.01958674400150776,-1.299871030331403,0.9388473687767982
1763696727652430300,9.161430419921874,0.13910744191706179,-1.3120635724283753,0.6756874307334423
1763696727662453200,9.171453369140625,0.15212299083471298,-1.1930720129534602,0.6567191108912229
1763696727672477200,9.181477294921875,0.07525602425336837,-1.0964122584044933,0.5773901381105184
1763696727682500000,9.1915,-0.2205494613289833,-0.8433079965598881,0.6331985345721245
1763696727692523300,9.201523193359375,-0.3228665109872818,-0.6930377939850092,0.6843781021893024
1763696727702547200,9.211547119140626,-0.4438420838862657,-0.5014819335587323,0.7241881345301866
1763696727712570000,9.221570068359375,-0.4201443974345922,-0.3805503459319472,0.703696550643444
1763696727722593300,9.23159326171875,-0.4583142613530159,-0.03002747399508953,0.5385013122677803
1763696727732616200,9.2416162109375,-0.4365723851442337,0.08976736468672752,0.5122895971685648
1763696727742640400,9.251640380859374,-0.41990883511304855,0.47114890074580906,0.33657471834421154
1763696727752663000,9.2616630859375,-0.38482583129405973,0.6653977996483444,0.20302607959806918
1763696727762686200,9.271686279296874,-0.4108335482537746,0.7934595314159989,0.07073883908987044
1763696727772710700,9.281710693359376,-0.4566191478729248,0.8605497848704456,-0.04159048601686954
1763696727782733600,9.291733642578125,-0.45102585791051386,0.9416238477528095,-0.07420622293949126
1763696727792756500,9.301756591796876,-0.42172903627753255,0.6151394385293125,-0.2882961328655481
1763696727802779400,9.311779296875,-0.4281804043740034,0.45012101802527904,-0.4342886581212282
1763696727812803600,9.321803466796876,-0.45620179924368853,0.2653378666043281,-0.592441576769948
1763696727822826500,9.331826416015625,-0.5291735119521618,0.11969722352623939,-0.7822983781933784
1763696727832849400,9.341849365234374,-0.5297732314109802,0.18388649484217165,-0.8165671430200337
1763696727842872300,9.351872314453125,-0.874042595911026,0.12488280947059392,-0.9503718023538589
1763696727852896500,9.361896484375,-0.8636293384462594,0.19763678777515886,-0.9808142868906259
1763696727862919700,9.371919677734375,-0.8898883998185396,0.39810353827923534,-1.1653647985994815
1763696727872942300,9.3819423828125,-0.7755933275967836,0.5444651891082525,-1.3170178338348866
1763696727882966500,9.391966552734376,-0.5571113201916218,0.6718728408813476,-1.4748200393497943
1763696727892989400,9.401989501953125,-0.3744394618362188,0.6852879105105996,-1.536750133562088
1763696727903012600,9.4120126953125,-0.36012042910456654,0.740951930065453,-1.5576900457382201
1763696727913035500,9.422035400390625,-0.14684358912706375,0.5944391803279518,-1.4222294358909129
1763696727923059500,9.4320595703125,-0.1435562380194664,0.636781946016848,-1.446021230366826
1763696727933082400,9.442082275390625,-0.18508418019413947,0.6163403387516737,-1.2256629076957701
1763696727943105500,9.45210546875,-0.21053601683676243,0.6225716343566775,-1.1557055743724107
1763696727953128700,9.462128662109375,-0.21531389876306056,0.6646186319693923,-1.1880559383571148
1763696727963152400,9.47215234375,-0.2881926724910736,0.5309253240555525,-1.0989520060151814
1763696727973175600,9.482175537109375,-0.290161342215538,0.5800798155859113,-1.1344243014127016
1763696727983198500,9.492198486328125,-0.3484720768868923,0.5861114969655871,-1.2105401573657988
1763696727993222400,9.502222412109376,-0.5041378548949956,0.7544605231970548,-1.217664310157299
1763696728003245300,9.512245361328125,-0.6087129126131534,0.9081327893003821,-1.2087538584709168
1763696728013268500,9.5222685546875,-0.5357224952042102,1.0719745672404766,-1.2317717459648847
1763696728023291400,9.53229150390625,-0.5158621949583292,1.1318003826498986,-1.257044134387374
1763696728033315300,9.5423154296875,-0.48725510915517806,1.5770374280259012,-1.2230705531150101
1763696728043338500,9.55233837890625,-0.45858080333471296,1.9080586038962006,-1.2728449301093816
1763696728053361400,9.562361328125,-0.36033085698485373,2.1149740921482443,-1.3204536535024642
1763696728063385600,9.572385498046875,-0.26259295181035996,2.310054181177914,-1.3422703485131262
1763696728073408300,9.582408203125,-0.22237375414669514,2.3566338537842033,-1.340831255620718
1763696728083431400,9.592431396484375,0.12225216870605946,2.577963651835918,-1.3716793983489275
1763696728093454300,9.602454345703125,0.16166881781518458,2.61091490432322,-1.3610907843172548
1763696728103478500,9.612478515625,0.5799836617350578,2.5772826838344334,-1.3680074318379163
1763696728113501400,9.62250146484375,0.7464858910560608,2.576593532526493,-1.2704986592441796
1763696728123524400,9.6325244140625,0.7752402763754129,2.589327926415205,-1.2543424742132425
1763696728133547500,9.642547607421875,0.9154688312768936,2.5261925480663776,-1.02909170332551
1763696728143571500,9.652571533203124,0.9334574924319982,2.533838094383478,-1.0189274521857499
1763696728153594400,9.662594482421875,0.8130395534157753,2.520322194728255,-0.8389537468731403
1763696728163617300,9.6726171875,0.7022837612360715,2.554916538247466,-0.8274047633767128
1763696728173641500,9.682641357421875,0.7110165182679891,2.5681658959209916,-0.8303606905728578
1763696728183664600,9.69266455078125,0.5374941810518503,2.7131635649204253,-0.974441244727373
1763696728193687600,9.7026875,0.5450239920347929,2.726370252496004,-0.9785340669989585
1763696728203710500,9.71271044921875,0.7175070493310689,2.633533563366532,-1.1540566381216049
1763696728213734400,9.722734375,0.7722258969902992,2.529447750470042,-1.1505039140760898
1763696728223757600,9.732757568359375,0.7663374234735966,2.5273101539194585,-1.1540513774245977
1763696728233780500,9.742780517578124,0.8517547762572765,2.2708640343010424,-1.181722059160471
1763696728243803400,9.752803466796875,0.8346095801889896,2.2612626777410507,-1.1893506543427705
1763696728253827600,9.76282763671875,0.8942378271996975,1.8317869728595018,-1.2562912701934574
1763696728263850500,9.7728505859375,0.8638368437170982,1.6001871252059936,-1.3100748828291893
1763696728273873700,9.782873779296875,0.67593409897089,1.548432388049364,-1.4108102162539957
1763696728283897300,9.7928974609375,0.43740240622758864,1.6224351973712443,-1.5193559311687945
1763696728293920500,9.80292041015625,0.415804906925559,1.623405503708124,-1.5405354973196983
1763696728303943400,9.812943359375,0.3284598009496927,1.620097109812498,-1.4723071797460316
1763696728313966600,9.822966552734375,0.3273404415309429,1.6329063225030898,-1.4841542694061993
1763696728323990300,9.832990234375,0.8086696677684784,1.6596224799931047,-1.5430787520617246
1763696728334013400,9.843013427734375,1.0601339073210954,1.7038579275608061,-1.5750801564782857
1763696728344036400,9.853036376953124,1.0662217028021812,1.7059464242726563,-1.571058645877242
1763696728354059500,9.8630595703125,1.2680483434826135,1.8536486760556696,-1.5022516516327857
1763696728364083500,9.87308349609375,1.269049044957757,1.834291064634919,-1.484983121445775
1763696728374106400,9.8831064453125,1.2964771501094101,1.7574001326560973,-1.3412690625160932
1763696728384129500,9.893129638671875,1.26171387976408,1.6257658030986786,-1.2495289364516735
1763696728394153500,9.903153564453126,1.1940011104971169,1.5023364073067902,-1.1444938600063324
1763696728404176400,9.91317626953125,1.1426999623268843,1.3855343207001685,-1.080702063575387
1763696728414199300,9.92319921875,1.1328197888255118,1.3364604931905866,-1.0509621743500233
1763696728424222500,9.933222412109375,1.289780282819271,1.2534049011021853,-1.2163655025184155
1763696728434246700,9.94324658203125,1.2746768217116593,1.2701263188004492,-1.2211094821751116
1763696728444269300,9.953269287109375,1.3416566005289554,1.2500263645797967,-1.253295010986924
1763696728454292500,9.96329248046875,1.3346645496845244,1.1993281507387756,-1.2341945891976356
1763696728464316400,9.97331640625,1.3233283321559428,1.1509636405423282,-1.2089531804352998
1763696728474339600,9.983339599609375,1.3666823207139969,1.0257879856050014,-1.204281096971035
1763696728484362200,9.9933623046875,1.3502391354352234,0.975461527685821,-1.1832961766093968
1763696728494385400,10.003385498046875,1.3118021450132131,0.9012152649968862,-1.1675228534162043
1763696728504409600,10.01340966796875,1.2809037334024906,0.842635942517221,-1.1632704566687344
1763696728514432500,10.0234326171875,1.255781567105651,0.7828864072144031,-1.1454472152084112
1763696728524455400,10.033455322265626,0.9312976840496062,0.7600526441156864,-1.0505699601620435
1763696728534478300,10.043478271484375,0.9061135584324598,0.6918401086330414,-1.0286948129624127
1763696728544502500,10.05350244140625,0.7360399003654718,0.7147232638314366,-1.0137895047754049
1763696728554525400,10.063525390625,0.6677502079933881,0.5600900437414645,-0.9369336441099643
1763696728564548600,10.073548583984374,0.7316127315729856,0.2859340799093246,-0.9535638763934373
1763696728574572500,10.083572509765625,0.8372989654034375,-0.06640460927784443,-0.9680863227427006
1763696728584595500,10.093595458984375,0.8211959718644618,-0.1625701505690813,-0.9267524418354034
1763696728594618600,10.10361865234375,1.0362556036055088,-0.7374845462158321,-1.1081968042224646
1763696728604641500,10.1136416015625,1.1494956138163803,-1.0823983460992574,-1.1474918727785348
1763696728614665500,10.12366552734375,1.2563093903720377,-1.351273446919024,-1.2174825238496065
1763696728624688400,10.1336884765625,1.3173504267901182,-1.4724319751694797,-1.2558669073015452
1763696728634711600,10.143711669921874,1.3161223462998866,-1.558911696487665,-1.2142775903284548
1763696728644734500,10.153734375,1.3374258310914038,-1.5016680065259336,-1.282911566093564
1763696728654758400,10.16375830078125,1.3362369135677814,-1.5773834649845957,-1.2487795793890952
1763696728664781600,10.173781494140625,1.3560919531166553,-1.7841659745067358,-1.4478759183228016
1763696728674804500,10.183804443359374,1.4738362890094518,-2.0085504839539525,-1.7572861508876085
1763696728684828400,10.193828369140626,1.6850912677705288,-1.8254095467820763,-2.5298890644967553
1763696728694851300,10.203851318359375,1.9580109678059816,-1.4105632557556032,-3.3962364297300573
1763696728704874500,10.21387451171875,1.9473130481809378,-1.5055328652605413,-3.3668051680624482
1763696728714897400,10.2238974609375,2.190218133702874,-1.4190601582050322,-3.938219154372811
1763696728724921300,10.23392138671875,2.275305816140771,-2.03296830137372,-3.49306306527853
1763696728734944300,10.2439443359375,2.053306156003475,-2.687617327992618,-2.823713605394959
1763696728744967400,10.253967529296874,1.7221704138427971,-3.141488638462126,-2.106201879888773
1763696728754990600,10.263990478515625,1.6922551680505276,-3.3330615961536765,-2.077263954696059
1763696728765014500,10.2740146484375,0.8864403051912784,-3.314251974004507,-1.0148492429614067
1763696728775037400,10.284037353515625,0.8605132522523403,-3.473988946974277,-0.9996697940081357
1763696728785059800,10.294059814453124,0.507238743519783,-2.828527435417473,-0.6285644450306892
1763696728795084000,10.304083984375,0.3090349695116281,-2.5715754121035337,-0.4616559729963541
1763696728805107000,10.31410693359375,0.29102292748093606,-2.6659678062424064,-0.4601122506856918
1763696728815130000,10.324130126953126,-0.40614918982982634,-1.8807222686812282,0.1189431902885437
1763696728825152800,10.33415283203125,-0.4163754002898931,-1.941804806153476,0.11986498130857944
1763696728835177000,10.344177001953126,-0.9131009331017732,-1.4692505686543882,0.8002806096076965
1763696728845200100,10.3542001953125,-1.0814847383856774,-1.380938225081563,1.07987554962337
1763696728855223000,10.36422314453125,-1.1228946071386336,-1.338425071261823,1.268504270556569
1763696728865246000,10.374245849609375,-1.1689724677026272,-1.2967986371487379,1.4177192649900912
1763696728875270000,10.384269775390624,-1.172737957715988,-1.3092888470180333,1.4161393023222684
1763696728885293000,10.39429296875,-0.5945347496569157,-1.1669202844131736,1.1928490178525448
1763696728895316000,10.40431591796875,-0.6121294430583715,-1.1760218747574835,1.178539921993017
1763696728905340000,10.41433984375,-0.3528735267162323,-1.0122601032510399,1.1000006382852792
1763696728915363000,10.424363037109375,-0.18028700904548167,-1.151125699236244,1.057836736294627
1763696728925386000,10.434385986328126,-0.10841302844583987,-1.4183955568164586,1.0678168630391358
1763696728935409200,10.4444091796875,-0.22247312286794185,-1.6975496211968362,1.1688643311530351
1763696728945432800,10.454432861328126,-0.29362814154326916,-1.7558749689154325,1.1090209800869226
1763696728955456000,10.4644560546875,-0.6991746893048286,-2.0027172477558253,1.3751058656662702
1763696728965479000,10.47447900390625,-0.7752583965539932,-2.068703631621599,1.3075532553970812
1763696728975502000,10.484502197265625,-1.118324815005064,-2.0942299948051573,1.6148504413306712
1763696728985525800,10.49452587890625,-1.2315057885050773,-2.170588573472947,1.7629408156484365
1763696728995549000,10.504548828125,-1.2919196329355238,-2.2305938371025023,1.705055612912774
1763696729005571800,10.51457177734375,-1.2970751160025595,-2.425427111764252,1.8941794238865375
1763696729015596000,10.524595947265626,-1.3439093478918074,-2.4893705916255713,1.8480507099181414
1763696729025619000,10.534618896484375,-1.4029776229321955,-2.606070094640553,1.912649146556854
1763696729035641900,10.544641845703126,-1.563350555717945,-2.6522756732374426,1.9863035808324814
1763696729045665000,10.5546650390625,-1.583503701430559,-2.659435189603269,2.033421890360117
1763696729055689000,10.56468896484375,-1.5774632522225378,-2.6593337750554085,2.135826618301868
1763696729065711900,10.5747119140625,-1.5984972724229096,-2.7533187574371696,2.1122212863087655
1763696729075734800,10.58473486328125,-1.556606926676631,-2.8515219420358537,2.4572604661375284
1763696729085758000,10.594758056640625,-1.4507681326329707,-3.1005130694732066,2.5288001002162694
1763696729095782100,10.6047822265625,-1.2727443923443555,-3.442982398813963,2.46432558221817
1763696729105804800,10.6148046875,-1.152812191018462,-3.7194103992313146,2.335073179361224
1763696729115828000,10.624827880859375,-1.1622726778030394,-3.7975273658737536,2.3188111958682533
1763696729125852000,10.634851806640626,-1.1689274595171213,-3.7283752114534376,2.06993288115561
1763696729135875000,10.644875,-1.1670990750461816,-3.7944633021280167,2.065980928659439
1763696729145898000,10.65489794921875,-1.4842004466354846,-3.0551085781261325,1.9953806212574243
1763696729155921000,10.6649208984375,-1.5079162532657384,-2.7376024251282214,2.048869050338864
1763696729165945000,10.674945068359374,-1.4964800824940203,-2.5374159528702496,2.0779215418219565
1763696729175968000,10.684968017578125,-1.4866384874373673,-2.409599135774374,2.0581436591625213
1763696729185991200,10.6949912109375,-1.467276784363389,-2.4317934319257737,2.0772662927836176
1763696729196013800,10.705013916015625,-1.3210013505131006,-2.0948022417351604,1.911886345490813
1763696729206038000,10.7150380859375,-1.3125310438096522,-2.1005713266558943,1.9206436524420976
1763696729216061000,10.72506103515625,-1.371495273953676,-1.4225387941010295,1.7440625121772289
1763696729226084000,10.735083984375,-1.3131868773698805,-1.1601241945322602,1.6209171940237284
1763696729236108000,10.74510791015625,-1.3269126203835009,-1.1468007487092167,1.607183852225542
1763696729246131000,10.755130859375,-1.5454717846781014,-0.8022293325226754,1.60821319527328
1763696729256154000,10.765154052734376,-1.5755378371179103,-0.7786112141132354,1.5768752232015133
1763696729266177000,10.775177001953125,-1.96230311204195,-0.5434552083481103,1.5216478414982557
1763696729276201000,10.785200927734374,-2.1546330255806443,-0.33979894108772274,1.411889828184247
1763696729286224000,10.795223876953125,-2.198558092024922,-0.20193499642573295,1.2325456529468297
1763696729296247000,10.8052470703125,-2.0626976692050696,-0.09261647050753236,0.9351771558314561
1763696729306270000,10.81527001953125,-2.1169471457868814,0.010968114868551492,0.8773241017997264
1763696729316294000,10.8252939453125,-1.3607593604058026,0.2253183927638456,0.009845102187991141
1763696729326317000,10.835317138671876,-0.9758791685760021,0.3389348716042936,-0.45018882256448267
1763696729336340000,10.845340087890625,-0.7499982830911874,0.39195747327227143,-0.8576409116864204
1763696729346364000,10.855364013671876,-0.6589741963416338,0.48174434637706726,-1.1828349888384342
1763696729356386800,10.86538671875,-0.7027963869333267,0.6146571349050849,-1.244177054029703
1763696729366410000,10.875409912109374,-0.6088344931662082,0.6393642906602471,-1.5207371563941239
1763696729376433000,10.885432861328125,-0.6405600032508373,0.7668437655605376,-1.572957172974944
1763696729386457000,10.89545703125,-0.394694898879528,0.5840962846856564,-1.689855705693364
1763696729396479700,10.905479736328125,-0.24051848264634607,0.44131146943010385,-1.7646026113808153
1763696729406503000,10.9155029296875,-0.13774609043598174,0.2915005549300462,-1.835861674952507
1763696729416525800,10.92552587890625,-0.06010463235080242,0.20558139010407028,-1.8716531193017958
1763696729426550000,10.935550048828125,-0.05895780040323734,0.30230040055960417,-1.8869687618553637
1763696729436573000,10.945572998046876,-0.056413961139321324,0.44049036230556665,-1.7396137160748242
1763696729446595800,10.955595947265625,-0.04347849172055721,0.52307117648907,-1.7383359512239693
1763696729456619000,10.965618896484376,-0.28778058455884453,1.1059634922124444,-1.256748950833082
1763696729466643000,10.975642822265625,-0.26477380298078057,1.2587873247928916,-0.9740718268930911
1763696729476665900,10.985665771484374,-0.24462474892139432,1.3279473702587186,-0.9628156888633966
1763696729486688800,10.995688720703125,0.1541816769301891,1.2719957659341394,-0.4433505009770393
1763696729496713000,11.005712890625,0.16686989358961582,1.3248575875498354,-0.4398077138036489
1763696729506736000,11.015736083984375,0.4139554796665907,1.0482137524247168,-0.24117723881602285
1763696729516759000,11.025759033203125,0.5633773948490619,0.9337382090695202,-0.17604338012635706
1763696729526782000,11.035781982421875,0.5773246716588736,0.8599962426409125,-0.1183072304725647
1763696729536806000,11.045805908203125,0.5259375987708568,0.8045011499121785,-0.05711012670993804
1763696729546829000,11.0558291015625,0.5189800347179174,0.8286568092644214,-0.07411562204658985
1763696729556852000,11.06585205078125,0.37614626575410365,0.5172197470471263,-0.10318857179582118
1763696729566876000,11.0758759765625,0.3703577454805374,0.5479540541373193,-0.120947515848279
1763696729576899000,11.085899169921875,0.1702338170647621,0.3890248904190957,-0.3468009288042784
1763696729586922000,11.095921875,0.11260931109189987,0.4938207512810826,-0.49618309649825093
1763696729596945200,11.105945068359375,0.12182839033603668,0.5310071571201086,-0.4953834705531597
1763696729606968800,11.11596875,0.21542203531265258,0.6851644302614033,-0.8726151934564114
1763696729616992000,11.125991943359375,0.2354851646542549,0.7201563947960734,-0.8562643626362085
1763696729627015000,11.136014892578125,0.20621932268142698,0.9791045603632926,-0.8344412378847599
1763696729637038000,11.1460380859375,0.14102584275901317,1.2346028777375817,-0.6490934383183717
1763696729647062000,11.15606201171875,0.13797873014807702,1.4615952315956353,-0.5623381149291992
1763696729657085000,11.1660849609375,0.23794074111282823,1.5995646093934774,-0.4863029229968786
1763696729667108000,11.176108154296875,0.2617471486359835,1.6279291186124085,-0.46422670026719565
1763696729677131000,11.186131103515624,0.6545055264949798,1.5627154726848005,-0.4245540305703878
1763696729687155000,11.196155029296875,0.6691805330574512,1.5802575591161847,-0.4112959050685167
1763696729697177900,11.206177734375,0.9452057978928089,1.1092829920239746,-0.1815180121451616
1763696729707201000,11.216200927734375,0.9565437689870595,0.7496293036483228,-0.06736147161126137
1763696729717225000,11.226224853515625,0.8423387131363153,0.40603666936606164,0.05618365951478481
1763696729727248000,11.236247802734376,0.6142541801273822,0.18722484548464416,0.06348141530752181
1763696729737271000,11.24627099609375,0.5979793371528387,0.18132205118164418,0.04362871384620666
1763696729747294000,11.2562939453125,0.10121697946190833,-0.09473331653103231,-0.034113866525888444
1763696729757318100,11.266318115234375,0.09001812457740306,-0.09644888827726245,-0.04881108492016792
1763696729767340800,11.2763408203125,-0.13723463378250597,-0.10267813805565237,-0.09608663083612919
1763696729777364000,11.286364013671875,-0.11925590949952601,-0.0224791044421494,-0.11789105088710784
1763696729787387000,11.296386962890624,-0.11306348460018634,0.001375818397849798,-0.11853051783442496
1763696729797411000,11.3064111328125,0.04244330345392227,0.12430310988649725,-0.12223112591803073
1763696729807433700,11.316433837890624,0.05673194104731082,0.15796441033929584,-0.11590659907162189
1763696729817457000,11.326456787109375,0.4471043005526066,0.2368298572614789,-0.16414835967123506
1763696729827480000,11.33647998046875,0.6728285341709852,0.16028525450229644,-0.1892003833413124
1763696729837504000,11.34650390625,0.6816384480923414,0.19173925416916607,-0.19013737193048
1763696729847527000,11.35652685546875,0.8212555930972099,-0.05303995466157794,-0.2505956400245428
1763696729857549800,11.3665498046875,0.8291489766955376,-0.016609043364971876,-0.25528175201416015
1763696729867574000,11.376573974609375,0.6819488292157649,-0.000573562104254961,-0.403479093837738
1763696729877597000,11.386596923828124,0.7000771911025047,0.05475859514772892,-0.4032107982903719
1763696729887620000,11.3966201171875,1.1595984901577234,-0.1646069170936942,-0.7680868974894285
1763696729897642800,11.406642822265624,1.6682172898590564,-0.2810807946592569,-1.0681307512938976
1763696729907667000,11.4166669921875,1.7039689867198466,-0.21048720925897357,-1.0537035820126532
1763696729917690000,11.426690185546875,2.5258757372021674,-0.1726452621206641,-1.580243822851777
1763696729927713000,11.436713134765625,2.5695669948905704,-0.11520780315250158,-1.5511282030045985
1763696729937736000,11.44673583984375,2.5658406678438186,-0.12428630488216877,-1.480113469582796
1763696729947759900,11.456759765625,2.1476514961302278,-0.2498468674838543,-1.2705097651600836
1763696729957783000,11.466782958984375,2.1848539763212202,-0.24179244810491798,-1.227369711613655
1763696729967806000,11.476805908203126,0.9995289242327212,-0.7088058564811944,-1.1293290241003036
1763696729977830000,11.486829833984375,1.0350444742500782,-0.7310466221228241,-1.074556984949112
1763696729987853000,11.49685302734375,0.6009726737499237,-1.1157181396380067,-1.2096142746925354
1763696729997876000,11.5068759765625,-0.1603179877281189,-1.5817907600328325,-1.564613122999668
1763696730007899100,11.516899169921874,-0.4335235189676285,-1.5296844329595565,-1.5905191331505775
1763696730017922800,11.5269228515625,-0.6693132195264101,-1.3272794078692793,-1.5601508828938007
1763696730027946000,11.536946044921875,-0.6016051264345645,-1.3161284837797282,-1.4889415036827325
1763696730037969000,11.546968994140625,-0.7450795313894748,-0.6583455430492758,-1.66632694606781
1763696730047992000,11.556991943359375,-0.6801730517148972,-0.6168742994979024,-1.614680929982662
1763696730058016000,11.56701611328125,-0.8550783677220344,0.20691110433787105,-1.6235113021701573
1763696730068039000,11.577038818359375,-0.8601812438189983,0.526125814819336,-1.5731500651985406
1763696730078062000,11.58706201171875,-0.8095271613806486,0.5948106439888476,-1.5527280394166707
1763696730088085000,11.5970849609375,-0.9492495203256607,1.260887658073008,-1.3831570701748133
1763696730098109000,11.60710888671875,-0.9058733199357986,1.338065005777776,-1.3766753069400786
1763696730108131800,11.6171318359375,-0.7456476866662501,1.9333835992887616,-1.2990841177374124
1763696730118155000,11.627155029296874,-0.41010172684788704,2.0334148760974404,-1.3031214104294777
1763696730128179200,11.63717919921875,-0.08593348561227321,2.0187115202233192,-1.2989987775415182
1763696730138201900,11.647201904296875,0.09061258333921432,1.927946084409952,-1.345193542483449
1763696730148225000,11.65722509765625,0.09195347655415534,1.964735015363991,-1.3638082265824079
1763696730158248000,11.667248046875,0.4444225141227245,1.4445730773851275,-1.2873580241084097
1763696730168272100,11.677272216796876,0.43209611651301383,1.4518918759658932,-1.3038830424517391
1763696730178294800,11.687294677734375,0.5421820466071366,0.8671180573448538,-0.9718833769381046
1763696730188318000,11.69731787109375,0.569464605808258,0.6601935090035199,-0.6147872640907764
1763696730198340900,11.7073408203125,0.5588631322950124,0.6550465015038848,-0.6227940449357032
1763696730208365000,11.717364990234374,0.4552110346406698,0.5419853549912571,-0.036507483664155
1763696730218388000,11.727387939453125,0.4504869287282228,0.5428837651357055,-0.041867549392580986
1763696730228411000,11.737410888671874,0.34293080937266346,0.49395285322815174,0.22395488585829734
1763696730238434000,11.74743408203125,0.3416308326900005,0.49086277825832364,0.2243313179552555
1763696730248458000,11.7574580078125,0.14576806885004043,0.2622562672019005,0.2626256850361824
1763696730258481200,11.767481201171876,-0.18721651604771614,0.2804851668536663,0.3639525546133518
1763696730268503800,11.77750390625,-0.1841243952512741,0.2500412210121751,0.3837234230101108
1763696730278528000,11.787528076171874,-0.7243360185682773,0.16143442453742027,0.5630547387659549
1763696730288551000,11.797551025390625,-1.0430910025835036,0.10242167907655239,0.7763280716121196
1763696730298574000,11.807573974609374,-1.2703174574583769,0.10248042352646589,1.0815139644801617
1763696730308596700,11.8175966796875,-1.3867583095371723,0.07607640072554349,1.3670219279319047
1763696730318621000,11.827620849609374,-1.345021693047881,0.05186199692338705,1.420026957410574
1763696730328644000,11.83764404296875,-1.2672849578946828,-0.31338936532884837,1.610667602688074
1763696730338667000,11.8476669921875,-1.2165402745634317,-0.3236412947520613,1.6638322066426277
1763696730348690000,11.85768994140625,-1.1468167499959467,-0.22261545394808052,1.6347832222908734
1763696730358713900,11.8677138671875,-1.045787402060628,-0.11555384011119603,1.6479975086510181
1763696730368737000,11.877737060546876,-0.9892875162035226,-0.11814297982156276,1.7002496739357709
1763696730378760000,11.887760009765625,-0.6618430297762156,0.174266141320765,1.6910674195706843
1763696730388783000,11.897783203125,-0.6120914491355419,0.16218290481716394,1.7402058367490767
1763696730398807000,11.90780712890625,-0.13865209936499595,-0.004161795854568481,1.69801329318583
1763696730408830000,11.917829833984374,0.05332710103988647,-0.20320114390403032,1.7085639132946728
1763696730418853000,11.92785302734375,0.06341127268075943,-0.3791422326996922,1.7551210818082092
1763696730428876800,11.937876708984374,-0.045779169878363606,-0.49780339117646216,1.8045348087966442
1763696730438900000,11.94789990234375,-0.048668461579084395,-0.5358236174911261,1.8186451672136783
1763696730448923000,11.9579228515625,-0.3280027048319578,-0.5242015687584877,1.8205413562238215
1763696730458946000,11.967946044921876,-0.34326340232789515,-0.5441971858218312,1.8162468739002942
1763696730468970000,11.977969970703125,-0.43202129771113396,-0.551116755951941,1.4590420399814843
1763696730478993000,11.987992919921876,-0.40432548153400416,-0.5078329100206495,1.136844222036004
1763696730489016000,11.99801611328125,-0.4296639209300279,-0.5056859611198306,1.1143003817945718
1763696730499039000,12.0080390625,-0.5557300949662923,-0.2718804201155901,0.6312298648476601
1763696730509063000,12.01806298828125,-0.5830757825314998,-0.2734703196555376,0.6082102237880229
1763696730519085800,12.0280859375,-0.684257690680027,-0.2752566185504198,0.4477081116646528
1763696730529109000,12.03810888671875,-0.7094897470921278,-0.2801619262486696,0.42762510857880115
1763696730539132000,12.0481318359375,-0.6174538529515267,-0.5345452681183814,0.3578694353073835
1763696730549155800,12.05815576171875,-0.6124316408753395,-0.6424339804291724,0.3456920907795429
1763696730559179000,12.068178955078125,-0.6288765797197818,-0.6352537135362625,0.32784371487796304
1763696730569202000,12.078201904296876,-0.5800286699205637,-0.6183870421484112,0.26682079863846303
1763696730579225000,12.08822509765625,-0.5902285768955946,-0.5949371929779649,0.24726561881899833
1763696730589248800,12.098248779296876,-0.43379006094932554,-0.42665714032948016,0.09685352355539799
1763696730599272000,12.10827197265625,-0.26409049689173697,-0.279170869384706,-0.04396189132332801
1763696730609294800,12.118294921875,-0.2717757906973362,-0.24129472771584987,-0.06839198370277881
1763696730619319000,12.128319091796875,0.15353461119830608,-0.08601911806911229,-0.387924966353178
1763696730629342000,12.138342041015624,0.13918050715327263,-0.05359422754347324,-0.4165735532104969
1763696730639364900,12.14836474609375,0.6008996085137128,-0.383357512307167,-0.7698246810674667
1763696730649388000,12.158387939453124,0.6025508828520775,-0.49368192733228206,-0.842408271241188
1763696730659412000,12.168411865234376,0.5797650505483151,-0.4664911380678415,-0.8774427597433329
1763696730669435100,12.17843505859375,0.40713820086717606,-0.4015609852567315,-0.8890162931591272
1763696730679457800,12.188457763671876,0.19463176074028013,-0.2069645880907774,-0.8635650410383939
1763696730689481000,12.19848095703125,0.16273849287331105,-0.16176526392698287,-0.7472890241324901
1763696730699505000,12.2085048828125,0.3591325871109962,-0.18437632418572902,-0.7641109795957803
1763696730709528000,12.218528076171875,0.5685621040105819,-0.07783668839633465,-0.7364806298702955
1763696730719551000,12.228551025390624,0.7252513798475265,0.1394160694748163,-0.5955325285226106
1763696730729574000,12.238573974609375,0.7333721424609422,0.1906470750182867,-0.6156424196153879
1763696730739598000,12.24859814453125,0.8749439286649227,0.4752803014621138,-0.44897827773094173
1763696730749621000,12.25862109375,1.0018763641417026,1.0879051268219948,-0.0640571693688631
1763696730759644000,12.268643798828125,1.007367947295308,1.412540693308413,0.07940203801691531
1763696730769666800,12.278666748046875,0.9063304160535335,1.711209751628339,0.14835107108056544
1763696730779691000,12.28869091796875,0.8956745820045471,1.7824995025992392,0.09383271442949771
1763696730789714200,12.298714111328126,0.7991220872223377,2.145347895362973,-0.09571721300184727
1763696730799737000,12.308737060546875,0.769568660479784,2.1964000372081993,-0.15925941858589648
1763696730809761000,12.318760986328124,0.6133142689287662,2.290772265341878,-0.4607669152021408
1763696730819784200,12.3287841796875,0.5334218170464039,2.2631173656970263,-0.5710673648297786
1763696730829807000,12.33880712890625,0.48978258180618284,2.2614874264076352,-0.6171878954917193
1763696730839830300,12.348830322265625,0.4510620982676744,1.9017495668798683,-0.6530301932454109
1763696730849854000,12.35885400390625,0.408691860049963,1.8700372085377572,-0.6785089178949594
1763696730859877000,12.368877197265626,0.6417962670475245,1.0848083298504352,-0.5652250685423612
1763696730869900000,12.378900146484375,0.7922422645807266,0.6221852653875947,-0.5362123245477676
1763696730879923200,12.388923095703126,0.9332406348109245,0.20010347014963625,-0.46260640558898447
1763696730889947100,12.398947021484375,1.1444447601675987,-0.26227117251008747,-0.40197745710313315
1763696730899970000,12.408969970703126,1.1126438467592001,-0.34144816959947344,-0.3883212721943855
1763696730909993200,12.4189931640625,1.270389938172698,-1.0054773112431168,-0.1211696341663599
1763696730920016100,12.42901611328125,1.249222062459588,-1.2009782560333608,0.012999766826629637
1763696730930040000,12.4390400390625,1.1692086145460605,-1.288375968979299,0.06516893000304698
1763696730940063000,12.44906298828125,1.1111714361190794,-1.3559595589086413,-0.01836976942718029
1763696730950086100,12.459086181640625,1.0793564941853284,-1.4259800205960869,-0.015989596292376517
1763696730960109000,12.469109130859374,1.2496762359678744,-1.4778615990027784,-0.43738487057089803
1763696730970133000,12.479133056640626,1.215521452909708,-1.5359072529971598,-0.44602994931936263
1763696730980156200,12.48915625,1.1181833607077598,-1.642450980439782,-0.9767465990602969
1763696730990179000,12.499178955078126,1.088396709731221,-1.6916566176354884,-0.9862737213402986
1763696731000203000,12.509203125,1.0705097553849219,-1.676022995173931,-1.2397726815909147
1763696731010226000,12.519225830078126,0.9905664500981569,-1.4359887889131904,-1.6174848814874887
1763696731020249000,12.5292490234375,0.9752490539789199,-1.4859122189894318,-1.6109014114439486
1763696731030272000,12.53927197265625,1.0410621271044016,-1.502088862286508,-1.4421914429455995
1763696731040296200,12.549296142578125,1.1598632785737515,-1.7679764717280864,-1.2996189552664756
1763696731050319000,12.559319091796874,1.1452595836818218,-1.819080051499605,-1.2930360697448253
1763696731060342000,12.569342041015625,1.600719624647498,-2.487803780700266,-1.2186609199792147
1763696731070365200,12.579365234375,1.5781559106618166,-2.528786071690917,-1.2271528539925813
1763696731080389000,12.58938916015625,2.0528806240677833,-3.1207059626743194,-1.4630284792691468
1763696731090412000,12.599412109375,2.1250813524037597,-3.3081498577371238,-1.5932827526450157
