time,seconds_elapsed,z,y,x
1763696718543766300,0.052766357421875,0.0013558153295889497,0.744489848613739,-0.17791327834129333
1763696718553789400,0.06278955078125,0.07153064012527466,1.0032532215118408,-0.044737376272678375
1763696718563813400,0.0728134765625,0.20169077813625336,1.3036452531814575,0.13013136386871338
1763696718573836300,0.082836181640625,0.3382329046726227,1.4809454679489136,0.31222233176231384
1763696718583859500,0.092859375,0.45698484778404236,1.64594304561615,0.525197446346283
1763696718593883400,0.10288330078125,0.5593274831771851,1.797397255897522,0.7605226635932922
1763696718603906300,0.11290625,0.6480850577354431,1.9785734415054321,1.0153589248657227
1763696718613929200,0.12292919921875,0.7518748044967651,2.155367374420166,1.2748615741729736
1763696718623953400,0.132953369140625,0.7703763246536255,2.4214272499084473,1.3594393730163574
1763696718633976300,0.142976318359375,0.6885227560997009,2.4136600494384766,1.4428609609603882
1763696718643999200,0.152999267578125,0.5167166590690613,2.596865177154541,1.5082613229751587
1763696718654022100,0.163022216796875,0.3998989462852478,2.7536375522613525,1.4693690538406372
1763696718664046300,0.17304638671875,0.38863110542297363,2.855745792388916,1.3689100742340088
1763696718674069500,0.183069580078125,0.3459475636482239,2.666987419128418,1.1401772499084473
1763696718684092200,0.193092041015625,0.26822346448898315,2.4945125579833984,0.839002788066864
1763696718694116400,0.203116455078125,0.16762681305408478,2.487877130508423,0.6670094728469849
1763696718704139300,0.21313916015625,0.04162680357694626,2.2351534366607666,0.48338690400123596
1763696718714162400,0.223162353515625,-0.1439736783504486,1.6792978048324585,0.25600194931030273
1763696718724186400,0.233186279296875,-0.24689340591430664,1.2266889810562134,0.13296657800674438
1763696718734209300,0.243209228515625,-0.24930383265018463,1.0275607109069824,0.09212486445903778
1763696718744232400,0.253232421875,-0.17263062298297882,0.9043365120887756,0.05134867504239082
1763696718754255400,0.26325537109375,-0.04044542834162712,0.8869529962539673,0.05164934694766998
1763696718764279300,0.273279296875,0.09538404643535614,0.9517509341239929,0.07132158428430557
1763696718774302200,0.28330224609375,0.1826225370168686,1.0225886106491089,0.11534390598535538
1763696718784325000,0.2933251953125,0.24833443760871887,0.9318253993988037,0.21858559548854828
1763696718794349300,0.303349365234375,0.29129308462142944,0.5165941119194031,0.43534135818481445
1763696718804372200,0.313372314453125,0.2888815999031067,0.4511679708957672,0.6138978004455566
1763696718814395100,0.32339501953125,0.2527361214160919,0.46965962648391724,0.6680870056152344
1763696718824419300,0.33341943359375,0.16945454478263855,0.3258492052555084,0.5676913857460022
1763696718834442200,0.343442138671875,0.14652419090270996,-0.12881363928318024,0.3765065371990204
1763696718844465200,0.353465087890625,0.17920464277267456,-0.5011779069900513,0.13420040905475616
1763696718854489300,0.3634892578125,0.32962876558303833,-0.6447036266326904,-0.187672421336174
1763696718864512300,0.37351220703125,0.4336206912994385,-0.5135687589645386,-0.39499711990356445
1763696718874535400,0.383535400390625,0.4150872230529785,-0.299537718296051,-0.5719921588897705
1763696718884558000,0.39355810546875,0.3072938919067383,-0.13523319363594055,-0.8205457329750061
1763696718894582300,0.403582275390625,0.13289760053157806,0.05632692202925682,-0.8585323095321655
1763696718904605200,0.413605224609375,-0.022845927625894547,0.17151449620723724,-0.8833505511283875
1763696718914628400,0.42362841796875,-0.06322131305932999,0.2533861994743347,-0.9274919033050537
1763696718924652000,0.433652099609375,-0.04003529995679855,0.3264676034450531,-0.8956303596496582
1763696718934675200,0.44367529296875,0.00863263662904501,0.378967821598053,-0.8323124051094055
1763696718944698000,0.453697998046875,0.07823435217142105,0.39565783739089966,-0.8009283542633057
1763696718954722000,0.46372216796875,0.22910642623901367,0.28867974877357483,-0.7930228114128113
1763696718964745200,0.4737451171875,0.425476998090744,0.38565367460250854,-0.773613691329956
1763696718974768000,0.48376806640625,0.6105789542198181,0.5583964586257935,-0.7095537185668945
1763696718984791300,0.493791259765625,0.7608461976051331,0.4717289209365845,-0.5736619234085083
1763696718994815200,0.503815185546875,0.8880662322044373,0.47657933831214905,-0.35870224237442017
1763696719004838100,0.513838134765625,0.9272119998931885,0.46981117129325867,-0.16218172013759613
1763696719014861000,0.523861083984375,0.8766130208969116,0.6594482064247131,0.007475226651877165
1763696719024885200,0.53388525390625,0.6808762550354004,0.7613024115562439,0.1377011388540268
1763696719034908400,0.543908447265625,0.39146336913108826,0.8141595125198364,0.2948122024536133
1763696719044931000,0.55393115234375,0.05951738730072975,0.9205384254455566,0.4975796937942505
1763696719054955300,0.563955322265625,-0.23517070710659027,0.9052068591117859,0.7750160694122314
1763696719064978200,0.573978271484375,-0.4200153946876526,0.8701447248458862,1.1016134023666382
1763696719075001300,0.58400146484375,-0.5076491236686707,0.8677476048469543,1.4462897777557373
1763696719085025300,0.594025390625,-0.5360708832740784,0.9370806217193604,1.7338531017303467
1763696719095048200,0.604048095703125,-0.4428676962852478,1.1916368007659912,2.0265634059906006
1763696719105071400,0.6140712890625,-0.23894760012626648,1.403860092163086,2.388598680496216
1763696719115094300,0.62409423828125,0.024766067042946815,1.3310045003890991,2.766343355178833
1763696719125118200,0.6341181640625,0.37731799483299255,1.1016730070114136,3.230722188949585
1763696719135141000,0.64414111328125,0.7811184525489807,0.588320791721344,3.6355342864990234
1763696719145164300,0.654164306640625,1.2397822141647339,-0.07154049724340439,3.9323086738586426
1763696719155188200,0.664188232421875,1.7611364126205444,-0.7126978635787964,4.120660305023193
1763696719165211100,0.674211181640625,2.345358371734619,-1.1218703985214233,4.186091899871826
1763696719175234300,0.684234375,2.8194222450256348,-1.3234666585922241,4.175241947174072
1763696719185258200,0.69425830078125,3.163541555404663,-1.1255533695220947,4.072131633758545
1763696719195281200,0.70428125,3.465108633041382,-0.7168145775794983,3.818295955657959
1763696719205304000,0.714303955078125,3.681973695755005,-0.2493075579404831,3.450590133666992
1763696719215327200,0.7243271484375,3.7389960289001465,0.08344455808401108,3.004342794418335
1763696719225351200,0.73435107421875,3.6472039222717285,0.13683827221393585,2.622103691101074
1763696719235374300,0.744374267578125,3.4502971172332764,-0.026570890098810196,2.278921604156494
1763696719245397000,0.75439697265625,3.300159454345703,-0.1356414556503296,1.9415909051895142
1763696719255421200,0.764421142578125,3.2254624366760254,0.04803383722901344,1.5586192607879639
1763696719265444400,0.7744443359375,3.202749729156494,0.4230649769306183,1.1266460418701172
1763696719275467300,0.78446728515625,3.207852363586426,0.7744309902191162,0.7015887498855591
1763696719285491200,0.7944912109375,3.1531572341918945,0.8100185394287109,0.3503044843673706
1763696719295514000,0.80451416015625,3.076207399368286,0.7449378371238708,0.1519266813993454
1763696719305537300,0.814537353515625,3.018970251083374,0.5488348603248596,0.06998840719461441
1763696719315560200,0.824560302734375,2.9554049968719482,0.29337888956069946,0.025537583976984024
1763696719325584100,0.834584228515625,3.007354736328125,0.10925431549549103,-0.03780197352170944
1763696719335607300,0.844607177734375,3.075922727584839,0.15432778000831604,-0.13185523450374603
1763696719345630200,0.854630126953125,3.080158233642578,0.30129274725914,-0.21328911185264587
1763696719355654100,0.864654052734375,2.9973256587982178,0.36326929926872253,-0.30908966064453125
1763696719365677000,0.874677001953125,2.8688607215881348,0.3997146487236023,-0.383821964263916
1763696719375700200,0.8847001953125,2.6788880825042725,0.32438287138938904,-0.47607624530792236
1763696719385724400,0.894724365234375,2.46826434135437,0.23318691551685333,-0.617915689945221
1763696719395747000,0.9047470703125,2.2950971126556396,0.09427163749933243,-0.8241455554962158
1763696719405770200,0.914770263671875,2.1650383472442627,-0.018206700682640076,-1.0801211595535278
1763696719415793200,0.924793212890625,2.019632339477539,-0.08788537979125977,-1.3428866863250732
1763696719425817300,0.9348173828125,1.8012527227401733,-0.1355660855770111,-1.5542229413986206
1763696719435840300,0.94484033203125,1.5375148057937622,-0.021014470607042313,-1.6641275882720947
1763696719445863200,0.95486328125,1.2418533563613892,0.15147846937179565,-1.6720364093780518
1763696719455887400,0.964887451171875,0.9452698230743408,0.3545125424861908,-1.6200650930404663
1763696719465910300,0.97491015625,0.706832766532898,0.42461466789245605,-1.5229004621505737
1763696719475933400,0.984933349609375,0.5738224983215332,0.2714000940322876,-1.3704354763031006
1763696719485957000,0.99495703125,0.5228493809700012,0.03669543191790581,-1.1813015937805176
1763696719495980300,1.004980224609375,0.4874729812145233,-0.12023479491472244,-0.9735744595527649
1763696719506003200,1.015003173828125,0.38262781500816345,-0.14643365144729614,-0.7397627830505371
1763696719516027100,1.025027099609375,0.24427765607833862,-0.0639326423406601,-0.5173424482345581
1763696719526050000,1.035050048828125,0.10267844051122665,-0.0015363775892183185,-0.34178850054740906
1763696719536073200,1.0450732421875,0.008172708563506603,-0.045047368854284286,-0.1888868361711502
1763696719546096400,1.055096435546875,-0.030184533447027206,-0.17382186651229858,-0.09904615581035614
1763696719556120000,1.0651201171875,-0.01221405528485775,-0.34235015511512756,-0.057024937123060226
1763696719566143200,1.075143310546875,0.01143002137541771,-0.4164275825023651,-0.04692063853144646
1763696719576166100,1.085166259765625,0.010536263696849346,-0.3075959086418152,-0.0765155479311943
1763696719586190300,1.0951904296875,-0.03287379443645477,-0.17297551035881042,-0.11371564865112305
1763696719596213000,1.105212890625,-0.08101975172758102,-0.1338118612766266,-0.14491485059261322
1763696719606236200,1.115236083984375,-0.1343279778957367,-0.09976653754711151,-0.21781514585018158
1763696719616260400,1.12526025390625,-0.22676843404769897,0.03813060745596886,-0.35615357756614685
1763696719626283300,1.135283203125,-0.3189356327056885,0.24549232423305511,-0.5902252197265625
1763696719636306200,1.14530615234375,-0.3943803310394287,0.38850831985473633,-0.8411658406257629
1763696719646329000,1.1553291015625,-0.43809211254119873,0.355692595243454,-1.0839896202087402
1763696719656353300,1.165353271484375,-0.4575513005256653,0.23085105419158936,-1.3349672555923462
1763696719666376200,1.175376220703125,-0.46262943744659424,0.0906931534409523,-1.620549201965332
1763696719676399000,1.185399169921875,-0.4690697491168976,0.023452594876289368,-2.005309581756592
1763696719686423300,1.19542333984375,-0.3842712342739105,-0.09547992050647736,-2.4198989868164062
1763696719696446200,1.2054462890625,-0.09321969002485275,-0.3966434895992279,-2.6470329761505127
1763696719706469400,1.215469482421875,0.27267441153526306,-0.5125040411949158,-2.52848744392395
1763696719716493000,1.2254931640625,0.5424198508262634,-0.6087128520011902,-2.18906831741333
1763696719726516200,1.23551611328125,0.6571277976036072,-0.7610483169555664,-1.7978358268737793
1763696719736539100,1.2455390625,0.6063231825828552,-0.6750165224075317,-1.4099928140640259
1763696719746563000,1.25556298828125,0.4351442754268646,-0.19593727588653564,-1.0285402536392212
1763696719756586200,1.265586181640625,0.21117429435253143,0.18905407190322876,-0.7049909234046936
1763696719766609200,1.275609130859375,-0.026192720979452133,0.21851849555969238,-0.3530225157737732
1763696719776632300,1.28563232421875,-0.20775346457958221,0.017428524792194366,0.026436667889356613
1763696719786656300,1.29565625,-0.29033783078193665,-0.18020598590373993,0.4223800003528595
1763696719796679200,1.30567919921875,-0.3226371705532074,-0.3859599530696869,0.760476291179657
1763696719806702000,1.3157021484375,-0.3724723756313324,-0.5459016561508179,1.0096163749694824
1763696719816726300,1.325726318359375,-0.4728442430496216,-0.5814434289932251,1.1624884605407715
1763696719826749400,1.33574951171875,-0.5892755389213562,-0.5167751908302307,1.2467402219772339
1763696719836772000,1.345772216796875,-0.7316164374351501,-0.46008825302124023,1.2843035459518433
1763696719846796300,1.35579638671875,-0.8953190445899963,-0.4930885434150696,1.3011813163757324
1763696719856819200,1.365819091796875,-1.0445090532302856,-0.5363036394119263,1.303722858428955
1763696719866842400,1.37584228515625,-1.163849115371704,-0.6306645274162292,1.3180636167526245
1763696719876865000,1.385864990234375,-1.2750279903411865,-0.8881836533546448,1.3378962278366089
1763696719886889200,1.39588916015625,-1.3902217149734497,-1.2556573152542114,1.3072288036346436
1763696719896912100,1.405912109375,-1.5072506666183472,-1.5764390230178833,1.1282598972320557
1763696719906935300,1.415935302734375,-1.5953205823898315,-1.6955355405807495,0.7964942455291748
1763696719916959200,1.425959228515625,-1.6633307933807373,-1.6367210149765015,0.39493054151535034
1763696719926982100,1.435982177734375,-1.7594751119613647,-1.6070799827575684,-0.008235293440520763
1763696719937005300,1.44600537109375,-1.933090329170227,-1.5986915826797485,-0.38875147700309753
1763696719947029000,1.456029052734375,-2.1216609477996826,-1.4719791412353516,-0.7331674695014954
1763696719957052200,1.46605224609375,-2.311361312866211,-1.3093076944351196,-1.0214886665344238
1763696719967075000,1.476074951171875,-2.5168328285217285,-1.2266721725463867,-1.2584927082061768
1763696719977098200,1.48609814453125,-2.7329230308532715,-1.189632773399353,-1.444353699684143
1763696719987122200,1.4961220703125,-2.8927552700042725,-1.1541907787322998,-1.6452041864395142
1763696719997145000,1.50614501953125,-3.0461502075195312,-1.0398706197738647,-1.887808084487915
1763696720007168300,1.516168212890625,-3.127887010574341,-0.7996551394462585,-2.1197943687438965
1763696720017192200,1.526192138671875,-3.1504764556884766,-0.5260371565818787,-2.285564422607422
1763696720027215400,1.53621533203125,-3.1539576053619385,-0.3154570162296295,-2.383707046508789
1763696720037238000,1.546238037109375,-3.099374532699585,-0.1476650834083557,-2.3986260890960693
1763696720047262200,1.55626220703125,-3.0026485919952393,-0.020266123116016388,-2.292511463165283
1763696720057285400,1.566285400390625,-2.8724417686462402,0.10252290964126587,-2.0693318843841553
1763696720067308300,1.576308349609375,-2.7254931926727295,0.23224149644374847,-1.740708351135254
1763696720077331200,1.586331298828125,-2.5666372776031494,0.29780691862106323,-1.3745988607406616
1763696720087355100,1.596355224609375,-2.3903255462646484,0.32638850808143616,-1.0802100896835327
1763696720097378300,1.60637841796875,-2.22430682182312,0.32367846369743347,-0.9192132353782654
1763696720107401200,1.616401123046875,-2.1124653816223145,0.2754584848880768,-0.8741613030433655
1763696720117425200,1.626425048828125,-2.0111606121063232,0.29199111461639404,-0.9302632212638855
1763696720127448300,1.6364482421875,-1.8266438245773315,0.3149619400501251,-1.0475456714630127
1763696720137471200,1.64647119140625,-1.5979951620101929,0.3237897753715515,-1.1420478820800781
1763696720147495200,1.6564951171875,-1.3685020208358765,0.3985218107700348,-1.1542270183563232
1763696720157518000,1.66651806640625,-1.1741118431091309,0.4580669105052948,-1.0785192251205444
1763696720167541200,1.676541259765625,-0.9655964374542236,0.42163246870040894,-0.9491490125656128
1763696720177564200,1.686564208984375,-0.7712112069129944,0.2899942696094513,-0.817264199256897
1763696720187588000,1.696588134765625,-0.5879495143890381,0.15229366719722748,-0.6836369037628174
1763696720197611000,1.706611083984375,-0.41586804389953613,0.012719789519906044,-0.5605543851852417
1763696720207634200,1.71663427734375,-0.2334047555923462,-0.1032014861702919,-0.5330862998962402
1763696720217658400,1.726658447265625,-0.06238854303956032,-0.2334151417016983,-0.5631371140480042
1763696720227681300,1.736681396484375,0.015376559458673,-0.3517434000968933,-0.5904752612113953
1763696720237704200,1.7467041015625,0.04921761155128479,-0.43411603569984436,-0.5826796889305115
1763696720247728000,1.75672802734375,0.0837436318397522,-0.4880051016807556,-0.5293503999710083
1763696720257751300,1.766751220703125,0.12537096440792084,-0.5116276144981384,-0.46380841732025146
1763696720267774200,1.776774169921875,0.20402902364730835,-0.4409385025501251,-0.4155103862285614
1763696720277797000,1.786797119140625,0.3479875326156616,-0.27709338068962097,-0.41859832406044006
1763696720287821300,1.7968212890625,0.4427662491798401,-0.19572582840919495,-0.4340590238571167
1763696720297844200,1.80684423828125,0.4460909366607666,-0.18400178849697113,-0.4619543254375458
1763696720307867400,1.816867431640625,0.3343854248523712,-0.19137981534004211,-0.5238693356513977
1763696720317891000,1.82689111328125,0.21674402058124542,-0.23296959698200226,-0.6205111742019653
1763696720327914200,1.836914306640625,0.15309660136699677,-0.2994120121002197,-0.7373342514038086
1763696720337937200,1.846937255859375,0.11896313726902008,-0.2997339963912964,-0.8457453846931458
1763696720347961000,1.856961181640625,0.11098723858594894,-0.2405737191438675,-0.8993553519248962
1763696720357984300,1.866984375,0.10872647911310196,-0.21569767594337463,-0.8999460339546204
1763696720368007200,1.877007080078125,0.09537765383720398,-0.19798019528388977,-0.8480881452560425
1763696720378031400,1.88703125,0.042392462491989136,-0.11656016856431961,-0.7558946013450623
1763696720388054000,1.897053955078125,-0.023253124207258224,-0.030131004750728607,-0.6464732885360718
1763696720398077200,1.9070771484375,-0.058880627155303955,0.0029675604309886694,-0.5424478054046631
1763696720408100000,1.91710009765625,-0.07837336510419846,-0.0875098779797554,-0.4470565915107727
1763696720418124300,1.927124267578125,-0.06445222347974777,-0.17452360689640045,-0.4003327488899231
1763696720428147200,1.937147216796875,-0.02172233909368515,-0.2603279948234558,-0.3847980201244354
1763696720438170000,1.947170166015625,0.05019765719771385,-0.2808082401752472,-0.40125343203544617
1763696720448194300,1.9571943359375,0.13880129158496857,-0.26947593688964844,-0.46483850479125977
1763696720458217200,1.96721728515625,0.19984041154384613,-0.22793036699295044,-0.5346221327781677
1763696720468240400,1.977240478515625,0.23372700810432434,-0.19955332577228546,-0.5476604104042053
1763696720478263000,1.987262939453125,0.2914275825023651,-0.33376652002334595,-0.5362048149108887
1763696720488287200,1.997287353515625,0.3354871869087219,-0.5166604518890381,-0.5907309651374817
1763696720498310400,2.007310302734375,0.33338090777397156,-0.5749338865280151,-0.6597424745559692
1763696720508333300,2.017333251953125,0.3012639582157135,-0.6107248663902283,-0.7285356521606445
1763696720518357200,2.027357177734375,0.2678535580635071,-0.6513633728027344,-0.7811472415924072
1763696720528380200,2.037380126953125,0.22033317387104034,-0.6294367909431458,-0.8125386834144592
1763696720538403300,2.0474033203125,0.17570124566555023,-0.5096675157546997,-0.8662527799606323
1763696720548427000,2.057427001953125,0.07560474425554276,-0.45178210735321045,-0.9103068113327026
1763696720558450200,2.0674501953125,-0.19911442697048187,0.11278992891311646,-0.5536208748817444
1763696720568473000,2.07747314453125,-0.3967928886413574,0.1233791932463646,-0.2889074385166168
1763696720578496300,2.087496337890625,-0.43291786313056946,0.23380370438098907,-0.16365870833396912
1763696720588520200,2.097520263671875,-0.38350266218185425,0.19674715399742126,-0.13597407937049866
1763696720598543000,2.107543212890625,-0.29401350021362305,0.0932077094912529,-0.09377096593379974
1763696720608566300,2.117566162109375,-0.21108268201351166,0.00012250541476532817,-0.02076386846601963
1763696720618590200,2.127590087890625,-0.12587644159793854,-0.08533620089292526,0.041543181985616684
1763696720628613000,2.137613037109375,-0.06279680877923965,-0.13494236767292023,0.030346985906362534
1763696720638636000,2.147635986328125,-0.04057618975639343,-0.17822620272636414,-0.03455318510532379
1763696720648660200,2.15766015625,0.08013851195573807,-0.43558794260025024,0.25070011615753174
1763696720658683400,2.167683349609375,0.15262097120285034,-0.5192421078681946,0.16962018609046936
1763696720668706300,2.177706298828125,0.18015752732753754,-0.4669586718082428,0.09366843849420547
1763696720678729200,2.187729248046875,0.14516997337341309,-0.11047004908323288,0.19507548213005066
1763696720688753200,2.197753173828125,0.11779427528381348,0.017066868022084236,0.1048411950469017
1763696720698776300,2.2077763671875,0.059122174978256226,0.05777355283498764,0.053999319672584534
1763696720708799200,2.21779931640625,0.0423666313290596,0.17576809227466583,-0.05210021883249283
1763696720718823200,2.2278232421875,0.05686834082007408,0.21056921780109406,-0.14023727178573608
1763696720728846300,2.237846435546875,0.056415606290102005,0.2238839566707611,-0.19135744869709015
1763696720738869200,2.247869140625,0.050341468304395676,0.2718999683856964,-0.211469367146492
1763696720748893200,2.25789306640625,0.05231140926480293,0.289562851190567,-0.17968188226222992
1763696720758916000,2.267916015625,0.07380924373865128,0.2984277009963989,-0.06700007617473602
1763696720768938500,2.2779384765625,0.08173214644193649,0.23962697386741638,0.1418418288230896
1763696720778961400,2.28796142578125,0.09540028870105743,0.1526433378458023,0.3431094288825989
1763696720788985600,2.297985595703125,0.09403834491968155,0.14523069560527802,0.4514015316963196
1763696720799008300,2.30800830078125,0.0678219273686409,0.2782233655452728,0.43030476570129395
1763696720809031400,2.318031494140625,0.02659379318356514,0.47270897030830383,0.3955225646495819
1763696720819055600,2.3280556640625,0.027451330795884132,0.6665951013565063,0.41073694825172424
1763696720829078500,2.33807861328125,-0.015205584466457367,0.7475436925888062,0.40740424394607544
1763696720839101400,2.348101318359375,-0.01565059833228588,0.5733469128608704,0.4052734673023224
1763696720849125400,2.35812548828125,0.06441201269626617,0.4912094175815582,0.3820376396179199
1763696720859148500,2.3681484375,0.16338226199150085,0.48860031366348267,0.3438524305820465
1763696720869171500,2.37817138671875,0.28338003158569336,0.5093018412590027,0.3801276385784149
1763696720879194600,2.388194580078125,0.3689277172088623,0.5873276591300964,0.43105819821357727
1763696720889218600,2.398218505859375,0.46406006813049316,0.7902331352233887,0.5153626799583435
1763696720899241500,2.408241455078125,0.5583274364471436,1.1783441305160522,0.6517506241798401
1763696720909264600,2.4182646484375,0.7729369401931763,1.5231419801712036,0.6466213464736938
1763696720919288300,2.428288330078125,0.6373884677886963,1.9411741495132446,0.7903950214385986
1763696720929311500,2.4383115234375,0.3334437310695648,2.1342077255249023,1.0810697078704834
1763696720939334400,2.44833447265625,0.13027597963809967,2.19472599029541,1.3112603425979614
1763696720949358300,2.4583583984375,0.03593429923057556,2.404083251953125,1.5505925416946411
1763696720959381200,2.46838134765625,0.02215483784675598,2.511981725692749,1.7716526985168457
1763696720969404400,2.478404296875,0.02424621768295765,2.820020914077759,1.491204023361206
1763696720979427600,2.488427490234375,-0.03229775279760361,2.7591960430145264,1.514594554901123
1763696720989451500,2.498451416015625,-0.08449731022119522,2.5217490196228027,1.5402536392211914
1763696720999474400,2.508474365234375,-0.08316652476787567,2.244814157485962,1.5104312896728516
1763696721009497300,2.518497314453125,-0.07166566699743271,1.7606948614120483,1.421797752380371
1763696721019521500,2.528521484375,-0.14125245809555054,1.5027320384979248,1.3766891956329346
1763696721029544400,2.53854443359375,-0.21814751625061035,1.2152209281921387,1.280673623085022
1763696721039567400,2.5485673828125,-0.24594691395759583,1.0133508443832397,1.1829029321670532
1763696721049590300,2.55859033203125,-0.16469094157218933,1.088924765586853,1.1612309217453003
1763696721059614500,2.568614501953125,-0.057443853467702866,1.3016223907470703,1.1738982200622559
1763696721069637600,2.5786376953125,0.04096900299191475,1.4111493825912476,1.181588888168335
1763696721079660300,2.588660400390625,0.14571405947208405,1.35636305809021,1.1302125453948975
1763696721089684500,2.5986845703125,0.2764129638671875,1.28745698928833,1.0571452379226685
1763696721099707400,2.608707275390625,0.4697706997394562,1.3426334857940674,0.9493942856788635
1763696721109730600,2.61873046875,0.7003210783004761,1.4333372116088867,0.8109618425369263
1763696721119754500,2.62875439453125,0.9021593928337097,1.405814528465271,0.6774051189422607
1763696721129777400,2.63877734375,0.954152524471283,1.488206148147583,0.6158301830291748
1763696721139800600,2.648800537109375,0.9760053753852844,1.537467360496521,0.5353579521179199
1763696721149823500,2.658823486328125,0.9574497938156128,1.2644896507263184,0.5612092614173889
1763696721159847400,2.668847412109375,0.7964292168617249,1.0073134899139404,0.6591142416000366
1763696721169870300,2.678870361328125,0.5738449096679688,0.86701500415802,0.7619114518165588
1763696721179893500,2.6888935546875,0.39505836367607117,0.93150395154953,0.8217859864234924
1763696721189917400,2.69891748046875,0.13025787472724915,0.788724958896637,0.8569932579994202
1763696721199940400,2.7089404296875,-0.2189083844423294,0.5769871473312378,0.8387495279312134
1763696721209963500,2.718963623046875,-0.6589339375495911,0.37185531854629517,0.7404842376708984
1763696721219987500,2.728987548828125,-1.069373369216919,0.2910861670970917,0.5853132605552673
1763696721230010600,2.7390107421875,-1.3902028799057007,0.21125392615795135,0.37361592054367065
1763696721240033300,2.749033203125,-1.6364027261734009,0.06247323006391525,0.20462025701999664
1763696721250056400,2.759056396484375,-1.884732723236084,0.0304575078189373,0.1480909287929535
1763696721260080600,2.76908056640625,-2.037938356399536,0.07330324500799179,0.18790332973003387
1763696721270103600,2.779103515625,-2.075197458267212,0.1640869379043579,0.2757200002670288
1763696721280126500,2.78912646484375,-2.1069395542144775,0.35809236764907837,0.36157259345054626
1763696721290150400,2.799150390625,-2.090381622314453,0.5030612945556641,0.3628397285938263
1763696721300173600,2.809173583984375,-1.9279488325119019,0.6032288670539856,0.3158932328224182
1763696721310196500,2.819196533203125,-1.682264804840088,0.5992085933685303,0.25712502002716064
1763696721320219400,2.829219482421875,-1.377116084098816,0.4325314462184906,0.18284358084201813
1763696721330243300,2.839243408203125,-1.0425242185592651,0.07237859070301056,0.1067192554473877
1763696721340266500,2.8492666015625,-0.7656010389328003,-0.17153286933898926,0.05054786056280136
1763696721350289400,2.859289306640625,-0.6086958050727844,-0.21342386305332184,0.13545022904872894
1763696721360313300,2.869313232421875,-0.5259444713592529,-0.18284225463867188,0.30693143606185913
1763696721370336500,2.87933642578125,-0.5033004283905029,0.05216280370950699,0.3931078612804413
1763696721380359400,2.889359375,-0.9084308743476868,0.41096144914627075,0.3962323069572449
1763696721390383400,2.89938330078125,-1.4575624465942383,0.6145539879798889,0.44136515259742737
1763696721400406300,2.90940625,-1.906425952911377,0.6980917453765869,0.4473106563091278
1763696721410429400,2.919429443359375,-1.9672549962997437,0.6398404240608215,0.3487851619720459
1763696721420452400,2.929452392578125,-1.8533276319503784,0.5346660614013672,0.23647139966487885
1763696721430476500,2.9394765625,-1.6856507062911987,0.7695472836494446,0.22200776636600494
1763696721440499500,2.94949951171875,-1.6195536851882935,1.1752519607543945,0.26627403497695923
1763696721450522400,2.9595224609375,-1.5656976699829102,1.490317940711975,0.3696132004261017
1763696721460546600,2.969546630859375,-1.432554841041565,1.6780908107757568,0.46709713339805603
1763696721470569500,2.979569580078125,-1.3101396560668945,1.7214875221252441,0.48590385913848877
1763696721480592400,2.98959228515625,-1.1894407272338867,1.8559577465057373,0.40969112515449524
1763696721490615300,2.999615234375,-1.071073055267334,2.1391327381134033,0.22061492502689362
1763696721500639500,3.009639404296875,-0.9442799687385559,2.3994901180267334,-0.023390544578433037
1763696721510662700,3.01966259765625,-0.7305256128311157,2.537910223007202,-0.261770099401474
1763696721520685300,3.029685302734375,-0.7003354430198669,3.0589349269866943,-0.39699795842170715
1763696721530709500,3.03970947265625,-0.5189188122749329,2.7622718811035156,-0.5420515537261963
1763696721540732400,3.049732421875,-0.3565370738506317,2.4469728469848633,-0.5590587854385376
1763696721550755600,3.059755615234375,-0.4052004814147949,1.988534688949585,-0.43866896629333496
1763696721560779500,3.069779541015625,-0.5639552474021912,1.394014596939087,-0.2581319510936737
1763696721570802400,3.079802490234375,-0.7249374985694885,0.7700644731521606,-0.10305368155241013
1763696721580825600,3.08982568359375,-0.8043667674064636,0.39673829078674316,0.01387214008718729
1763696721590848500,3.0998486328125,-0.7454318404197693,0.39565837383270264,0.08156409859657288
1763696721600872400,3.10987255859375,-0.7205927968025208,0.5837257504463196,0.11139816045761108
1763696721610895400,3.119895263671875,-0.8122888803482056,0.5075348615646362,0.03441017121076584
1763696721620918500,3.12991845703125,-0.9127846360206604,0.24333728849887848,-0.0979262962937355
1763696721630942500,3.1399423828125,-0.9813724756240845,-0.12467055767774582,-0.22676123678684235
1763696721640965400,3.14996533203125,-1.1371489763259888,-0.42214325070381165,-0.28635504841804504
1763696721650988500,3.159988525390625,-1.256055474281311,-0.5210362672805786,-0.23041562736034393
1763696721661011500,3.170011474609375,-1.1761832237243652,-0.5196290612220764,-0.2236192375421524
1763696721671035600,3.18003564453125,-1.045500636100769,0.15562741458415985,-0.3548491597175598
1763696721681058300,3.190058349609375,-0.8660434484481812,0.7213653922080994,-0.43774139881134033
1763696721691081500,3.20008154296875,-0.6372342705726624,0.9804616570472717,-0.5699889063835144
1763696721701105400,3.21010546875,-0.38634052872657776,1.0464646816253662,-0.6802603006362915
1763696721711128600,3.220128662109375,-0.17233234643936157,0.7947210669517517,-0.6881994605064392
1763696721721151200,3.230151123046875,0.06292277574539185,0.08713250607252121,-0.670958399772644
1763696721731174400,3.24017431640625,0.1507900506258011,-0.4152534008026123,-0.5031749606132507
1763696721741198600,3.250198486328125,0.14982597529888153,-0.5797269940376282,-0.335894376039505
1763696721751221500,3.260221435546875,0.13070634007453918,-0.48667749762535095,-0.26530730724334717
1763696721761244400,3.270244384765625,0.10481110215187073,-0.3360704183578491,-0.2538128197193146
1763696721771268600,3.2802685546875,0.05487017333507538,-0.2550751566886902,-0.2296675443649292
1763696721781291800,3.290291748046875,-0.011147459968924522,-0.30030709505081177,-0.1699642688035965
1763696721791314700,3.300314697265625,-0.03891703858971596,-0.3751128911972046,-0.11265863478183746
1763696721801338600,3.310338623046875,-0.023668045178055763,-0.38944628834724426,-0.06234753131866455
1763696721811361800,3.32036181640625,-0.005221393425017595,-0.4377749562263489,-0.006473345682024956
1763696721821384700,3.330384765625,0.007312507834285498,-0.4900868833065033,0.024684041738510132
1763696721831407900,3.340407958984375,0.004520716145634651,-0.5800458192825317,0.009769540280103683
1763696721841431600,3.350431640625,-0.05232978239655495,-0.6906918883323669,-0.07686149328947067
1763696721851454700,3.360454833984375,-0.08586244285106659,-0.7389084100723267,-0.20655636489391327
1763696721861477600,3.3704775390625,0.011623633094131947,-0.6941145658493042,-0.3504307270050049
1763696721871501600,3.38050146484375,0.1273409128189087,-0.7378034591674805,-0.5056325793266296
1763696721881524700,3.390524658203125,0.19673463702201843,-0.9758589267730713,-0.6216760873794556
1763696721891547600,3.400547607421875,0.21964900195598602,-1.2447340488433838,-0.8002543449401855
1763696721901570800,3.41057080078125,0.2651911973953247,-1.4867736101150513,-0.8522895574569702
1763696721911594800,3.4205947265625,0.4996095597743988,-1.5001602172851562,-0.864177405834198
1763696721921617700,3.43061767578125,0.8156359791755676,-1.5291715860366821,-0.8263940811157227
1763696721931640600,3.440640625,1.0868669748306274,-1.605971336364746,-0.7641812562942505
1763696721941664800,3.450664794921875,1.1962532997131348,-1.6148269176483154,-0.7048586010932922
1763696721951688000,3.46068798828125,1.153944492340088,-1.6788079738616943,-0.6758410334587097
1763696721961710600,3.470710693359375,0.9409480690956116,-1.9239519834518433,-0.6998528838157654
1763696721971734800,3.48073486328125,0.5751652717590332,-2.1362781524658203,-0.8175609111785889
1763696721981757700,3.4907578125,0.1705096811056137,-2.3295366764068604,-1.0129210948944092
1763696721991780900,3.50078076171875,-0.16470718383789062,-2.6249613761901855,-1.2422187328338623
1763696722001803500,3.510803466796875,-0.3706691563129425,-2.91355037689209,-1.4432882070541382
1763696722011827700,3.52082763671875,-0.4201189875602722,-3.052119016647339,-1.584975004196167
1763696722021851000,3.530850830078125,-0.3401282727718353,-3.0506646633148193,-1.6467475891113281
1763696722031873800,3.540873779296875,-0.20782190561294556,-2.9247870445251465,-1.6381607055664062
1763696722041897700,3.550897705078125,-0.31927093863487244,-2.692157745361328,-1.6025422811508179
1763696722051920600,3.560920654296875,-0.5522791743278503,-2.5556178092956543,-1.6119173765182495
1763696722061943800,3.57094384765625,-0.7207299470901489,-2.435116767883301,-1.712662935256958
1763696722071966700,3.580966796875,-0.9722870588302612,-2.226271152496338,-1.8592387437820435
1763696722081990700,3.59099072265625,-1.2448315620422363,-1.9147752523422241,-1.9608484506607056
1763696722092013600,3.601013671875,-1.481184720993042,-1.820186734199524,-2.008965253829956
1763696722102036700,3.61103662109375,-1.687042236328125,-1.9085501432418823,-2.0194149017333984
1763696722112060700,3.621060791015625,-1.8399865627288818,-1.9248223304748535,-2.00822377204895
1763696722122083600,3.63108349609375,-1.9433592557907104,-1.8566930294036865,-1.9681849479675293
1763696722132106800,3.641106689453125,-2.029712438583374,-1.6886755228042603,-1.8766478300094604
1763696722142129700,3.651129638671875,-2.1539154052734375,-1.498396635055542,-1.700872540473938
1763696722152153900,3.66115380859375,-2.306370735168457,-1.5584616661071777,-1.4777321815490723
1763696722162176500,3.671176513671875,-2.4146509170532227,-1.5726463794708252,-1.2651394605636597
1763696722172199700,3.68119970703125,-2.4650628566741943,-1.4576979875564575,-1.1033146381378174
1763696722182224000,3.691223876953125,-2.4889204502105713,-1.3945001363754272,-0.97834712266922
1763696722192246800,3.701246826171875,-2.488840103149414,-1.305091381072998,-0.8733826279640198
1763696722202269700,3.711269775390625,-2.494068145751953,-1.202865719795227,-0.750542163848877
1763696722212292600,3.721292724609375,-2.520627021789551,-1.1029393672943115,-0.5889042615890503
1763696722222316800,3.73131689453125,-2.5749616622924805,-0.9035112261772156,-0.3808980882167816
1763696722232339700,3.741339599609375,-2.6612799167633057,-0.5407947897911072,-0.0708741694688797
1763696722242362600,3.751362548828125,-2.7934372425079346,-0.20685811340808868,0.300584077835083
1763696722252386800,3.76138671875,-2.9271626472473145,0.02425473928451538,0.7049446105957031
1763696722262409700,3.77140966796875,-3.041992425918579,0.18043075501918793,1.0992863178253174
1763696722272433000,3.781432861328125,-3.103602409362793,0.3043138086795807,1.4617472887039185
1763696722282455800,3.791455810546875,-3.1031858921051025,0.37959498167037964,1.7596993446350098
1763696722292479700,3.801479736328125,-3.056122303009033,0.46605584025382996,1.959235429763794
1763696722302502700,3.811502685546875,-2.9001941680908203,0.592284619808197,2.045884609222412
1763696722312525800,3.82152587890625,-2.738264560699463,0.6906570196151733,2.0337750911712646
1763696722322549800,3.8315498046875,-2.598449468612671,0.7585151195526123,1.947039246559143
1763696722332572700,3.84157275390625,-2.4766149520874023,0.786841869354248,1.7852740287780762
1763696722342595800,3.851595947265625,-2.364598274230957,0.8268026113510132,1.5875170230865479
1763696722352618800,3.86161865234375,-2.2568118572235107,0.9049093723297119,1.3761602640151978
1763696722362642700,3.871642578125,-2.158449411392212,0.8965723514556885,1.159749150276184
1763696722372665600,3.88166552734375,-2.0801780223846436,0.8447203636169434,0.925742506980896
1763696722382688800,3.891688720703125,-2.010411262512207,0.7968489527702332,0.6706587672233582
1763696722392712700,3.901712646484375,-1.9364006519317627,0.7680162191390991,0.39801129698753357
1763696722402735600,3.911735595703125,-1.8675079345703125,0.7821962237358093,0.13369254767894745
1763696722412758800,3.9217587890625,-1.8040250539779663,0.7632718086242676,-0.08868539333343506
1763696722422782700,3.93178271484375,-1.7332992553710938,0.6612548828125,-0.25073182582855225
1763696722432806000,3.941805908203125,-1.614026665687561,0.49616047739982605,-0.34867408871650696
1763696722442828500,3.95182861328125,-1.446897029876709,0.31061112880706787,-0.40446147322654724
1763696722452851700,3.961851806640625,-1.2587218284606934,0.0825532004237175,-0.46506062150001526
1763696722462875600,3.971875732421875,-1.0942238569259644,-0.04195171222090721,-0.5383510589599609
1763696722472898800,3.98189892578125,-1.006001353263855,-0.14678438007831573,-0.5993212461471558
1763696722482921700,3.991921630859375,-0.9630102515220642,-0.22715911269187927,-0.6504549980163574
1763696722492945700,4.001945556640625,-0.9395506978034973,-0.27757754921913147,-0.688886821269989
1763696722502968800,4.01196875,-0.913864016532898,-0.36558836698532104,-0.7155548930168152
1763696722512991700,4.02199169921875,-0.8793265223503113,-0.4653503894805908,-0.7299591302871704
1763696722523014700,4.0320146484375,-0.8239511251449585,-0.5704962611198425,-0.7378378510475159
1763696722533038600,4.04203857421875,-0.7366710901260376,-0.677683413028717,-0.7379177212715149
1763696722543061800,4.052061767578125,-0.6189870834350586,-0.7998396754264832,-0.7334204316139221
1763696722553084700,4.062084716796875,-0.5001941323280334,-0.9269869923591614,-0.7236189246177673
1763696722563108600,4.072108642578125,-0.38516074419021606,-1.0021251440048218,-0.7288877367973328
1763696722573131800,4.0821318359375,-0.2686719298362732,-0.99919593334198,-0.7562517523765564
1763696722583154700,4.09215478515625,-0.16290982067584991,-0.9746610522270203,-0.7978937029838562
1763696722593177900,4.102177734375,-0.07999923080205917,-0.9292147159576416,-0.8529188632965088
1763696722603201500,4.112201416015625,-0.015331818722188473,-0.8448305726051331,-0.9209778308868408
1763696722613224700,4.122224609375,0.04121854156255722,-0.746428906917572,-0.9927763938903809
1763696722623247600,4.13224755859375,0.08881109207868576,-0.6543487906455994,-1.0468324422836304
1763696722633271800,4.142271728515625,0.12913347780704498,-0.5879237055778503,-1.0687811374664307
1763696722643294700,4.152294677734375,0.16316282749176025,-0.5451863408088684,-1.0403449535369873
1763696722653317600,4.162317626953125,0.20076772570610046,-0.5504045486450195,-0.959229588508606
1763696722663340800,4.1723408203125,0.22867099940776825,-0.5336178541183472,-0.8309352993965149
1763696722673364700,4.18236474609375,0.23299436271190643,-0.48019376397132874,-0.6739858984947205
1763696722683387600,4.1923876953125,0.199664905667305,-0.37392139434814453,-0.5117165446281433
1763696722693410600,4.20241064453125,0.14023646712303162,-0.23455071449279785,-0.36359766125679016
1763696722703434800,4.212434814453125,0.0593128576874733,-0.08817566186189651,-0.23181618750095367
1763696722713458000,4.2224580078125,-0.013280118815600872,0.07162624597549438,-0.117884561419487
1763696722723480600,4.23248046875,-0.055264852941036224,0.23136956989765167,-0.013706757687032223
1763696722733503700,4.242503662109375,-0.05289490520954132,0.3532851040363312,0.08487308025360107
1763696722743527700,4.252527587890625,-0.008227303624153137,0.4289489686489105,0.14799319207668304
1763696722753550800,4.26255078125,0.04795580729842186,0.458871454000473,0.18890494108200073
1763696722763573800,4.27257373046875,0.10276925563812256,0.42508071660995483,0.22728481888771057
1763696722773597700,4.28259765625,0.16681987047195435,0.3378845751285553,0.2815299332141876
1763696722783620900,4.292620849609375,0.24478018283843994,0.2259843945503235,0.3538012206554413
1763696722793644000,4.30264404296875,0.32909080386161804,0.1197168156504631,0.43799784779548645
1763696722803667000,4.3126669921875,0.4044516086578369,0.0248427651822567,0.5099791288375854
1763696722813691000,4.32269091796875,0.4712812304496765,-0.04571129381656647,0.5434707403182983
1763696722823713800,4.3327138671875,0.5482937097549438,-0.06298935413360596,0.5370849967002869
1763696722833737000,4.342737060546875,0.6443054676055908,-0.014267618767917156,0.4936872124671936
1763696722843760600,4.3527607421875,0.748225748538971,0.055694952607154846,0.4353831708431244
1763696722853783800,4.36278369140625,0.8534959554672241,0.11006338894367218,0.38056597113609314
1763696722863806700,4.372806640625,0.944497287273407,0.1325351446866989,0.3408779501914978
1763696722873830000,4.382829833984375,1.0203163623809814,0.1306842416524887,0.31739845871925354
1763696722883853800,4.392853759765625,1.07646644115448,0.06657849252223969,0.3249751627445221
1763696722893876700,4.402876708984375,1.1309539079666138,-0.034927356988191605,0.3392241299152374
1763696722903900000,4.41289990234375,1.20332670211792,-0.10555705428123474,0.3478037714958191
1763696722913923800,4.422923828125,1.30029296875,-0.1512976437807083,0.3319859206676483
1763696722923946800,4.43294677734375,1.4115257263183594,-0.19786114990711212,0.30784544348716736
1763696722933969700,4.4429697265625,1.4920676946640015,-0.19169726967811584,0.28248122334480286
1763696722943992800,4.452992919921875,1.5195128917694092,-0.09639658033847809,0.2686988413333893
1763696722954017000,4.46301708984375,1.5138722658157349,0.04009229317307472,0.29685962200164795
1763696722964039700,4.473039794921875,1.4919103384017944,0.17154937982559204,0.39196351170539856
1763696722974062800,4.483062744140625,1.4611973762512207,0.3099741041660309,0.5479224920272827
1763696722984086800,4.493086669921875,1.4336453676223755,0.4552988111972809,0.7293234467506409
1763696722994110000,4.50310986328125,1.421428918838501,0.5992637276649475,0.8774710893630981
1763696723004132900,4.5131328125,1.4269260168075562,0.7070210576057434,0.9352726340293884
1763696723014155800,4.52315576171875,1.4488248825073242,0.7998884320259094,0.8859561681747437
1763696723024180000,4.533179931640625,1.5128978490829468,0.8900659680366516,0.7384133338928223
1763696723034203000,4.543202880859375,1.6160402297973633,1.0023562908172607,0.5335254669189453
1763696723044226000,4.55322607421875,1.7575666904449463,1.1014810800552368,0.31231820583343506
1763696723054249700,4.563249755859375,1.908861756324768,1.1214754581451416,0.12026675790548325
1763696723064273000,4.57327294921875,2.0468556880950928,1.0385202169418335,-0.026491262018680573
1763696723074295800,4.5832958984375,2.180901288986206,0.8958191871643066,-0.10970945656299591
1763696723084319000,4.593319091796875,3.337921142578125,0.7194591164588928,-0.26005396246910095
1763696723094343000,4.603343017578125,4.210061073303223,-0.35249653458595276,-0.42497286200523376
1763696723104365800,4.61336572265625,4.39934778213501,-1.6296143531799316,-0.4498872756958008
1763696723114389000,4.623388916015625,3.882770538330078,-1.6259127855300903,-0.5894883275032043
1763696723124412700,4.63341259765625,3.440481662750244,-0.8598793148994446,-0.8654623627662659
1763696723134435800,4.643435791015625,3.0097601413726807,-0.2285013496875763,-1.114485740661621
1763696723144458800,4.653458740234375,2.541778802871704,0.15255598723888397,-1.1900990009307861
1763696723154482000,4.66348193359375,2.1532344818115234,0.4404972195625305,-1.074212908744812
1763696723164505600,4.673505615234375,1.9009811878204346,0.6167606711387634,-0.8102686405181885
1763696723174528800,4.68352880859375,1.7955859899520874,0.7208631038665771,-0.47144901752471924
1763696723184551700,4.6935517578125,1.8046023845672607,0.7570956945419312,-0.09860673546791077
1763696723194576000,4.703575927734375,1.8451826572418213,0.6892442107200623,0.26391127705574036
1763696723204598800,4.713598876953125,1.8793025016784668,0.5910283923149109,0.587729275226593
1763696723214621700,4.72362158203125,1.8869154453277588,0.5037989616394043,0.8320977687835693
1763696723224646000,4.73364599609375,1.8577429056167603,0.4524955749511719,0.9777678847312927
1763696723234668800,4.743668701171875,1.7855442762374878,0.42061886191368103,1.0312310457229614
1763696723244692000,4.75369189453125,1.6754156351089478,0.42289426922798157,1.0041251182556152
1763696723254714600,4.763714599609375,1.526328206062317,0.44884544610977173,0.9105156064033508
1763696723264738800,4.77373876953125,1.3398104906082153,0.4925391376018524,0.7726666331291199
1763696723274762000,4.783761962890625,1.1277496814727783,0.5552661418914795,0.6086486577987671
1763696723284785000,4.793784912109375,0.9039069414138794,0.6041277050971985,0.4354785084724426
1763696723294808800,4.803808837890625,0.7053456902503967,0.6066063046455383,0.27396735548973083
1763696723304831700,4.813831787109375,0.5594185590744019,0.5899239778518677,0.13625237345695496
1763696723314855000,4.82385498046875,0.4833959639072418,0.5528786182403564,0.024472586810588837
1763696723324877800,4.8338779296875,0.47009772062301636,0.4916674792766571,-0.05943562835454941
1763696723334901800,4.84390185546875,0.5063633322715759,0.4080764353275299,-0.11538571119308472
1763696723344925000,4.853925048828125,0.584433376789093,0.3202182352542877,-0.1438266783952713
1763696723354947800,4.86394775390625,0.6806123852729797,0.24495835602283478,-0.16057050228118896
1763696723364971800,4.8739716796875,0.7639179229736328,0.19092628359794617,-0.16748033463954926
1763696723374994700,4.88399462890625,0.8115549087524414,0.15587934851646423,-0.17471136152744293
1763696723385017900,4.894017822265625,0.8045657277107239,0.12584447860717773,-0.18824553489685059
1763696723395040800,4.904040771484375,0.7493882179260254,0.11660917103290558,-0.21737119555473328
1763696723405064700,4.914064697265625,0.6465121507644653,0.12129287421703339,-0.26322948932647705
1763696723415087900,4.924087890625,0.5093836188316345,0.11887365579605103,-0.3333018124103546
1763696723425110800,4.93411083984375,0.35432371497154236,0.13740739226341248,-0.4162331521511078
1763696723435135000,4.944135009765625,0.20811645686626434,0.16921591758728027,-0.49725717306137085
1763696723445158000,4.954157958984375,0.08895809948444366,0.1871083676815033,-0.565762460231781
1763696723455180800,4.964180908203125,-0.004180363845080137,0.17740540206432343,-0.6051000356674194
1763696723465203700,4.97420361328125,-0.062137674540281296,0.1342824399471283,-0.6145870089530945
1763696723475228000,4.984227783203125,-0.08655034005641937,0.06409350037574768,-0.601625919342041
1763696723485251000,4.9942509765625,-0.10365688800811768,-0.022166820243000984,-0.5845063328742981
1763696723495273700,5.004273681640625,-0.13964338600635529,-0.13542653620243073,-0.5736685991287231
1763696723505298000,5.0142978515625,-0.21577464044094086,-0.295248419046402,-0.5844088792800903
1763696723515320800,5.02432080078125,-0.3378976285457611,-0.4774554967880249,-0.625316858291626
1763696723525344000,5.034343994140625,-0.49656370282173157,-0.6648232936859131,-0.7030037045478821
1763696723535366700,5.04436669921875,-0.6708457469940186,-0.8724795579910278,-0.8167092204093933
1763696723545390800,5.054390869140625,-0.8235878944396973,-1.0439356565475464,-0.948462963104248
1763696723555413800,5.064413818359375,-0.918506920337677,-1.167242169380188,-1.100203514099121
1763696723565437000,5.07443701171875,-0.9574517011642456,-1.207896113395691,-1.240899682044983
1763696723575460900,5.0844609375,-0.9483463168144226,-1.1514980792999268,-1.340206503868103
1763696723585483800,5.09448388671875,-0.9451795816421509,-1.014365315437317,-1.3816416263580322
1763696723595507000,5.1045068359375,-1.0129841566085815,-0.8109378814697266,-1.381892442703247
1763696723605529900,5.11452978515625,-1.1590958833694458,-0.4887297451496124,-1.3678101301193237
1763696723615553800,5.1245537109375,-1.3653329610824585,-0.02942766435444355,-1.3378392457962036
1763696723625576700,5.13457666015625,-1.6137115955352783,0.45518961548805237,-1.2780704498291016
1763696723635600000,5.144599853515625,-1.8591575622558594,0.896091103553772,-1.1871906518936157
1763696723645623800,5.154623779296875,-2.0811450481414795,1.2153146266937256,-1.0637166500091553
1763696723655646700,5.164646728515625,-2.272822618484497,1.3216413259506226,-0.9237160682678223
1763696723665670000,5.174669921875,-2.3990955352783203,1.2401963472366333,-0.771162748336792
1763696723675692800,5.18469287109375,-2.4453372955322266,1.0374996662139893,-0.6268713474273682
1763696723685717000,5.194717041015625,-2.4332828521728516,0.7483682632446289,-0.49016305804252625
1763696723695739600,5.20473974609375,-2.37713623046875,0.40809348225593567,-0.3696454167366028
1763696723705762800,5.2147626953125,-2.302049160003662,0.06916388869285583,-0.25122371315956116
1763696723715787000,5.224787109375,-2.2343931198120117,-0.2707827687263489,-0.12337227165699005
1763696723725810000,5.234809814453125,-2.1831750869750977,-0.613288164138794,-0.008805209770798683
1763696723735832800,5.244832763671875,-2.1646671295166016,-0.9178440570831299,0.0559181272983551
1763696723745855700,5.254855712890625,-2.1609253883361816,-1.0899248123168945,0.043360523879528046
1763696723755880000,5.2648798828125,-2.1485531330108643,-1.167167067527771,-0.03823340684175491
1763696723765902800,5.27490283203125,-2.132749557495117,-1.196597695350647,-0.17738623917102814
1763696723775926000,5.284926025390625,-2.1280903816223145,-1.2647522687911987,-0.3709602355957031
1763696723785950200,5.2949501953125,-2.1093716621398926,-1.326439619064331,-0.5975739359855652
1763696723795973000,5.30497314453125,-2.0512466430664062,-1.3972517251968384,-0.8081713914871216
1763696723805996300,5.314996337890625,-1.970762848854065,-1.4727027416229248,-0.9706359505653381
1763696723816019000,5.32501904296875,-1.9057722091674805,-1.531050205230713,-1.0665446519851685
1763696723826043100,5.335043212890625,-1.8535857200622559,-1.5613058805465698,-1.0987420082092285
1763696723836066000,5.345066162109375,-1.8175911903381348,-1.5442099571228027,-1.082642674446106
1763696723846089200,5.355089111328125,-1.7972664833068848,-1.4666757583618164,-1.049932837486267
1763696723856113200,5.365113037109375,-1.8005000352859497,-1.3516736030578613,-1.0277314186096191
1763696723866136000,5.375135986328125,-1.8134957551956177,-1.1688488721847534,-1.0281884670257568
1763696723876159200,5.3851591796875,-1.8276629447937012,-0.9692404270172119,-1.0505757331848145
1763696723886182100,5.39518212890625,-1.8253921270370483,-0.7790342569351196,-1.097157597541809
1763696723896206000,5.4052060546875,-1.803526759147644,-0.5974801778793335,-1.150863766670227
1763696723906229000,5.41522900390625,-1.7653069496154785,-0.4473287761211395,-1.1837828159332275
1763696723916252200,5.425252197265625,-1.694663643836975,-0.32533547282218933,-1.1894079446792603
1763696723926276000,5.435276123046875,-1.5756975412368774,-0.207956925034523,-1.1559640169143677
1763696723936299000,5.445299072265625,-1.4178611040115356,-0.11649252474308014,-1.0828266143798828
1763696723946322200,5.455322265625,-1.2457093000411987,-0.04879869893193245,-0.9786065220832825
1763696723956345000,5.465344970703125,-1.0607913732528687,-0.003483148291707039,-0.8525007367134094
1763696723966369300,5.475369384765625,-0.8587160706520081,0.060199957340955734,-0.7179722189903259
1763696723976392000,5.485391845703125,-0.6466107368469238,0.14505279064178467,-0.591087818145752
1763696723986415000,5.4954150390625,-0.4444213807582855,0.22199471294879913,-0.4730549156665802
1763696723996439300,5.505439208984375,-0.2712152600288391,0.2809602916240692,-0.36721688508987427
1763696724006462200,5.515462158203125,-0.1273728758096695,0.3653119206428528,-0.2696511745452881
1763696724016485000,5.525485107421875,0.012269982136785984,0.37846076488494873,-0.19383710622787476
1763696724026508000,5.535508056640625,0.1414114534854889,0.42930716276168823,-0.13985776901245117
1763696724036532200,5.5455322265625,0.22892212867736816,0.4780491292476654,-0.1049003154039383
1763696724046555100,5.55555517578125,0.25145620107650757,0.515325665473938,-0.06807199120521545
1763696724056578000,5.565578125,0.21094739437103271,0.5464231371879578,-0.019513780251145363
1763696724066602200,5.575602294921875,0.12861549854278564,0.5482876300811768,0.03232704848051071
1763696724076625200,5.585625244140625,0.03543895110487938,0.5413703322410583,0.09147851914167404
1763696724086648300,5.5956484375,-0.04567321389913559,0.5227047204971313,0.1591033637523651
1763696724096671200,5.605671142578125,-0.12218236923217773,0.4943133294582367,0.24030554294586182
1763696724106695200,5.615695068359375,-0.1941756010055542,0.4811573028564453,0.31479576230049133
1763696724116718000,5.625718017578125,-0.24094949662685394,0.5027893781661987,0.37618616223335266
1763696724126741200,5.6357412109375,-0.27204591035842896,0.5658476948738098,0.43255701661109924
1763696724136765200,5.64576513671875,-0.31460773944854736,0.6332908868789673,0.47421443462371826
1763696724146788000,5.6557880859375,-0.36239469051361084,0.6739957332611084,0.5041414499282837
1763696724156811300,5.665811279296875,-0.4090181291103363,0.6925848722457886,0.5370474457740784
1763696724166834200,5.675834228515625,-0.4496989846229553,0.6853029727935791,0.5798321962356567
1763696724176858000,5.685858154296875,-0.47516733407974243,0.6690425276756287,0.6231560111045837
1763696724186881000,5.695881103515625,-0.4980428218841553,0.6538696885108948,0.652360737323761
1763696724196904200,5.705904296875,-0.5219734311103821,0.6200981736183167,0.6503947973251343
1763696724206928100,5.71592822265625,-0.5277711749076843,0.595731258392334,0.620911180973053
1763696724216951000,5.725950927734375,-0.5156772136688232,0.6075075268745422,0.5724595189094543
1763696724226974000,5.735973876953125,-0.49084508419036865,0.5908215045928955,0.5272510051727295
1763696724236997000,5.7459970703125,-0.45701467990875244,0.5430086851119995,0.4917689263820648
1763696724247021300,5.756021240234375,-0.402986079454422,0.5119554400444031,0.4601561427116394
1763696724257044000,5.7660439453125,-0.32768359780311584,0.5056277513504028,0.43875738978385925
1763696724267067100,5.776067138671875,-0.262896329164505,0.46974965929985046,0.42961686849594116
1763696724277091000,5.786091064453125,-0.21401508152484894,0.4057541489601135,0.4225805401802063
1763696724287114200,5.7961142578125,-0.17388896644115448,0.3287142515182495,0.4131108820438385
1763696724297137000,5.806136962890625,-0.15565750002861023,0.24599619209766388,0.39122822880744934
1763696724307160000,5.81616015625,-0.16252979636192322,0.14754843711853027,0.35568541288375854
1763696724317184300,5.826184326171875,-0.1941729336977005,0.038481879979372025,0.32123714685440063
1763696724327207200,5.836207275390625,-0.22806672751903534,-0.062374696135520935,0.29668572545051575
1763696724337230000,5.84622998046875,-0.25139522552490234,-0.14041543006896973,0.28235021233558655
1763696724347254000,5.85625390625,-0.24903245270252228,-0.14022181928157806,0.26742982864379883
1763696724357277200,5.866277099609375,-0.22330206632614136,-0.08190605044364929,0.24281664192676544
1763696724367300000,5.876300048828125,-0.17455582320690155,-0.005985986907035112,0.21967297792434692
1763696724377323300,5.8863232421875,-0.11479289829730988,0.07316768914461136,0.21162809431552887
1763696724387347200,5.89634716796875,-0.04171415790915489,0.14448581635951996,0.22634924948215485
1763696724397370000,5.9063701171875,0.03912369906902313,0.19978182017803192,0.2648462951183319
1763696724407393300,5.916393310546875,0.12420157343149185,0.2190985232591629,0.32278603315353394
1763696724417417000,5.9264169921875,0.2137109488248825,0.24783110618591309,0.3780743181705475
1763696724427440000,5.936440185546875,0.300627738237381,0.34138768911361694,0.40919309854507446
1763696724437463000,5.946463134765625,0.34439200162887573,0.5173621773719788,0.413678914308548
1763696724447486200,5.956486328125,0.32424625754356384,0.7434448599815369,0.4090399742126465
1763696724457510100,5.96651025390625,0.2488553524017334,0.9990894198417664,0.4222159683704376
1763696724467533000,5.976532958984375,0.12746848165988922,1.2674449682235718,0.45871883630752563
1763696724477556200,5.98655615234375,-0.03609302267432213,1.5071635246276855,0.5100510120391846
1763696724487580200,5.996580078125,-0.22797884047031403,1.6533005237579346,0.5469956994056702
1763696724497603000,6.00660302734375,-0.44922253489494324,1.6792237758636475,0.5371689200401306
1763696724507626000,6.0166259765625,-0.6722332239151001,1.6235923767089844,0.4663029909133911
1763696724517649200,6.026649169921875,-0.8658320307731628,1.5010321140289307,0.33960044384002686
1763696724527673300,6.03667333984375,-0.9828744530677795,1.3442732095718384,0.19334496557712555
1763696724537696000,6.046696044921875,-1.0032633543014526,1.1643071174621582,0.0679609403014183
1763696724547719200,6.05671923828125,-0.9138189554214478,0.957649827003479,-0.003923634998500347
1763696724557743000,6.0667431640625,-0.7202985286712646,0.749263346195221,-0.009240103885531425
1763696724567766300,6.076766357421875,-0.4684585630893707,0.5197571516036987,0.04847805202007294
1763696724577789200,6.0867890625,-0.19380861520767212,0.26954758167266846,0.15330460667610168
1763696724587812000,6.09681201171875,0.07669291645288467,0.05571066588163376,0.27905428409576416
1763696724597836000,6.1068359375,0.3252324163913727,-0.08768510818481445,0.3823058307170868
1763696724607859200,6.116859130859375,0.524900496006012,-0.15630412101745605,0.4388018548488617
1763696724617882000,6.126882080078125,0.6604213118553162,-0.17392492294311523,0.441506028175354
1763696724627906000,6.136906005859375,0.7327829003334045,-0.1675860732793808,0.39858919382095337
1763696724637929200,6.14692919921875,0.75808185338974,-0.16082589328289032,0.31828823685646057
1763696724647952100,6.1569521484375,0.763014018535614,-0.14141970872879028,0.21573787927627563
1763696724657975300,6.166975341796875,0.774222731590271,-0.11938977986574173,0.10855124145746231
1763696724667999000,6.1769990234375,0.813736081123352,-0.13800100982189178,0.03316913917660713
1763696724678022100,6.187022216796875,0.8942170739173889,-0.22070574760437012,0.013036173768341541
1763696724688045000,6.197045166015625,1.0143370628356934,-0.33929604291915894,0.04872332885861397
1763696724698069000,6.207069091796875,1.1552456617355347,-0.45244789123535156,0.12503141164779663
1763696724708092200,6.217092041015625,1.2867611646652222,-0.5579346418380737,0.23297572135925293
1763696724718115000,6.227114990234375,1.383986473083496,-0.6621052622795105,0.3619441092014313
1763696724728138200,6.23713818359375,1.4310522079467773,-0.7367752194404602,0.481478214263916
1763696724738162000,6.247161865234375,1.411329984664917,-0.7335802316665649,0.5665121674537659
1763696724748185000,6.25718505859375,1.341546654701233,-0.660498857498169,0.611857533454895
1763696724758208000,6.2672080078125,1.2376511096954346,-0.5473245978355408,0.6390766501426697
1763696724768232200,6.277232177734375,1.1351561546325684,-0.41171297430992126,0.6705090999603271
1763696724778255400,6.28725537109375,1.0362412929534912,-0.26365187764167786,0.7233326435089111
1763696724788278300,6.2972783203125,0.9588375687599182,-0.14399738609790802,0.7959775924682617
1763696724798301400,6.307301513671875,0.8991833329200745,-0.04779335483908653,0.8752923607826233
1763696724808325600,6.31732568359375,0.8602707982063293,-0.010513360612094402,0.9427060484886169
1763696724818348300,6.327348388671875,0.8480969667434692,-0.002630936913192272,0.9753947257995605
1763696724828371500,6.337371337890625,0.8552241325378418,-0.014882010407745838,0.9671770334243774
1763696724838395400,6.3473955078125,0.8801087141036987,0.010404171422123909,0.9345394372940063
1763696724848418600,6.35741845703125,0.9107635617256165,0.07528543472290039,0.8861069083213806
1763696724858441500,6.36744140625,0.9069802761077881,0.15782850980758667,0.8271738290786743
1763696724868464400,6.37746435546875,0.8679569363594055,0.23552224040031433,0.7612238526344299
1763696724878488600,6.387488525390625,0.821373462677002,0.3176373541355133,0.7049443125724792
1763696724888511500,6.397511474609375,0.7861286401748657,0.39701128005981445,0.6444830894470215
1763696724898534700,6.40753466796875,0.7681821584701538,0.44016751646995544,0.5852645039558411
1763696724908558300,6.417558349609375,0.7784459590911865,0.41894665360450745,0.5182820558547974
1763696724918581500,6.42758154296875,0.8104638457298279,0.34470173716545105,0.4432469308376312
1763696724928604400,6.4376044921875,0.8319329023361206,0.2690138816833496,0.3711913824081421
1763696724938627600,6.447627685546875,0.8289331197738647,0.1825903207063675,0.32424384355545044
1763696724948651500,6.457651611328125,0.8151012063026428,0.12120471894741058,0.30759748816490173
1763696724958674400,6.46767431640625,0.8004285097122192,0.11665870249271393,0.30821987986564636
1763696724968697600,6.477697509765625,0.7907418012619019,0.18309392035007477,0.29163292050361633
1763696724978720500,6.487720458984375,0.7695360779762268,0.3145286440849304,0.23031416535377502
1763696724988744400,6.497744384765625,0.7347022294998169,0.47106844186782837,0.1240263432264328
1763696724998767400,6.507767333984375,0.7097122073173523,0.5910792946815491,0.0020389161072671413
1763696725008790500,6.51779052734375,0.7166502475738525,0.653852105140686,-0.11938205361366272
1763696725018814500,6.527814453125,0.7611449956893921,0.6562191247940063,-0.22630716860294342
1763696725028837400,6.53783740234375,0.8405966758728027,0.6196006536483765,-0.3153395652770996
1763696725038860500,6.547860595703125,0.9524007439613342,0.5340687036514282,-0.37707778811454773
1763696725048883500,6.557883544921875,1.0735417604446411,0.40167686343193054,-0.4000387489795685
1763696725058907400,6.567907470703125,1.1906548738479614,0.2517677843570709,-0.39068493247032166
1763696725068930300,6.577930419921875,1.3019962310791016,0.1335572600364685,-0.3594159483909607
1763696725078953500,6.587953369140625,1.3996416330337524,0.06222023069858551,-0.3237825930118561
1763696725088977700,6.597977783203125,1.4884721040725708,0.04927833378314972,-0.30493301153182983
1763696725099000600,6.60800048828125,1.5597660541534424,0.05787475034594536,-0.3061641752719879
1763696725109023500,6.6180234375,1.5994617938995361,0.04718588665127754,-0.33019202947616577
1763696725119046400,6.62804638671875,1.608882188796997,0.031088143587112427,-0.3686816394329071
1763696725129070600,6.638070556640625,1.6070938110351562,0.016213323920965195,-0.41331833600997925
1763696725139093500,6.648093505859375,1.5972747802734375,0.006975085008889437,-0.4558088183403015
1763696725149116400,6.658116455078125,1.5857806205749512,0.008235027082264423,-0.4931279420852661
1763696725159140400,6.668140380859375,1.5641964673995972,0.0044176517985761166,-0.5096286535263062
1763696725169163500,6.67816357421875,1.5317789316177368,-0.013659619726240635,-0.49793148040771484
1763696725179186400,6.6881865234375,1.493237018585205,-0.035536687821149826,-0.4495205581188202
1763696725189209300,6.698209228515625,1.4523780345916748,-0.032466862350702286,-0.37299835681915283
1763696725199233500,6.708233642578125,1.4042515754699707,0.008806540630757809,-0.2744680345058441
1763696725209256400,6.71825634765625,1.3456337451934814,0.08003358542919159,-0.16685129702091217
1763696725219279600,6.728279541015625,1.2739603519439697,0.16156120598316193,-0.06009555980563164
1763696725229303300,6.73830322265625,1.197119116783142,0.25053900480270386,0.03967151418328285
1763696725239326500,6.748326416015625,1.1159619092941284,0.3482746183872223,0.11699053645133972
1763696725249349400,6.758349365234375,1.0327661037445068,0.4475551247596741,0.16145813465118408
1763696725259372500,6.76837255859375,0.9428338408470154,0.5378687977790833,0.1751238852739334
1763696725269396500,6.778396484375,0.8532578945159912,0.6018064618110657,0.16100886464118958
1763696725279419400,6.78841943359375,0.7796566486358643,0.6391251087188721,0.13556794822216034
1763696725289442600,6.798442626953125,0.7414642572402954,0.6465936899185181,0.11158858239650726
1763696725299466500,6.808466552734375,0.7300057411193848,0.621647298336029,0.10120172053575516
1763696725309489400,6.818489501953125,0.7372245192527771,0.569131076335907,0.10720395296812057
1763696725319512300,6.82851220703125,0.7520164847373962,0.5018990635871887,0.12309343367815018
1763696725329535500,6.838535400390625,0.767113447189331,0.4208311140537262,0.13700498640537262
1763696725339559700,6.8485595703125,0.7731431126594543,0.340565025806427,0.1466597467660904
1763696725349582300,6.858582275390625,0.7776334285736084,0.2819161117076874,0.1446450650691986
1763696725359605500,6.86860546875,0.7640531659126282,0.25526079535484314,0.12544500827789307
1763696725369628400,6.87862841796875,0.7189019322395325,0.23269130289554596,0.08917354792356491
1763696725379652600,6.888652587890625,0.6492965221405029,0.22650158405303955,0.03853034973144531
1763696725389675300,6.89867529296875,0.5693103075027466,0.22431379556655884,-0.01836515963077545
1763696725399698400,6.908698486328125,0.48298075795173645,0.20570442080497742,-0.06678062677383423
1763696725409722600,6.91872265625,0.39394012093544006,0.17201118171215057,-0.10069465637207031
1763696725419745500,6.92874560546875,0.30672797560691833,0.1338653862476349,-0.11411991715431213
1763696725429768400,6.9387685546875,0.22425174713134766,0.084150031208992,-0.10806415230035782
1763696725439791400,6.948791259765625,0.1408146470785141,0.025663817301392555,-0.09917052835226059
1763696725449815600,6.958815673828125,0.06531855463981628,-0.02995843067765236,-0.09265749901533127
1763696725459838500,6.96883837890625,-0.0019451729021966457,-0.04440874233841896,-0.09894921630620956
1763696725469861600,6.978861572265625,-0.06390175223350525,-0.024521321058273315,-0.1222260445356369
1763696725479885600,6.988885498046875,-0.1280146837234497,0.005842442624270916,-0.1502704620361328
1763696725489908500,6.998908447265625,-0.20565809309482574,0.014349112287163734,-0.1727249026298523
1763696725499931600,7.008931640625,-0.2905218303203583,0.01601385325193405,-0.1903933733701706
1763696725509954600,7.01895458984375,-0.38413727283477783,0.026317091658711433,-0.20210276544094086
1763696725519978500,7.028978515625,-0.4815373420715332,0.02636396326124668,-0.21493707597255707
1763696725530001400,7.03900146484375,-0.5746904611587524,0.009445699863135815,-0.22691038250923157
1763696725540024600,7.049024658203125,-0.6610181331634521,-0.01383991539478302,-0.23580799996852875
1763696725550048300,7.05904833984375,-0.747331976890564,-0.03407807648181915,-0.24130024015903473
1763696725560071400,7.069071533203125,-0.8331001400947571,-0.04910362884402275,-0.24893392622470856
1763696725570094300,7.07909423828125,-0.9209339022636414,-0.0624426044523716,-0.27234870195388794
1763696725580117500,7.089117431640625,-1.0040431022644043,-0.07185528427362442,-0.3080001771450043
1763696725590141400,7.099141357421875,-1.0825011730194092,-0.08699854463338852,-0.3534664511680603
1763696725600164400,7.109164306640625,-1.1577554941177368,-0.11086047440767288,-0.4117499887943268
1763696725610187500,7.1191875,-1.2177841663360596,-0.12785384058952332,-0.4770134389400482
1763696725620211500,7.12921142578125,-1.2663218975067139,-0.1362350732088089,-0.5389378070831299
1763696725630234400,7.139234375,-1.298885464668274,-0.14582164585590363,-0.5919733047485352
1763696725640257300,7.14925732421875,-1.3169893026351929,-0.17018185555934906,-0.6314828991889954
1763696725650280400,7.159280517578125,-1.3153070211410522,-0.1993274837732315,-0.6637665033340454
1763696725660304600,7.1693046875,-1.2982183694839478,-0.22427597641944885,-0.6929113864898682
1763696725670327600,7.17932763671875,-1.2823032140731812,-0.2501467168331146,-0.7247617244720459
1763696725680350500,7.1893505859375,-1.2721582651138306,-0.2789860963821411,-0.759730339050293
1763696725690373400,7.199373291015625,-1.2707898616790771,-0.29638558626174927,-0.7983339428901672
1763696725700397600,7.2093974609375,-1.2820156812667847,-0.27642306685447693,-0.8518858551979065
1763696725710420500,7.21942041015625,-1.3062543869018555,-0.22742091119289398,-0.9040787220001221
1763696725720443400,7.229443359375,-1.3384536504745483,-0.18103715777397156,-0.9422623515129089
1763696725730467600,7.239467529296875,-1.3698874711990356,-0.13761192560195923,-0.9613529443740845
1763696725740490500,7.249490478515625,-1.3956540822982788,-0.10486143082380295,-0.9668017625808716
1763696725750513700,7.259513671875,-1.417598009109497,-0.09613186120986938,-0.9621713161468506
1763696725760536300,7.269536376953125,-1.4296202659606934,-0.10854538530111313,-0.9463241696357727
1763696725770560500,7.279560546875,-1.430306077003479,-0.13945935666561127,-0.916418731212616
1763696725780583200,7.289583251953125,-1.4129984378814697,-0.17403064668178558,-0.8668709397315979
1763696725790606000,7.299606201171875,-1.3913453817367554,-0.21535225212574005,-0.7942542433738708
1763696725800630000,7.309630126953125,-1.381614089012146,-0.23706740140914917,-0.7113265991210938
1763696725810653000,7.31965283203125,-1.394152283668518,-0.23319624364376068,-0.6364148259162903
1763696725820676000,7.329676025390625,-1.4310951232910156,-0.20618192851543427,-0.5850527882575989
1763696725830699000,7.339698974609375,-1.4774930477142334,-0.1573110669851303,-0.5640900135040283
1763696725840723000,7.349722900390625,-1.5296461582183838,-0.10688996315002441,-0.5649315714836121
1763696725850746000,7.35974609375,-1.5804553031921387,-0.0874646008014679,-0.5687201619148254
1763696725860769000,7.36976904296875,-1.6046922206878662,-0.11346344649791718,-0.5648292899131775
1763696725870792200,7.379792236328125,-1.592320203781128,-0.1723826825618744,-0.5502399802207947
1763696725880815900,7.38981591796875,-1.5262171030044556,-0.28460216522216797,-0.5174626111984253
1763696725890839000,7.399839111328125,-1.3985893726348877,-0.4173623323440552,-0.4728815257549286
1763696725900862000,7.409862060546875,-1.2105436325073242,-0.5192064046859741,-0.4266972541809082
1763696725910886100,7.41988623046875,-1.0002292394638062,-0.6001909971237183,-0.38545581698417664
1763696725920909000,7.429908935546875,-0.7898467183113098,-0.6450242400169373,-0.34457096457481384
1763696725930932000,7.439931884765625,-0.6093666553497314,-0.6467862129211426,-0.303390771150589
1763696725940955100,7.449955078125,-0.5114669799804688,-0.6423672437667847,-0.2765248119831085
1763696725950979000,7.45997900390625,-0.4922991693019867,-0.5968218445777893,-0.28166550397872925
1763696725961002000,7.470001953125,-0.5228107571601868,-0.49074575304985046,-0.3078009784221649
1763696725971025000,7.48002490234375,-0.5881455540657043,-0.37849536538124084,-0.3377287685871124
1763696725981049000,7.490049072265625,-0.6849700808525085,-0.2851009666919708,-0.3583296537399292
1763696725991072300,7.500072265625,-0.7851464748382568,-0.19170765578746796,-0.35648488998413086
1763696726001095200,7.51009521484375,-0.8762279152870178,-0.10933128744363785,-0.3285600543022156
1763696726011118000,7.5201181640625,-0.9375299215316772,-0.04466333985328674,-0.2808646857738495
1763696726021142000,7.53014208984375,-0.9758509397506714,-0.004219512455165386,-0.22987714409828186
1763696726031165200,7.540165283203125,-0.9891108274459839,0.008717857301235199,-0.19385655224323273
1763696726041188000,7.55018798828125,-0.985450804233551,-0.008636364713311195,-0.17704881727695465
1763696726051211000,7.5602109375,-0.9500893950462341,-0.037045370787382126,-0.18151520192623138
1763696726061235200,7.570235107421875,-0.8949885964393616,-0.04976595938205719,-0.19684861600399017
1763696726071258000,7.580258056640625,-0.8275986313819885,-0.07244623452425003,-0.2152302861213684
1763696726081281300,7.59028125,-0.7555566430091858,-0.10721380263566971,-0.21760129928588867
1763696726091305000,7.600304931640625,-0.6778078079223633,-0.10881063342094421,-0.19796687364578247
1763696726101328100,7.610328125,-0.5908997654914856,-0.08370821177959442,-0.15215225517749786
1763696726111351000,7.62035107421875,-0.5109948515892029,-0.049321744590997696,-0.08532395213842392
1763696726121374200,7.630374267578125,-0.45334193110466003,-0.006522081326693296,-0.00893756840378046
1763696726131398100,7.640398193359375,-0.4119737148284912,0.054243262857198715,0.07006990164518356
1763696726141421000,7.650421142578125,-0.3955704867839813,0.11903184652328491,0.1474754810333252
1763696726151444200,7.6604443359375,-0.4013309180736542,0.1726015955209732,0.21901996433734894
1763696726161468000,7.670468017578125,-0.417934387922287,0.21657304465770721,0.29659679532051086
1763696726171491000,7.680490966796875,-0.42893245816230774,0.2840527594089508,0.38648033142089844
1763696726181514000,7.690513916015625,-0.43502548336982727,0.35691872239112854,0.4930501878261566
1763696726191537200,7.700537109375,-0.434366911649704,0.42749008536338806,0.6207623481750488
1763696726201561000,7.71056103515625,-0.4354265630245209,0.4880429208278656,0.7589468359947205
1763696726211584000,7.720583984375,-0.44301286339759827,0.5338074564933777,0.8933411240577698
1763696726221607000,7.73060693359375,-0.4566250741481781,0.562471330165863,1.0109524726867676
1763696726231630000,7.740630126953125,-0.47371989488601685,0.5930119156837463,1.1130090951919556
1763696726241654300,7.750654296875,-0.48973241448402405,0.6118785738945007,1.2029650211334229
1763696726251677000,7.760677001953125,-0.507999062538147,0.6027780175209045,1.2837562561035156
1763696726261700000,7.7707001953125,-0.5162649750709534,0.5773842334747314,1.3551074266433716
1763696726271724000,7.78072412109375,-0.520700216293335,0.5487227439880371,1.4153451919555664
1763696726281747200,7.790747314453125,-0.5249567031860352,0.5164689421653748,1.4600908756256104
1763696726291769900,7.800769775390625,-0.5274398326873779,0.5018857717514038,1.4844344854354858
1763696726301793000,7.81079296875,-0.5369982123374939,0.48732757568359375,1.4878604412078857
1763696726311817200,7.820817138671875,-0.5451616048812866,0.47443655133247375,1.469460129737854
1763696726321840000,7.830840087890625,-0.5406004190444946,0.4650062918663025,1.4317841529846191
1763696726331863000,7.840863037109375,-0.5176934599876404,0.4628257155418396,1.3798096179962158
1763696726341887000,7.850886962890625,-0.4797990918159485,0.47795724868774414,1.3231180906295776
1763696726351910100,7.86091015625,-0.42810872197151184,0.5079758763313293,1.2815767526626587
1763696726361933000,7.87093310546875,-0.36846110224723816,0.532209038734436,1.27033531665802
1763696726371956200,7.880956298828125,-0.30275958776474,0.5503994822502136,1.2992018461227417
1763696726381980200,7.890980224609375,-0.24565556645393372,0.5454734563827515,1.3683398962020874
1763696726392003000,7.901003173828125,-0.2054453045129776,0.5126079320907593,1.4617843627929688
1763696726402026200,7.911026123046875,-0.19688190519809723,0.4623343348503113,1.5467027425765991
1763696726412049200,7.921049072265625,-0.2117500603199005,0.4343506395816803,1.5871100425720215
1763696726422073000,7.931072998046875,-0.24038277566432953,0.422080934047699,1.5620187520980835
1763696726432096000,7.941095947265625,-0.273240327835083,0.4203943610191345,1.4788362979888916
1763696726442119200,7.951119140625,-0.2973853349685669,0.4355967342853546,1.3456660509109497
1763696726452143000,7.96114306640625,-0.2863851487636566,0.45852309465408325,1.1812975406646729
1763696726462166000,7.971166015625,-0.22895488142967224,0.4770467281341553,0.9953319430351257
1763696726472189200,7.981189208984375,-0.141440749168396,0.4795479476451874,0.8082550168037415
1763696726482212000,7.991212158203125,-0.04145103693008423,0.433400422334671,0.6373770236968994
1763696726492236000,8.001236083984375,0.06713269650936127,0.3439083695411682,0.49039581418037415
1763696726502259000,8.011259033203125,0.17377258837223053,0.2346351444721222,0.37067365646362305
1763696726512282000,8.0212822265625,0.25586000084877014,0.12211445719003677,0.27272048592567444
1763696726522306000,8.03130615234375,0.3010905981063843,0.004347876645624638,0.18710944056510925
1763696726532329000,8.041328857421876,0.3114068806171417,-0.11967766284942627,0.10777945816516876
1763696726542352100,8.05135205078125,0.29702049493789673,-0.23416589200496674,0.029995981603860855
1763696726552375000,8.061375,0.26984480023384094,-0.30789124965667725,-0.04343855381011963
1763696726562399200,8.071399169921875,0.2321235090494156,-0.39790767431259155,-0.10571284592151642
1763696726572422100,8.081422119140624,0.19727233052253723,-0.48636937141418457,-0.1560620367527008
1763696726582445000,8.091445068359375,0.1766967475414276,-0.5173174142837524,-0.2016124725341797
1763696726592468000,8.101468017578124,0.18795232474803925,-0.5247250199317932,-0.2409130185842514
1763696726602492200,8.1114921875,0.2435748428106308,-0.5119794011116028,-0.26077035069465637
1763696726612515000,8.12151513671875,0.3209255635738373,-0.4730450510978699,-0.24931076169013977
1763696726622538000,8.1315380859375,0.38621827960014343,-0.4178989827632904,-0.19949659705162048
1763696726632562200,8.141562255859375,0.4258546233177185,-0.37913480401039124,-0.11656869202852249
1763696726642585000,8.151585205078124,0.44079098105430603,-0.3435821235179901,-0.02262541837990284
1763696726652608300,8.161608154296875,0.44501394033432007,-0.30765822529792786,0.06937241554260254
1763696726662631000,8.171630859375,0.43431469798088074,-0.3006516993045807,0.1511668860912323
1763696726672655000,8.181655029296875,0.409114807844162,-0.324945867061615,0.21497994661331177
1763696726682678000,8.191677978515624,0.382332444190979,-0.37707751989364624,0.24141395092010498
1763696726692701200,8.201701171875,0.3718840777873993,-0.46265125274658203,0.21616478264331818
1763696726702724000,8.21172412109375,0.3945324122905731,-0.5199385285377502,0.1265459507703781
1763696726712748000,8.221748046875,0.4371139407157898,-0.536777675151825,-0.01883600652217865
1763696726722771200,8.231771240234375,0.4899563789367676,-0.5371094942092896,-0.18583084642887115
1763696726732794000,8.241794189453126,0.5576456785202026,-0.49950408935546875,-0.33740973472595215
1763696726742818000,8.251818115234375,0.6276271939277649,-0.4522756040096283,-0.4255467653274536
1763696726752841000,8.261841064453124,0.6887789368629456,-0.42241063714027405,-0.4267433285713196
1763696726762864000,8.271864013671875,0.7457029223442078,-0.3930807113647461,-0.34838008880615234
1763696726772887000,8.281886962890624,0.7812052965164185,-0.3709905743598938,-0.22152280807495117
1763696726782911200,8.2919111328125,0.806425929069519,-0.35164618492126465,-0.0676213875412941
1763696726792934100,8.30193408203125,0.8186227083206177,-0.32538342475891113,0.08280806243419647
1763696726802957300,8.311957275390625,0.8247525095939636,-0.2918587625026703,0.19786886870861053
1763696726812981200,8.321981201171875,0.8252055048942566,-0.22096461057662964,0.2482585459947586
1763696726823004200,8.332004150390626,0.809488832950592,-0.0934857428073883,0.23490065336227417
1763696726833027000,8.342027099609375,0.7819608449935913,0.05127570405602455,0.17874976992607117
1763696726843050200,8.35205029296875,0.7734770774841309,0.1744956374168396,0.13330399990081787
1763696726853074400,8.362074462890625,0.7952446341514587,0.2217547595500946,0.14899639785289764
1763696726863097000,8.37209716796875,0.827639102935791,0.21802501380443573,0.24503318965435028
1763696726873120300,8.382120361328125,0.8512676954269409,0.19293536245822906,0.39835110306739807
1763696726883143200,8.39214306640625,0.8451810479164124,0.1771193891763687,0.5837292075157166
1763696726893167400,8.40216748046875,0.7975765466690063,0.18029946088790894,0.7702013850212097
1763696726903190000,8.41218994140625,0.7169261574745178,0.22955356538295746,0.9140307307243347
1763696726913213200,8.422213134765625,0.6170421838760376,0.3010796904563904,1.000838041305542
1763696726923237400,8.4322373046875,0.49812591075897217,0.3762500584125519,1.0232030153274536
1763696726933260300,8.44226025390625,0.3627720773220062,0.44755035638809204,0.9984416961669922
1763696726943283200,8.452283203125,0.2257433831691742,0.45386603474617004,0.9490296840667725
1763696726953306000,8.46230615234375,0.13900183141231537,0.42351478338241577,0.8974282741546631
1763696726963330300,8.472330322265625,0.12816116213798523,0.3774738013744354,0.8646746277809143
1763696726973353200,8.482353271484374,0.18834728002548218,0.3177361488342285,0.8468375205993652
1763696726983376400,8.49237646484375,0.30684301257133484,0.24570509791374207,0.8359015583992004
1763696726993400000,8.502400146484375,0.46629154682159424,0.16280436515808105,0.8082733750343323
1763696727003423200,8.51242333984375,0.6469518542289734,0.07726415991783142,0.7650494575500488
1763696727013446100,8.522446044921875,0.8373185992240906,-0.0018255969043821096,0.6941473484039307
1763696727023469300,8.53246923828125,1.0221470594406128,-0.06419017165899277,0.6030557751655579
1763696727033493200,8.5424931640625,1.203626036643982,-0.10519619286060333,0.5040921568870544
1763696727043516200,8.55251611328125,1.3725916147232056,-0.13051220774650574,0.4064923822879791
1763696727053539300,8.562539306640625,1.5237257480621338,-0.1439526379108429,0.31247374415397644
1763696727063562200,8.572562255859374,1.6522680521011353,-0.13922420144081116,0.22872932255268097
1763696727073586200,8.582586181640625,1.754143476486206,-0.11750718951225281,0.16620655357837677
1763696727083609000,8.592609130859374,1.8358668088912964,-0.08730534464120865,0.12356960773468018
1763696727093632300,8.60263232421875,1.9043452739715576,-0.04962534457445145,0.10580100119113922
1763696727103656200,8.61265625,1.9437634944915771,-0.003195527009665966,0.09898436814546585
1763696727113679000,8.62267919921875,1.9349596500396729,0.046003710478544235,0.08918473869562149
1763696727123702300,8.632702392578125,1.8641126155853271,0.10700980573892593,0.06536968797445297
1763696727133725200,8.64272509765625,1.7489463090896606,0.1756834089756012,0.026385268196463585
1763696727143749000,8.6527490234375,1.619059681892395,0.24701590836048126,-0.022667229175567627
1763696727153772000,8.66277197265625,1.4962080717086792,0.32391974329948425,-0.07005764544010162
1763696727163795200,8.672795166015625,1.3926665782928467,0.36838895082473755,-0.11115635186433792
1763696727173819400,8.6828193359375,1.315976858139038,0.37581196427345276,-0.1381371021270752
1763696727183842300,8.69284228515625,1.2638808488845825,0.3665846586227417,-0.1565142422914505
1763696727193865200,8.702865234375,1.2213126420974731,0.3450905382633209,-0.1681477278470993
1763696727203888000,8.71288818359375,1.1733403205871582,0.30767127871513367,-0.16452103853225708
1763696727213912300,8.722912353515625,1.1176434755325317,0.26127633452415466,-0.15547586977481842
1763696727223935200,8.732935302734376,1.0487568378448486,0.22736524045467377,-0.13713762164115906
1763696727233958100,8.742958251953125,0.9572221040725708,0.22767098248004913,-0.1304301768541336
1763696727243981000,8.75298095703125,0.8531484603881836,0.2560323178768158,-0.1372412145137787
1763696727254005200,8.763005126953125,0.7252312302589417,0.2914654016494751,-0.1613827645778656
1763696727264028400,8.7730283203125,0.5824056267738342,0.3518160879611969,-0.2068815380334854
1763696727274051000,8.783051025390625,0.4358271062374115,0.4179493188858032,-0.26880350708961487
1763696727284075300,8.7930751953125,0.30318915843963623,0.48648789525032043,-0.34065186977386475
1763696727294098200,8.80309814453125,0.20160795748233795,0.5649675130844116,-0.41798126697540283
1763696727304121300,8.813121337890625,0.14034059643745422,0.6366997361183167,-0.4881960451602936
1763696727314144300,8.823144287109375,0.1130964607000351,0.6769819259643555,-0.5501126646995544
1763696727324168200,8.833168212890625,0.11654286086559296,0.6873637437820435,-0.5993736982345581
1763696727334191400,8.84319140625,0.14450818300247192,0.6616346836090088,-0.6315726637840271
1763696727344214300,8.85321435546875,0.1856260597705841,0.612973153591156,-0.6535642147064209
1763696727354238200,8.86323828125,0.23731747269630432,0.5632330179214478,-0.6712199449539185
1763696727364261000,8.87326123046875,0.28308895230293274,0.5131070017814636,-0.6880910396575928
1763696727374284300,8.8832841796875,0.31350865960121155,0.478001207113266,-0.6935718059539795
1763696727384307200,8.89330712890625,0.31988638639450073,0.4585508108139038,-0.6918511390686035
1763696727394331100,8.9033310546875,0.302192360162735,0.44499343633651733,-0.6802213788032532
1763696727404354000,8.91335400390625,0.27121978998184204,0.434853196144104,-0.6663902997970581
1763696727414377200,8.923377197265625,0.2337602972984314,0.44242987036705017,-0.6628932952880859
1763696727424400100,8.933400146484376,0.18697893619537354,0.445427805185318,-0.6814195513725281
1763696727434424000,8.943424072265625,0.14014193415641785,0.4390447437763214,-0.7189429402351379
1763696727444447200,8.953447265625,0.09109102934598923,0.422677218914032,-0.7723771929740906
1763696727454470100,8.96347021484375,0.02925216034054756,0.3983668088912964,-0.8314048051834106
1763696727464494300,8.973494384765624,-0.05019605904817581,0.358495831489563,-0.8902587890625
1763696727474517000,8.98351708984375,-0.13843031227588654,0.2867121994495392,-0.9414260983467102
1763696727484540200,8.9935400390625,-0.22397823631763458,0.212421715259552,-0.9810896515846252
1763696727494563000,9.00356298828125,-0.3115786612033844,0.1218167170882225,-1.0009876489639282
1763696727504587300,9.013587158203125,-0.38941460847854614,0.02100834622979164,-0.9893286228179932
1763696727514610200,9.023610107421876,-0.4631471335887909,-0.061948589980602264,-0.946738064289093
1763696727524633000,9.033633056640625,-0.5169909596443176,-0.12431769073009491,-0.8849263191223145
1763696727534657300,9.0436572265625,-0.5627453923225403,-0.15362711250782013,-0.8257559537887573
1763696727544680200,9.05368017578125,-0.6092345714569092,-0.1473524421453476,-0.7834694981575012
1763696727554703400,9.063703369140624,-0.6664558053016663,-0.10823086649179459,-0.7656981945037842
1763696727564726000,9.07372607421875,-0.7497274875640869,-0.07500393688678741,-0.7609261274337769
1763696727574750200,9.083750244140624,-0.8616500496864319,-0.03255581110715866,-0.7575774192810059
1763696727584773400,9.0937734375,-0.9924514889717102,0.011286476626992226,-0.7454331517219543
1763696727594796300,9.10379638671875,-1.1261839866638184,0.03825950622558594,-0.719900906085968
1763696727604819200,9.113819091796875,-1.2484142780303955,0.06011739745736122,-0.6745976209640503
1763696727614843100,9.123843017578125,-1.3509670495986938,0.07188697159290314,-0.613282322883606
1763696727624866300,9.1338662109375,-1.4235256910324097,0.06171822547912598,-0.5358916521072388
1763696727634889200,9.14388916015625,-1.446678638458252,0.04110855609178543,-0.4500052332878113
1763696727644913200,9.1539130859375,-1.4196547269821167,0.05361822247505188,-0.3760809600353241
1763696727654936300,9.163936279296875,-1.3758710622787476,0.0893317461013794,-0.32310375571250916
1763696727664959200,9.173959228515624,-1.350120186805725,0.1363471895456314,-0.30881643295288086
1763696727674982400,9.183982421875,-1.3405905961990356,0.17093685269355774,-0.318255215883255
1763696727685006000,9.194006103515624,-1.3505486249923706,0.19519345462322235,-0.3316729962825775
1763696727695029200,9.204029296875,-1.3765146732330322,0.22378675639629364,-0.33326292037963867
1763696727705052200,9.21405224609375,-1.4120264053344727,0.22619424760341644,-0.3234880566596985
1763696727715076000,9.224076171875,-1.434718370437622,0.21476902067661285,-0.3076403737068176
1763696727725099300,9.234099365234375,-1.4388891458511353,0.203923299908638,-0.2956649363040924
1763696727735122200,9.2441220703125,-1.418590784072876,0.17451082170009613,-0.2911846935749054
1763696727745145300,9.254145263671875,-1.3714663982391357,0.13044801354408264,-0.2770369350910187
1763696727755169300,9.264169189453124,-1.2954579591751099,0.08920950442552567,-0.25156858563423157
1763696727765192200,9.274192138671875,-1.189807415008545,0.05743027105927467,-0.2055443674325943
1763696727775215400,9.28421533203125,-1.0785727500915527,0.029101425781846046,-0.14916950464248657
1763696727785238500,9.294238525390625,-0.9940083622932434,-0.004680771846324205,-0.08395881950855255
1763696727795262500,9.304262451171875,-0.9510971307754517,-0.03212038427591324,-0.016591759398579597
1763696727805285400,9.314285400390625,-0.9480382204055786,-0.038898661732673645,0.03555586189031601
1763696727815308500,9.32430859375,-0.9738940596580505,-0.026262762024998665,0.0674823746085167
1763696727825332500,9.33433251953125,-1.0145149230957031,0.015252189710736275,0.07910014688968658
1763696727835355600,9.344355712890625,-1.0610449314117432,0.08664567768573761,0.06820221990346909
1763696727845378300,9.35437841796875,-1.105871558189392,0.155954971909523,0.03441816195845604
1763696727855401500,9.3644013671875,-1.1327412128448486,0.21557515859603882,-0.006566023454070091
1763696727865425400,9.37442529296875,-1.1211074590682983,0.26922428607940674,-0.03947656974196434
1763696727875448600,9.384448486328125,-1.0733643770217896,0.2876967489719391,-0.049258358776569366
1763696727885471200,9.39447119140625,-0.9956813454627991,0.28428739309310913,-0.02358788438141346
1763696727895494400,9.404494384765625,-0.9086630940437317,0.2574720084667206,0.024689367040991783
1763696727905518600,9.4145185546875,-0.8298249840736389,0.20558138191699982,0.07657333463430405
1763696727915541500,9.42454150390625,-0.7733665108680725,0.14371216297149658,0.11427278071641922
1763696727925564400,9.434564453125,-0.740978479385376,0.07897098362445831,0.12454592436552048
1763696727935588400,9.44458837890625,-0.7251960635185242,0.024220651015639305,0.11023756116628647
1763696727945611500,9.454611572265625,-0.7267628312110901,-0.01571185141801834,0.0853860005736351
1763696727955634400,9.464634521484374,-0.7509437799453735,-0.02629152499139309,0.05603397265076637
1763696727965657600,9.47465771484375,-0.7991232872009277,-0.00774820102378726,0.03958762437105179
1763696727975681500,9.484681640625,-0.8571932315826416,0.017074590548872948,0.034991007298231125
1763696727985704400,9.494704345703125,-0.908194363117218,0.07555387914180756,0.03323065862059593
1763696727995727600,9.5047275390625,-0.9528934359550476,0.16986626386642456,0.032466862350702286
1763696728005751300,9.514751220703126,-0.9948499202728271,0.27059128880500793,0.0410933755338192
1763696728015774500,9.5247744140625,-1.0314286947250366,0.3531615138053894,0.06310386955738068
1763696728025797400,9.53479736328125,-1.0509246587753296,0.4371832013130188,0.0878792554140091
1763696728035820500,9.544820556640625,-1.0479490756988525,0.5272398591041565,0.11081892251968384
1763696728045844500,9.554844482421874,-1.0352578163146973,0.618520200252533,0.1312035620212555
1763696728055867400,9.564867431640625,-1.0088269710540771,0.7134991884231567,0.1549730747938156
1763696728065890600,9.574890625,-0.965507447719574,0.7989387512207031,0.1849546730518341
1763696728075913500,9.58491357421875,-0.8978722095489502,0.8485779166221619,0.21687984466552734
1763696728085937400,9.5949375,-0.812183678150177,0.8581029772758484,0.2502790689468384
1763696728095960300,9.604960205078125,-0.7084993720054626,0.8370981216430664,0.28189215064048767
1763696728105983500,9.6149833984375,-0.6064867377281189,0.7948513031005859,0.3008178770542145
1763696728116007700,9.625007568359376,-0.5121578574180603,0.7375922799110413,0.30643582344055176
1763696728126030300,9.6350302734375,-0.43208563327789307,0.6442908048629761,0.29586121439933777
1763696728136053500,9.645053466796876,-0.3698539435863495,0.5296041965484619,0.26639068126678467
1763696728146076400,9.655076416015625,-0.32567262649536133,0.4080127775669098,0.21235966682434082
1763696728156100600,9.6651005859375,-0.2874690592288971,0.29092133045196533,0.1378856897354126
1763696728166123300,9.675123291015625,-0.24641749262809753,0.17778438329696655,0.041669417172670364
1763696728176146400,9.685146484375,-0.18239723145961761,0.09294512122869492,-0.060807425528764725
1763696728186169300,9.69516943359375,-0.0960032269358635,0.012648417614400387,-0.1466328501701355
1763696728196193500,9.705193603515625,0.007133010774850845,-0.07675176858901978,-0.20424342155456543
1763696728206216400,9.715216552734375,0.11936953663825989,-0.1701059490442276,-0.23126570880413055
1763696728216239400,9.7252392578125,0.22710585594177246,-0.26698827743530273,-0.2438637912273407
1763696728226263600,9.735263671875,0.32506757974624634,-0.3773302435874939,-0.25607624650001526
1763696728236286500,9.745286376953125,0.4011514186859131,-0.48749616742134094,-0.28470364212989807
1763696728246309600,9.7553095703125,0.4637676477432251,-0.606107234954834,-0.32791370153427124
1763696728256332300,9.765332275390625,0.5139485597610474,-0.7418509721755981,-0.39572709798812866
1763696728266356500,9.7753564453125,0.5773141980171204,-0.889365017414093,-0.49538499116897583
1763696728276379400,9.78537939453125,0.6632083058357239,-1.017413854598999,-0.6298128366470337
1763696728286402600,9.795402587890624,0.7450326085090637,-1.0540815591812134,-0.7859534025192261
1763696728296425200,9.80542529296875,0.7772291898727417,-0.981421709060669,-0.9280477166175842
1763696728306449400,9.815449462890625,0.7570371031761169,-0.8907629251480103,-1.0078485012054443
1763696728316472600,9.82547265625,0.7145495414733887,-0.7884325385093689,-1.0053545236587524
1763696728326495500,9.83549560546875,0.6768487691879272,-0.6744439601898193,-0.921036958694458
1763696728336519400,9.84551953125,0.6583083868026733,-0.5483043789863586,-0.7760749459266663
1763696728346542300,9.855542236328125,0.6547788977622986,-0.4262615740299225,-0.5975121259689331
1763696728356565500,9.8655654296875,0.6566154360771179,-0.31257015466690063,-0.40981948375701904
1763696728366588400,9.87558837890625,0.6647462844848633,-0.21973848342895508,-0.23410837352275848
1763696728376612400,9.8856123046875,0.6808816194534302,-0.16154415905475616,-0.08558041602373123
1763696728386635500,9.895635498046875,0.6927042007446289,-0.12187211215496063,0.017652496695518494
1763696728396658400,9.905658447265624,0.7039573788642883,-0.09720005095005035,0.06945443898439407
1763696728406681600,9.915681640625,0.7163234949111938,-0.09394939988851547,0.07299724221229553
1763696728416705300,9.925705322265625,0.7460177540779114,-0.12628842890262604,0.043464917689561844
1763696728426728400,9.935728515625,0.7920603156089783,-0.16160087287425995,-0.010934939607977867
1763696728436751400,9.94575146484375,0.8480652570724487,-0.2105678915977478,-0.07837576419115067
1763696728446775600,9.955775634765626,0.9001492261886597,-0.2720261812210083,-0.14455877244472504
1763696728456798500,9.965798583984375,0.9342451691627502,-0.31454169750213623,-0.19439451396465302
1763696728466821400,9.9758212890625,0.9482539296150208,-0.3488064706325531,-0.20994657278060913
1763696728476844500,9.985844482421875,0.943081259727478,-0.3750423192977905,-0.18633152544498444
1763696728486868500,9.995868408203124,0.9311617612838745,-0.3850882947444916,-0.129767045378685
1763696728496891400,10.005891357421875,0.908566951751709,-0.3774980306625366,-0.05313645675778389
1763696728506914300,10.015914306640624,0.8750784993171692,-0.36271509528160095,0.034390997141599655
1763696728516938500,10.0259384765625,0.837651789188385,-0.30211272835731506,0.13436739146709442
1763696728526961700,10.035961669921875,0.8040693402290344,-0.2270701676607132,0.2391183078289032
1763696728536984300,10.045984375,0.7791509032249451,-0.14061251282691956,0.3492799699306488
1763696728547007500,10.056007568359375,0.7535417079925537,-0.017965152859687805,0.4612802565097809
1763696728557031400,10.066031494140624,0.7224210500717163,0.08832266926765442,0.579658567905426
1763696728567054600,10.0760546875,0.6966930627822876,0.17088305950164795,0.701137900352478
1763696728577077500,10.086077392578124,0.6776317358016968,0.23276400566101074,0.8129725456237793
1763696728587100400,10.096100341796875,0.6657689809799194,0.29246968030929565,0.8978541493415833
1763696728597124600,10.10612451171875,0.6338911652565002,0.3431946337223053,0.9444642663002014
1763696728607147500,10.1161474609375,0.5897186398506165,0.3745245933532715,0.9476200938224792
1763696728617170700,10.126170654296875,0.5446065664291382,0.39440110325813293,0.9118583798408508
1763696728627194400,10.1361943359375,0.5167036056518555,0.3991692364215851,0.8457642793655396
1763696728637217500,10.146217529296875,0.5073979496955872,0.36431005597114563,0.7682306170463562
1763696728647240400,10.156240478515626,0.5032229423522949,0.311042845249176,0.6830393075942993
1763696728657263600,10.166263671875,0.4769527018070221,0.2271505892276764,0.5996271967887878
1763696728667287300,10.176287353515624,0.4395480751991272,0.11483683437108994,0.5092597603797913
1763696728677310500,10.186310546875,0.4513613283634186,0.041552502661943436,0.42200902104377747
1763696728687333400,10.19633349609375,0.5969228148460388,-0.00276116537861526,0.3653111159801483
1763696728697356500,10.2063564453125,0.8953816294670105,0.003355050226673484,0.3774458169937134
1763696728707380500,10.21638037109375,1.2740917205810547,0.03711887449026108,0.46572136878967285
1763696728717403400,10.2264033203125,1.5965344905853271,0.029226861894130707,0.6280237436294556
1763696728727426600,10.236426513671875,1.7811609506607056,-0.010037453845143318,0.8167707324028015
1763696728737450200,10.2464501953125,1.8142294883728027,-0.05282273516058922,0.9871405959129333
1763696728747473400,10.256473388671875,1.7232884168624878,-0.0920923724770546,1.093576192855835
1763696728757496300,10.266496337890626,1.5503935813903809,-0.10470936447381973,1.1088348627090454
1763696728767519500,10.27651953125,1.3544946908950806,-0.11361018568277359,1.0388349294662476
1763696728777543200,10.286543212890624,1.1652144193649292,-0.1263243854045868,0.9130655527114868
1763696728787565800,10.29656591796875,0.9918844699859619,-0.14623017609119415,0.7540604472160339
1763696728797589000,10.306589111328124,0.8379021286964417,-0.15107527375221252,0.5849763751029968
1763696728807612000,10.31661181640625,0.7102722525596619,-0.12327852845191956,0.4357045888900757
1763696728817636000,10.326635986328125,0.5941107273101807,-0.0944570004940033,0.32161638140678406
1763696728827659000,10.336658935546875,0.47742170095443726,-0.0721793845295906,0.23983310163021088
1763696728837682000,10.346681884765625,0.3728848993778229,-0.042986348271369934,0.18610915541648865
1763696728847705900,10.356705810546876,0.27694904804229736,-0.021080784499645233,0.1485641747713089
1763696728857729000,10.36672900390625,0.19548986852169037,-0.014010890386998653,0.10565585643053055
1763696728867752200,10.376752197265626,0.13757650554180145,-0.025966620072722435,0.05446404218673706
1763696728877774800,10.38677490234375,0.11528132110834122,-0.10860610753297806,-0.0006644586683250964
1763696728887799000,10.396799072265624,0.1556559056043625,-0.22201842069625854,-0.05395644158124924
1763696728897822000,10.406822021484375,0.25266900658607483,-0.3323097825050354,-0.09571001678705215
1763696728907845000,10.41684521484375,0.38077983260154724,-0.4797692596912384,-0.09937185794115067
1763696728917867800,10.42686767578125,0.5121570229530334,-0.6613379716873169,-0.05748912692070007
1763696728927892000,10.43689208984375,0.6220861673355103,-0.8304287195205688,0.010718690231442451
1763696728937915000,10.446914794921875,0.7033847570419312,-0.9584484696388245,0.0874510183930397
1763696728947938000,10.45693798828125,0.7440161108970642,-1.0447434186935425,0.1494283676147461
1763696728957962000,10.4669619140625,0.7468198537826538,-1.069139838218689,0.19260379672050476
1763696728967985000,10.47698486328125,0.7112536430358887,-1.0414994955062866,0.22713115811347961
1763696728978008000,10.487008056640626,0.640403151512146,-0.9767476320266724,0.2598784565925598
1763696728988031000,10.497031005859375,0.5548869371414185,-0.8845263123512268,0.30977675318717957
1763696728998055000,10.507054931640624,0.4640885591506958,-0.7842945456504822,0.3940538167953491
1763696729008077800,10.517077880859375,0.3740910291671753,-0.6840060353279114,0.5173664689064026
1763696729018101000,10.52710107421875,0.29434001445770264,-0.600493848323822,0.6709179282188416
1763696729028124000,10.5371240234375,0.23344257473945618,-0.5145179033279419,0.8325150609016418
1763696729038147800,10.54714794921875,0.19378039240837097,-0.42658060789108276,0.9765896797180176
1763696729048171000,10.5571708984375,0.17597796022891998,-0.36846962571144104,1.0767064094543457
1763696729058194000,10.56719384765625,0.15979285538196564,-0.3289046585559845,1.1328157186508179
1763696729068218000,10.577218017578126,0.13672855496406555,-0.3062419593334198,1.1605690717697144
1763696729078240800,10.58724072265625,0.07648305594921112,-0.2858871519565582,1.1758553981781006
1763696729088264000,10.597263916015624,-0.018553709611296654,-0.2809123694896698,1.2004460096359253
1763696729098286800,10.607286865234375,-0.13272102177143097,-0.2701241672039032,1.243062973022461
1763696729108311000,10.61731103515625,-0.25042423605918884,-0.24692989885807037,1.2843447923660278
1763696729118334000,10.627333984375,-0.3625158667564392,-0.1977037638425827,1.3125879764556885
1763696729128356900,10.63735693359375,-0.45582345128059387,-0.11742249876260757,1.3055905103683472
1763696729138380000,10.647380126953125,-0.5293186902999878,-0.010869159363210201,1.264352798461914
1763696729148404000,10.657404052734375,-0.5967220067977905,0.08982362598180771,1.2023261785507202
1763696729158427000,10.667427001953126,-0.6617353558540344,0.16440944373607635,1.1316407918930054
1763696729168449800,10.67744970703125,-0.71027010679245,0.20642641186714172,1.0597761869430542
1763696729178474000,10.687473876953124,-0.7508153915405273,0.19196464121341705,0.9877296686172485
1763696729188497200,10.6974970703125,-0.7822319269180298,0.1289324164390564,0.9091019630432129
1763696729198520000,10.70752001953125,-0.7971080541610718,0.047324370592832565,0.8136601448059082
1763696729208543000,10.71754296875,-0.7904344797134399,-0.027777303010225296,0.6924578547477722
1763696729218567000,10.72756689453125,-0.7626731395721436,-0.11891546845436096,0.5752944350242615
1763696729228590000,10.737590087890625,-0.7224359512329102,-0.23763199150562286,0.4686281979084015
1763696729238613000,10.747613037109375,-0.6803345680236816,-0.35819169878959656,0.37785300612449646
1763696729248636000,10.757635986328125,-0.6559016704559326,-0.4692889153957367,0.279183954000473
1763696729258660000,10.76766015625,-0.6660619378089905,-0.5688421726226807,0.16443315148353577
1763696729268683000,10.77768310546875,-0.7112547159194946,-0.6553144454956055,0.018678346648812294
1763696729278706200,10.7877060546875,-0.7838189005851746,-0.727817177772522,-0.15535897016525269
1763696729288729900,10.797729736328124,-0.8675697445869446,-0.7755335569381714,-0.3465704619884491
1763696729298753000,10.8077529296875,-0.9493024349212646,-0.8167265057563782,-0.535726010799408
1763696729308776000,10.81777587890625,-1.0063382387161255,-0.8483161330223083,-0.6996004581451416
1763696729318799000,10.827799072265625,-1.028624415397644,-0.8725855350494385,-0.8274526596069336
1763696729328822800,10.83782275390625,-1.0207339525222778,-0.873448371887207,-0.9146328568458557
1763696729338846000,10.847845947265625,-0.9898740649223328,-0.8385854959487915,-0.967815637588501
1763696729348868900,10.857868896484375,-0.9487468600273132,-0.780201256275177,-0.9889355897903442
1763696729358892000,10.86789208984375,-0.9103363752365112,-0.7148345112800598,-0.9904101490974426
1763696729368916000,10.877916015625,-0.8852651119232178,-0.634489893913269,-0.973638117313385
1763696729378939000,10.88793896484375,-0.8837801218032837,-0.5514040589332581,-0.9397382140159607
1763696729388962000,10.897962158203125,-0.903865396976471,-0.46446940302848816,-0.884649932384491
1763696729398986000,10.907986083984374,-0.93023681640625,-0.3613100051879883,-0.7990900278091431
1763696729409009000,10.9180087890625,-0.9478930830955505,-0.23088088631629944,-0.6900277137756348
1763696729419031800,10.92803173828125,-0.9416365027427673,-0.10393331944942474,-0.5794098377227783
1763696729429055000,10.938054931640625,-0.9199394583702087,0.01073839794844389,-0.48660585284233093
1763696729439079200,10.9480791015625,-0.8792886734008789,0.12172617018222809,-0.4346798062324524
1763696729449101800,10.958101806640625,-0.8252443671226501,0.20579417049884796,-0.41894346475601196
1763696729459125000,10.968125,-0.7622371912002563,0.26027047634124756,-0.41464805603027344
1763696729469148000,10.97814794921875,-0.6938714385032654,0.2703295052051544,-0.4034569263458252
1763696729479172000,10.988172119140625,-0.625163197517395,0.23372380435466766,-0.36779773235321045
1763696729489194800,10.99819482421875,-0.5638681650161743,0.1685171127319336,-0.3021926283836365
1763696729499218000,11.008218017578125,-0.5073652267456055,0.09922698140144348,-0.21277645230293274
1763696729509240800,11.01824072265625,-0.45413872599601746,0.030402380973100662,-0.11860121786594391
1763696729519265000,11.02826513671875,-0.41079020500183105,-0.026569291949272156,-0.052193429321050644
1763696729529288000,11.038287841796874,-0.39534786343574524,-0.07700716704130173,-0.016080433502793312
1763696729539310800,11.048310791015625,-0.41463208198547363,-0.11964011192321777,-0.0076147764921188354
1763696729549335000,11.0583349609375,-0.470872700214386,-0.13470828533172607,-0.0033332123421132565
1763696729559358000,11.06835791015625,-0.5525928735733032,-0.11553484946489334,0.008376440964639187
1763696729569381000,11.078381103515625,-0.6510770916938782,-0.04560583457350731,0.02991289086639881
1763696729579403800,11.08840380859375,-0.7484172582626343,0.06084896996617317,0.0637265145778656
1763696729589428000,11.098427978515625,-0.8222411274909973,0.17648661136627197,0.10071196407079697
1763696729599451100,11.108451171875,-0.8505422472953796,0.2857465445995331,0.13075055181980133
1763696729609474000,11.11847412109375,-0.8446117043495178,0.3906809389591217,0.14452522993087769
1763696729619497000,11.1284970703125,-0.8079495429992676,0.46580737829208374,0.13345633447170258
1763696729629521000,11.13852099609375,-0.7497930526733398,0.5049265623092651,0.09692841023206711
1763696729639544000,11.1485439453125,-0.6695453524589539,0.49651816487312317,0.04170456901192665
1763696729649567000,11.15856689453125,-0.5532459020614624,0.4583878219127655,-0.02177480421960354
1763696729659591000,11.1685908203125,-0.4065546989440918,0.40276050567626953,-0.08783184736967087
1763696729669614000,11.178614013671876,-0.24954484403133392,0.32162225246429443,-0.14249110221862793
1763696729679637000,11.188636962890625,-0.10288510471582413,0.2182239443063736,-0.17721392214298248
1763696729689660200,11.19866015625,0.018150508403778076,0.10804684460163116,-0.18065127730369568
1763696729699683800,11.208683837890625,0.09526366740465164,-0.021022727712988853,-0.15452513098716736
1763696729709707000,11.21870703125,0.11678067594766617,-0.14238351583480835,-0.09938278049230576
1763696729719730000,11.22872998046875,0.09564902633428574,-0.2311117798089981,-0.03356195613741875
1763696729729753000,11.238753173828124,0.057442255318164825,-0.27243179082870483,0.027544276788830757
1763696729739776800,11.24877685546875,0.013935789465904236,-0.2549859583377838,0.06729807704687119
1763696729749800000,11.258800048828125,-0.03838413953781128,-0.19378916919231415,0.06768370419740677
1763696729759822800,11.26882275390625,-0.0988626629114151,-0.11449142545461655,0.02250131405889988
1763696729769847000,11.278846923828125,-0.1557198166847229,-0.03658464178442955,-0.05177025496959686
1763696729779870000,11.288869873046876,-0.2015373706817627,0.03350682556629181,-0.13978266716003418
1763696729789892900,11.298892822265625,-0.2253684103488922,0.09695184975862503,-0.2178625613451004
1763696729799916000,11.308916015625,-0.22493191063404083,0.14392095804214478,-0.27185893058776855
1763696729809940000,11.31893994140625,-0.20459948480129242,0.13849397003650665,-0.30235108733177185
1763696729819963000,11.328962890625,-0.17289960384368896,0.09914921969175339,-0.3135738968849182
1763696729829985800,11.33898583984375,-0.13777650892734528,0.042826827615499496,-0.3152964413166046
1763696729840009000,11.349009033203124,-0.1181013360619545,-0.012007393874228,-0.32283130288124084
1763696729850033200,11.359033203125,-0.1265832483768463,-0.02611628919839859,-0.36261388659477234
1763696729860055800,11.369055908203125,-0.1603449285030365,0.005145759787410498,-0.4357844889163971
1763696729870079000,11.379078857421876,-0.2193661779165268,0.06521309167146683,-0.5284278988838196
1763696729880102000,11.389101806640625,-0.2952508330345154,0.1277981698513031,-0.6123299598693848
1763696729890126000,11.3991259765625,-0.36118829250335693,0.21678556501865387,-0.652127206325531
1763696729900149000,11.40914892578125,-0.41057369112968445,0.3125815987586975,-0.6372768878936768
1763696729910172000,11.419171875,-0.4435681104660034,0.42442426085472107,-0.5720938444137573
1763696729920196000,11.429196044921875,-0.46853312849998474,0.5430278778076172,-0.45227134227752686
1763696729930219000,11.439218994140624,-0.49787795543670654,0.6366419792175293,-0.2671922743320465
1763696729940242200,11.4492421875,-0.5444324016571045,0.7157098650932312,-0.007785485126078129
1763696729950264800,11.459264892578124,-0.6136961579322815,0.808367133140564,0.30572983622550964
1763696729960289000,11.4692890625,-0.7074106931686401,0.9234034419059753,0.6304258704185486
1763696729970312000,11.47931201171875,-0.8198956847190857,1.0502681732177734,0.9291704893112183
1763696729980335000,11.489335205078126,-0.9559504389762878,1.2049837112426758,1.1638070344924927
1763696729990357800,11.499357666015625,-1.103795051574707,1.3721586465835571,1.3133375644683838
1763696730000382000,11.5093818359375,-1.2452126741409302,1.5146722793579102,1.3657571077346802
1763696730010405000,11.519405029296875,-1.3656362295150757,1.611593246459961,1.3168487548828125
1763696730020428000,11.529427978515624,-1.45213782787323,1.6134660243988037,1.1815481185913086
1763696730030451000,11.539450927734375,-1.4742913246154785,1.5227502584457397,0.9856196641921997
1763696730040475000,11.549474853515624,-1.4241024255752563,1.3722717761993408,0.7503176927566528
1763696730050498000,11.559498046875,-1.312764286994934,1.187178611755371,0.48744556307792664
1763696730060521000,11.56952099609375,-1.1609808206558228,0.9840710163116455,0.21764923632144928
1763696730070545000,11.579544921875,-0.9798097014427185,0.772508978843689,-0.05921192467212677
1763696730080568000,11.589568115234375,-0.7763745784759521,0.5714078545570374,-0.3404041826725006
1763696730090591000,11.599591064453126,-0.549237847328186,0.37889885902404785,-0.6204329133033752
1763696730100614100,11.6096142578125,-0.30316200852394104,0.18499888479709625,-0.8866086602210999
1763696730110637800,11.619637939453124,-0.05476284772157669,-0.026443324983119965,-1.1073956489562988
1763696730120661000,11.629660888671875,0.19738870859146118,-0.2535763382911682,-1.255700707435608
1763696730130684000,11.639683837890624,0.44843772053718567,-0.4708769619464874,-1.3214291334152222
1763696730140707000,11.64970703125,0.6899994611740112,-0.6546872854232788,-1.3196977376937866
1763696730150730800,11.659730712890624,0.8986565470695496,-0.7801099419593811,-1.2741007804870605
1763696730160754000,11.66975390625,1.0640980005264282,-0.8471238613128662,-1.2107478380203247
1763696730170776800,11.67977685546875,1.1715922355651855,-0.854915976524353,-1.153856873512268
1763696730180800000,11.689800048828126,1.2182800769805908,-0.8349883556365967,-1.1158852577209473
1763696730190824000,11.699823974609375,1.2118512392044067,-0.7864128351211548,-1.1000125408172607
1763696730200846800,11.709846923828126,1.1580908298492432,-0.7291234135627747,-1.0865391492843628
1763696730210870000,11.7198701171875,1.080391764640808,-0.6719549298286438,-1.0621190071105957
1763696730220894000,11.72989404296875,0.9993125796318054,-0.5938481688499451,-0.9984896779060364
1763696730230916900,11.739916748046875,0.9286738038063049,-0.5124323964118958,-0.8838887810707092
1763696730240939800,11.749939697265624,0.885033130645752,-0.4163769781589508,-0.7300757765769958
1763696730250963000,11.759962890625,0.8633036017417908,-0.3027611970901489,-0.5556528568267822
1763696730260987100,11.769987060546875,0.8544771075248718,-0.18332241475582123,-0.4026835262775421
1763696730271010000,11.780010009765626,0.8497156500816345,-0.05889900401234627,-0.2934510409832001
1763696730281033000,11.790032958984375,0.8510432243347168,0.09111286699771881,-0.24371519684791565
1763696730291055900,11.800055908203126,0.840579092502594,0.24449096620082855,-0.25534123182296753
1763696730301080000,11.810080078125,0.8071644306182861,0.3503026068210602,-0.3045969307422638
1763696730311103000,11.82010302734375,0.7552980184555054,0.4263995289802551,-0.37090322375297546
1763696730321126000,11.8301259765625,0.6934376358985901,0.47510552406311035,-0.43579062819480896
1763696730331148800,11.840148681640626,0.6363524794578552,0.5069284439086914,-0.4915606677532196
1763696730341173000,11.850173095703125,0.5997382998466492,0.5228506922721863,-0.5409418344497681
1763696730351196200,11.860196044921874,0.5858730673789978,0.5374075174331665,-0.5920478701591492
1763696730361218800,11.87021875,0.5994786024093628,0.526757001876831,-0.6338392496109009
1763696730371243000,11.880242919921875,0.640473484992981,0.4971916675567627,-0.6518172025680542
1763696730381266000,11.890265869140626,0.6908658146858215,0.4504092335700989,-0.6287856698036194
1763696730391289000,11.9002890625,0.7375246286392212,0.3560771644115448,-0.5594366788864136
1763696730401312000,11.91031201171875,0.7710695266723633,0.23177064955234528,-0.45748206973075867
1763696730411336000,11.9203359375,0.7886975407600403,0.11611995100975037,-0.34398239850997925
1763696730421359000,11.930359130859374,0.7759740352630615,0.0038011297583580017,-0.2540237605571747
1763696730431382000,11.940382080078125,0.7229781746864319,-0.10234607756137848,-0.2072937935590744
1763696730441405200,11.9504052734375,0.6299592852592468,-0.203270822763443,-0.20741523802280426
1763696730451428900,11.960428955078125,0.5135767459869385,-0.29802796244621277,-0.24047093093395233
1763696730461452000,11.9704521484375,0.39610207080841064,-0.3784423768520355,-0.2829478085041046
1763696730471475000,11.980474853515625,0.297826886177063,-0.44442617893218994,-0.31035172939300537
1763696730481498000,11.990498046875,0.23906157910823822,-0.48544180393218994,-0.3180226981639862
1763696730491522000,12.00052197265625,0.22930268943309784,-0.4982050061225891,-0.30358996987342834
1763696730501545000,12.010544921875,0.24814003705978394,-0.5050157904624939,-0.27868250012397766
1763696730511568100,12.020568115234376,0.27188050746917725,-0.49048101902008057,-0.2573971748352051
1763696730521591800,12.030591796875,0.28630340099334717,-0.4713805615901947,-0.24761778116226196
1763696730531615000,12.040614990234374,0.2750036120414734,-0.44823476672172546,-0.25409433245658875
1763696730541638000,12.050637939453125,0.24500122666358948,-0.41543900966644287,-0.2729519009590149
1763696730551661000,12.0606611328125,0.190679669380188,-0.37862375378608704,-0.30294308066368103
1763696730561684700,12.070684814453125,0.11894716322422028,-0.34735050797462463,-0.3454175889492035
1763696730571708000,12.0807080078125,0.040044620633125305,-0.32596319913864136,-0.38956665992736816
1763696730581730800,12.090730712890625,-0.036672793328762054,-0.3120596408843994,-0.4343642294406891
1763696730591754000,12.10075390625,-0.09217040985822678,-0.31092432141304016,-0.4679589569568634
1763696730601778000,12.11077783203125,-0.11787071079015732,-0.3220379650592804,-0.48041802644729614
1763696730611800800,12.12080078125,-0.11676549911499023,-0.35487473011016846,-0.4685802459716797
1763696730621824000,12.130823974609376,-0.0931435227394104,-0.397493839263916,-0.4358161985874176
1763696730631847000,12.140846923828125,-0.06568500399589539,-0.45174136757850647,-0.39742299914360046
1763696730641870800,12.150870849609374,-0.0505012571811676,-0.5044525265693665,-0.3746598958969116
1763696730651893800,12.160893798828125,-0.049430932849645615,-0.5256126523017883,-0.37251603603363037
1763696730661917000,12.1709169921875,-0.053830210119485855,-0.5137978196144104,-0.40029922127723694
1763696730671939800,12.18093994140625,-0.06083352118730545,-0.46834030747413635,-0.4468352794647217
1763696730681964000,12.190964111328125,-0.07500766217708588,-0.41350290179252625,-0.4950270354747772
1763696730691987000,12.200987060546876,-0.08625206351280212,-0.3637172281742096,-0.5396952033042908
1763696730702009900,12.211009765625,-0.07628358900547028,-0.32734644412994385,-0.590491771697998
1763696730712034000,12.221033935546876,-0.04494696855545044,-0.3061665892601013,-0.6664909720420837
1763696730722057000,12.231056884765625,-0.0003046656202059239,-0.31041380763053894,-0.7805107235908508
1763696730732079900,12.241079833984376,0.04958566278219223,-0.35407552123069763,-0.917374849319458
1763696730742102800,12.251102783203125,0.09735265374183655,-0.4437689185142517,-1.0641666650772095
1763696730752127000,12.261126953125,0.12654249370098114,-0.5874105095863342,-1.1951510906219482
1763696730762150100,12.271150146484375,0.14347434043884277,-0.7520862817764282,-1.278485655784607
1763696730772172800,12.2811728515625,0.15411153435707092,-0.9130014181137085,-1.2906568050384521
1763696730782196000,12.291196044921875,0.17957349121570587,-1.052770733833313,-1.2218931913375854
1763696730792220200,12.30122021484375,0.23075731098651886,-1.1353100538253784,-1.0822300910949707
1763696730802243000,12.3112431640625,0.3014695644378662,-1.1554803848266602,-0.8954687118530273
1763696730812266000,12.321265869140625,0.38413727283477783,-1.1207314729690552,-0.6816086173057556
1763696730822289000,12.331288818359376,0.46016600728034973,-1.0296217203140259,-0.4702625870704651
1763696730832313000,12.34131298828125,0.5198261141777039,-0.9126604795455933,-0.2709180414676666
1763696730842336300,12.351336181640624,0.5596206784248352,-0.7726860642433167,-0.08293509483337402
1763696730852359200,12.361359130859375,0.5802242159843445,-0.5963262319564819,0.09909968823194504
1763696730862382000,12.371382080078124,0.5709625482559204,-0.42031899094581604,0.28386688232421875
1763696730872406000,12.381406005859375,0.5263945460319519,-0.27366483211517334,0.46513572335243225
1763696730882429200,12.39142919921875,0.46125471591949463,-0.14154833555221558,0.6419094204902649
1763696730892452000,12.4014521484375,0.3799060583114624,-0.023925572633743286,0.807910144329071
1763696730902476000,12.41147607421875,0.27624329924583435,0.08308210223913193,0.9549275636672974
1763696730912499200,12.421499267578126,0.1425638049840927,0.1591142863035202,1.0811611413955688
1763696730922522000,12.431522216796875,-0.019275160506367683,0.19343097507953644,1.182681918144226
1763696730932545300,12.441545166015626,-0.1819266527891159,0.2123761773109436,1.2584059238433838
1763696730942569000,12.45156884765625,-0.3231378495693207,0.21230027079582214,1.2974624633789062
1763696730952592100,12.461592041015624,-0.43512189388275146,0.17170970141887665,1.3084155321121216
1763696730962615000,12.471614990234375,-0.52503502368927,0.1281755417585373,1.2893476486206055
1763696730972638200,12.48163818359375,-0.5810927152633667,0.11915302276611328,1.2546327114105225
1763696730982662100,12.491662109375,-0.5974061489105225,0.12216585874557495,1.2043522596359253
