time,seconds_elapsed,z,y,x
1763692621076634000,0.098634033203125,0,0,0
1763692621086714000,0.108714111328125,-0.04210090637207031,-0.11130738258361816,0.21182584762573242
1763692621106869500,0.128869384765625,-0.2513465881347656,0.06543350219726562,0.2739832401275635
1763692621127047400,0.14904736328125,0.046108245849609375,0.09225058555603027,0.3185746669769287
1763692621147219200,0.16921923828125,0.7721996307373047,0.12028956413269043,0.38451552391052246
1763692621157271600,0.179271484375,0.8431110382080078,0.23866701126098633,-0.028624534606933594
1763692621167351600,0.1893515625,0.6068305969238281,0.24209809303283691,-0.4674525260925293
1763692621177431600,0.199431640625,0.6421041488647461,0.07737517356872559,-0.2800590991973877
1763692621187532800,0.20953271484375,0.8601589202880859,-0.14249444007873535,-0.09380865097045898
1763692621197612800,0.21961279296875,0.9955921173095703,-0.26856231689453125,-0.4723668098449707
1763692621207692800,0.22969287109375,1.027552604675293,-0.15740203857421875,-0.8724319934844971
1763692621218358300,0.240358154296875,0.5802059173583984,-0.12737345695495605,-1.2478151321411133
1763692621228438300,0.250438232421875,0.2524375915527344,-0.08000683784484863,-0.7023792266845703
1763692621238518300,0.260518310546875,0.2953500747680664,-0.02017521858215332,0.3405444622039795
1763692621248602000,0.27060205078125,0.1548595428466797,0.1157228946685791,0.8494117259979248
1763692621258682000,0.28068212890625,-0.09123802185058594,0.3036661148071289,0.89375901222229
1763692621268762000,0.29076220703125,-0.06758308410644531,0.45092105865478516,0.8874784708023071
1763692621278268700,0.3002685546875,-0.08153343200683594,0.4983241558074951,0.9127986431121826
1763692621288348700,0.3103486328125,-0.052303314208984375,0.543647050857544,1.0873942375183105
1763692621298428700,0.3204287109375,-0.26135921478271484,0.5972557067871094,0.6665478944778442
1763692621308480800,0.330480712890625,-1.2041864395141602,0.8995449542999268,-1.1873257160186768
1763692621318560800,0.340560791015625,-2.1270980834960938,1.1823666095733643,-1.727480411529541
1763692621328640800,0.350640869140625,-2.4441657066345215,1.020721197128296,-0.5207865238189697
1763692621338731500,0.3607314453125,-2.232949733734131,0.8939926624298096,0.7412179708480835
1763692621348811500,0.3708115234375,-2.033196449279785,0.922205924987793,0.929550290107727
1763692621358891500,0.3808916015625,-1.946812629699707,1.0132505893707275,0.20562148094177246
1763692621368981800,0.390981689453125,-1.8205113410949707,1.1994736194610596,-0.48070192337036133
1763692621379061800,0.401061767578125,-1.1941752433776855,1.2762510776519775,-0.5205576419830322
1763692621389142000,0.41114208984375,-0.40671825408935547,1.0862808227539062,-0.4800751209259033
1763692621399212800,0.421212890625,0.17584896087646484,0.8971798419952393,-0.9053101539611816
1763692621409292800,0.431292724609375,0.6525001525878906,0.7768456935882568,-1.2952473163604736
1763692621419372800,0.441372802734375,1.0400209426879883,0.6307082176208496,-0.9029698371887207
1763692621429450200,0.4514501953125,1.1866331100463867,0.4368581771850586,-0.35489845275878906
1763692621439530200,0.4615302734375,1.069046974182129,0.36246705055236816,-0.03135180473327637
1763692621449610200,0.4716103515625,0.9154148101806641,0.3368391990661621,0.20666122436523438
1763692621459689000,0.48168896484375,1.0633773803710938,0.35283970832824707,0.5454384088516235
1763692621469769000,0.49176904296875,1.1530170440673828,0.5442285537719727,0.4902527332305908
1763692621479849000,0.501848876953125,1.123316764831543,0.7046108245849609,0.35333919525146484
1763692621489933800,0.511933837890625,1.0560836791992188,0.7007875442504883,0.50235915184021
1763692621500013800,0.522013916015625,0.9726142883300781,0.6220338344573975,0.7006745338439941
1763692621510093800,0.53209375,0.7936363220214844,0.5073356628417969,0.8248934745788574
1763692621520174600,0.542174560546875,0.6206560134887695,0.38117170333862305,0.635602593421936
1763692621530254600,0.552254638671875,0.40209102630615234,0.3438839912414551,0.300678014755249
1763692621540334600,0.56233447265625,-0.22216510772705078,0.5892519950866699,0.12064623832702637
1763692621550416000,0.572415771484375,-0.9791083335876465,0.6555023193359375,0.0671236515045166
1763692621560495900,0.582495849609375,-1.1723675727844238,0.37022829055786133,0.09111905097961426
1763692621570576100,0.592576171875,-1.0781030654907227,0.12309789657592773,0.17847275733947754
1763692621580664800,0.602664794921875,-0.7172584533691406,0.22629308700561523,-0.0929567813873291
1763692621590744800,0.612744873046875,-0.2370615005493164,0.31658935546875,-0.36886119842529297
1763692621600824800,0.622824951171875,0.07258987426757812,0.22986507415771484,-0.19124841690063477
1763692621610900200,0.632900146484375,0.31633853912353516,0.24090957641601562,0.05527639389038086
1763692621620980200,0.642980224609375,0.6136550903320312,0.28511476516723633,0.3274800777435303
1763692621631060200,0.653060302734375,0.6591224670410156,0.1918790340423584,0.8168668746948242
1763692621641168600,0.663168701171875,0.3852834701538086,-0.10335731506347656,1.8036731481552124
1763692621651248600,0.67324853515625,-0.12265396118164062,-0.29826879501342773,2.8227880001068115
1763692621661328600,0.68332861328125,-0.7724723815917969,-0.6267273426055908,3.514052391052246
1763692621671397000,0.693397216796875,-1.451101303100586,-1.233633041381836,3.979605197906494
1763692621681477000,0.70347705078125,-2.2343802452087402,-1.6166176795959473,3.6816980838775635
1763692621691557400,0.713557373046875,-2.7323532104492188,-1.3732120990753174,1.5153167247772217
1763692621701625600,0.72362548828125,-2.2036194801330566,-0.7351229190826416,-2.291792869567871
1763692621711705600,0.73370556640625,-0.6731276512145996,-0.5759289264678955,-5.35645055770874
1763692621721785600,0.74378564453125,1.227902889251709,-1.055232048034668,-6.508270263671875
1763692621731844900,0.753844970703125,2.445521354675293,-1.7166389226913452,-4.918285846710205
1763692621741924900,0.7639248046875,2.9782228469848633,-1.953017234802246,-1.3870205879211426
1763692621752005000,0.774005126953125,3.2235007286071777,-2.2084808349609375,1.2946534156799316
1763692621762081800,0.784081787109375,2.294297695159912,-2.012991189956665,1.2059144973754883
1763692621772161800,0.794161865234375,0.5914301872253418,-1.3759596347808838,1.421504020690918
1763692621782241800,0.80424169921875,-0.8712081909179688,-0.6637487411499023,1.9056916236877441
1763692621792354000,0.81435400390625,-1.553767204284668,-0.18598008155822754,2.167153835296631
1763692621802434000,0.82443408203125,-1.8934855461120605,-0.23173284530639648,1.5095562934875488
1763692621812514000,0.83451416015625,-1.7963504791259766,-0.12018322944641113,-0.23304462432861328
1763692621822588000,0.844587890625,-1.6178112030029297,0.1520709991455078,-0.6510276794433594
1763692621832668000,0.85466796875,-1.024947166442871,0.32416534423828125,-0.11413049697875977
1763692621842748000,0.864747802734375,0.09166812896728516,0.16760408878326416,-0.42882537841796875
1763692621852833300,0.874833251953125,1.1506505012512207,-0.15978479385375977,-0.9190444946289062
1763692621862913300,0.884913330078125,1.3217062950134277,-0.516892671585083,-0.4520277976989746
1763692621872993300,0.8949931640625,1.5563764572143555,-0.9446703195571899,-0.35895872116088867
1763692621893116200,0.9151162109375,2.4770689010620117,-1.0003873109817505,-0.8207216262817383
1763692621903196200,0.925196044921875,2.87794828414917,-0.6036228537559509,-1.2208800315856934
1763692621913304800,0.935304931640625,4.000790119171143,-0.48180752992630005,-1.7812833786010742
1763692621923384800,0.945384765625,5.240786552429199,-0.27683183550834656,-1.7829923629760742
1763692621933465000,0.955465087890625,5.119232177734375,-0.3126152753829956,-0.8729324340820312
1763692621943597800,0.965597900390625,4.5118865966796875,-0.757107138633728,-0.5847229957580566
1763692621953677800,0.975677734375,4.417254447937012,-0.9793848395347595,0.020752429962158203
1763692621963757800,0.9857578125,4.400774002075195,-1.3952385187149048,-0.8684616088867188
1763692621973761500,0.995761474609375,3.931856155395508,-1.346590518951416,-1.0569472312927246
1763692621983841500,1.005841552734375,3.1636781692504883,-0.9223891496658325,0.5962939262390137
1763692621993921500,1.015921630859375,2.376715660095215,-0.6973086595535278,1.9190750122070312
1763692622004028000,1.02602783203125,1.4688491821289062,-0.7670097351074219,2.5446207523345947
1763692622014108000,1.03610791015625,0.5116338729858398,-0.6512244939804077,2.715235710144043
1763692622034281000,1.056281005859375,0.3918275833129883,0.5056729316711426,0.6059317588806152
1763692622044361000,1.06636083984375,-0.2647695541381836,0.6952669024467468,0.7580869197845459
1763692622054441000,1.07644091796875,-2.1230688095092773,0.5894340872764587,1.6742537021636963
1763692622064486000,1.08648583984375,-3.4256691932678223,0.10940146446228027,2.4765138626098633
1763692622074566000,1.09656591796875,-3.333678722381592,0.078208327293396,2.0897960662841797
1763692622084646000,1.10664599609375,-2.810084819793701,0.6901483535766602,1.328495979309082
1763692622094759400,1.116759521484375,-1.7979063987731934,1.0737178325653076,0.781177282333374
1763692622104839400,1.12683935546875,-1.1267004013061523,1.110564947128296,0.5973637104034424
1763692622114919400,1.13691943359375,-0.998528003692627,0.8601651191711426,-0.010857105255126953
1763692622124967000,1.146966796875,-0.3770761489868164,0.49849414825439453,-0.44408178329467773
1763692622135047000,1.157046875,0.27646350860595703,0.344027042388916,-0.09404993057250977
1763692622145127000,1.167126953125,0.4467639923095703,0.14401531219482422,0.31473875045776367
1763692622165389800,1.187389892578125,1.105696678161621,-0.44852185249328613,0.06679821014404297
1763692622175470000,1.197469970703125,1.3334217071533203,-0.5981521606445312,0.5210409164428711
1763692622185440000,1.20743994140625,1.5163383483886719,-0.6995408535003662,0.8691411018371582
1763692622195520300,1.217520263671875,1.6840400695800781,-0.7064969539642334,0.4969515800476074
1763692622205600500,1.2276005859375,1.9181127548217773,-0.5886950492858887,0.010019302368164062
1763692622215730200,1.237730224609375,1.9176387786865234,-0.4915804862976074,-0.21839237213134766
1763692622225810400,1.247810546875,1.5387535095214844,-0.3821678161621094,-0.44487524032592773
1763692622235890700,1.257890625,0.9903125762939453,-0.24827051162719727,-0.5068564414978027
1763692622245957600,1.26795751953125,0.6498594284057617,-0.2692677974700928,-0.48586559295654297
1763692622256038000,1.278037841796875,0.5149631500244141,-0.2801048755645752,-0.49002933502197266
1763692622266118100,1.2881181640625,0.38434553146362305,-0.2848856449127197,-0.46387624740600586
1763692622276184800,1.298184814453125,0.2044053077697754,-0.2743041515350342,-0.38332271575927734
1763692622286265000,1.30826513671875,0.115081787109375,-0.24617409706115723,-0.3492302894592285
1763692622296345300,1.318345458984375,0.13991880416870117,-0.2240607738494873,-0.2720150947570801
1763692622306378500,1.32837841796875,-0.044954776763916016,-0.23973393440246582,-0.10921287536621094
1763692622316458800,1.338458740234375,-0.32549238204956055,-0.29644322395324707,-0.041805267333984375
1763692622326539000,1.3485390625,-0.41075611114501953,-0.31274890899658203,-0.11068964004516602
1763692622336668400,1.35866845703125,-0.35488414764404297,-0.30017805099487305,-0.3797917366027832
1763692622346748700,1.368748779296875,-0.4144120216369629,-0.41896533966064453,-0.7546072006225586
1763692622356829000,1.378828857421875,-0.3088192939758301,-0.5738022327423096,-1.1113224029541016
1763692622366897400,1.3888974609375,-0.08139181137084961,-0.6140601634979248,-1.5314464569091797
1763692622376977700,1.398977783203125,0.029296875,-0.5405781269073486,-1.7837958335876465
1763692622387058000,1.409057861328125,-0.1418299674987793,-0.45346522331237793,-1.7937560081481934
1763692622397136100,1.41913623046875,-0.5627045631408691,-0.3117988109588623,-1.6487960815429688
1763692622407216400,1.42921630859375,-0.9740777015686035,-0.15167593955993652,-1.3220276832580566
1763692622417296600,1.439296630859375,-1.024977207183838,-0.07596492767333984,-0.7865209579467773
1763692622428001500,1.45000146484375,-0.8263254165649414,-0.09156084060668945,-0.30386829376220703
1763692622438081800,1.460081787109375,-0.8011741638183594,-0.1662609577178955,0.3102540969848633
1763692622448162000,1.470162109375,-1.1027588844299316,-0.28374218940734863,0.9896535873413086
1763692622458208000,1.4802080078125,-1.438279628753662,-0.3039367198944092,1.4401087760925293
1763692622468288300,1.490288330078125,-1.664985179901123,-0.1638164520263672,1.6237163543701172
1763692622478368500,1.500368408203125,-1.7617230415344238,-0.002559661865234375,1.497377872467041
1763692622488457700,1.510457763671875,-1.951190710067749,0.06126832962036133,1.128586769104004
1763692622498538000,1.5205380859375,-2.174799919128418,0.05662393569946289,0.6664180755615234
1763692622508618500,1.530618408203125,-2.24798846244812,0.12250709533691406,0.2063889503479004
1763692622518678800,1.5406787109375,-2.1164867877960205,0.047284603118896484,-0.2757110595703125
1763692622528759000,1.550759033203125,-1.5057086944580078,-0.23600530624389648,-0.7497282028198242
1763692622538839300,1.56083935546875,-0.7655158042907715,-0.5331003665924072,-1.067349910736084
1763692622548363800,1.57036376953125,-0.0976109504699707,-0.7890903949737549,-1.279118537902832
1763692622558444000,1.580444091796875,0.6351227760314941,-0.6863462924957275,-1.4468994140625
1763692622568524300,1.590524169921875,1.0542397499084473,-0.18615937232971191,-1.7328276634216309
1763692622578601000,1.60060107421875,1.2853021621704102,0.11458063125610352,-1.659496784210205
1763692622588681200,1.61068115234375,1.4504356384277344,0.09087324142456055,-1.005448818206787
1763692622598761500,1.620761474609375,1.02392578125,-0.23206257820129395,0.02902841567993164
1763692622608800300,1.63080029296875,0.2927432060241699,-0.35390543937683105,1.4642963409423828
1763692622618880500,1.640880615234375,-0.35138559341430664,-0.07651996612548828,2.063528060913086
1763692622628960800,1.650960693359375,-0.9545459747314453,0.13100576400756836,2.0595312118530273
1763692622639051800,1.6610517578125,-1.5604984760284424,0.19555377960205078,1.7955951690673828
1763692622649132000,1.671132080078125,-1.5459578037261963,0.28682804107666016,1.5240564346313477
1763692622659212300,1.68121240234375,-1.1684770584106445,0.3897113800048828,1.1493926048278809
1763692622669310000,1.69131005859375,-0.8687953948974609,0.5662612915039062,0.9875259399414062
1763692622679390200,1.70139013671875,-0.9401016235351562,0.8540735244750977,0.8835792541503906
1763692622689470500,1.711470458984375,-1.0407373905181885,1.072296142578125,0.6011734008789062
1763692622699549700,1.7215498046875,-1.1383726596832275,1.0997157096862793,0.7162179946899414
1763692622709630000,1.7316298828125,-1.2325479984283447,1.004584789276123,0.9123120307922363
1763692622719710200,1.741710205078125,-1.0829460620880127,0.7771625518798828,0.96759033203125
1763692622729791000,1.751791015625,-0.7648203372955322,0.6927752494812012,0.751744270324707
1763692622739871200,1.761871337890625,-0.1375255584716797,0.8211150169372559,-0.10389232635498047
1763692622749951500,1.771951416015625,0.5910549163818359,0.9235506057739258,-0.9285945892333984
1763692622760036600,1.78203662109375,1.1245498657226562,0.8844466209411621,-1.1333346366882324
1763692622770116900,1.792116943359375,1.3162651062011719,0.6571526527404785,-0.8787002563476562
1763692622780197000,1.802197021484375,1.003981590270996,0.29726457595825195,-0.4958610534667969
1763692622790275000,1.812275146484375,0.5461821556091309,0.03652763366699219,-0.35326290130615234
1763692622800355300,1.822355224609375,0.7547526359558105,-0.0337977409362793,-0.4408531188964844
1763692622810435600,1.832435546875,0.879051685333252,0.14116191864013672,-0.49707698822021484
1763692622820524000,1.84252392578125,0.7463040351867676,0.20916366577148438,-0.5936427116394043
1763692622830604300,1.852604248046875,0.5866446495056152,0.25055742263793945,-0.5153131484985352
1763692622840684500,1.8626845703125,0.10257434844970703,0.5780916213989258,-0.5381102561950684
1763692622850754800,1.8727548828125,-0.33277106285095215,0.6585841178894043,-0.6301889419555664
1763692622860835000,1.8828349609375,-0.38533854484558105,0.6324677467346191,-0.40583181381225586
1763692622870915300,1.892915283203125,-0.1488950252532959,0.5043559074401855,-0.4304943084716797
1763692622880993300,1.9029931640625,0.3797779083251953,0.3957524299621582,-0.8452401161193848
1763692622891073500,1.913073486328125,0.9569535255432129,0.518059253692627,-1.1048908233642578
1763692622901153800,1.92315380859375,1.335373878479004,0.6628408432006836,-1.0800957679748535
1763692622911241700,1.93324169921875,1.2196331024169922,0.586644172668457,-0.730250358581543
1763692622921322000,1.943322021484375,0.7648119926452637,0.4387173652648926,-0.3599681854248047
1763692622931402200,1.95340234375,-2.732311725616455,0.44220972061157227,-0.17266321182250977
1763692622941486300,1.963486328125,-0.12237381935119629,0.8091416358947754,0.7020764350891113
1763692622951566600,1.973566650390625,0.7397947311401367,0.6108465194702148,0.017092227935791016
1763692622961646800,1.983646728515625,-0.6911213397979736,0.7035393714904785,-0.8113307952880859
1763692622971718400,1.993718505859375,1.7275073528289795,-0.32381725311279297,-0.3161888122558594
1763692622981798700,2.003798583984375,2.4071969985961914,-0.8473587036132812,-1.2032570838928223
1763692622991879000,2.01387890625,2.606640100479126,-0.6300320625305176,-2.2391223907470703
1763692623001960700,2.023960693359375,2.7521629333496094,-0.407285213470459,-2.5072898864746094
1763692623012041000,2.034041015625,1.7653298377990723,-0.6388859748840332,-1.9297609329223633
1763692623022121200,2.044121337890625,0.5339264869689941,-0.9364681243896484,-0.46039533615112305
1763692623032192300,2.054192138671875,-0.1563277244567871,-1.0422906875610352,1.0054950714111328
1763692623042272500,2.0642724609375,-0.15753746032714844,-1.147697925567627,2.125741481781006
1763692623052352800,2.074352783203125,0.44435977935791016,-1.172086238861084,2.8090405464172363
1763692623062440000,2.08443994140625,1.136075735092163,-1.1874470710754395,3.07265567779541
1763692623072520200,2.094520263671875,1.6631689071655273,-1.3724467754364014,2.788228988647461
1763692623082600400,2.104600341796875,1.9990980625152588,-1.381284475326538,2.1190919876098633
1763692623092682200,2.11468212890625,1.932703971862793,-1.1898126602172852,1.354349136352539
1763692623102762500,2.124762451171875,1.5445172786712646,-1.12361478805542,0.8394284248352051
1763692623112842800,2.1348427734375,0.8553729057312012,-1.1979434490203857,0.5946083068847656
1763692623122923000,2.144923095703125,0.38469767570495605,-1.197082757949829,0.21669960021972656
1763692623133003300,2.155003173828125,0.38306188583374023,-1.0176124572753906,0.010563373565673828
1763692623143083500,2.16508349609375,0.4542114734649658,-0.9565482139587402,0.18089771270751953
1763692623153174000,2.175174072265625,0.6801791191101074,-0.997992992401123,0.4450211524963379
1763692623163254300,2.185254150390625,1.0559537410736084,-0.9066529273986816,0.7185573577880859
1763692623173334500,2.19533447265625,1.012726068496704,-0.8314924240112305,1.2279224395751953
1763692623183405300,2.2054052734375,0.309706449508667,-0.7005681991577148,1.7268757820129395
1763692623193485300,2.2154853515625,-0.29900360107421875,-0.5417160987854004,2.0477499961853027
1763692623203565300,2.2255654296875,-0.38783764839172363,-0.48843812942504883,2.0934815406799316
1763692623213644500,2.23564453125,-0.08047819137573242,-0.4043092727661133,1.7921090126037598
1763692623223724500,2.245724609375,0.3271961212158203,-0.3475189208984375,1.454780101776123
1763692623233804800,2.2558046875,0.6760377883911133,-0.30290651321411133,1.1430530548095703
1763692623243878000,2.2658779296875,0.8889081478118896,-0.1482677459716797,0.8696980476379395
1763692623253958100,2.275958251953125,0.9934628009796143,-0.022020816802978516,0.8633303642272949
1763692623264038100,2.2860380859375,0.9618141651153564,0.06574630737304688,1.1098966598510742
1763692623284202500,2.306202392578125,0.19258570671081543,0.7739663124084473,1.5476188659667969
1763692623294282800,2.31628271484375,-0.34559154510498047,0.9528803825378418,1.4134411811828613
1763692623304347000,2.326346923828125,-0.7136013507843018,1.0299997329711914,1.0859370231628418
1763692623314427000,2.336427001953125,-0.7203841209411621,1.1415538787841797,0.7265229225158691
1763692623324507100,2.346507080078125,-0.5816431045532227,1.2104811668395996,0.21884632110595703
1763692623334633500,2.356633544921875,-0.7280125617980957,1.0136394500732422,-0.2749624252319336
1763692623344713500,2.36671337890625,0.4035606384277344,0.5329713821411133,-0.7060117721557617
1763692623354793500,2.37679345703125,1.9925379753112793,0.2272171974182129,-0.9173812866210938
1763692623364835300,2.38683544921875,2.4610605239868164,0.28826284408569336,-0.6052055358886719
1763692623374915300,2.396915283203125,2.2946126461029053,0.14829111099243164,-0.2539339065551758
1763692623384995300,2.406995361328125,1.824251413345337,0.024010181427001953,-0.18604087829589844
1763692623395051300,2.41705126953125,-2.5219082832336426,0.038372039794921875,-0.15868568420410156
1763692623415211500,2.43721142578125,1.0280730724334717,0.771723747253418,-1.26971435546875
1763692623425335000,2.4473349609375,0.06749963760375977,0.8844828605651855,-1.2024602890014648
1763692623435415300,2.457415283203125,-0.25070905685424805,0.8819665908813477,-1.7547807693481445
1763692623445495300,2.467495361328125,-0.012817859649658203,0.7462434768676758,-1.957143783569336
1763692623455564000,2.47756396484375,0.13292431831359863,0.6291284561157227,-1.6572265625
1763692623465644000,2.48764404296875,0.333050012588501,0.5937709808349609,-1.5490007400512695
1763692623475724000,2.49772412109375,0.3779158592224121,0.7514677047729492,-1.4252958297729492
1763692623485820000,2.50781982421875,0.4311637878417969,0.9933910369873047,-1.3813114166259766
1763692623495900000,2.51789990234375,0.258497953414917,0.987147331237793,-1.5445709228515625
1763692623505980200,2.527980224609375,-0.15247631072998047,0.7057623863220215,-1.812047004699707
1763692623516034600,2.53803466796875,-0.35505032539367676,0.3721933364868164,-1.9256162643432617
1763692623526114600,2.548114501953125,-0.48875951766967773,0.0018644332885742188,-1.6513042449951172
1763692623536194800,2.55819482421875,-0.4690577983856201,-0.41017580032348633,-1.6503229141235352
1763692623546316300,2.56831640625,-0.46355581283569336,-0.780813455581665,-1.9825220108032227
1763692623556396500,2.578396484375,-0.5197107791900635,-0.8393056392669678,-2.2436695098876953
1763692623566476500,2.5884765625,-0.8298063278198242,-0.6998045444488525,-2.1546592712402344
1763692623576509000,2.598509033203125,-1.068310260772705,-0.9167478084564209,-1.990004539489746
1763692623586589000,2.6085888671875,-1.0687315464019775,-1.0000956058502197,-1.3040695190429688
1763692623606772500,2.6287724609375,-1.1400187015533447,-1.374889612197876,-0.3151826858520508
1763692623616852700,2.638852783203125,-1.645904779434204,-1.115375280380249,0.5258440971374512
1763692623626932700,2.6489326171875,-2.037925958633423,-1.2470118999481201,1.2372798919677734
1763692623637006600,2.659006591796875,-2.528825044631958,-1.867004156112671,1.5244135856628418
1763692623647086600,2.669086669921875,-2.9637222290039062,-1.9694902896881104,1.2061643600463867
1763692623657166600,2.67916650390625,-2.856114149093628,-1.245957612991333,1.1517086029052734
1763692623667252700,2.689252685546875,-2.165806770324707,-1.4921715259552002,1.2123165130615234
1763692623677332700,2.699332763671875,-1.423295497894287,-1.6169140338897705,1.06077241897583
1763692623687413000,2.7094130859375,-0.9345883131027222,-1.4817063808441162,0.7453727722167969
1763692623698123000,2.720123046875,-0.5668656826019287,-1.187040090560913,0.38172435760498047
1763692623708203300,2.730203369140625,-0.6048041582107544,-1.1290810108184814,0.6043615341186523
1763692623718283300,2.740283203125,-0.6857695579528809,-1.4393770694732666,1.179943561553955
1763692623737811000,2.75981103515625,-0.9021092653274536,-1.5378706455230713,2.3041200637817383
1763692623747891200,2.76989111328125,-1.394615888595581,-1.3703782558441162,2.7348499298095703
1763692623757971200,2.77997119140625,-1.7673757076263428,-1.0985915660858154,2.7458200454711914
1763692623768076000,2.790075927734375,-1.9221694469451904,-1.1737644672393799,2.7904052734375
1763692623778156000,2.800156005859375,-1.5368717908859253,-0.7884995937347412,2.509965419769287
1763692623788236000,2.810236083984375,-0.9282716512680054,-0.387645959854126,2.458996295928955
1763692623798264300,2.820264404296875,-0.3254333734512329,-0.4489147663116455,2.354053497314453
1763692623808344600,2.830344482421875,0.16527116298675537,-0.39831042289733887,2.0374298095703125
1763692623818424600,2.840424560546875,0.2262207269668579,-0.4102213382720947,1.642061710357666
1763692623828541200,2.850541259765625,-0.09156930446624756,0.29926633834838867,1.5189871788024902
1763692623838621200,2.86062109375,-0.3843168020248413,1.362333059310913,1.308171272277832
1763692623848701400,2.870701416015625,-0.6264603137969971,1.96187424659729,0.9360342025756836
1763692623858794800,2.880794677734375,-0.9325356483459473,1.6778504848480225,0.5980720520019531
1763692623878954800,2.900954833984375,-0.3283892571926117,1.4215478897094727,0.13116168975830078
1763692623888972500,2.91097265625,0.5355163216590881,1.3977000713348389,-0.36263370513916016
1763692623899052500,2.921052490234375,1.2065733671188354,0.7766695022583008,-0.579524040222168
1763692623909132500,2.931132568359375,1.96912682056427,1.4807398319244385,-0.468017578125
1763692623919245800,2.941245849609375,-0.3065246641635895,1.9399375915527344,-0.41542625427246094
1763692623929325800,2.951325927734375,0.29695403575897217,1.7350523471832275,-0.90557861328125
1763692623939405800,2.96140576171875,0.0711754560470581,1.9706861972808838,-1.6149368286132812
1763692623949487900,2.97148779296875,-0.10450780391693115,2.0863046646118164,-2.182755470275879
1763692623959568000,2.98156787109375,-0.05429643392562866,1.7156710624694824,-2.590892791748047
1763692623969648000,2.991648193359375,0.3071751594543457,1.4550094604492188,-2.8341426849365234
1763692623979727000,3.00172705078125,0.5955885648727417,1.3834552764892578,-2.7551193237304688
1763692623989807000,3.01180712890625,0.739520788192749,1.46165132522583,-2.464923858642578
1763692623999887000,3.02188720703125,1.0067470073699951,1.5996618270874023,-2.3941240310668945
1763692624009967400,3.03196728515625,1.2069932222366333,1.6888113021850586,-2.5575551986694336
1763692624020047400,3.04204736328125,1.3942523002624512,1.9506683349609375,-2.59737491607666
1763692624030127400,3.05212744140625,1.6474418640136719,2.162504196166992,-2.5837020874023438
1763692624040205000,3.062205078125,1.6365336179733276,2.2334272861480713,-2.710646629333496
1763692624050285000,3.07228515625,1.4670792818069458,2.364687204360962,-2.5247955322265625
1763692624060365300,3.082365234375,1.1666980981826782,2.3720643520355225,-2.000502586364746
1763692624070446000,3.092446044921875,1.080907940864563,2.084566593170166,-1.5771379470825195
1763692624080526000,3.102526123046875,1.1539160013198853,1.3297100067138672,-1.4581232070922852
1763692624090606000,3.112606201171875,1.248894214630127,0.32982540130615234,-2.0982255935668945
1763692624100678400,3.122678466796875,1.7573436498641968,-0.40819597244262695,-2.501577377319336
1763692624110758700,3.132758544921875,2.051238775253296,-0.4748351573944092,-2.6360702514648438
1763692624120838700,3.142838623046875,1.8153882026672363,-1.0635552406311035,-3.2241973876953125
1763692624130929200,3.15292919921875,1.616105079650879,-1.6056811809539795,-3.0114526748657227
1763692624141009200,3.163009033203125,1.8819574117660522,-2.010486602783203,-2.3788957595825195
1763692624151089400,3.17308935546875,2.4516124725341797,-2.23445987701416,-1.8974781036376953
1763692624161175800,3.18317578125,3.1381869316101074,-2.3267898559570312,-1.8291034698486328
1763692624171256000,3.193256103515625,3.5024702548980713,-2.459451198577881,-1.9528026580810547
1763692624181336000,3.203336181640625,3.6006903648376465,-2.6482527256011963,-1.9101181030273438
1763692624191411700,3.21341162109375,3.4376301765441895,-2.2129552364349365,-1.4949092864990234
1763692624201491700,3.22349169921875,2.829887866973877,-1.8087413311004639,-0.9761886596679688
1763692624211572000,3.233572021484375,1.8556814193725586,-1.7429192066192627,-0.30174827575683594
1763692624221646300,3.243646240234375,1.1140930652618408,-1.5983126163482666,0.5799140930175781
1763692624231726300,3.253726318359375,0.7613198757171631,-1.7546641826629639,1.335618495941162
1763692624241806600,3.263806640625,0.7343945503234863,-1.7919142246246338,1.914567470550537
1763692624251889200,3.27388916015625,0.6882457733154297,-1.6911227703094482,2.514608383178711
1763692624261969200,3.28396923828125,-0.021926403045654297,-1.5328705310821533,2.7384839057922363
1763692624272049400,3.29404931640625,-0.670194149017334,-1.0064442157745361,3.189845085144043
1763692624282126300,3.304126220703125,-0.8764714002609253,-0.622042179107666,4.034195899963379
1763692624292206600,3.31420654296875,-0.9208269119262695,-0.5237710475921631,4.105948448181152
1763692624302286600,3.32428662109375,-1.3673806190490723,-0.5296645164489746,3.615166187286377
1763692624312358100,3.334358154296875,-1.4744594097137451,-0.7305557727813721,3.954507350921631
1763692624322438100,3.344438232421875,-1.3588216304779053,-0.8483161926269531,4.497328281402588
1763692624332518400,3.354518310546875,-1.2618255615234375,-0.6860370635986328,4.747447967529297
1763692624342605300,3.364605224609375,-1.2692652940750122,-0.5070333480834961,4.386368751525879
1763692624352685300,3.374685302734375,-1.1642545461654663,-0.21077561378479004,4.05340576171875
1763692624362765300,3.384765380859375,-0.7776522636413574,0.007333278656005859,4.235803127288818
1763692624372853800,3.394853759765625,-0.32597947120666504,0.3450038433074951,3.9507088661193848
1763692624382933800,3.404933837890625,-0.08256876468658447,0.4738483428955078,3.891681671142578
1763692624393013800,3.415013671875,-0.16684770584106445,0.5017905235290527,3.4681668281555176
1763692624403084000,3.425083984375,-0.12519657611846924,0.545743465423584,2.6976795196533203
1763692624413164000,3.4351640625,0.10832524299621582,0.15569400787353516,2.461390972137451
1763692624423244300,3.445244384765625,0.10092198848724365,0.3648262023925781,1.860863208770752
1763692624433334300,3.455334228515625,-0.3850315511226654,0.7039346694946289,1.0921258926391602
1763692624443414300,3.465414306640625,-0.3842427432537079,1.1744110584259033,0.25617122650146484
1763692624453494300,3.475494384765625,-0.19508245587348938,1.3150265216827393,-0.9869747161865234
1763692624463582700,3.485582763671875,0.20345306396484375,1.454632043838501,-1.9394912719726562
1763692624473662700,3.495662841796875,0.30411291122436523,1.3813998699188232,-2.200802803039551
1763692624483743000,3.505742919921875,0.5646427869796753,0.9984731674194336,-2.5891542434692383
1763692624493812700,3.515812744140625,0.43082940578460693,0.6978762149810791,-2.8413124084472656
1763692624503892700,3.525892822265625,0.4088172912597656,0.4771273136138916,-3.2249889373779297
1763692624513973000,3.535972900390625,-0.05985814332962036,0.3756859302520752,-2.8962697982788086
1763692624524047000,3.546047119140625,-0.8795228004455566,0.5322954654693604,-2.514899253845215
1763692624534127400,3.55612744140625,-0.8043835163116455,0.5048189163208008,-2.458207130432129
1763692624544207400,3.566207275390625,-0.5972385406494141,0.6018357276916504,-2.5431814193725586
1763692624554296800,3.576296875,-0.5380759239196777,0.30984997749328613,-2.835188865661621
1763692624564377000,3.586377197265625,-0.38300618529319763,-0.1447603702545166,-3.1413869857788086
1763692624574457000,3.59645703125,-0.4967581629753113,0.11701607704162598,-2.296319007873535
1763692624584513800,3.606513671875,-0.8635144829750061,0.4602699279785156,-1.9598731994628906
1763692624594593800,3.61659375,-1.1165536642074585,0.9013278484344482,-1.4696483612060547
1763692624604674000,3.626674072265625,-1.0412408113479614,2.2905004024505615,-0.7485532760620117
1763692624614750700,3.636750732421875,-1.0643086433410645,3.55310320854187,-0.2626008987426758
1763692624624830700,3.646830810546875,-1.0933243036270142,3.2589848041534424,-0.5145578384399414
1763692624634910700,3.65691064453125,-0.3890620470046997,1.0681259632110596,-2.271540641784668
1763692624645021000,3.66702099609375,0.27339962124824524,-0.9076344966888428,-3.8293561935424805
1763692624655101200,3.67710107421875,0.1437157243490219,-1.9319813251495361,-5.077007293701172
1763692624665181200,3.68718115234375,-0.6949170231819153,-2.200496196746826,-5.769696235656738
1763692624675311600,3.6973115234375,-1.757425308227539,-2.143538475036621,-6.423770904541016
1763692624685391600,3.7073916015625,-2.6359963417053223,-2.073247194290161,-5.993464469909668
1763692624695471900,3.717471923828125,-2.8490238189697266,-2.061331272125244,-4.057568550109863
1763692624705482200,3.727482177734375,-2.2539384365081787,-2.505260944366455,-1.0379676818847656
1763692624715562200,3.737562255859375,-1.3817366361618042,-2.828267812728882,1.535170555114746
1763692624725642200,3.747642333984375,-0.7480155229568481,-2.4371016025543213,3.2651376724243164
1763692624735737600,3.757737548828125,-0.7076646089553833,-1.69565749168396,4.031808853149414
1763692624745817600,3.767817626953125,-0.3151237964630127,-0.585742712020874,4.203437328338623
1763692624755897600,3.777897705078125,-0.0558924674987793,0.3745715618133545,4.388302326202393
1763692624765967400,3.78796728515625,-0.7194598913192749,0.716064453125,3.7152957916259766
1763692624776047400,3.79804736328125,-0.700488805770874,1.0719616413116455,1.739058017730713
1763692624786127600,3.808127685546875,1.443546175956726,0.3531486988067627,0.599365234375
1763692624796187600,3.818187744140625,3.612189292907715,-0.5295075178146362,0.8188247680664062
1763692624806267600,3.828267578125,4.493632793426514,-0.5068402290344238,-0.06719684600830078
1763692624816347600,3.83834765625,4.288491725921631,0.15525579452514648,-1.1884679794311523
1763692624826476000,3.84847607421875,3.6892619132995605,0.7069785594940186,-1.4282703399658203
1763692624836556000,3.85855615234375,2.9944710731506348,1.1384550333023071,-1.0241899490356445
1763692624846636300,3.86863623046875,2.594252586364746,1.484889030456543,-0.30211353302001953
1763692624856716300,3.87871630859375,2.425546169281006,1.6247944831848145,0.17262554168701172
1763692624866756600,3.888756591796875,2.2634437084198,1.1227402687072754,0.8306589126586914
1763692624876836600,3.898836669921875,1.9483129978179932,1.6122527122497559,1.1651382446289062
1763692624886916900,3.908916748046875,1.6362073421478271,2.338827133178711,1.1237916946411133
1763692624896996400,3.918996337890625,1.5265965461730957,2.5454421043395996,1.4335136413574219
1763692624907076400,3.929076416015625,1.238754153251648,2.949887275695801,2.2622485160827637
1763692624917156600,3.939156494140625,0.7752505540847778,3.1890869140625,2.7279868125915527
1763692624927230500,3.94923046875,0.7727679014205933,3.040289878845215,2.5942530632019043
1763692624937310500,3.959310546875,1.12008535861969,2.79490065574646,2.3507723808288574
1763692624947390500,3.969390380859375,1.2589373588562012,2.535346269607544,2.1182188987731934
1763692624958060800,3.980060791015625,-0.06768655776977539,2.3559787273406982,2.1735076904296875
1763692624968140800,3.990140869140625,-3.298323392868042,2.3867199420928955,2.5382022857666016
1763692624978221000,4.000220947265625,-0.7531712055206299,2.3051774501800537,1.9309983253479004
1763692624988333600,4.01033349609375,-1.4344415664672852,2.1645138263702393,1.8651905059814453
1763692624998413600,4.02041357421875,-2.321026086807251,1.9342615604400635,0.9189624786376953
1763692625008493600,4.03049365234375,-2.481449842453003,1.8882219791412354,-0.5849552154541016
1763692625018568700,4.040568603515625,-2.512939691543579,1.7757551670074463,-1.2368993759155273
1763692625038728700,4.060728759765625,-1.3412818908691406,1.0382890701293945,-1.7742300033569336
1763692625048232700,4.070232666015625,-0.14726042747497559,0.28338122367858887,-2.3604249954223633
1763692625058312700,4.080312744140625,0.5205090045928955,-0.2263948917388916,-2.519012451171875
1763692625068392700,4.090392822265625,0.709213376045227,-0.33067870140075684,-2.603872299194336
1763692625078472400,4.100472412109375,0.9223488569259644,-0.5884139537811279,-2.5007381439208984
1763692625088552400,4.110552490234375,1.0088417530059814,-0.8733923435211182,-2.505824089050293
1763692625098632400,4.120632568359375,0.8799045085906982,-1.2817494869232178,-2.6690711975097656
1763692625108706600,4.13070654296875,0.8973910808563232,-1.9136133193969727,-2.789417266845703
1763692625118786600,4.14078662109375,0.5476305484771729,-2.4597349166870117,-2.843667984008789
1763692625128866600,4.150866455078125,0.1809830665588379,-2.6921017169952393,-2.421595573425293
1763692625138960000,4.1609599609375,-0.1846144199371338,-2.480776309967041,-1.3595695495605469
1763692625149040000,4.1710400390625,-0.41730403900146484,-2.3103690147399902,-0.5126628875732422
1763692625159120100,4.1811201171875,-0.5817265510559082,-2.4633285999298096,-0.19827938079833984
1763692625169187000,4.19118701171875,-0.5544168949127197,-2.8930459022521973,-0.28126049041748047
1763692625179267000,4.20126708984375,-0.4527866840362549,-3.3285374641418457,-0.5773019790649414
1763692625189347000,4.21134716796875,-0.31415772438049316,-3.635366439819336,-1.1662788391113281
1763692625199422000,4.221421875,-0.2574186325073242,-4.017085075378418,-2.438434600830078
1763692625209502000,4.231501953125,-0.32398509979248047,-4.112912178039551,-2.5641822814941406
1763692625219582000,4.24158203125,-0.23194074630737305,-3.8985259532928467,-1.9564447402954102
1763692625229666000,4.251666015625,-0.2833671569824219,-3.5740461349487305,-1.502772331237793
1763692625239746000,4.26174609375,-0.31833553314208984,-3.22121000289917,-1.0054197311401367
1763692625249826300,4.271826416015625,-0.13492345809936523,-2.808971405029297,-0.32513427734375
1763692625259907800,4.281907958984375,0.05923891067504883,-2.2787115573883057,0.5206422805786133
1763692625269987800,4.29198779296875,-0.023370742797851562,-1.803873062133789,0.8063974380493164
1763692625280067800,4.30206787109375,-0.15334081649780273,-1.6050360202789307,1.3301515579223633
1763692625290156000,4.312156005859375,-0.07221364974975586,-1.478630781173706,2.1811165809631348
1763692625300236000,4.322236083984375,0.07428312301635742,-1.2020304203033447,2.5201964378356934
1763692625310316300,4.33231640625,0.06319689750671387,-0.9380180835723877,2.96016263961792
1763692625320365600,4.342365478515625,0.0413053035736084,-0.7224688529968262,3.5611162185668945
1763692625330445600,4.352445556640625,0.02559041976928711,-0.8549580574035645,4.186412811279297
1763692625340525600,4.362525634765625,-0.21661067008972168,-1.2461721897125244,4.385678768157959
1763692625350631700,4.372631591796875,-0.5110435485839844,-1.0919334888458252,4.259927749633789
1763692625360711700,4.382711669921875,-0.5852465629577637,-0.5465497970581055,3.8415780067443848
1763692625370792000,4.3927919921875,-0.3935530185699463,-0.07867431640625,3.1311683654785156
1763692625380866800,4.40286669921875,0.035128116607666016,0.15080666542053223,2.9215846061706543
1763692625390946800,4.41294677734375,0.24658501148223877,0.05370473861694336,2.817096710205078
1763692625401027000,4.423027099609375,0.2470841407775879,-0.10625314712524414,2.7836766242980957
1763692625411106600,4.4331064453125,0.10703015327453613,-0.2648661136627197,2.7190117835998535
1763692625421186600,4.4431865234375,-0.1393822431564331,-0.7036426067352295,2.791123867034912
1763692625431266800,4.453266845703125,-0.41500264406204224,-0.007341861724853516,2.8862013816833496
1763692625441349000,4.46334912109375,-0.7047245502471924,1.0901226997375488,2.581655502319336
1763692625451429000,4.47342919921875,-0.7921540141105652,1.2000079154968262,2.8117847442626953
1763692625461509000,4.483509033203125,-0.43450701236724854,1.2381401062011719,2.5950164794921875
1763692625471593700,4.49359375,0.31040894985198975,1.884498119354248,2.022371292114258
1763692625481673700,4.503673828125,0.9952034950256348,2.798710823059082,1.577986240386963
1763692625491754000,4.51375390625,1.7721813917160034,3.5179319381713867,1.338651180267334
1763692625501829400,4.523829345703125,2.5310492515563965,3.555389404296875,1.1203351020812988
1763692625511909400,4.533909423828125,3.257664680480957,2.370565891265869,0.827949047088623
1763692625521989400,4.5439892578125,3.676067352294922,1.448206901550293,0.3000669479370117
1763692625532072700,4.55407275390625,5.319149017333984,1.2977142333984375,-0.1175384521484375
1763692625542153000,4.564153076171875,6.676151275634766,1.9570159912109375,0.035556793212890625
1763692625552233000,4.57423291015625,5.103269577026367,1.9137225151062012,-1.4976820945739746
1763692625562295600,4.584295654296875,4.0599775314331055,2.354792594909668,-1.9461183547973633
1763692625572375600,4.59437548828125,2.2931365966796875,2.4813456535339355,-2.264975070953369
1763692625582455600,4.60445556640625,1.0404303073883057,2.9394354820251465,-2.4845805168151855
1763692625592552400,4.614552490234375,1.4510977268218994,3.4568862915039062,-2.1816954612731934
1763692625602632400,4.624632568359375,2.463752269744873,3.5256147384643555,-1.838268756866455
1763692625612712700,4.634712646484375,1.7178566455841064,3.440023899078369,-2.5838265419006348
1763692625622792700,4.644792724609375,0.003081083297729492,2.9414210319519043,-4.330770492553711
1763692625632872700,4.654872802734375,-0.8596453666687012,0.7236051559448242,-4.657812595367432
1763692625642952700,4.66495263671875,-0.972357988357544,0.8138642311096191,-3.7003583908081055
1763692625653038600,4.67503857421875,-0.33961987495422363,1.1554632186889648,-3.179348945617676
1763692625663118800,4.685118896484375,-0.0018663406372070312,0.151519775390625,-3.2021431922912598
1763692625673198800,4.69519873046875,0.11230182647705078,-0.519465446472168,-3.745922565460205
1763692625683279600,4.705279541015625,-0.011552572250366211,-0.6483712196350098,-4.284017086029053
1763692625693359600,4.715359619140625,-0.15434956550598145,-0.49742603302001953,-4.405929088592529
1763692625703440000,4.72543994140625,-0.21892929077148438,-0.1987910270690918,-4.272896766662598
1763692625713517000,4.73551708984375,-0.20625090599060059,0.15355968475341797,-3.7387619018554688
1763692625723597300,4.745597412109375,-0.5501143932342529,-0.16697406768798828,-2.8497238159179688
1763692625733677300,4.75567724609375,-0.9977619647979736,-0.6411447525024414,-1.9486908912658691
1763692625743771400,4.765771484375,-1.4207165241241455,-0.9281601905822754,-1.0177102088928223
1763692625753851400,4.775851318359375,-1.7579982280731201,-1.1444430351257324,-0.09195899963378906
1763692625763931600,4.785931640625,-1.9262573719024658,-1.0806636810302734,0.5810456275939941
1763692625773999600,4.79599951171875,-1.7186923027038574,-0.8649325370788574,1.521195411682129
1763692625784079600,4.80607958984375,-1.3569457530975342,-0.730229377746582,2.2758684158325195
1763692625794159600,4.81615966796875,-1.341458797454834,-0.9110980033874512,2.7504472732543945
1763692625804270300,4.826270263671875,-1.371640682220459,-1.0988085269927979,2.893861770629883
1763692625814350300,4.836350341796875,-1.2728087902069092,-1.5944950580596924,1.9858088493347168
1763692625824430600,4.8464306640625,-1.408958911895752,-2.0635082721710205,2.0299811363220215
1763692625834461700,4.856461669921875,-1.179262638092041,-1.2317302227020264,3.201882839202881
1763692625844542000,4.8665419921875,-1.2681498527526855,-1.2498462200164795,2.215574264526367
1763692625854622000,4.8766220703125,-1.0844953060150146,-1.0229160785675049,2.6836190223693848
1763692625864756700,4.8867568359375,-0.9642975330352783,-0.9857347011566162,3.1396126747131348
1763692625874836700,4.896836669921875,-1.0865485668182373,-1.1663029193878174,3.192802906036377
1763692625884917000,4.9069169921875,-1.3378801345825195,-1.2037971019744873,3.2804932594299316
1763692625894944800,4.91694482421875,-1.532200574874878,-1.1072394847869873,3.2431721687316895
1763692625905024800,4.927024658203125,-1.587508201599121,-1.0733540058135986,3.148190498352051
1763692625915105000,4.93710498046875,-1.2854526042938232,-0.978954553604126,3.149522304534912
1763692625925206300,4.947206298828125,-1.9088494777679443,-0.7312676906585693,3.3718976974487305
1763692625935286300,4.957286376953125,-1.413351058959961,-0.14774870872497559,3.73931884765625
1763692625945366500,4.967366455078125,-1.1422843933105469,0.45114612579345703,3.879835605621338
1763692625955434800,4.977434814453125,-0.9162707328796387,0.9464964866638184,3.931549072265625
1763692625965514800,4.9875146484375,-0.7310540676116943,1.20762300491333,3.6556921005249023
1763692625975595000,4.997594970703125,-0.5791702270507812,1.4465374946594238,3.0414347648620605
1763692625985697300,5.007697265625,-0.538902997970581,1.625483512878418,2.190904140472412
1763692625995777300,5.01777734375,-0.3460540771484375,1.5106511116027832,1.130997657775879
1763692626015960600,5.037960693359375,0.3018789291381836,1.4251270294189453,-0.7740707397460938
1763692626026040600,5.04804052734375,0.5056941509246826,1.5083503723144531,-1.456277847290039
1763692626036120800,5.058120849609375,0.9269897937774658,1.4018464088439941,-2.7220916748046875
1763692626046173200,5.068173095703125,1.307905912399292,1.3563838005065918,-3.4915971755981445
1763692626056253200,5.078253173828125,1.607964038848877,1.0716781616210938,-3.7806453704833984
1763692626066333200,5.088333251953125,1.8553764820098877,1.1075482368469238,-3.8286142349243164
1763692626076354600,5.0983544921875,1.8973441123962402,1.271951675415039,-4.201419830322266
1763692626086434800,5.108434814453125,2.2885897159576416,0.8900594711303711,-4.260153770446777
1763692626096514800,5.118514892578125,1.765608310699463,0.36226940155029297,-3.9362592697143555
1763692626106633000,5.128633056640625,1.4863147735595703,0.2562098503112793,-3.3156509399414062
1763692626116713000,5.138712890625,1.5595855712890625,0.5352954864501953,-3.0124034881591797
1763692626126793200,5.148793212890625,1.722949504852295,0.587824821472168,-2.62738037109375
1763692626136879900,5.1588798828125,1.8918688297271729,0.6269068717956543,-2.1530046463012695
1763692626146960000,5.1689599609375,2.0653128623962402,0.6392745971679688,-1.7334403991699219
1763692626157039900,5.179039794921875,1.6480109691619873,0.5840444564819336,-1.3500852584838867
1763692626167115300,5.189115234375,1.2648494243621826,0.3950800895690918,-1.883101463317871
1763692626177195500,5.199195556640625,1.3244173526763916,0.015934467315673828,-3.1009750366210938
1763692626187275500,5.209275634765625,1.7043967247009277,-0.7554757595062256,-3.8939638137817383
1763692626197964300,5.21996435546875,2.0248653888702393,-1.6359517574310303,-4.261116027832031
1763692626208044300,5.230044189453125,2.5278196334838867,-2.0401360988616943,-4.219244956970215
1763692626218124500,5.24012451171875,2.852365255355835,-2.0994224548339844,-4.07514762878418
1763692626228206300,5.250206298828125,2.9171082973480225,-2.1754250526428223,-4.142897605895996
1763692626238287600,5.26028759765625,2.677699327468872,-2.3613221645355225,-3.678114891052246
1763692626248369000,5.270368896484375,2.350959062576294,-2.5626847743988037,-2.75235652923584
1763692626258406400,5.280406494140625,2.030303716659546,-2.7972843647003174,-1.9185800552368164
1763692626268487700,5.29048779296875,1.6904354095458984,-3.304340362548828,-2.0329484939575195
1763692626278569000,5.30056884765625,1.4369102716445923,-3.0264532566070557,0.38173484802246094
1763692626288682800,5.310682861328125,0.8506087064743042,-2.6622021198272705,1.3293399810791016
1763692626298764000,5.320763916015625,0.1536504030227661,-2.208880662918091,1.8367104530334473
1763692626308845300,5.33084521484375,-0.24418282508850098,-1.34122633934021,2.975736141204834
1763692626318347000,5.340346923828125,-0.5948864221572876,-0.7833325862884521,3.5777950286865234
1763692626328428300,5.35042822265625,-1.0044574737548828,-0.5111367702484131,4.408741474151611
1763692626338509600,5.360509521484375,-1.5144952535629272,-0.6891219615936279,4.828048229217529
1763692626348573700,5.37057373046875,-1.8205060958862305,-0.8406317234039307,5.149707794189453
1763692626358655000,5.380655029296875,-1.6272530555725098,-0.7949919700622559,5.785143852233887
1763692626368736300,5.390736328125,-1.554399013519287,-0.7852163314819336,6.130461692810059
1763692626378827300,5.4008271484375,-1.6408683061599731,-0.8108370304107666,5.929898738861084
1763692626398989800,5.42098974609375,-0.8974772691726685,-1.7424039840698242,4.888732433319092
1763692626409051600,5.4310517578125,-0.8071473836898804,-1.744821548461914,4.704636096954346
1763692626419133000,5.4411328125,-0.8249503374099731,-0.6959843635559082,4.838100433349609
1763692626429214200,5.451214111328125,-0.6756939888000488,0.12128734588623047,4.694192409515381
1763692626439288600,5.46128857421875,-0.6368857622146606,0.4463307857513428,4.536098957061768
1763692626449369900,5.471369873046875,-1.0071353912353516,0.6019408702850342,4.332918167114258
1763692626459451100,5.481451171875,-0.9048726558685303,0.7611517906188965,3.8005447387695312
1763692626469538000,5.4915380859375,-0.36403340101242065,0.8832716941833496,3.351093292236328
1763692626479619300,5.501619384765625,0.019886434078216553,1.0943059921264648,2.8411173820495605
1763692626489700600,5.51170068359375,0.7724519968032837,1.585090160369873,1.738853931427002
1763692626499776500,5.521776611328125,1.353912115097046,2.0202581882476807,0.5069980621337891
1763692626509857800,5.53185791015625,1.712815523147583,2.194809675216675,-0.6896514892578125
1763692626519939000,5.54193896484375,1.8130104541778564,2.176577091217041,-1.6218481063842773
1763692626530018300,5.552018310546875,1.6523466110229492,2.010068893432617,-2.6879682540893555
1763692626540099600,5.562099609375,1.7276674509048462,1.883742094039917,-4.073850631713867
1763692626550180900,5.572180908203125,1.5486335754394531,2.1402688026428223,-4.728785514831543
1763692626560265000,5.582264892578125,1.4081213474273682,1.33038330078125,-4.55397891998291
1763692626570346200,5.59234619140625,1.4262559413909912,1.0785772800445557,-4.356927871704102
1763692626580427500,5.602427490234375,1.4201017618179321,1.8081412315368652,-4.555977821350098
1763692626590495500,5.61249560546875,1.2284127473831177,2.9179420471191406,-4.1414289474487305
1763692626600576800,5.62257666015625,0.4019606113433838,3.2260870933532715,-3.466634750366211
1763692626610658000,5.632657958984375,-0.27403971552848816,3.0820891857147217,-3.7379226684570312
1763692626620745000,5.642744873046875,-0.5965815186500549,2.7387375831604004,-4.380300521850586
1763692626630826500,5.652826416015625,-0.5597091317176819,2.419191598892212,-4.430349349975586
1763692626640907800,5.66290771484375,-0.45837339758872986,2.2937679290771484,-4.014251708984375
1763692626650980600,5.672980712890625,-0.49159160256385803,2.2640280723571777,-3.018617630004883
1763692626661062000,5.683061767578125,-0.8771725296974182,1.8000082969665527,-2.605224609375
1763692626671143200,5.69314306640625,-1.3784159421920776,1.086024284362793,-2.377842903137207
1763692626681226800,5.703226806640625,-1.6359399557113647,0.17210912704467773,-2.53225040435791
1763692626691308000,5.71330810546875,-1.8822201490402222,-0.476276159286499,-3.1453332901000977
1763692626701389300,5.723389404296875,-2.125736713409424,-0.7874066829681396,-3.4901294708251953
1763692626711469300,5.73346923828125,-2.443474292755127,-0.9869115352630615,-3.226764678955078
1763692626721550600,5.743550537109375,-2.655104398727417,-1.037475347518921,-2.6342296600341797
1763692626731631900,5.7536318359375,-2.693122386932373,-1.3066775798797607,-1.754776954650879
1763692626741704000,5.763703857421875,-2.523695945739746,-1.5678539276123047,-0.21920108795166016
1763692626751785200,5.77378515625,-2.4086382389068604,-2.4181995391845703,-0.27410221099853516
1763692626761866500,5.783866455078125,-2.4559998512268066,-2.9077744483947754,0.34386253356933594
1763692626771954000,5.793953857421875,-2.5365965366363525,-3.0457046031951904,1.1472907066345215
1763692626782035200,5.80403515625,-2.330785036087036,-2.8168649673461914,1.6536469459533691
1763692626792116500,5.814116455078125,-1.4222698211669922,-2.6368632316589355,2.1160550117492676
1763692626802190600,5.824190673828125,-0.6623521447181702,-2.266176462173462,2.432774543762207
1763692626812271900,5.83427197265625,-0.16194269061088562,-1.726804256439209,2.562589645385742
1763692626822353200,5.844353271484375,-0.07860034704208374,-1.310673475265503,2.9219164848327637
1763692626832431900,5.854431884765625,0.47898033261299133,-1.2483222484588623,3.2565183639526367
1763692626842513200,5.86451318359375,1.8074578046798706,-1.2412104606628418,3.9427266120910645
1763692626852594400,5.874594482421875,2.2014920711517334,-0.9112250804901123,3.4837541580200195
1763692626862670600,5.884670654296875,1.8414723873138428,-0.41195106506347656,2.6343655586242676
1763692626872751900,5.894751953125,1.515267014503479,-0.07558941841125488,1.8872289657592773
1763692626882833200,5.904833251953125,1.3425308465957642,0.19877910614013672,1.1890459060668945
1763692626892904700,5.91490478515625,1.240814447402954,0.3671722412109375,0.7689113616943359
1763692626902986000,5.924986083984375,1.2595393657684326,0.365276575088501,0.8030509948730469
1763692626913067300,5.9350673828125,1.2515827417373657,0.3336968421936035,1.0837841033935547
1763692626923153200,5.945153076171875,1.2016936540603638,0.3177492618560791,1.3091564178466797
1763692626933234400,5.955234375,1.00562584400177,0.26782917976379395,1.7177963256835938
1763692626943315700,5.965315673828125,0.7497968673706055,0.362882137298584,2.0494251251220703
1763692626953389300,5.975389404296875,0.5206149816513062,0.6087164878845215,2.1967196464538574
1763692626963470600,5.985470703125,0.3044722080230713,0.9622666835784912,2.2901358604431152
1763692626973551900,5.9955517578125,0.25687122344970703,1.2966432571411133,2.2588958740234375
1763692626983626500,6.00562646484375,0.4376429319381714,1.5237541198730469,2.2616467475891113
1763692626993707800,6.015707763671875,0.6573841571807861,1.6827747821807861,2.481454849243164
1763692627003789000,6.0257890625,1.0068923234939575,1.9056367874145508,2.3776516914367676
1763692627013873000,6.035872802734375,1.2989414930343628,2.129356861114502,1.674891471862793
1763692627023954200,6.0459541015625,1.4863941669464111,2.316261053085327,0.5672369003295898
1763692627034035500,6.056035400390625,1.5771201848983765,2.1678500175476074,-0.5000905990600586
1763692627044110300,6.0661103515625,1.4319822788238525,1.7848474979400635,-1.3423700332641602
1763692627054191900,6.07619189453125,1.2458970546722412,1.462386131286621,-1.8042821884155273
1763692627064273200,6.086273193359375,1.0481176376342773,1.316286563873291,-1.789992332458496
1763692627074379500,6.096379638671875,0.8589208126068115,1.0563685894012451,-1.358759880065918
1763692627084460800,6.106460693359375,0.7464829683303833,0.6019377708435059,-0.9453840255737305
1763692627094542000,6.1165419921875,0.4919874668121338,0.27844762802124023,-0.8275003433227539
1763692627104525600,6.126525634765625,0.13036668300628662,0.052857160568237305,-0.6776857376098633
1763692627114606800,6.13660693359375,-0.14792323112487793,-0.4342796802520752,-0.4433116912841797
1763692627124688100,6.146688232421875,-0.3347761631011963,-1.039294958114624,0.024051666259765625
1763692627134828800,6.156828857421875,-0.38920438289642334,-1.62605881690979,0.6443052291870117
1763692627144910000,6.16691015625,-0.4388328790664673,-1.9960455894470215,1.1696968078613281
1763692627154991400,6.176991455078125,-0.5805654525756836,-2.1952154636383057,1.4441871643066406
1763692627165066000,6.18706591796875,-0.44234973192214966,-2.55658221244812,1.4931669235229492
1763692627175147300,6.197147216796875,-0.2923480272293091,-2.79148530960083,0.8775472640991211
1763692627185228500,6.207228515625,-0.12217521667480469,-2.8715810775756836,-0.2510347366333008
1763692627195330600,6.21733056640625,0.3491874039173126,-2.7786991596221924,-1.8207721710205078
1763692627205411600,6.22741162109375,1.0045933723449707,-2.52156662940979,-3.2410049438476562
1763692627215493000,6.2374931640625,1.7264704704284668,-2.123478651046753,-4.380568504333496
1763692627225558500,6.24755859375,2.5930593013763428,-1.7291157245635986,-5.182909965515137
1763692627235638300,6.25763818359375,3.221557378768921,-1.4831316471099854,-5.6666669845581055
1763692627245718300,6.26771826171875,3.654057025909424,-1.3215034008026123,-6.07956600189209
1763692627255774700,6.277774658203125,3.6710870265960693,-1.0069448947906494,-6.708957672119141
1763692627265854500,6.2878544921875,3.174398422241211,-0.5858592987060547,-7.427546501159668
1763692627275934500,6.2979345703125,2.337221622467041,-0.06256914138793945,-7.562869071960449
1763692627286030300,6.3080302734375,1.5612549781799316,0.4203972816467285,-7.051136016845703
1763692627296110000,6.318110107421875,0.9169726371765137,1.0154814720153809,-6.231564521789551
1763692627306190000,6.328190185546875,0.36550766229629517,1.8232851028442383,-5.6504621505737305
1763692627316294100,6.338294189453125,-0.1808863878250122,2.605374813079834,-5.522823333740234
1763692627326374000,6.348373779296875,-0.6636713743209839,2.922861099243164,-5.709595680236816
1763692627336454000,6.358453857421875,-0.9965158104896545,2.703218460083008,-5.743406295776367
1763692627346533600,6.36853369140625,-1.262420415878296,2.2958240509033203,-5.025474548339844
1763692627356589600,6.378589599609375,-1.7649247646331787,2.1289730072021484,-3.462217330932617
1763692627366669300,6.38866943359375,-2.2857348918914795,2.080690860748291,-1.5294008255004883
1763692627376749300,6.398749267578125,-2.5670976638793945,1.9841094017028809,0.4606590270996094
1763692627386847000,6.408846923828125,-2.5912346839904785,2.0202455520629883,2.082791328430176
1763692627407006700,6.4290068359375,-1.9128258228302002,2.3300700187683105,3.9681429862976074
1763692627417089300,6.43908935546875,-1.7836825847625732,2.5279483795166016,5.103069305419922
1763692627427169300,6.449169189453125,-1.9944798946380615,2.7795634269714355,6.607560157775879
1763692627437249000,6.4592490234375,-2.3694119453430176,2.967712879180908,7.933156967163086
1763692627447308500,6.46930859375,-2.7524664402008057,3.0973215103149414,8.811501502990723
1763692627457388300,6.47938818359375,-3.0007922649383545,3.2822794914245605,9.211194038391113
1763692627467468000,6.489468017578125,-3.1842799186706543,3.2263612747192383,9.235139846801758
1763692627478145800,6.500145751953125,-3.306227207183838,2.8549675941467285,9.145743370056152
1763692627488225800,6.510225830078125,-3.399531126022339,2.387540817260742,9.039117813110352
1763692627498305800,6.520305908203125,-3.375413417816162,2.1010937690734863,8.93706226348877
1763692627508399900,6.53039990234375,-3.2726223468780518,1.623671531677246,8.600517272949219
1763692627518479600,6.540479736328125,-3.234952688217163,1.1848459243774414,8.204657554626465
1763692627528559600,6.5505595703125,-3.229459285736084,1.0406103134155273,7.624258995056152
1763692627538657300,6.5606572265625,-3.2586617469787598,1.3121767044067383,6.700733184814453
1763692627548737300,6.5707373046875,-3.012892007827759,1.5450716018676758,5.4914398193359375
1763692627558817000,6.580817138671875,-2.6277904510498047,1.7587146759033203,3.5456109046936035
1763692627578345200,6.60034521484375,-2.86568546295166,2.7595739364624023,-0.3953742980957031
1763692627588425000,6.610425048828125,-2.9041876792907715,2.611665725708008,-2.5551891326904297
1763692627598530600,6.620530517578125,-3.183150291442871,2.400275230407715,-4.585727691650391
1763692627608610300,6.6306103515625,-3.978999614715576,2.3712401390075684,-5.5421648025512695
1763692627618690300,6.640690185546875,-5.3957929611206055,2.8837900161743164,-4.950773239135742
1763692627628792800,6.650792724609375,-7.376928806304932,4.050022125244141,-3.6871633529663086
1763692627638872600,6.66087255859375,-9.55056095123291,5.538301944732666,-2.882887840270996
1763692627648952600,6.67095263671875,-11.231915473937988,6.845980644226074,-3.3105058670043945
1763692627658978800,6.680978759765625,-11.675834655761719,7.236843109130859,-5.2838287353515625
1763692627669058600,6.69105859375,-10.44679069519043,6.552031993865967,-8.637725830078125
1763692627679138600,6.701138671875,-8.514899253845215,5.364199638366699,-12.571468353271484
1763692627689251000,6.7112509765625,-6.499663829803467,4.34068489074707,-16.665559768676758
1763692627699330800,6.721330810546875,-3.6147468090057373,3.073019027709961,-19.46781349182129
1763692627709410800,6.731410888671875,-0.5304025411605835,1.8539113998413086,-20.307113647460938
1763692627719499300,6.741499267578125,1.5301988124847412,0.8546600341796875,-18.13368797302246
1763692627729579000,6.7515791015625,2.691751003265381,0.9146618843078613,-13.788188934326172
1763692627739659000,6.761658935546875,3.417463779449463,0.7493686676025391,-9.747217178344727
1763692627749737200,6.7717373046875,3.671992540359497,-0.15702438354492188,-6.387294292449951
1763692627759817000,6.78181689453125,3.4165682792663574,-1.8574013710021973,-3.6671061515808105
1763692627769897000,6.79189697265625,2.613931179046631,-3.8847169876098633,-1.376610279083252
1763692627779975400,6.801975341796875,1.4311423301696777,-5.475864887237549,0.3386421203613281
1763692627790055400,6.812055419921875,0.4782022535800934,-6.693327903747559,1.0514640808105469
1763692627800135200,6.82213525390625,0.20084844529628754,-7.691100597381592,1.0848193168640137
1763692627810216400,6.832216552734375,0.4044343829154968,-8.4129638671875,1.2697052955627441
1763692627820296400,6.84229638671875,1.0233899354934692,-9.001115798950195,1.7855925559997559
1763692627830376200,6.852376220703125,2.0180916786193848,-9.62761402130127,2.396371603012085
1763692627840459500,6.86245947265625,3.2898383140563965,-10.293431282043457,3.077267646789551
1763692627850539500,6.87253955078125,4.187458038330078,-10.91378402709961,3.8130125999450684
1763692627860619500,6.88261962890625,4.617661952972412,-11.539888381958008,4.457446098327637
1763692627870702300,6.892702392578125,4.814210414886475,-12.22330093383789,4.632440090179443
1763692627880782300,6.9027822265625,4.700824737548828,-12.626564025878906,4.723649501800537
1763692627890862300,6.9128623046875,4.3409833908081055,-12.701005935668945,5.204502105712891
1763692627900938200,6.922938232421875,3.947842597961426,-12.456576347351074,6.034350395202637
1763692627911018200,6.933018310546875,3.717306137084961,-12.074502944946289,6.957563400268555
1763692627921098000,6.943097900390625,3.5654428005218506,-11.709290504455566,7.786911964416504
1763692627931179000,6.953178955078125,3.4990243911743164,-11.234001159667969,8.456132888793945
1763692627941259000,6.963259033203125,3.704472064971924,-10.427942276000977,8.688287734985352
1763692627951338800,6.9733388671875,4.069222450256348,-9.529675483703613,8.219785690307617
1763692627961425400,6.98342529296875,4.513754844665527,-8.602561950683594,6.772348403930664
1763692627971505400,6.99350537109375,4.887441635131836,-7.642228126525879,4.926667213439941
1763692627981585200,7.003585205078125,5.127218723297119,-6.768411636352539,3.0507419109344482
1763692627991667000,7.0136669921875,5.374360084533691,-5.705634117126465,1.123025894165039
1763692628001747000,7.023746826171875,5.59730339050293,-4.479310035705566,-0.6249852180480957
1763692628011826700,7.03382666015625,5.680591583251953,-3.213669776916504,-2.296321392059326
1763692628021904100,7.043904052734375,5.418209075927734,-1.6661009788513184,-4.169281005859375
1763692628031984000,7.053984130859375,4.926225185394287,0.1279306411743164,-5.627107620239258
1763692628042064000,7.06406396484375,3.5151524543762207,2.016563892364502,-5.378091812133789
1763692628052142600,7.074142578125,0.9975860118865967,4.715789794921875,-3.4168577194213867
1763692628062222600,7.08422265625,-1.1338779926300049,8.176555633544922,-3.2222342491149902
1763692628072302300,7.09430224609375,-1.9057307243347168,10.499399185180664,-7.003542423248291
1763692628082364400,7.104364501953125,-1.9843895435333252,11.301345825195312,-14.321765899658203
1763692628092444400,7.1144443359375,-1.3414961099624634,11.101785659790039,-23.4244327545166
1763692628102524200,7.124524169921875,-0.5643514394760132,8.550132751464844,-30.960630416870117
1763692628112623900,7.134623779296875,-0.7488361597061157,7.632443428039551,-30.381366729736328
1763692628122704000,7.144703857421875,-2.4231696128845215,8.162412643432617,-23.710731506347656
1763692628132783600,7.15478369140625,-3.0645382404327393,8.041437149047852,-15.487079620361328
1763692628142866700,7.16486669921875,-2.062032699584961,7.36319637298584,-8.22206974029541
1763692628152946400,7.174946533203125,-1.2297673225402832,6.519358158111572,-2.4306373596191406
1763692628163026400,7.1850263671875,-0.7977931499481201,5.678108215332031,1.3968119621276855
1763692628173110500,7.195110595703125,-0.5758488178253174,4.443146705627441,3.939757823944092
1763692628183190500,7.2051904296875,-0.5972181558609009,2.8981757164001465,6.246110439300537
1763692628193270300,7.215270263671875,-1.2561811208724976,1.7701425552368164,8.572266578674316
1763692628203351000,7.22535107421875,-2.461907386779785,1.0909247398376465,10.538594245910645
1763692628213431000,7.23543115234375,-3.6304407119750977,0.48987531661987305,11.755383491516113
1763692628223510800,7.2455107421875,-4.389789581298828,0.15648746490478516,12.424371719360352
1763692628233611500,7.255611572265625,-4.919217109680176,0.20086288452148438,12.57669448852539
1763692628243691500,7.26569140625,-4.9562554359436035,0.6177635192871094,12.304885864257812
1763692628253771500,7.275771484375,-4.905092716217041,0.9845376014709473,11.823070526123047
1763692628263807700,7.285807861328125,-4.620965957641602,0.6992826461791992,11.123939514160156
1763692628273887700,7.2958876953125,-4.796163558959961,0.5345745086669922,10.52701187133789
1763692628283967700,7.3059677734375,-5.410547256469727,0.24261188507080078,9.60080337524414
1763692628294073900,7.316073974609375,-5.772281646728516,-0.25652074813842773,8.359105110168457
1763692628304153900,7.32615380859375,-6.120057106018066,-0.38072633743286133,7.2550764083862305
1763692628314233900,7.33623388671875,-6.433159828186035,-0.05366039276123047,6.287718772888184
1763692628324327400,7.346327392578125,-6.507806777954102,0.40265893936157227,5.1665802001953125
1763692628334407400,7.356407470703125,-6.1287126541137695,0.7959260940551758,3.57869815826416
1763692628344487400,7.3664873046875,-5.571435928344727,1.333747386932373,1.7080297470092773
1763692628354532600,7.37653271484375,-5.159764289855957,2.0745849609375,-0.4168086051940918
1763692628364612600,7.386612548828125,-4.971488952636719,2.6259660720825195,-2.6608223915100098
1763692628374692600,7.396692626953125,-4.983282566070557,2.968381404876709,-4.637817859649658
1763692628384795000,7.406794921875,-5.101374626159668,3.29482364654541,-6.008980751037598
1763692628394875000,7.416875,-5.210580825805664,3.6549811363220215,-6.502421855926514
1763692628404955000,7.426954833984375,-5.283833026885986,4.292877197265625,-6.304294109344482
1763692628415007500,7.437007568359375,-5.781613349914551,5.323272228240967,-5.486630916595459
1763692628425087500,7.44708740234375,-6.607276916503906,6.36693000793457,-4.2906413078308105
1763692628435167500,7.45716748046875,-7.311458110809326,7.110877990722656,-4.002841472625732
1763692628445340400,7.46734033203125,-7.7779130935668945,7.752927303314209,-5.558924198150635
1763692628455420400,7.47742041015625,-7.511254787445068,8.055984497070312,-8.848234176635742
1763692628465500400,7.48750048828125,-5.9244537353515625,7.383962631225586,-12.567424774169922
1763692628475523800,7.49752392578125,-3.938605546951294,6.439663887023926,-15.046415328979492
1763692628485603800,7.507603759765625,-2.2516696453094482,5.878154754638672,-15.343311309814453
1763692628495683800,7.517683837890625,-0.7313989400863647,5.510278701782227,-13.898794174194336
1763692628505792300,7.527792236328125,0.5656795501708984,5.046504020690918,-11.784143447875977
1763692628515872300,7.537872314453125,1.4323217868804932,4.1676530838012695,-9.948147773742676
1763692628525952300,7.5479521484375,2.0666427612304688,2.5333118438720703,-8.550748825073242
1763692628536005400,7.55800537109375,2.4296233654022217,0.5228481292724609,-6.801991939544678
1763692628546085400,7.56808544921875,2.2490038871765137,-1.4763011932373047,-4.817117691040039
1763692628556165400,7.578165283203125,1.804552435874939,-3.273386001586914,-2.8993983268737793
1763692628566202600,7.58820263671875,1.4641084671020508,-4.748619079589844,-1.030838966369629
1763692628576282600,7.59828271484375,1.3312790393829346,-6.100337028503418,0.3689894676208496
1763692628586362600,7.608362548828125,1.7318553924560547,-6.313155174255371,2.220557928085327
1763692628596499200,7.618499267578125,2.4217419624328613,-7.4054951667785645,2.961080312728882
1763692628606579200,7.6285791015625,3.394536018371582,-8.599535942077637,3.4568819999694824
1763692628616659200,7.6386591796875,4.338858604431152,-9.536294937133789,3.660565137863159
1763692628626739200,7.6487392578125,5.092545509338379,-10.356719970703125,3.4820923805236816
1763692628636806000,7.658805908203125,5.5573954582214355,-11.340768814086914,3.0875635147094727
1763692628646886000,7.668885986328125,5.952086448669434,-12.255304336547852,2.802064895629883
1763692628656966000,7.6789658203125,6.244800567626953,-12.822680473327637,2.7815473079681396
1763692628667055600,7.6890556640625,6.222027778625488,-12.974002838134766,3.3039815425872803
1763692628677135600,7.699135498046875,6.033239364624023,-12.728473663330078,4.328967094421387
1763692628687215600,7.709215576171875,5.848172187805176,-12.152926445007324,5.578395843505859
1763692628697871000,7.71987109375,5.64731502532959,-11.31483268737793,6.46387243270874
1763692628707951000,7.729951171875,5.781978130340576,-10.347318649291992,6.536513328552246
1763692628718031000,7.740031005859375,6.098666191101074,-9.447639465332031,5.830358505249023
1763692628728137200,7.75013720703125,6.1882734298706055,-8.879154205322266,4.588499546051025
1763692628738217200,7.76021728515625,6.028687000274658,-8.56093978881836,3.1723930835723877
1763692628748297200,7.770297119140625,5.544482231140137,-8.193482398986816,1.9237043857574463
1763692628758378200,7.780378173828125,4.789328098297119,-7.823059558868408,0.8370437622070312
1763692628768458200,7.790458251953125,4.107495307922363,-7.654685020446777,-0.24925708770751953
1763692628778538200,7.800538330078125,3.394824743270874,-7.298350811004639,-1.7634053230285645
1763692628788569900,7.81056982421875,2.850283622741699,-6.548311233520508,-3.6035733222961426
1763692628798649900,7.82064990234375,2.5475897789001465,-5.580008506774902,-5.660245418548584
1763692628808729900,7.830729736328125,2.1625211238861084,-4.43568229675293,-7.21090841293335
1763692628818236000,7.84023583984375,1.4120128154754639,-2.9318904876708984,-7.567663192749023
1763692628828316000,7.85031591796875,0.6136313676834106,-1.000422477722168,-6.579505443572998
1763692628838396000,7.86039599609375,-0.3038027286529541,2.297123908996582,-5.018923282623291
1763692628848500000,7.8705,-0.08869099617004395,5.2898149490356445,-4.031772613525391
1763692628858580000,7.880580078125,0.7914867401123047,7.813230514526367,-4.358636379241943
1763692628868660000,7.890659912109375,0.3918801546096802,10.256004333496094,-6.238297939300537
1763692628878735400,7.9007353515625,0.050483107566833496,10.451576232910156,-10.435809135437012
1763692628888815400,7.9108154296875,-0.13264906406402588,7.895309925079346,-16.03875732421875
1763692628898895400,7.920895263671875,-2.0273847579956055,5.87014627456665,-20.061494827270508
1763692628908938200,7.930938232421875,-5.437912940979004,4.843349456787109,-19.62150764465332
1763692628919018200,7.941018310546875,-7.871285438537598,4.219741344451904,-15.98244857788086
1763692628929098200,7.95109814453125,-9.348340034484863,4.305811882019043,-10.926883697509766
1763692628939210800,7.961210693359375,-9.788202285766602,4.187411308288574,-6.617833614349365
1763692628949290800,7.971290771484375,-8.58404541015625,3.272980213165283,-3.5182008743286133
1763692628959370800,7.981370849609375,-7.156875133514404,2.531796932220459,-0.38629722595214844
1763692628969456600,7.99145654296875,-6.465934753417969,2.4511799812316895,2.768298625946045
1763692628979536600,8.00153662109375,-5.530274391174316,2.046205520629883,5.638518333435059
1763692628989616600,8.01161669921875,-4.514308929443359,1.621960163116455,8.44093132019043
1763692628999695400,8.0216953125,-4.0531697273254395,1.6046080589294434,10.485418319702148
1763692629009775400,8.031775390625,-3.682110071182251,1.6473407745361328,11.522504806518555
1763692629019855400,8.04185546875,-3.4397387504577637,1.4207258224487305,11.910429000854492
1763692629029935000,8.05193505859375,-3.45169734954834,1.2070765495300293,11.797600746154785
1763692629040015000,8.06201513671875,-3.604337692260742,1.2536330223083496,11.005369186401367
1763692629050095000,8.07209521484375,-3.583993434906006,1.1679716110229492,9.781837463378906
1763692629060174600,8.082174560546875,-3.361462116241455,0.6737852096557617,8.444622993469238
1763692629070254600,8.092254638671875,-3.1792426109313965,0.034163475036621094,7.133607387542725
1763692629080334600,8.10233447265625,-3.1014418601989746,-0.4731001853942871,5.879248142242432
1763692629090415000,8.1124150390625,-3.2330617904663086,-1.0601043701171875,5.049065589904785
1763692629100495000,8.1224951171875,-3.451474666595459,-1.576237678527832,4.379878044128418
1763692629110575000,8.1325751953125,-3.851210594177246,-1.5999832153320312,3.7129220962524414
1763692629120660200,8.14266015625,-4.1735148429870605,-1.6076030731201172,3.2543773651123047
1763692629130740200,8.152740234375,-4.3322434425354,-1.6615657806396484,2.7773447036743164
1763692629140820200,8.1628203125,-4.52488374710083,-1.4155511856079102,1.886979103088379
1763692629150899500,8.1728994140625,-4.765846252441406,-1.056713581085205,0.9573302268981934
1763692629160979500,8.1829794921875,-4.835892677307129,-0.7710404396057129,0.21311616897583008
1763692629171059500,8.1930595703125,-4.762986183166504,-0.43587589263916016,-0.40434885025024414
1763692629181145000,8.20314501953125,-4.630573749542236,0.2046046257019043,-1.403383731842041
1763692629191225000,8.21322509765625,-4.574105739593506,1.4455013275146484,-2.9497861862182617
1763692629201305000,8.22330517578125,-5.172510623931885,3.209855556488037,-4.072971820831299
1763692629211386600,8.23338671875,-6.263697147369385,5.440914154052734,-4.078528881072998
1763692629221466600,8.243466552734375,-8.008617401123047,8.274517059326172,-2.7316246032714844
1763692629231546600,8.253546630859375,-9.805994987487793,10.870906829833984,-1.3383336067199707
1763692629241623300,8.263623291015625,-10.494965553283691,11.775620460510254,-1.4412283897399902
1763692629251703300,8.273703369140625,-10.301630020141602,11.531384468078613,-3.7166996002197266
1763692629261783300,8.283783203125,-9.383931159973145,11.04998779296875,-8.530509948730469
1763692629271860700,8.29386083984375,-7.09358549118042,10.27784252166748,-14.115869522094727
1763692629281941000,8.30394091796875,-4.036553859710693,9.401848793029785,-20.113557815551758
1763692629292021000,8.31402099609375,-1.3295931816101074,8.299331665039062,-22.110963821411133
1763692629302108000,8.32410791015625,0.5905891060829163,7.0246429443359375,-19.830347061157227
1763692629312188000,8.33418798828125,1.876560926437378,5.859095573425293,-16.464317321777344
1763692629322268000,8.344267822265625,2.835235357284546,3.784010887145996,-12.517035484313965
1763692629332336400,8.35433642578125,3.322355270385742,1.9065666198730469,-8.930076599121094
1763692629342416400,8.36441650390625,3.3915627002716064,-0.6496953964233398,-6.250212669372559
1763692629352496400,8.374496337890625,3.140874147415161,-3.4671201705932617,-3.9969944953918457
1763692629362586000,8.384586181640625,2.5439884662628174,-5.86585807800293,-2.057887077331543
1763692629372666000,8.394666015625,1.9118660688400269,-7.637417793273926,-0.3312368392944336
1763692629382746000,8.40474609375,1.5302128791809082,-8.865318298339844,0.9957213401794434
1763692629392824000,8.414823974609375,1.6125082969665527,-9.984025001525879,1.8571083545684814
1763692629402904000,8.424904052734375,2.224921464920044,-11.153488159179688,2.4517383575439453
1763692629412984000,8.434984130859375,3.150648593902588,-12.363332748413086,3.0420873165130615
1763692629423075300,8.445075439453126,4.064780235290527,-13.57303237915039,3.6009254455566406
1763692629433155300,8.4551552734375,4.969578266143799,-14.84068775177002,4.057626724243164
1763692629443235300,8.4652353515625,5.683396816253662,-15.824294090270996,4.557577610015869
1763692629453308700,8.47530859375,6.017955303192139,-16.40697479248047,5.2425947189331055
1763692629463388700,8.485388671875,6.059588432312012,-16.590442657470703,5.911493301391602
1763692629473468700,8.49546875,5.856780052185059,-16.46393585205078,6.6126813888549805
1763692629483554600,8.505554443359374,5.598288536071777,-15.93936824798584,7.348420143127441
1763692629493634600,8.515634521484374,5.391655445098877,-15.155237197875977,8.043866157531738
1763692629503714600,8.525714599609374,5.158411979675293,-14.321776390075684,8.429155349731445
1763692629513794300,8.535794189453124,5.056814193725586,-13.553815841674805,8.040812492370605
1763692629523874300,8.545874267578125,4.9055891036987305,-12.921430587768555,6.985557556152344
1763692629533954300,8.555954345703125,4.642494201660156,-12.432729721069336,5.556902885437012
1763692629544034600,8.56603466796875,4.34617280960083,-11.806390762329102,4.056390762329102
1763692629554114600,8.576114501953125,4.260289669036865,-10.879377365112305,2.350914478302002
1763692629564194800,8.58619482421875,4.202799320220947,-9.846184730529785,0.7170867919921875
1763692629574292000,8.5962919921875,4.096850872039795,-8.646106719970703,-0.8305416107177734
1763692629584372000,8.6063720703125,3.8210983276367188,-6.970859527587891,-2.273707389831543
1763692629594452200,8.6164521484375,3.2410330772399902,-4.809038162231445,-3.70866060256958
1763692629604496400,8.626496337890625,2.1266016960144043,-2.4272208213806152,-5.008249282836914
1763692629614576400,8.636576416015625,1.5689654350280762,0.6067147254943848,-6.041775703430176
1763692629624656400,8.646656494140625,-0.2610761225223541,4.838602542877197,-5.397934913635254
1763692629634769200,8.65676904296875,-1.346604347229004,7.74089241027832,-3.3805975914001465
1763692629644849200,8.66684912109375,-1.4995871782302856,11.357020378112793,-5.465850830078125
1763692629654929200,8.67692919921875,-1.8727798461914062,14.540639877319336,-10.467689514160156
1763692629664948000,8.686947998046875,-0.6159594655036926,15.213644981384277,-19.778738021850586
1763692629675028000,8.697028076171875,0.7587677240371704,13.867982864379883,-28.905563354492188
1763692629685108000,8.70710791015625,0.574297308921814,11.638402938842773,-32.21355438232422
1763692629695270000,8.717269775390625,-0.73875892162323,10.54670524597168,-30.79840087890625
1763692629705350000,8.727349853515625,-2.568873882293701,10.593793869018555,-25.814579010009766
1763692629715430000,8.737429931640625,-3.808823347091675,10.365317344665527,-18.86559295654297
1763692629725500200,8.747500244140625,-3.9984545707702637,9.284931182861328,-11.636845588684082
1763692629735580200,8.757580078125,-3.670804977416992,7.897917747497559,-5.303009033203125
1763692629745660200,8.76766015625,-3.558408737182617,6.585771083831787,-0.047865867614746094
1763692629755721000,8.777720947265625,-3.3684802055358887,5.338943958282471,4.162235736846924
1763692629765801000,8.787801025390625,-3.1221261024475098,4.187403678894043,7.792586803436279
1763692629775881000,8.797880859375,-2.6919891834259033,3.274885654449463,10.755756378173828
1763692629785970000,8.807969970703125,-2.8119277954101562,2.7807364463806152,13.207155227661133
1763692629796050000,8.8180498046875,-2.7037668228149414,2.0655078887939453,14.63035774230957
1763692629806130000,8.8281298828125,-2.449272632598877,1.6631708145141602,15.117820739746094
1763692629816168200,8.838168212890626,-2.497195243835449,1.648697853088379,15.054397583007812
1763692629826248200,8.848248291015626,-2.475144863128662,1.3918018341064453,14.419071197509766
1763692629836328200,8.858328125,-2.3530664443969727,0.6711826324462891,13.350264549255371
1763692629846464500,8.868464599609375,-2.2495882511138916,-0.43947315216064453,12.141350746154785
1763692629856544500,8.87854443359375,-2.3714675903320312,-1.4761786460876465,10.744664192199707
1763692629866624500,8.88862451171875,-2.764059066772461,-2.1215217113494873,9.486578941345215
1763692629876704800,8.898704833984375,-3.164525032043457,-2.6505215167999268,8.618250846862793
1763692629886758000,8.9087578125,-3.4175052642822266,-3.1540915966033936,8.106072425842285
1763692629896838000,8.918837890625,-3.8338184356689453,-3.0019280910491943,7.5813069343566895
1763692629906918100,8.928918212890625,-4.6085991859436035,-2.977184295654297,6.6614532470703125
1763692629917005600,8.939005615234375,-4.887022495269775,-2.1748907566070557,5.414768695831299
1763692629927085600,8.94908544921875,-6.127841949462891,-1.2917585372924805,4.548944473266602
1763692629937165600,8.95916552734375,-6.245325088500977,-1.130173683166504,3.2854104042053223
1763692629947247900,8.969247802734374,-6.517087936401367,-0.599632740020752,1.1675138473510742
1763692629957328000,8.979327880859374,-6.608753204345703,0.5163364410400391,-2.04415225982666
1763692629967407900,8.989407958984375,-6.764901161193848,1.804502010345459,-4.6988630294799805
1763692629978044200,9.000044189453124,-7.461566925048828,3.187070846557617,-5.652748107910156
1763692629988124200,9.010124267578124,-8.696757316589355,5.575891017913818,-4.992129802703857
1763692629998204200,9.0202041015625,-10.570999145507812,8.937407493591309,-3.478898048400879
1763692630008313900,9.03031396484375,-12.520334243774414,12.348388671875,-2.8001856803894043
1763692630018393900,9.040393798828125,-13.376957893371582,14.125875473022461,-5.054777145385742
1763692630028473900,9.050473876953125,-12.182650566101074,13.254814147949219,-10.343443870544434
1763692630038558500,9.060558349609375,-9.891359329223633,10.756582260131836,-16.469085693359375
1763692630048638500,9.070638427734375,-7.577136516571045,8.273480415344238,-22.036235809326172
1763692630058718700,9.08071875,-4.832169055938721,6.468409061431885,-25.626541137695312
1763692630078266400,9.100266357421875,-0.015800833702087402,4.535409927368164,-18.56438636779785
1763692630088346400,9.110346435546875,1.5914183855056763,4.256879806518555,-13.151702880859375
1763692630098454800,9.120454833984375,3.2498340606689453,2.484255790710449,-8.865951538085938
1763692630108534800,9.13053466796875,4.214980602264404,-0.47457218170166016,-5.209584712982178
1763692630118614800,9.14061474609375,4.27703857421875,-3.6947221755981445,-2.2288880348205566
1763692630128697900,9.15069775390625,3.69669246673584,-6.73589563369751,0.22614526748657227
1763692630138777900,9.16077783203125,2.9399821758270264,-9.120132446289062,2.1757466793060303
1763692630148857900,9.17085791015625,2.2639760971069336,-10.772496223449707,3.825608730316162
1763692630158944500,9.180944580078124,2.224092483520508,-11.812358856201172,4.896547317504883
1763692630169024500,9.1910244140625,3.3533101081848145,-12.92365550994873,5.3208327293396
1763692630179104500,9.2011044921875,5.328044414520264,-14.392708778381348,5.562825679779053
1763692630189170000,9.211169921875,7.226172924041748,-15.72194766998291,6.121039390563965
1763692630199250000,9.22125,8.435127258300781,-16.40640640258789,7.0473198890686035
1763692630209330200,9.231330078125,9.003219604492188,-16.743404388427734,8.0765962600708
1763692630219407400,9.241407470703125,9.22958755493164,-17.153650283813477,9.083317756652832
1763692630229487400,9.2514873046875,9.042917251586914,-17.12832260131836,9.058486938476562
1763692630239567600,9.261567626953125,8.396418571472168,-16.442710876464844,8.793899536132812
1763692630249654500,9.271654541015625,7.661786079406738,-15.5716552734375,8.425701141357422
1763692630259734500,9.281734619140625,6.982851505279541,-14.589192390441895,7.8762993812561035
1763692630269814800,9.291814697265625,6.276970863342285,-13.366111755371094,6.638029098510742
1763692630279892200,9.301892333984375,6.232516765594482,-12.350059509277344,4.7864274978637695
1763692630289972200,9.31197216796875,6.202138900756836,-10.798356056213379,2.140061378479004
1763692630300052200,9.32205224609375,5.917356014251709,-8.915074348449707,-1.110853672027588
1763692630310132500,9.332132568359375,5.39765739440918,-7.323997974395752,-4.163003921508789
1763692630320212500,9.34221240234375,5.14732551574707,-6.286331653594971,-6.874077796936035
1763692630330292500,9.35229248046875,4.461833477020264,-5.219104766845703,-8.374833106994629
1763692630340379100,9.362379150390625,3.95560622215271,-3.4527292251586914,-10.760135650634766
1763692630350459100,9.372459228515625,3.1235342025756836,-1.2962861061096191,-10.885970115661621
1763692630360539100,9.3825390625,1.2518872022628784,1.6598620414733887,-8.716848373413086
1763692630370613200,9.39261328125,0.20916622877120972,2.7847585678100586,-5.300965309143066
1763692630380693200,9.402693359375,-1.3565342426300049,6.769660949707031,-3.2068986892700195
1763692630390773200,9.412773193359374,-3.8648271560668945,11.776403427124023,-3.5661520957946777
1763692630400870100,9.4228701171875,-3.916807174682617,13.731704711914062,-9.717391967773438
1763692630410950100,9.4329501953125,-2.364567756652832,13.342729568481445,-19.523305892944336
1763692630421030100,9.443030029296875,-1.4318441152572632,12.807296752929688,-29.222230911254883
1763692630431105800,9.453105712890626,-2.094154119491577,12.06130599975586,-33.257266998291016
1763692630441185800,9.463185791015626,-3.857404947280884,11.391620635986328,-28.36292266845703
1763692630451266000,9.47326611328125,-5.894711971282959,11.579599380493164,-18.680471420288086
1763692630461340400,9.48334033203125,-7.189243316650391,11.324745178222656,-9.626443862915039
1763692630471420400,9.49342041015625,-6.942457675933838,10.028899192810059,-3.724341869354248
1763692630481500400,9.50350048828125,-6.011009216308594,8.11648178100586,-0.34909582138061523
1763692630491585000,9.5135849609375,-5.039778232574463,6.0843186378479,1.986422061920166
1763692630501665300,9.523665283203124,-4.2436370849609375,4.093293190002441,4.311464309692383
1763692630511745300,9.533745361328124,-3.5945568084716797,2.419267177581787,7.183384895324707
1763692630521824000,9.543823974609374,-3.066743850708008,1.1945199966430664,10.129926681518555
1763692630531904300,9.553904296875,-2.524322509765625,0.1331496238708496,12.542078018188477
1763692630541984300,9.563984375,-2.0023012161254883,-0.805243968963623,14.131731033325195
1763692630552061400,9.5740615234375,-1.7358051538467407,-1.638685703277588,15.014314651489258
1763692630562141400,9.584141357421874,-1.4709908962249756,-2.433960437774658,14.445262908935547
1763692630572221700,9.5942216796875,-1.7880756855010986,-3.128685235977173,13.993332862854004
1763692630582303700,9.6043037109375,-1.9164843559265137,-4.030152320861816,13.521446228027344
1763692630592384000,9.614384033203125,-2.0417466163635254,-5.099062919616699,12.836651802062988
1763692630602464000,9.624464111328125,-2.455112934112549,-5.704558849334717,11.935667037963867
1763692630612543500,9.63454345703125,-2.781294822692871,-5.849190711975098,10.34416675567627
1763692630622623500,9.64462353515625,-3.0185608863830566,-5.710773468017578,8.403064727783203
1763692630632703500,9.654703369140625,-3.2919628620147705,-5.31101655960083,6.965212345123291
1763692630642783500,9.664783447265625,-3.795619487762451,-4.668770790100098,6.27691125869751
1763692630652863500,9.674863525390625,-4.1638288497924805,-3.7495100498199463,5.911593914031982
1763692630662943700,9.68494384765625,-4.671909809112549,-2.8585104942321777,5.423113822937012
1763692630673032700,9.69503271484375,-4.721925258636475,-1.4685683250427246,4.909327030181885
1763692630683112700,9.70511279296875,-5.258451461791992,1.0105643272399902,3.5960752964019775
1763692630693192700,9.715192626953124,-5.319496154785156,3.0144662857055664,1.2273426055908203
1763692630703258400,9.72525830078125,-4.955298900604248,4.140679836273193,-1.1205577850341797
1763692630713338400,9.73533837890625,-5.257659912109375,5.629766464233398,-2.8058667182922363
1763692630723418600,9.745418701171875,-6.671233177185059,7.995927810668945,-2.9820947647094727
1763692630733511200,9.75551123046875,-8.664072036743164,10.763813018798828,-0.91119384765625
1763692630743591200,9.765591064453124,-10.625529289245605,13.867937088012695,0.4959526062011719
1763692630753671200,9.775671142578124,-11.653706550598145,15.788214683532715,-1.9827275276184082
1763692630763763200,9.78576318359375,-11.352063179016113,15.627620697021484,-7.167827129364014
1763692630773843200,9.79584326171875,-9.738672256469727,13.86855697631836,-13.900033950805664
1763692630783923500,9.80592333984375,-6.854881763458252,11.916218757629395,-21.479984283447266
1763692630793995300,9.815995361328126,-4.1651458740234375,10.636728286743164,-26.428077697753906
1763692630804075300,9.8260751953125,-1.9709627628326416,9.448043823242188,-25.228994369506836
1763692630814155300,9.8361552734375,0.011054232716560364,8.148456573486328,-20.606430053710938
1763692630824231700,9.846231689453125,1.684273362159729,6.853213310241699,-15.791296005249023
1763692630834311700,9.856311767578125,3.082249164581299,4.718092918395996,-11.17953872680664
1763692630844391700,9.8663916015625,4.0532121658325195,1.981684684753418,-8.00632095336914
1763692630854420700,9.876420654296876,4.345576286315918,-0.7796459197998047,-5.522392272949219
1763692630864500700,9.886500732421876,4.2110276222229,-3.58664608001709,-3.482903480529785
1763692630874581000,9.8965810546875,3.8768138885498047,-5.997733116149902,-1.8146963119506836
1763692630884745000,9.906744873046875,3.493500232696533,-7.8825788497924805,-0.11994695663452148
1763692630894825000,9.916824951171876,3.265918731689453,-9.563027381896973,1.6272804737091064
1763692630904905200,9.9269052734375,3.3579728603363037,-11.252791404724121,3.1723480224609375
1763692630914924800,9.9369248046875,3.832984209060669,-12.968941688537598,4.072348117828369
1763692630925004800,9.9470048828125,4.6181254386901855,-14.698728561401367,4.269156455993652
1763692630935084800,9.957084716796874,5.524868011474609,-16.097436904907227,4.0998311042785645
1763692630945318000,9.96731787109375,6.361229419708252,-17.024921417236328,3.9860949516296387
1763692630955398000,9.97739794921875,6.946042060852051,-17.417091369628906,4.237232208251953
1763692630965478000,9.987477783203126,7.078852653503418,-17.425395965576172,4.863729476928711
1763692630975461600,9.997461669921876,6.591339111328125,-16.69402313232422,5.511460781097412
1763692630985541600,10.007541748046876,6.348437309265137,-15.978670120239258,5.162844657897949
1763692630995621600,10.01762158203125,6.16824197769165,-15.687358856201172,5.283790588378906
1763692631005697300,10.027697265625,5.498815536499023,-14.712964057922363,4.98200798034668
1763692631015777300,10.03777734375,4.487654685974121,-13.243700981140137,4.380411148071289
1763692631025857300,10.047857177734375,3.9489359855651855,-11.810014724731445,3.1448917388916016
1763692631035943700,10.057943603515625,3.7565526962280273,-10.495521545410156,1.4331462383270264
1763692631046024000,10.06802392578125,3.5845725536346436,-9.172748565673828,-0.36058616638183594
1763692631056104000,10.07810400390625,3.3657875061035156,-8.425901412963867,-1.1706256866455078
1763692631066173400,10.08817333984375,3.362048625946045,-7.220980644226074,-3.1004295349121094
1763692631076253400,10.09825341796875,2.9577505588531494,-5.758811950683594,-4.891517639160156
1763692631086333400,10.10833349609375,2.4759020805358887,-3.522885322570801,-7.098599910736084
1763692631096389400,10.118389404296876,1.638425588607788,-3.423776626586914,-6.798056602478027
1763692631106469400,10.128469482421876,1.0207542181015015,-0.8152580261230469,-5.627299785614014
1763692631116549600,10.138549560546876,-0.8240211606025696,3.1177167892456055,-5.475341796875
1763692631126643700,10.148643798828125,-2.0405032634735107,6.420949935913086,-4.131444454193115
1763692631136723700,10.1587236328125,-2.3929836750030518,9.614169120788574,-2.8074512481689453
1763692631146804000,10.168803955078126,-2.1935384273529053,12.860372543334961,-2.949596405029297
1763692631156880000,10.1788798828125,-1.1944233179092407,15.093772888183594,-6.833248615264893
1763692631166960000,10.188960205078125,0.8274175524711609,15.452853202819824,-14.48427963256836
1763692631177040100,10.1990400390625,2.470705032348633,14.509221076965332,-22.080673217773438
1763692631187121700,10.20912158203125,2.134988307952881,12.995471954345703,-24.109874725341797
1763692631197202000,10.219201904296876,0.5171968936920166,11.481697082519531,-20.849443435668945
1763692631207282000,10.229281982421876,-1.5698003768920898,10.30058479309082,-14.544563293457031
1763692631217973200,10.23997314453125,-3.05965518951416,9.192142486572266,-7.842243194580078
1763692631228053500,10.250053466796874,-3.586236000061035,7.647688865661621,-2.705291271209717
1763692631238133500,10.260133544921874,-3.643209457397461,5.543342590332031,0.6641135215759277
1763692631248174300,10.27017431640625,-3.535121440887451,3.193734645843506,3.1396541595458984
1763692631258254300,10.28025439453125,-3.3708271980285645,1.2496671676635742,5.196044445037842
1763692631268334300,10.290334228515626,-3.325284481048584,-0.09537363052368164,6.943614959716797
1763692631278421500,10.30042138671875,-3.4662656784057617,-1.181408405303955,8.714202880859375
1763692631288502800,10.310502685546876,-3.9171385765075684,-1.8992667198181152,10.725530624389648
1763692631298584000,10.320583984375,-4.55656623840332,-2.219630718231201,12.421789169311523
1763692631308676900,10.3306767578125,-4.892404079437256,-2.506927013397217,13.169474601745605
1763692631318758100,10.340758056640626,-5.108541488647461,-2.480409622192383,12.531329154968262
1763692631328839400,10.35083935546875,-5.028302192687988,-2.760672092437744,10.804800033569336
1763692631338350000,10.36035009765625,-4.527710914611816,-2.8801567554473877,9.301934242248535
1763692631348431400,10.370431396484374,-4.50777530670166,-2.211724281311035,8.08464241027832
1763692631358512600,10.3805126953125,-5.011892318725586,-1.760141372680664,7.5095696449279785
1763692631368574200,10.39057421875,-5.334226131439209,-1.7603001594543457,7.066840171813965
1763692631378655500,10.400655517578125,-5.7636237144470215,-1.9583134651184082,6.494654178619385
1763692631388736800,10.41073681640625,-6.358548164367676,-2.094332218170166,5.900913238525391
1763692631398829800,10.420829833984374,-7.0088348388671875,-1.9551963806152344,5.2315449714660645
1763692631408911000,10.4309111328125,-7.435887813568115,-1.5228681564331055,4.265530586242676
1763692631418992400,10.440992431640625,-7.574886322021484,-0.4370408058166504,3.0607147216796875
1763692631429052700,10.451052734375,-7.382985591888428,0.9433064460754395,1.763256549835205
1763692631439134000,10.461134033203125,-6.392826080322266,2.1971874237060547,-0.01908588409423828
1763692631449215200,10.47121533203125,-5.5107574462890625,3.3523025512695312,-2.4833450317382812
1763692631459297000,10.481297119140624,-4.5050458908081055,5.518825054168701,-6.1984357833862305
1763692631469378000,10.4913779296875,-3.7617669105529785,7.690740585327148,-8.062686920166016
1763692631479459300,10.501459228515625,-3.281813621520996,9.09345531463623,-7.934731483459473
1763692631489538000,10.5115380859375,-2.791877508163452,9.906867980957031,-6.958444118499756
1763692631499619300,10.521619384765625,-2.7757866382598877,10.727163314819336,-5.064356327056885
1763692631509700600,10.53170068359375,-2.8163318634033203,11.179563522338867,-5.3685832023620605
1763692631519773700,10.541773681640626,-2.694746255874634,10.714418411254883,-9.199106216430664
1763692631529855000,10.55185498046875,-0.6212649345397949,9.41858196258545,-12.983541488647461
1763692631539936300,10.561936279296875,1.3476574420928955,8.833026885986328,-15.853386878967285
1763692631550023700,10.572023681640625,2.3912289142608643,8.45619010925293,-16.445459365844727
1763692631560105000,10.58210498046875,3.8219776153564453,7.191184043884277,-15.61577033996582
1763692631570186200,10.592186279296875,5.1641435623168945,5.569207668304443,-13.987725257873535
1763692631580258800,10.6022587890625,5.796725749969482,4.184621334075928,-12.129169464111328
1763692631590340000,10.612340087890624,5.850387096405029,1.0098786354064941,-9.276349067687988
1763692631600421400,10.62242138671875,5.230321884155273,-0.6980552673339844,-6.678974628448486
1763692631610507000,10.632507080078126,4.340082168579102,-2.366746425628662,-4.511905193328857
1763692631620588300,10.64258837890625,3.213151693344116,-3.911623239517212,-3.056885242462158
1763692631630669600,10.652669677734375,2.15238618850708,-5.3214616775512695,-1.6877851486206055
1763692631640737300,10.6627373046875,1.0480170249938965,-6.749237537384033,-0.029674530029296875
1763692631650818300,10.672818359375,-0.005906581878662109,-7.85947847366333,1.7473416328430176
1763692631660899600,10.682899658203125,-0.5420923233032227,-8.672628402709961,3.1716439723968506
1763692631670986000,10.692986083984374,-0.6555600166320801,-9.38351058959961,4.0465240478515625
1763692631681067300,10.7030673828125,-0.44217658042907715,-10.060001373291016,4.740267753601074
1763692631691148500,10.7131484375,-0.31929874420166016,-10.359415054321289,5.335912704467773
1763692631701217500,10.723217529296875,-0.1357722282409668,-10.499137878417969,4.945736885070801
1763692631721380000,10.743380126953125,0.10786151885986328,-10.977850914001465,5.566066265106201
1763692631751620600,10.77362060546875,-1.31504487991333,-10.948060035705566,6.194262504577637
1763692631761715200,10.783715087890625,-1.8959896564483643,-11.091938018798828,6.170526504516602
1763692631771796500,10.79379638671875,-2.2957375049591064,-11.14640998840332,5.603931427001953
1763692631781877800,10.803877685546874,-2.5237715244293213,-10.231237411499023,4.722132205963135
1763692631791944700,10.81394482421875,-2.564735174179077,-8.780411720275879,3.381735324859619
1763692631802026000,10.82402587890625,-2.01383376121521,-7.563355445861816,1.6341649293899536
1763692631812107300,10.834107177734374,-1.015061855316162,-6.568599700927734,0.18146562576293945
1763692631822186000,10.84418603515625,-0.08094978332519531,-5.468315124511719,-0.161163330078125
1763692631832267300,10.854267333984374,0.5682950019836426,-4.31025505065918,0.3247721195220947
1763692631842348500,10.8643486328125,1.616722583770752,-2.5972466468811035,-0.8517541885375977
1763692631852425200,10.87442529296875,1.6117486953735352,-0.009005546569824219,-1.3154597282409668
1763692631872587800,10.894587890625,1.637059211730957,3.6091880798339844,-1.5942392349243164
1763692631882664700,10.904664794921874,1.4901156425476074,5.466682434082031,-1.7642765045166016
1763692631892746000,10.91474609375,1.1128110885620117,6.728648662567139,-0.955559253692627
1763692631902827300,10.9248271484375,1.8588600158691406,7.119013786315918,-1.383096694946289
1763692631912906200,10.93490625,3.0928168296813965,6.796249866485596,-3.8994717597961426
1763692631922987500,10.944987548828125,4.645930767059326,6.275093078613281,-7.460986614227295
1763692631933068800,10.95506884765625,6.3733720779418945,6.389326095581055,-11.019227981567383
1763692631943154200,10.965154296875,7.0577712059021,6.960521221160889,-12.69281005859375
1763692631953235500,10.9752353515625,6.6951446533203125,7.060880661010742,-11.474957466125488
1763692631963316700,10.985316650390626,5.767531394958496,6.569709777832031,-8.565689086914062
1763692631973393200,10.99539306640625,4.496367454528809,5.793486595153809,-4.97175931930542
1763692631983474200,11.00547412109375,3.0135793685913086,4.978890895843506,-1.5698671340942383
1763692631993555500,11.015555419921874,1.3909530639648438,4.205866813659668,1.0636563301086426
1763692632003636200,11.02563623046875,-0.05328369140625,3.2317185401916504,3.4304609298706055
1763692632013717500,11.035717529296875,-1.4257316589355469,2.244504928588867,5.712213516235352
1763692632023798800,11.045798828125,-2.6446609497070312,1.0860052108764648,7.673257827758789
1763692632043967700,11.0659677734375,-5.026455402374268,0.4016737937927246,9.584698677062988
1763692632054049000,11.076049072265626,-5.811290264129639,0.19756174087524414,9.34698486328125
1763692632064115200,11.086115234375,-5.9994001388549805,-0.047449588775634766,8.382670402526855
1763692632074196500,11.096196533203125,-5.883874893188477,-0.21545076370239258,7.045749187469482
1763692632084277800,11.10627783203125,-5.6982855796813965,-0.2726273536682129,5.6208295822143555
1763692632094382000,11.116382080078125,-5.402783393859863,-0.5398707389831543,4.209362983703613
1763692632104463400,11.12646337890625,-5.084002494812012,-0.6586289405822754,3.046844720840454
1763692632114544600,11.136544677734374,-5.19599723815918,0.11005163192749023,2.8852121829986572
1763692632124605700,11.146605712890626,-5.325052261352539,0.6326532363891602,3.147265672683716
1763692632134687000,11.15668701171875,-4.763357162475586,0.22066450119018555,3.051037073135376
1763692632144768300,11.166768310546875,-4.168429374694824,0.04793691635131836,2.5499327182769775
1763692632154831400,11.176831298828125,-3.9078011512756348,0.7197761535644531,1.7234392166137695
1763692632164912600,11.18691259765625,-3.9066245555877686,1.5322809219360352,0.8064398765563965
1763692632174994000,11.196993896484376,-3.7852537631988525,2.222376823425293,-0.37740039825439453
1763692632185064400,11.207064453125,-3.475916862487793,2.868192672729492,-1.6674113273620605
1763692632195145700,11.217145751953124,-3.2908785343170166,3.4053354263305664,-2.681203842163086
1763692632205227000,11.22722705078125,-3.058070182800293,4.289323329925537,-3.6662020683288574
1763692632215282400,11.237282470703125,-2.545236825942993,5.471658229827881,-4.615883827209473
1763692632225363700,11.24736376953125,-1.9618744850158691,7.045177459716797,-4.919619083404541
1763692632235445000,11.257445068359376,-0.6382002830505371,8.332669258117676,-5.082276821136475
1763692632245570800,11.26757080078125,1.4093146324157715,8.64929485321045,-5.417303085327148
1763692632255652000,11.277652099609375,3.589906692504883,7.95435905456543,-6.140691757202148
1763692632265733400,11.2877333984375,5.69352388381958,6.901371955871582,-7.2269487380981445
1763692632275800800,11.29780078125,7.287504196166992,6.416925430297852,-8.589716911315918
1763692632285882000,11.307882080078125,8.530126571655273,6.500675201416016,-9.918252944946289
1763692632295963100,11.317963134765625,9.640080451965332,6.941843032836914,-11.189849853515625
1763692632306018600,11.3280185546875,10.386191368103027,6.939441204071045,-12.404803276062012
1763692632316098600,11.3380986328125,10.670219421386719,5.799643039703369,-12.792473793029785
1763692632326178300,11.34817822265625,10.119013786315918,3.3489136695861816,-11.95979118347168
1763692632336291300,11.358291259765625,8.37689208984375,1.20924711227417,-10.166831970214844
1763692632346371300,11.368371337890625,5.995115280151367,-0.34446001052856445,-7.723942279815674
1763692632356451300,11.378451416015626,3.41387939453125,-1.876810073852539,-4.927181720733643
1763692632366539500,11.38853955078125,0.9541482925415039,-3.4666407108306885,-2.4228978157043457
1763692632376619500,11.39861962890625,-0.8985967636108398,-5.021894454956055,-0.41055774688720703
1763692632386699500,11.408699462890626,-2.1452624797821045,-6.3151116371154785,1.4378013610839844
1763692632396750300,11.418750244140625,-2.9941647052764893,-7.342389106750488,3.08099627494812
1763692632406830300,11.428830322265625,-3.295459747314453,-8.276764869689941,4.39132022857666
1763692632416910000,11.43891015625,-3.209773063659668,-9.211122512817383,5.637772560119629
1763692632427599000,11.44959912109375,-2.580681562423706,-10.26612663269043,6.609124183654785
1763692632437679000,11.45967919921875,-1.8863348960876465,-11.325433731079102,7.244960784912109
1763692632457249300,11.479249267578124,-1.4338243007659912,-12.389240264892578,8.470224380493164
1763692632467329300,11.489329345703124,-1.5056242942810059,-12.021278381347656,8.438284873962402
1763692632477409300,11.4994091796875,-1.6335022449493408,-11.947335243225098,8.530986785888672
1763692632487478500,11.509478515625,-1.6005899906158447,-11.880596160888672,8.822360038757324
1763692632497558300,11.519558349609374,-1.5314748287200928,-11.393187522888184,8.992778778076172
1763692632507638300,11.52963818359375,-1.3121590614318848,-10.689120292663574,8.634955406188965
1763692632518342700,11.5403427734375,-0.9075462818145752,-9.931472778320312,7.6300153732299805
1763692632528422700,11.550422607421876,-0.32041215896606445,-9.04220199584961,6.023711204528809
1763692632538502700,11.560502685546876,0.2923440933227539,-8.309355735778809,4.465100288391113
1763692632558059000,11.58005908203125,1.4830255508422852,-6.887653350830078,2.857448101043701
1763692632568139000,11.590138916015626,1.9884731769561768,-6.142361640930176,2.5296261310577393
1763692632578219000,11.600218994140626,2.417712688446045,-4.531601428985596,1.439915657043457
1763692632588266000,11.610265869140624,2.00464129447937,-2.0979695320129395,0.04212522506713867
1763692632598346000,11.620345947265625,1.3365774154663086,-1.120882511138916,-0.8684887886047363
1763692632608425700,11.63042578125,2.1383378505706787,2.094825267791748,-2.3434324264526367
1763692632618520600,11.6405205078125,0.6343135833740234,4.827484607696533,-2.523998737335205
1763692632628600300,11.650600341796874,0.002707242965698242,7.0710930824279785,-3.120119571685791
1763692632638680300,11.660680419921874,1.0533173084259033,8.30406379699707,-5.827410697937012
1763692632648808700,11.67080859375,3.3164591789245605,7.888368129730225,-10.641302108764648
1763692632658888700,11.680888671875,5.850025177001953,6.248979568481445,-16.605148315429688
1763692632668968700,11.69096875,6.698151111602783,4.2341227531433105,-22.17932891845703
1763692632679001900,11.701001953125,5.665658950805664,2.643608570098877,-25.101669311523438
1763692632689081900,11.711081787109375,3.9412307739257812,2.579021453857422,-23.40287208557129
1763692632699161900,11.721161865234375,1.9063032865524292,3.9364664554595947,-18.016380310058594
1763692632709264400,11.731264404296875,0.3832470178604126,5.071934700012207,-11.636234283447266
1763692632719344400,11.741344482421875,0.06950891017913818,4.831755638122559,-6.434453010559082
1763692632729424100,11.751424072265625,0.48563140630722046,3.4859814643859863,-3.1357831954956055
1763692632739510800,11.7615107421875,0.14379221200942993,3.921635866165161,-0.07900714874267578
1763692632749590800,11.7715908203125,-0.4690859615802765,4.272675514221191,2.652378559112549
1763692632759670500,11.78167041015625,-1.2909877300262451,4.095672607421875,4.215031147003174
1763692632769749800,11.791749755859374,-1.9892524480819702,3.9395244121551514,6.741650581359863
1763692632779829800,11.801829833984375,-2.861391544342041,3.8262288570404053,8.469072341918945
1763692632799966500,11.821966552734375,-4.571587085723877,3.8144960403442383,11.227827072143555
1763692632810046500,11.83204638671875,-5.054011344909668,3.045030355453491,11.764202117919922
1763692632820126200,11.842126220703125,-5.185121536254883,2.2945034503936768,11.826736450195312
1763692632830201000,11.852201171875,-5.382217884063721,1.78489351272583,11.30948257446289
1763692632840281000,11.862281005859375,-5.589887619018555,1.2871966361999512,10.774080276489258
1763692632850361000,11.872361083984375,-5.88055419921875,0.5786721706390381,10.28697681427002
1763692632860434700,11.8824345703125,-5.914450645446777,-0.20967364311218262,9.413124084472656
1763692632870514700,11.8925146484375,-6.045891284942627,0.23418188095092773,7.987740516662598
1763692632880594400,11.902594482421875,-6.298863887786865,0.6341583728790283,6.792684555053711
1763692632890655000,11.912655029296875,-5.687615394592285,0.355741024017334,5.424277305603027
1763692632900735000,11.92273486328125,-5.1896467208862305,0.21743321418762207,3.7960238456726074
1763692632910815000,11.93281494140625,-4.98487663269043,0.5961613655090332,1.83628511428833
1763692632920919800,11.942919921875,-5.2158050537109375,0.7808458805084229,-0.1799335479736328
1763692632930999800,11.952999755859375,-5.49020528793335,0.5057046413421631,-1.9765253067016602
1763692632941079600,11.96307958984375,-6.07922887802124,0.766352653503418,-3.5466604232788086
1763692632951203000,11.973203125,-7.178533554077148,1.2992312908172607,-4.860403060913086
1763692632961283000,11.983282958984375,-8.231502532958984,1.4822046756744385,-5.96571159362793
1763692632971363000,11.993363037109376,-8.933899879455566,1.8546319007873535,-6.74698543548584
1763692632981404400,12.003404296875,-9.245593070983887,2.3311710357666016,-6.8438215255737305
1763692632991484400,12.013484375,-8.783695220947266,2.729804515838623,-7.414203643798828
1763692633001564200,12.023564208984375,-7.160423278808594,2.7232789993286133,-8.55530071258545
1763692633011690000,12.03368994140625,-4.647528648376465,2.371593475341797,-10.307531356811523
1763692633021769700,12.043769775390626,-2.6191978454589844,2.4825563430786133,-12.282737731933594
1763692633031849700,12.053849609375,-1.4329205751419067,2.7764153480529785,-14.334784507751465
1763692633041912300,12.063912353515626,-0.4273413419723511,2.8451485633850098,-15.823493957519531
1763692633051992300,12.073992431640624,0.7080885767936707,2.562519073486328,-16.054889678955078
1763692633062072000,12.084072021484374,1.5364152193069458,1.4331488609313965,-14.997604370117188
1763692633072161300,12.094161376953124,1.86679208278656,0.1772165298461914,-12.89126968383789
1763692633082241300,12.1042412109375,1.7948311567306519,-0.9703054428100586,-10.327225685119629
1763692633092321000,12.114321044921875,1.547345519065857,-2.1975581645965576,-7.724193572998047
1763692633102364000,12.124364013671874,1.255679726600647,-3.315993309020996,-5.511310577392578
1763692633112443600,12.134443603515624,1.0419849157333374,-4.527437210083008,-3.735116958618164
1763692633122523600,12.144523681640624,1.0680088996887207,-5.5969462394714355,-1.9018783569335938
1763692633132631800,12.1546318359375,1.6057958602905273,-6.229304313659668,0.1821441650390625
1763692633142711800,12.1647119140625,2.5817127227783203,-6.467348575592041,2.367377758026123
1763692633152791800,12.174791748046875,3.918823480606079,-6.793359279632568,4.414912700653076
1763692633162885000,12.184885009765624,5.411377906799316,-7.332935333251953,6.092859268188477
1763692633172965000,12.194965087890624,6.7251176834106445,-8.009117126464844,7.273748397827148
1763692633183045000,12.205045166015625,7.444352149963379,-8.75462818145752,8.054354667663574
1763692633193134000,12.215134033203125,7.585177421569824,-9.42670726776123,8.68735408782959
1763692633203213800,12.2252138671875,7.34265661239624,-9.887273788452148,9.500885963439941
1763692633213293800,12.2352939453125,6.896938323974609,-10.121272087097168,10.28984260559082
1763692633223368200,12.2453681640625,6.399746894836426,-10.241711616516113,10.897509574890137
1763692633233448200,12.2554482421875,5.846336841583252,-10.115631103515625,11.263816833496094
1763692633243528000,12.26552783203125,5.3254075050354,-9.660660743713379,10.972026824951172
1763692633253599200,12.27559912109375,4.930092811584473,-9.265974044799805,10.11401081085205
1763692633263679200,12.28567919921875,4.790374279022217,-9.125661849975586,9.02537727355957
1763692633273759200,12.29575927734375,4.653377532958984,-8.840957641601562,7.662832736968994
1763692633283819500,12.305819580078126,4.298302173614502,-8.543618202209473,5.848963737487793
1763692633293899500,12.3158994140625,3.7967569828033447,-8.547433853149414,4.042524337768555
1763692633303979300,12.325979248046876,3.2873222827911377,-8.35869312286377,2.477133274078369
1763692633314088700,12.336088623046875,2.3442585468292236,-8.024370193481445,2.473057270050049
1763692633324169000,12.3461689453125,2.314270496368408,-7.7005743980407715,0.46793365478515625
1763692633334249000,12.3562490234375,1.8869460821151733,-5.866936683654785,-1.5399894714355469
1763692633344306200,12.36630615234375,1.1704968214035034,-5.118902206420898,-1.8083767890930176
1763692633354386400,12.376386474609374,2.492952346801758,-3.678568124771118,-3.942257881164551
1763692633364466400,12.386466552734374,2.4678432941436768,-0.36610841751098633,-4.966641426086426
1763692633384599800,12.406599853515624,2.5836727619171143,6.402726173400879,-5.018078804016113
1763692633394680000,12.41668017578125,2.903799295425415,8.092131614685059,-3.766179084777832
1763692633404799000,12.426799072265625,2.9223196506500244,9.769613265991211,-5.125435829162598
1763692633414879000,12.43687890625,3.0527443885803223,9.677450180053711,-9.746935844421387
1763692633424959000,12.446958984375,3.4060282707214355,7.287903308868408,-16.22810173034668
1763692633435031000,12.457031005859376,2.3878846168518066,4.214813232421875,-22.33144760131836
1763692633445111000,12.467111083984374,-0.29688429832458496,1.8125314712524414,-23.961273193359375
1763692633455191300,12.47719140625,-3.1131584644317627,1.3640174865722656,-21.259037017822266
1763692633465335800,12.487335693359375,-5.020346164703369,2.830265998840332,-16.21111488342285
1763692633475415800,12.497415771484375,-5.228639602661133,4.267780780792236,-10.510153770446777
1763692633485495800,12.507495849609375,-4.099207878112793,4.2812910079956055,-5.895418167114258
1763692633495496000,12.517495849609375,-2.8157193660736084,3.594515800476074,-2.407388687133789
1763692633505576200,12.527576171875,-2.309565305709839,3.305968999862671,0.9379291534423828
1763692633515656200,12.53765625,-2.482062816619873,3.414424419403076,4.014984607696533
1763692633525804500,12.547804443359375,-2.8603153228759766,3.389780044555664,6.6227641105651855
1763692633535884500,12.557884521484375,-3.3061461448669434,3.031177520751953,8.836913108825684
1763692633545964500,12.567964599609375,-3.8645033836364746,2.5083398818969727,10.594367980957031
1763692633556011500,12.578011474609376,-4.583884239196777,2.0532379150390625,11.547149658203125
1763692633566091500,12.588091552734374,-5.3025593757629395,1.6234378814697266,11.523880958557129
1763692633576171500,12.598171630859374,-5.878294944763184,1.1584572792053223,10.878756523132324
1763692633586194000,12.60819384765625,-6.044717311859131,0.7429232597351074,10.088784217834473
1763692633596274000,12.61827392578125,-6.301525115966797,0.761256217956543,9.30591106414795
1763692633606354000,12.62835400390625,-6.558592796325684,0.45267629623413086,8.39082145690918
1763692633616455000,12.638454833984374,-6.530176639556885,-0.29984617233276367,7.430141925811768
1763692633626535000,12.648534912109374,-6.835362434387207,-0.7270152568817139,6.695143699645996
1763692633636615000,12.658614990234375,-7.135178565979004,-0.8027584552764893,5.862861633300781
1763692633647311600,12.6693115234375,-7.126829147338867,-0.6670217514038086,4.796413421630859
1763692633657391600,12.6793916015625,-6.884829521179199,-0.12631511688232422,3.694246292114258
1763692633667472000,12.689471923828124,-6.450680255889893,0.8229680061340332,2.5428366661071777
1763692633687021000,12.70902099609375,-5.7230544090271,1.11899995803833,0.587644100189209
1763692633697101300,12.719101318359375,-6.606563091278076,2.9370155334472656,-0.12981224060058594
1763692633707194000,12.729194091796876,-6.8494486808776855,4.262892723083496,-1.3173036575317383
1763692633717274000,12.739274169921876,-7.023428916931152,5.499882698059082,-2.855905532836914
1763692633727354000,12.74935400390625,-8.081034660339355,7.5830230712890625,-3.953709602355957
1763692633738028800,12.76002880859375,-9.32606029510498,10.106585502624512,-5.150129318237305
1763692633748108800,12.77010888671875,-10.115381240844727,11.908391952514648,-7.982819557189941
1763692633758188800,12.780188720703125,-9.336012840270996,12.173423767089844,-12.947433471679688
1763692633768278500,12.790278564453125,-6.920656204223633,10.867382049560547,-17.92951202392578
1763692633778358500,12.800358642578125,-4.695989608764648,9.484420776367188,-22.269180297851562
1763692633788438800,12.810438720703125,-2.931687355041504,8.14365005493164,-26.28748321533203
1763692633798561800,12.820561767578125,-0.9433555603027344,6.216588020324707,-28.309391021728516
1763692633808641800,12.830641845703125,1.4075180292129517,3.711918830871582,-27.182958602905273
1763692633818721800,12.8407216796875,3.3706154823303223,1.799391269683838,-23.418725967407227
1763692633838269700,12.860269775390625,4.603655815124512,-0.44391775131225586,-12.978601455688477
1763692633848349700,12.870349609375,4.695361614227295,-2.742218017578125,-8.083453178405762
1763692633858410800,12.88041064453125,4.3483171463012695,-5.189580917358398,-4.128756999969482
1763692633868490800,12.89049072265625,3.9052329063415527,-7.2389349937438965,-0.9267969131469727
1763692633878570800,12.90057080078125,3.696518898010254,-8.939485549926758,2.0632967948913574
1763692633888665300,12.910665283203125,3.8581650257110596,-10.312688827514648,4.648480415344238
1763692633898745600,12.92074560546875,4.551527976989746,-11.518651962280273,6.436710834503174
1763692633908825600,12.93082568359375,5.661074161529541,-12.822216033935547,7.61118221282959
1763692633918889000,12.940888916015625,7.042903423309326,-14.272747039794922,8.50767993927002
1763692633928969000,12.950968994140625,8.021574974060059,-15.543185234069824,9.683746337890625
1763692633939049000,12.961049072265626,8.391200065612793,-16.277851104736328,11.105462074279785
1763692633949109500,12.971109619140625,8.22997760772705,-16.616867065429688,12.383177757263184
1763692633959189500,12.981189453125,7.503354072570801,-16.494365692138672,12.83027458190918
1763692633969269500,12.99126953125,6.940840721130371,-16.873197555541992,11.757957458496094
1763692633979336000,13.0013359375,6.159049987792969,-17.303783416748047,11.463083267211914
1763692633989416200,13.011416259765625,4.698599338531494,-16.863956451416016,10.913646697998047
1763692633999496200,13.02149609375,3.3646697998046875,-16.33929443359375,9.979454040527344
1763692634009625600,13.03162548828125,2.2760255336761475,-15.786808967590332,8.875312805175781
1763692634019705600,13.04170556640625,1.4856014251708984,-14.766709327697754,6.586681842803955
1763692634029785600,13.05178564453125,1.481873631477356,-13.809511184692383,4.363217353820801
1763692634039864600,13.061864501953124,1.3703665733337402,-12.354964256286621,4.223129749298096
1763692634049944600,13.071944580078124,1.415922999382019,-11.463224411010742,2.2880122661590576
1763692634060024600,13.082024658203125,1.463071584701538,-10.718125343322754,0.16214895248413086
1763692634070108200,13.092108154296875,1.0592657327651978,-9.267928123474121,-1.8224053382873535
1763692634080188200,13.102188232421875,0.0880669355392456,-8.16172981262207,-3.4461488723754883
1763692634090268200,13.11226806640625,0.578131914138794,-6.551021575927734,-4.3698344230651855
1763692634100307700,13.1223076171875,-0.2978585362434387,-3.1258327960968018,-5.381528854370117
1763692634110387700,13.1323876953125,-0.5337539911270142,-0.05182838439941406,-6.017313003540039
1763692634120467700,13.1424677734375,-0.8579111099243164,3.349208354949951,-5.043070316314697
