time,seconds_elapsed,z,y,x
1763692621076634000,0.098634033203125,8.484691619873047,3.405162811279297,-3.547571897506714
1763692621086714000,0.108714111328125,8.588235855102539,3.35781192779541,-3.33731746673584
1763692621106869500,0.128869384765625,8.60859489440918,3.4857935905456543,-3.148289203643799
1763692621127047400,0.14904736328125,8.653646469116211,3.573564052581787,-2.9179468154907227
1763692621147219200,0.16921923828125,8.71387767791748,3.5749619007110596,-2.731004238128662
1763692621157271600,0.179271484375,8.724573135375977,3.5636861324310303,-2.711526393890381
1763692621167351600,0.1893515625,8.715492248535156,3.5531883239746094,-2.7541677951812744
1763692621177431600,0.199431640625,8.720754623413086,3.5222482681274414,-2.7771575450897217
1763692621187532800,0.20953271484375,8.742709159851074,3.4599387645721436,-2.7864418029785156
1763692621197612800,0.21961279296875,8.761178016662598,3.3750102519989014,-2.8322179317474365
1763692621207692800,0.22969287109375,8.767151832580566,3.295681953430176,-2.906184196472168
1763692621218358300,0.240358154296875,8.757488250732422,3.2329723834991455,-3.0041093826293945
1763692621228438300,0.250438232421875,8.758670806884766,3.1956164836883545,-3.040412425994873
1763692621238518300,0.260518310546875,8.783817291259766,3.178178310394287,-2.9856557846069336
1763692621248602000,0.27060205078125,8.810954093933105,3.185070276260376,-2.8970348834991455
1763692621258682000,0.28068212890625,8.829543113708496,3.2147045135498047,-2.806284189224243
1763692621268762000,0.29076220703125,8.8422212600708,3.25713849067688,-2.7159814834594727
1763692621278268700,0.3002685546875,8.846368789672852,3.3058605194091797,-2.6426172256469727
1763692621288348700,0.3103486328125,8.840386390686035,3.363785743713379,-2.5889954566955566
1763692621298428700,0.3204287109375,8.813328742980957,3.433444023132324,-2.589806079864502
1763692621308480800,0.330480712890625,8.74493408203125,3.5288100242614746,-2.691469669342041
1763692621318560800,0.340560791015625,8.66316032409668,3.6473655700683594,-2.795846462249756
1763692621328640800,0.350640869140625,8.6099853515625,3.7631564140319824,-2.8066341876983643
1763692621338731500,0.3607314453125,8.58648681640625,3.864042043685913,-2.7407724857330322
1763692621348811500,0.3708115234375,8.572053909301758,3.9440252780914307,-2.6711318492889404
1763692621358891500,0.3808916015625,8.55338191986084,3.998823642730713,-2.649426221847534
1763692621368981800,0.390981689453125,8.529474258422852,4.036040782928467,-2.6699883937835693
1763692621379061800,0.401061767578125,8.514589309692383,4.056203365325928,-2.686886787414551
1763692621389142000,0.41114208984375,8.513689994812012,4.056324481964111,-2.6895506381988525
1763692621399212800,0.421212890625,8.518888473510742,4.0408735275268555,-2.6963436603546143
1763692621409292800,0.431292724609375,8.529757499694824,4.013043403625488,-2.7035388946533203
1763692621419372800,0.441372802734375,8.549911499023438,3.978316068649292,-2.6911680698394775
1763692621429450200,0.4514501953125,8.572463035583496,3.945359945297241,-2.6678457260131836
1763692621439530200,0.4615302734375,8.589707374572754,3.923245906829834,-2.644890785217285
1763692621449610200,0.4716103515625,8.602945327758789,3.9127824306488037,-2.617222547531128
1763692621459689000,0.48168896484375,8.61577320098877,3.910933017730713,-2.5774872303009033
1763692621469769000,0.49176904296875,8.621129035949707,3.9216113090515137,-2.543125629425049
1763692621479849000,0.501848876953125,8.617691040039062,3.943721294403076,-2.5204849243164062
1763692621489933800,0.511933837890625,8.611370086669922,3.9706950187683105,-2.49965238571167
1763692621500013800,0.522013916015625,8.603521347045898,3.997548818588257,-2.483829975128174
1763692621510093800,0.53209375,8.593432426452637,4.021940231323242,-2.4793782234191895
1763692621520174600,0.542174560546875,8.578393936157227,4.042553901672363,-2.4978625774383545
1763692621530254600,0.552254638671875,8.556477546691895,4.06171178817749,-2.5415735244750977
1763692621540334600,0.56233447265625,8.523914337158203,4.089311599731445,-2.605916738510132
1763692621550416000,0.572415771484375,8.481962203979492,4.121845245361328,-2.690186023712158
1763692621560495900,0.582495849609375,8.441719055175781,4.141843795776367,-2.7844016551971436
1763692621570576100,0.592576171875,8.411396026611328,4.143040180206299,-2.8729822635650635
1763692621580664800,0.602664794921875,8.389358520507812,4.130118370056152,-2.954855442047119
1763692621590744800,0.612744873046875,8.375432014465332,4.106337547302246,-3.0266342163085938
1763692621600824800,0.622824951171875,8.37119197845459,4.0760884284973145,-3.0788028240203857
1763692621610900200,0.632900146484375,8.370904922485352,4.045294761657715,-3.119924783706665
1763692621620980200,0.642980224609375,8.369354248046875,4.015987873077393,-3.1616668701171875
1763692621631060200,0.653060302734375,8.363598823547363,3.988926649093628,-3.2107725143432617
1763692621641168600,0.663168701171875,8.354758262634277,3.962919235229492,-3.2655303478240967
1763692621651248600,0.67324853515625,8.341373443603516,3.9360737800598145,-3.3315465450286865
1763692621661328600,0.68332861328125,8.325260162353516,3.895561695098877,-3.4183363914489746
1763692621671397000,0.693397216796875,8.3087797164917,3.825395107269287,-3.535663604736328
1763692621681477000,0.70347705078125,8.284117698669434,3.7160556316375732,-3.7060365676879883
1763692621691557400,0.713557373046875,8.23859977722168,3.5610547065734863,-3.9515514373779297
1763692621701625600,0.72362548828125,8.165595054626465,3.3589956760406494,-4.267386436462402
1763692621711705600,0.73370556640625,8.07280158996582,3.1161856651306152,-4.614071369171143
1763692621721785600,0.74378564453125,7.967885494232178,2.8561859130859375,-4.95231294631958
1763692621731844900,0.753844970703125,7.85639762878418,2.6234688758850098,-5.25022029876709
1763692621741924900,0.7639248046875,7.75522518157959,2.451873779296875,-5.478611469268799
1763692621752005000,0.774005126953125,7.678977966308594,2.337448835372925,-5.633828639984131
1763692621762081800,0.784081787109375,7.604123115539551,2.2758543491363525,-5.759182929992676
1763692621782241800,0.80424169921875,7.407498359680176,2.2867929935455322,-6.005823612213135
1763692621792354000,0.81435400390625,7.318037033081055,2.301544189453125,-6.108978748321533
1763692621802434000,0.82443408203125,7.250162124633789,2.2731282711029053,-6.1998724937438965
1763692621812514000,0.83451416015625,7.182818412780762,2.189908504486084,-6.307283401489258
1763692621822588000,0.844587890625,7.132438659667969,2.065518379211426,-6.405648708343506
1763692621832668000,0.85466796875,7.137271404266357,1.9106422662734985,-6.448193073272705
1763692621842748000,0.864747802734375,7.204348564147949,1.7217156887054443,-6.426774501800537
1763692621852833300,0.874833251953125,7.297916412353516,1.5022107362747192,-6.376061916351318
1763692621862913300,0.884913330078125,7.392549991607666,1.2605011463165283,-6.319156169891357
1763692621872993300,0.8949931640625,7.489570140838623,0.9962959885597229,-6.251729488372803
1763692621893116200,0.9151162109375,7.6644721031188965,0.43359142541885376,-6.102315425872803
1763692621903196200,0.925196044921875,7.731367111206055,0.15973977744579315,-6.030823707580566
1763692621913304800,0.935304931640625,7.806732654571533,-0.09558673202991486,-5.934321880340576
1763692621923384800,0.945384765625,7.905745506286621,-0.30893293023109436,-5.7943196296691895
1763692621933465000,0.955465087890625,8.020094871520996,-0.46888262033462524,-5.623932361602783
1763692621943597800,0.965597900390625,8.141169548034668,-0.5764238238334656,-5.436864376068115
1763692621953677800,0.975677734375,8.269388198852539,-0.6285479068756104,-5.2337870597839355
1763692621963757800,0.9857578125,8.39044189453125,-0.6334511637687683,-5.036826133728027
1763692621973761500,0.995761474609375,8.489923477172852,-0.5893656015396118,-4.872805118560791
1763692621983841500,1.005841552734375,8.581862449645996,-0.4925866723060608,-4.7201032638549805
1763692621993921500,1.015921630859375,8.666852951049805,-0.35482823848724365,-4.574946880340576
1763692622004028000,1.02602783203125,8.737282752990723,-0.18969233334064484,-4.449078559875488
1763692622014108000,1.03610791015625,8.792080879211426,-0.002405348466709256,-4.343925476074219
1763692622034281000,1.056281005859375,8.856179237365723,0.43938547372817993,-4.188723564147949
1763692622044361000,1.06636083984375,8.868046760559082,0.6904658079147339,-4.129333972930908
1763692622054441000,1.07644091796875,8.862716674804688,0.9562029838562012,-4.087581157684326
1763692622064486000,1.08648583984375,8.842972755432129,1.2046416997909546,-4.064610481262207
1763692622074566000,1.09656591796875,8.798882484436035,1.4186021089553833,-4.091163158416748
1763692622084646000,1.10664599609375,8.729308128356934,1.6009221076965332,-4.172125339508057
1763692622094759400,1.116759521484375,8.651000022888184,1.759277582168579,-4.270306587219238
1763692622104839400,1.12683935546875,8.571904182434082,1.9020276069641113,-4.367508411407471
1763692622114919400,1.13691943359375,8.491253852844238,2.032304048538208,-4.465280532836914
1763692622124967000,1.146966796875,8.416974067687988,2.1482009887695312,-4.550840854644775
1763692622135047000,1.157046875,8.35537338256836,2.252664804458618,-4.613418102264404
1763692622145127000,1.167126953125,8.310503959655762,2.343120574951172,-4.649267673492432
1763692622165389800,1.187389892578125,8.256146430969238,2.478320598602295,-4.675934791564941
1763692622175470000,1.197469970703125,8.234029769897461,2.5320658683776855,-4.68612813949585
1763692622185440000,1.20743994140625,8.209297180175781,2.580824851989746,-4.702888488769531
1763692622195520300,1.217520263671875,8.176132202148438,2.6301748752593994,-4.733225345611572
1763692622205600500,1.2276005859375,8.131089210510254,2.6876065731048584,-4.778341770172119
1763692622215730200,1.237730224609375,8.073403358459473,2.760219097137451,-4.834432125091553
1763692622225810400,1.247810546875,8.005431175231934,2.8492343425750732,-4.895439624786377
1763692622235890700,1.257890625,7.93045711517334,2.9502577781677246,-4.957238674163818
1763692622245957600,1.26795751953125,7.853400707244873,3.053461790084839,-5.017056941986084
1763692622256038000,1.278037841796875,7.775325775146484,3.1539559364318848,-5.076146602630615
1763692622266118100,1.2881181640625,7.6963090896606445,3.2511215209960938,-5.134922027587891
1763692622276184800,1.298184814453125,7.617577075958252,3.3454246520996094,-5.191439151763916
1763692622286265000,1.30826513671875,7.539792537689209,3.436814308166504,-5.24501895904541
1763692622296345300,1.318345458984375,7.462944984436035,3.524742603302002,-5.296322822570801
1763692622306378500,1.32837841796875,7.384139537811279,3.60813307762146,-5.3503499031066895
1763692622316458800,1.338458740234375,7.299732685089111,3.6856143474578857,-5.412996768951416
1763692622326539000,1.3485390625,7.207196235656738,3.7565016746520996,-5.48775053024292
1763692622336668400,1.35866845703125,7.101922988891602,3.821991443634033,-5.579019546508789
1763692622346748700,1.368748779296875,6.986909866333008,3.879668712615967,-5.6834540367126465
1763692622356829000,1.378828857421875,6.870794296264648,3.925028085708618,-5.792816638946533
1763692622366897400,1.3888974609375,6.75993537902832,3.95546555519104,-5.9015212059021
1763692622376977700,1.398977783203125,6.658868312835693,3.9722189903259277,-6.004276275634766
1763692622387058000,1.409057861328125,6.571459770202637,3.978177309036255,-6.09593391418457
1763692622397136100,1.41913623046875,6.495609760284424,3.9785635471343994,-6.176445960998535
1763692622407216400,1.42921630859375,6.426513195037842,3.980841875076294,-6.246856689453125
1763692622417296600,1.439296630859375,6.362565994262695,3.991680860519409,-6.305126667022705
1763692622428001500,1.45000146484375,6.296689510345459,4.017354965209961,-6.354757785797119
1763692622438081800,1.460081787109375,6.2289652824401855,4.059864044189453,-6.394362926483154
1763692622448162000,1.470162109375,6.148745059967041,4.120512008666992,-6.4330949783325195
1763692622458208000,1.4802080078125,6.05218505859375,4.193097114562988,-6.47760534286499
1763692622468288300,1.490288330078125,5.941025257110596,4.271317958831787,-6.529199600219727
1763692622478368500,1.500368408203125,5.828396797180176,4.345106601715088,-6.5818095207214355
1763692622488457700,1.510457763671875,5.728097438812256,4.403600692749023,-6.630805969238281
1763692622498538000,1.5205380859375,5.648516654968262,4.437027454376221,-6.676634311676025
1763692622508618500,1.530618408203125,5.596282958984375,4.440141201019287,-6.718419075012207
1763692622518678800,1.5406787109375,5.574452877044678,4.411120414733887,-6.755581378936768
1763692622528759000,1.550759033203125,5.5809736251831055,4.3516645431518555,-6.788676738739014
1763692622538839300,1.56083935546875,5.606697082519531,4.268804550170898,-6.820018291473389
1763692622548363800,1.57036376953125,5.633533477783203,4.177253246307373,-6.854504108428955
1763692622558444000,1.580444091796875,5.6461076736450195,4.0823283195495605,-6.901191711425781
1763692622568524300,1.590524169921875,5.6300368309021,4.007199287414551,-6.958118915557861
1763692622578601000,1.60060107421875,5.593264102935791,3.965303421020508,-7.011573314666748
1763692622588681200,1.61068115234375,5.552239418029785,3.96087908744812,-7.046591758728027
1763692622598761500,1.620761474609375,5.515390872955322,3.987438201904297,-7.0605363845825195
1763692622608800300,1.63080029296875,5.477363586425781,4.034544467926025,-7.063379287719727
1763692622618880500,1.640880615234375,5.429094314575195,4.089022159576416,-7.069315433502197
1763692622628960800,1.650960693359375,5.369488716125488,4.142268657684326,-7.083826065063477
1763692622639051800,1.6610517578125,5.300997257232666,4.190441608428955,-7.107039928436279
1763692622649132000,1.671132080078125,5.231365203857422,4.232921123504639,-7.133413791656494
1763692622659212300,1.68121240234375,5.163317680358887,4.272025108337402,-7.159633159637451
1763692622669310000,1.69131005859375,5.095095157623291,4.313138008117676,-7.1838178634643555
1763692622679390200,1.70139013671875,5.021171569824219,4.359848976135254,-7.207630157470703
1763692622689470500,1.711470458984375,4.9398040771484375,4.413081169128418,-7.231420993804932
1763692622699549700,1.7215498046875,4.860474586486816,4.472921371459961,-7.248390197753906
1763692622709630000,1.7316298828125,4.790165424346924,4.531425476074219,-7.258849620819092
1763692622719710200,1.741710205078125,4.727630138397217,4.578824996948242,-7.27009391784668
1763692622729791000,1.751791015625,4.665748119354248,4.611908912658691,-7.289133548736572
1763692622739871200,1.761871337890625,4.603219509124756,4.633142948150635,-7.315377235412598
1763692622749951500,1.771951416015625,4.549136638641357,4.648712635040283,-7.339292526245117
1763692622760036600,1.78203662109375,4.514124393463135,4.663410186767578,-7.35157585144043
1763692622770116900,1.792116943359375,4.497951984405518,4.677661895751953,-7.3524346351623535
1763692622780197000,1.802197021484375,4.486745357513428,4.692062854766846,-7.350104808807373
1763692622790275000,1.812275146484375,4.466680526733398,4.709136486053467,-7.351406097412109
1763692622800355300,1.822355224609375,4.436436176300049,4.729434490203857,-7.356688499450684
1763692622810435600,1.832435546875,4.396737575531006,4.755380630493164,-7.36379337310791
1763692622820524000,1.84252392578125,4.338811874389648,4.7898125648498535,-7.375824451446533
1763692622830604300,1.852604248046875,4.267629623413086,4.834228038787842,-7.388367176055908
1763692622840684500,1.8626845703125,4.195237636566162,4.8823561668396,-7.398173809051514
1763692622850754800,1.8727548828125,4.136431694030762,4.923882961273193,-7.403761386871338
1763692622860835000,1.8828349609375,4.09513521194458,4.955357551574707,-7.405720233917236
1763692622870915300,1.892915283203125,4.066353797912598,4.976249694824219,-7.407569408416748
1763692622880993300,1.9029931640625,4.036534309387207,4.993108749389648,-7.412532329559326
1763692622891073500,1.913073486328125,3.998016595840454,5.017070770263672,-7.417226314544678
1763692622901153800,1.92315380859375,3.954359769821167,5.053651809692383,-7.415794849395752
1763692622911241700,1.93324169921875,3.907545804977417,5.101161956787109,-7.408078193664551
1763692622921322000,1.943322021484375,3.853853940963745,5.154706001281738,-7.399135589599609
1763692622931402200,1.95340234375,3.7822022438049316,5.209599018096924,-7.39766263961792
1763692622941486300,1.963486328125,3.7225241661071777,5.237785816192627,-7.408023357391357
1763692622951566600,1.973566650390625,3.6980504989624023,5.244992733001709,-7.415177822113037
1763692622961646800,1.983646728515625,3.688016176223755,5.238967418670654,-7.424429416656494
1763692622971718400,1.993718505859375,3.7225911617279053,5.206147193908691,-7.430257320404053
1763692622981798700,2.003798583984375,3.7509605884552,5.147341728210449,-7.456912994384766
1763692622991879000,2.01387890625,3.76440167427063,5.08065128326416,-7.495776176452637
1763692623001960700,2.023960693359375,3.7759194374084473,5.028899669647217,-7.524825096130371
1763692623012041000,2.034041015625,3.78157114982605,5.007015228271484,-7.536571025848389
1763692623022121200,2.044121337890625,3.7721943855285645,5.016685485839844,-7.534839630126953
1763692623032192300,2.054192138671875,3.742455244064331,5.048677444458008,-7.528297424316406
1763692623042272500,2.0642724609375,3.6988494396209717,5.089694976806641,-7.522227764129639
1763692623052352800,2.074352783203125,3.6585917472839355,5.127330780029297,-7.516354560852051
1763692623062440000,2.08443994140625,3.633391857147217,5.151379108428955,-7.5121331214904785
1763692623072520200,2.094520263671875,3.623328447341919,5.155410289764404,-7.514227390289307
1763692623082600400,2.104600341796875,3.6210150718688965,5.142404079437256,-7.524248123168945
1763692623092682200,2.11468212890625,3.615015745162964,5.1214919090271,-7.54137659072876
1763692623102762500,2.124762451171875,3.599858045578003,5.100516319274902,-7.5628132820129395
1763692623112842800,2.1348427734375,3.5722384452819824,5.08134126663208,-7.588772296905518
1763692623122923000,2.144923095703125,3.534485101699829,5.0609235763549805,-7.620029926300049
1763692623133003300,2.155003173828125,3.49202299118042,5.038536548614502,-7.654364585876465
1763692623143083500,2.16508349609375,3.448763608932495,5.014979839324951,-7.6893696784973145
1763692623153174000,2.175174072265625,3.4113171100616455,4.988924980163574,-7.72294807434082
1763692623163254300,2.185254150390625,3.3797178268432617,4.961931228637695,-7.754169464111328
1763692623173334500,2.19533447265625,3.3485107421875,4.9376068115234375,-7.7831807136535645
1763692623183405300,2.2054052734375,3.314479351043701,4.9163055419921875,-7.81118106842041
1763692623193485300,2.2154853515625,3.284839630126953,4.894299507141113,-7.837477207183838
1763692623203565300,2.2255654296875,3.2693300247192383,4.865403175354004,-7.861915111541748
1763692623213644500,2.23564453125,3.271191120147705,4.826366901397705,-7.885168552398682
1763692623223724500,2.245724609375,3.2868731021881104,4.780137062072754,-7.906778335571289
1763692623233804800,2.2558046875,3.3080220222473145,4.7331671714782715,-7.926191329956055
1763692623243878000,2.2658779296875,3.3280413150787354,4.692615985870361,-7.941906929016113
1763692623253958100,2.275958251953125,3.341310501098633,4.663322925567627,-7.953581809997559
1763692623264038100,2.2860380859375,3.3379149436950684,4.646390438079834,-7.964908599853516
1763692623284202500,2.306202392578125,3.2906603813171387,4.643298149108887,-7.986346244812012
1763692623294282800,2.31628271484375,3.264986753463745,4.6481523513793945,-7.99405574798584
1763692623304347000,2.326346923828125,3.241304874420166,4.651413917541504,-8.001791000366211
1763692623314427000,2.336427001953125,3.2223355770111084,4.6506757736206055,-8.009878158569336
1763692623324507100,2.346507080078125,3.212735891342163,4.646035194396973,-8.016424179077148
1763692623334633500,2.356633544921875,3.2051820755004883,4.638346195220947,-8.023898124694824
1763692623344713500,2.36671337890625,3.1981546878814697,4.628410816192627,-8.032435417175293
1763692623354793500,2.37679345703125,3.1976044178009033,4.626805782318115,-8.033577919006348
1763692623364835300,2.38683544921875,3.1989176273345947,4.641670227050781,-8.024476051330566
1763692623374915300,2.396915283203125,3.1891419887542725,4.664278030395508,-8.015252113342285
1763692623384995300,2.406995361328125,3.1676137447357178,4.686131000518799,-8.011041641235352
1763692623395051300,2.41705126953125,3.138493537902832,4.704078197479248,-8.011984825134277
1763692623415211500,2.43721142578125,3.150090456008911,4.683108329772949,-8.01971435546875
1763692623425335000,2.4473349609375,3.1315789222717285,4.675319671630859,-8.031499862670898
1763692623435415300,2.457415283203125,3.116983413696289,4.669500350952148,-8.040557861328125
1763692623445495300,2.467495361328125,3.104200839996338,4.667145252227783,-8.046867370605469
1763692623455564000,2.47756396484375,3.0858123302459717,4.668224334716797,-8.053312301635742
1763692623465644000,2.48764404296875,3.0611417293548584,4.66909122467041,-8.062219619750977
1763692623475724000,2.49772412109375,3.029022455215454,4.668603420257568,-8.074623107910156
1763692623485820000,2.50781982421875,2.9909520149230957,4.66520881652832,-8.090761184692383
1763692623495900000,2.51789990234375,2.9488680362701416,4.658379554748535,-8.11012077331543
1763692623505980200,2.527980224609375,2.90567946434021,4.653656482696533,-8.128400802612305
1763692623516034600,2.53803466796875,2.8650617599487305,4.653377056121826,-8.142966270446777
1763692623526114600,2.548114501953125,2.82795786857605,4.652414321899414,-8.156475067138672
1763692623536194800,2.55819482421875,2.7957053184509277,4.64339542388916,-8.17271614074707
1763692623546316300,2.56831640625,2.7678847312927246,4.624135494232178,-8.193079948425293
1763692623556396500,2.578396484375,2.7392795085906982,4.599153518676758,-8.216721534729004
1763692623566476500,2.5884765625,2.7061376571655273,4.575181007385254,-8.24105167388916
1763692623576509000,2.598509033203125,2.671276330947876,4.555995941162109,-8.263025283813477
1763692623586589000,2.6085888671875,2.6385228633880615,4.550192356109619,-8.276734352111816
1763692623606772500,2.6287724609375,2.561568260192871,4.580996513366699,-8.283913612365723
1763692623616852700,2.638852783203125,2.5071425437927246,4.610865116119385,-8.2839937210083
1763692623626932700,2.6489326171875,2.4450912475585938,4.635773181915283,-8.2886381149292
1763692623637006600,2.659006591796875,2.3771347999572754,4.642784118652344,-8.304468154907227
1763692623647086600,2.669086669921875,2.303302764892578,4.625943183898926,-8.334616661071777
1763692623657166600,2.67916650390625,2.230175495147705,4.592205047607422,-8.373074531555176
1763692623667252700,2.689252685546875,2.156318187713623,4.543829917907715,-8.418686866760254
1763692623677332700,2.699332763671875,2.0826120376586914,4.483817100524902,-8.469266891479492
1763692623687413000,2.7094130859375,2.0130398273468018,4.419350624084473,-8.519824028015137
1763692623698123000,2.720123046875,1.9465326070785522,4.354921817779541,-8.568316459655762
1763692623708203300,2.730203369140625,1.885629415512085,4.304443836212158,-8.607354164123535
1763692623718283300,2.740283203125,1.822672963142395,4.266147613525391,-8.639921188354492
1763692623737811000,2.75981103515625,1.6778024435043335,4.208341121673584,-8.697425842285156
1763692623747891200,2.76989111328125,1.5865048170089722,4.178182125091553,-8.729042053222656
1763692623757971200,2.77997119140625,1.4949692487716675,4.137072563171387,-8.7647066116333
1763692623768076000,2.790075927734375,1.4056470394134521,4.081339359283447,-8.805521965026855
1763692623778156000,2.800156005859375,1.3290290832519531,4.014713764190674,-8.847946166992188
1763692623788236000,2.810236083984375,1.2658686637878418,3.9439096450805664,-8.888956069946289
1763692623798264300,2.820264404296875,1.2082500457763672,3.8725454807281494,-8.928264617919922
1763692623808344600,2.830344482421875,1.1499172449111938,3.8036210536956787,-8.965518951416016
1763692623818424600,2.840424560546875,1.0946935415267944,3.739084005355835,-8.999515533447266
1763692623828541200,2.850541259765625,1.0466808080673218,3.680793523788452,-9.029208183288574
1763692623838621200,2.86062109375,1.0044938325881958,3.6274237632751465,-9.055561065673828
1763692623848701400,2.870701416015625,0.9570208191871643,3.5745129585266113,-9.081704139709473
1763692623858794800,2.880794677734375,0.9087386727333069,3.513842821121216,-9.110295295715332
1763692623878954800,2.900954833984375,0.8246774673461914,3.3633675575256348,-9.174860000610352
1763692623888972500,2.91097265625,0.7918648719787598,3.2810654640197754,-9.207494735717773
1763692623899052500,2.921052490234375,0.7578814029693604,3.1994757652282715,-9.239012718200684
1763692623909132500,2.931132568359375,0.7281811833381653,3.1292800903320312,-9.265405654907227
1763692623919245800,2.941245849609375,0.7326409816741943,3.066918134689331,-9.285882949829102
1763692623929325800,2.951325927734375,0.7658147215843201,3.0046656131744385,-9.303543090820312
1763692623939405800,2.96140576171875,0.8182209134101868,2.9467365741729736,-9.317599296569824
1763692623949487900,2.97148779296875,0.8753455281257629,2.8980937004089355,-9.327658653259277
1763692623959568000,2.98156787109375,0.9315588474273682,2.861126184463501,-9.333624839782715
1763692623969648000,2.991648193359375,0.9806216359138489,2.836146593093872,-9.336222648620605
1763692623979727000,3.00172705078125,1.014186143875122,2.818547487258911,-9.337965965270996
1763692623989807000,3.01180712890625,1.031930685043335,2.8023829460144043,-9.340886116027832
1763692623999887000,3.02188720703125,1.0461660623550415,2.7839648723602295,-9.344808578491211
1763692624009967400,3.03196728515625,1.0649391412734985,2.7639732360839844,-9.34862232208252
1763692624020047400,3.04204736328125,1.0893455743789673,2.7460410594940186,-9.351094245910645
1763692624030127400,3.05212744140625,1.11715829372406,2.7325258255004883,-9.35177230834961
1763692624040205000,3.062205078125,1.1454432010650635,2.7255728244781494,-9.35037899017334
1763692624050285000,3.07228515625,1.1741667985916138,2.7277657985687256,-9.346176147460938
1763692624060365300,3.082365234375,1.2045886516571045,2.736835241317749,-9.339651107788086
1763692624070446000,3.092446044921875,1.2408447265625,2.7465763092041016,-9.33204174041748
1763692624080526000,3.102526123046875,1.2835443019866943,2.749788284301758,-9.325318336486816
1763692624090606000,3.112606201171875,1.3326759338378906,2.743973731994629,-9.320137977600098
1763692624100678400,3.122678466796875,1.3942683935165405,2.7348570823669434,-9.313804626464844
1763692624110758700,3.132758544921875,1.4663796424865723,2.7343523502349854,-9.302871704101562
1763692624120838700,3.142838623046875,1.5408589839935303,2.74509596824646,-9.287657737731934
1763692624130929200,3.15292919921875,1.6217907667160034,2.76680850982666,-9.267414093017578
1763692624141009200,3.163009033203125,1.7119001150131226,2.8023571968078613,-9.240486145019531
1763692624151089400,3.17308935546875,1.8095554113388062,2.848780632019043,-9.207623481750488
1763692624161175800,3.18317578125,1.9098644256591797,2.8998892307281494,-9.171338081359863
1763692624171256000,3.193256103515625,1.99723482131958,2.9504153728485107,-9.13654613494873
1763692624181336000,3.203336181640625,2.0614023208618164,2.9949803352355957,-9.107749938964844
1763692624191411700,3.21341162109375,2.104891300201416,3.031545400619507,-9.085678100585938
1763692624201491700,3.22349169921875,2.1315155029296875,3.0591824054718018,-9.070195198059082
1763692624211572000,3.233572021484375,2.142338275909424,3.076572895050049,-9.061758041381836
1763692624221646300,3.243646240234375,2.1418979167938232,3.0834875106811523,-9.059513092041016
1763692624231726300,3.253726318359375,2.134293556213379,3.078705310821533,-9.062932968139648
1763692624241806600,3.263806640625,2.1129915714263916,3.063441753387451,-9.073090553283691
1763692624251889200,3.27388916015625,2.071054458618164,3.0448710918426514,-9.088996887207031
1763692624261969200,3.28396923828125,2.0203540325164795,3.028923273086548,-9.105722427368164
1763692624272049400,3.29404931640625,1.9725013971328735,3.0140175819396973,-9.121146202087402
1763692624282126300,3.304126220703125,1.9331427812576294,3.000412940979004,-9.134050369262695
1763692624292206600,3.31420654296875,1.9040358066558838,2.99019718170166,-9.143508911132812
1763692624302286600,3.32428662109375,1.8767390251159668,2.987778902053833,-9.149940490722656
1763692624312358100,3.334358154296875,1.8432143926620483,2.9960649013519287,-9.154045104980469
1763692624322438100,3.344438232421875,1.8005284070968628,3.012608051300049,-9.157111167907715
1763692624332518400,3.354518310546875,1.7478491067886353,3.0342841148376465,-9.160160064697266
1763692624342605300,3.364605224609375,1.6891183853149414,3.0627639293670654,-9.161700248718262
1763692624352685300,3.374685302734375,1.6254067420959473,3.0910232067108154,-9.163734436035156
1763692624362765300,3.384765380859375,1.5578722953796387,3.1184816360473633,-9.166160583496094
1763692624372853800,3.394853759765625,1.4777146577835083,3.1481432914733887,-9.169293403625488
1763692624382933800,3.404933837890625,1.3829337358474731,3.1805176734924316,-9.172904968261719
1763692624393013800,3.415013671875,1.280174970626831,3.210475206375122,-9.177383422851562
1763692624403084000,3.425083984375,1.175594449043274,3.2357423305511475,-9.182502746582031
1763692624413164000,3.4351640625,1.0705902576446533,3.2518231868743896,-9.189661026000977
1763692624423244300,3.445244384765625,0.9618633985519409,3.2574641704559326,-9.19968032836914
1763692624433334300,3.455334228515625,0.8499009609222412,3.2545647621154785,-9.211723327636719
1763692624443414300,3.465414306640625,0.7491146922111511,3.2463512420654297,-9.223362922668457
1763692624453494300,3.475494384765625,0.6679941415786743,3.233842372894287,-9.233983039855957
1763692624463582700,3.485582763671875,0.6048291921615601,3.2214109897613525,-9.242676734924316
1763692624473662700,3.495662841796875,0.5520493388175964,3.210803270339966,-9.249669075012207
1763692624483743000,3.505742919921875,0.5046824812889099,3.200648784637451,-9.255891799926758
1763692624493812700,3.515812744140625,0.4564763307571411,3.1918907165527344,-9.261417388916016
1763692624503892700,3.525892822265625,0.40435895323753357,3.184464454650879,-9.26639461517334
1763692624513973000,3.535972900390625,0.34636855125427246,3.184964179992676,-9.268570899963379
1763692624524047000,3.546047119140625,0.28500741720199585,3.19589900970459,-9.266897201538086
1763692624534127400,3.55612744140625,0.22246789932250977,3.2088794708251953,-9.264123916625977
1763692624544207400,3.566207275390625,0.1715741753578186,3.221806049346924,-9.26071834564209
1763692624554296800,3.576296875,0.1273028701543808,3.2378292083740234,-9.255843162536621
1763692624564377000,3.586377197265625,0.0759381651878357,3.260514259338379,-9.248441696166992
1763692624574457000,3.59645703125,0.025184867903590202,3.2860629558563232,-9.23967170715332
1763692624584513800,3.606513671875,-0.016984526067972183,3.304678201675415,-9.233049392700195
1763692624594593800,3.61659375,-0.04374055564403534,3.319268226623535,-9.227725982666016
1763692624604674000,3.626674072265625,-0.05652304366230965,3.3298230171203613,-9.223854064941406
1763692624614750700,3.636750732421875,-0.05972297489643097,3.3282558917999268,-9.22439956665039
1763692624624830700,3.646830810546875,-0.05472852289676666,3.288621187210083,-9.23863410949707
1763692624634910700,3.65691064453125,-0.05938078090548515,3.203071117401123,-9.2686128616333
1763692624645021000,3.66702099609375,-0.09816684573888779,3.091566562652588,-9.306072235107422
1763692624655101200,3.67710107421875,-0.1727563589811325,2.9697444438934326,-9.344579696655273
1763692624665181200,3.68718115234375,-0.27064815163612366,2.8464772701263428,-9.380549430847168
1763692624675311600,3.6973115234375,-0.39050528407096863,2.732654571533203,-9.410127639770508
1763692624685391600,3.7073916015625,-0.5422078371047974,2.6437647342681885,-9.427986145019531
1763692624695471900,3.717471923828125,-0.7190670967102051,2.582918167114258,-9.433019638061523
1763692624705482200,3.727482177734375,-0.9064649939537048,2.541300058364868,-9.428176879882812
1763692624715562200,3.737562255859375,-1.0938481092453003,2.4980294704437256,-9.419858932495117
1763692624725642200,3.747642333984375,-1.2596923112869263,2.4437992572784424,-9.413363456726074
1763692624735737600,3.757737548828125,-1.405723214149475,2.3752498626708984,-9.410235404968262
1763692624745817600,3.767817626953125,-1.519345998764038,2.2928805351257324,-9.413005828857422
1763692624755897600,3.777897705078125,-1.6012351512908936,2.199659824371338,-9.421673774719238
1763692624765967400,3.78796728515625,-1.6683253049850464,2.0901029109954834,-9.434964179992676
1763692624776047400,3.79804736328125,-1.7227061986923218,1.9628336429595947,-9.452510833740234
1763692624786127600,3.808127685546875,-1.7442662715911865,1.8249577283859253,-9.476151466369629
1763692624796187600,3.818187744140625,-1.7527529001235962,1.6859551668167114,-9.50030517578125
1763692624806267600,3.828267578125,-1.7765376567840576,1.5490549802780151,-9.519176483154297
1763692624816347600,3.83834765625,-1.8100781440734863,1.425878643989563,-9.532097816467285
1763692624826476000,3.84847607421875,-1.8445520401000977,1.330932378768921,-9.539216041564941
1763692624836556000,3.85855615234375,-1.8699867725372314,1.2764614820480347,-9.541707992553711
1763692624846636300,3.86863623046875,-1.8839061260223389,1.2656229734420776,-9.540412902832031
1763692624856716300,3.87871630859375,-1.8901574611663818,1.2976796627044678,-9.534868240356445
1763692624866756600,3.888756591796875,-1.8914785385131836,1.3651704788208008,-9.525177955627441
1763692624876836600,3.898836669921875,-1.8908166885375977,1.4611107110977173,-9.511065483093262
1763692624886916900,3.908916748046875,-1.8930002450942993,1.578249216079712,-9.491894721984863
1763692624896996400,3.918996337890625,-1.8988887071609497,1.712133765220642,-9.46748161315918
1763692624907076400,3.929076416015625,-1.9135496616363525,1.8591398000717163,-9.436753273010254
1763692624917156600,3.939156494140625,-1.946395754814148,2.0134384632110596,-9.398298263549805
1763692624927230500,3.94923046875,-2.0014498233795166,2.1701011657714844,-9.351751327514648
1763692624937310500,3.959310546875,-2.0730178356170654,2.327587366104126,-9.298135757446289
1763692624947390500,3.969390380859375,-2.156275749206543,2.484902858734131,-9.238296508789062
1763692624958060800,3.980060791015625,-2.256502628326416,2.6481292247772217,-9.168750762939453
1763692624968140800,3.990140869140625,-2.340383768081665,2.797652006149292,-9.103084564208984
1763692624978221000,4.000220947265625,-2.4198784828186035,2.944592237472534,-9.035704612731934
1763692624988333600,4.01033349609375,-2.4924609661102295,3.0882949829101562,-8.967745780944824
1763692624998413600,4.02041357421875,-2.553257703781128,3.222665309906006,-8.903128623962402
1763692625008493600,4.03049365234375,-2.596911668777466,3.35129976272583,-8.842806816101074
1763692625018568700,4.040568603515625,-2.6090993881225586,3.4786665439605713,-8.789873123168945
1763692625038728700,4.060728759765625,-2.549744129180908,3.7258613109588623,-8.705581665039062
1763692625048232700,4.070232666015625,-2.5023224353790283,3.832232713699341,-8.673105239868164
1763692625058312700,4.080312744140625,-2.455845355987549,3.935598134994507,-8.640039443969727
1763692625068392700,4.090392822265625,-2.42590594291687,4.026500225067139,-8.606547355651855
1763692625078472400,4.100472412109375,-2.4130592346191406,4.101289749145508,-8.574786186218262
1763692625088552400,4.110552490234375,-2.424097776412964,4.155927658081055,-8.54531478881836
1763692625098632400,4.120632568359375,-2.463451385498047,4.183570861816406,-8.520535469055176
1763692625108706600,4.13070654296875,-2.538361072540283,4.179261207580566,-8.500639915466309
1763692625118786600,4.14078662109375,-2.664142608642578,4.142719268798828,-8.480012893676758
1763692625128866600,4.150866455078125,-2.8368563652038574,4.078488349914551,-8.45509147644043
1763692625138960000,4.1609599609375,-3.0368282794952393,3.9910318851470947,-8.42732048034668
1763692625149040000,4.1710400390625,-3.2360143661499023,3.883219003677368,-8.403524398803711
1763692625159120100,4.1811201171875,-3.41550350189209,3.7591757774353027,-8.388880729675293
1763692625169187000,4.19118701171875,-3.5693931579589844,3.624674081802368,-8.38400650024414
1763692625179267000,4.20126708984375,-3.7021827697753906,3.483962297439575,-8.38607406616211
1763692625189347000,4.21134716796875,-3.8169057369232178,3.3388671875,-8.39366340637207
1763692625199422000,4.221421875,-3.9184935092926025,3.1935808658599854,-8.403382301330566
1763692625209502000,4.231501953125,-4.011727809906006,3.0591416358947754,-8.409404754638672
1763692625219582000,4.24158203125,-4.0988335609436035,2.940330982208252,-8.40977954864502
1763692625229666000,4.251666015625,-4.179377555847168,2.8382205963134766,-8.405217170715332
1763692625239746000,4.26174609375,-4.245840549468994,2.755449056625366,-8.39944839477539
1763692625249826300,4.271826416015625,-4.292159080505371,2.694601535797119,-8.395646095275879
1763692625259907800,4.281907958984375,-4.312208652496338,2.6546411514282227,-8.398101806640625
1763692625269987800,4.29198779296875,-4.300602912902832,2.6337878704071045,-8.41061019897461
1763692625280067800,4.30206787109375,-4.252362251281738,2.6371164321899414,-8.434062957763672
1763692625290156000,4.312156005859375,-4.167603015899658,2.664968967437744,-8.467551231384277
1763692625300236000,4.322236083984375,-4.053194522857666,2.7148969173431396,-8.507134437561035
1763692625310316300,4.33231640625,-3.9183130264282227,2.7845137119293213,-8.547730445861816
1763692625320365600,4.342365478515625,-3.763667106628418,2.8668770790100098,-8.589889526367188
1763692625330445600,4.352445556640625,-3.5871269702911377,2.9528656005859375,-8.636174201965332
1763692625340525600,4.362525634765625,-3.387938976287842,3.0345094203948975,-8.688153266906738
1763692625350631700,4.372631591796875,-3.1673810482025146,3.114501714706421,-8.742880821228027
1763692625360711700,4.382711669921875,-2.9245810508728027,3.2006406784057617,-8.796198844909668
1763692625370792000,4.3927919921875,-2.654883623123169,3.303727865219116,-8.84349250793457
1763692625380866800,4.40286669921875,-2.3632802963256836,3.4340741634368896,-8.876510620117188
1763692625390946800,4.41294677734375,-2.0578434467315674,3.5913963317871094,-8.890305519104004
1763692625401027000,4.423027099609375,-1.7423914670944214,3.7684543132781982,-8.88443660736084
1763692625411106600,4.4331064453125,-1.4178075790405273,3.958604574203491,-8.859439849853516
1763692625421186600,4.4431865234375,-1.08242666721344,4.156232833862305,-8.816147804260254
1763692625431266800,4.453266845703125,-0.7389499545097351,4.356621265411377,-8.754666328430176
1763692625441349000,4.46334912109375,-0.3999657928943634,4.559983253479004,-8.672771453857422
1763692625451429000,4.47342919921875,-0.07599540054798126,4.76193380355835,-8.572548866271973
1763692625461509000,4.483509033203125,0.23211461305618286,4.9446539878845215,-8.465630531311035
1763692625471593700,4.49359375,0.5221381783485413,5.095691204071045,-8.362517356872559
1763692625481673700,4.503673828125,0.788541853427887,5.210294246673584,-8.270514488220215
1763692625491754000,4.51375390625,1.0298184156417847,5.286843299865723,-8.195069313049316
1763692625501829400,4.523829345703125,1.2484440803527832,5.328680515289307,-8.137378692626953
1763692625511909400,4.533909423828125,1.4538660049438477,5.345272064208984,-8.092263221740723
1763692625521989400,4.5439892578125,1.6488550901412964,5.350921630859375,-8.051044464111328
1763692625532072700,4.55407275390625,1.8452190160751343,5.3575520515441895,-8.003886222839355
1763692625542153000,4.564153076171875,2.0752663612365723,5.379766941070557,-7.932323455810547
1763692625552233000,4.57423291015625,2.304657459259033,5.424990653991699,-7.83762788772583
1763692625562295600,4.584295654296875,2.528445243835449,5.4927144050598145,-7.720585346221924
1763692625572375600,4.59437548828125,2.74251389503479,5.5682291984558105,-7.592352867126465
1763692625582455600,4.60445556640625,2.9451770782470703,5.633077621459961,-7.467580795288086
1763692625592552400,4.614552490234375,3.134582281112671,5.679141521453857,-7.354736328125
1763692625602632400,4.624632568359375,3.29213285446167,5.7020978927612305,-7.26762056350708
1763692625612712700,4.634712646484375,3.4117202758789062,5.69973087310791,-7.214127540588379
1763692625622792700,4.644792724609375,3.4988672733306885,5.676631927490234,-7.190560817718506
1763692625632872700,4.654872802734375,3.5548617839813232,5.6453962326049805,-7.187687397003174
1763692625642952700,4.66495263671875,3.5782907009124756,5.613980770111084,-7.200655460357666
1763692625653038600,4.67503857421875,3.5847744941711426,5.575685977935791,-7.227137088775635
1763692625663118800,4.685118896484375,3.594304323196411,5.527950763702393,-7.259002685546875
1763692625673198800,4.69519873046875,3.609222650527954,5.4684576988220215,-7.296566009521484
1763692625683279600,4.705279541015625,3.62469482421875,5.4009175300598145,-7.339076995849609
1763692625693359600,4.715359619140625,3.6397993564605713,5.33369255065918,-7.380648136138916
1763692625703440000,4.72543994140625,3.6509692668914795,5.276658058166504,-7.416043758392334
1763692625713517000,4.73551708984375,3.654707908630371,5.2353315353393555,-7.443440914154053
1763692625723597300,4.745597412109375,3.649606943130493,5.206750869750977,-7.465956211090088
1763692625733677300,4.75567724609375,3.6322579383850098,5.186933994293213,-7.488178253173828
1763692625743771400,4.765771484375,3.6034324169158936,5.170459747314453,-7.513455390930176
1763692625753851400,4.775851318359375,3.5666470527648926,5.146949291229248,-7.547074317932129
1763692625763931600,4.785931640625,3.526669502258301,5.1079583168029785,-7.5922160148620605
1763692625773999600,4.79599951171875,3.4873850345611572,5.049901485443115,-7.648989677429199
1763692625784079600,4.80607958984375,3.4522247314453125,4.973147869110107,-7.71494197845459
1763692625794159600,4.81615966796875,3.4186973571777344,4.8798604011535645,-7.7890849113464355
1763692625804270300,4.826270263671875,3.387802839279175,4.769958972930908,-7.8702392578125
1763692625814350300,4.836350341796875,3.3637826442718506,4.644172668457031,-7.955313205718994
1763692625824430600,4.8464306640625,3.337845802307129,4.511183738708496,-8.042287826538086
1763692625834461700,4.856461669921875,3.3246817588806152,4.383195877075195,-8.118156433105469
1763692625844542000,4.8665419921875,3.327284336090088,4.258355140686035,-8.183274269104004
1763692625854622000,4.8766220703125,3.328266143798828,4.151701927185059,-8.237500190734863
1763692625864756700,4.8867568359375,3.325971841812134,4.071612358093262,-8.278300285339355
1763692625874836700,4.896836669921875,3.3195955753326416,4.0172343254089355,-8.307374954223633
1763692625884917000,4.9069169921875,3.3060085773468018,3.984804391860962,-8.328386306762695
1763692625894944800,4.91694482421875,3.288144111633301,3.9712870121002197,-8.341904640197754
1763692625905024800,4.927024658203125,3.265382766723633,3.9722278118133545,-8.350393295288086
1763692625915105000,4.93710498046875,3.2373054027557373,3.981872797012329,-8.356729507446289
1763692625925206300,4.947206298828125,3.2054693698883057,3.9965858459472656,-8.361976623535156
1763692625935286300,4.957286376953125,3.170926570892334,4.010776519775391,-8.3683500289917
1763692625945366500,4.967366455078125,3.1401560306549072,4.026154518127441,-8.372567176818848
1763692625955434800,4.977434814453125,3.113436698913574,4.039480209350586,-8.376127243041992
1763692625965514800,4.9875146484375,3.091181516647339,4.044761657714844,-8.381819725036621
1763692625975595000,4.997594970703125,3.0705485343933105,4.0381293296813965,-8.392594337463379
1763692625985697300,5.007697265625,3.045926332473755,4.021234512329102,-8.409661293029785
1763692625995777300,5.01777734375,3.0213067531585693,4.00015926361084,-8.428571701049805
1763692626015960600,5.037960693359375,2.9783895015716553,3.9714930057525635,-8.457353591918945
1763692626026040600,5.04804052734375,2.9505393505096436,3.9700725078582764,-8.46777629852295
1763692626036120800,5.058120849609375,2.9152297973632812,3.9774441719055176,-8.476541519165039
1763692626046173200,5.068173095703125,2.869601011276245,3.9994935989379883,-8.481734275817871
1763692626056253200,5.078253173828125,2.8185904026031494,4.0328192710876465,-8.483059883117676
1763692626066333200,5.088333251953125,2.7699134349823,4.075826644897461,-8.478538513183594
1763692626076354600,5.0983544921875,2.7228753566741943,4.126230716705322,-8.469389915466309
1763692626086434800,5.108434814453125,2.6693310737609863,4.179013252258301,-8.460550308227539
1763692626096514800,5.118514892578125,2.599008321762085,4.229792594909668,-8.457209587097168
1763692626106633000,5.128633056640625,2.525179147720337,4.278706073760986,-8.454970359802246
1763692626116713000,5.138712890625,2.4581949710845947,4.328196048736572,-8.449519157409668
1763692626126793200,5.148793212890625,2.394756317138672,4.376914978027344,-8.442638397216797
1763692626136879900,5.1588798828125,2.3332223892211914,4.420352458953857,-8.437234878540039
1763692626146960000,5.1689599609375,2.2698659896850586,4.452708721160889,-8.437504768371582
1763692626157039900,5.179039794921875,2.205916404724121,4.469620227813721,-8.445520401000977
1763692626167115300,5.189115234375,2.1553637981414795,4.469363689422607,-8.458699226379395
1763692626177195500,5.199195556640625,2.121237277984619,4.454957962036133,-8.474909782409668
1763692626187275500,5.209275634765625,2.094541549682617,4.427806854248047,-8.495753288269043
1763692626197964300,5.21996435546875,2.067521810531616,4.387893199920654,-8.523036003112793
1763692626208044300,5.230044189453125,2.0495357513427734,4.343870162963867,-8.549887657165527
1763692626218124500,5.24012451171875,2.0374045372009277,4.297703742980957,-8.576077461242676
1763692626228206300,5.250206298828125,2.0239927768707275,4.253838062286377,-8.60108757019043
1763692626238287600,5.26028759765625,2.0061261653900146,4.217307090759277,-8.623233795166016
1763692626248369000,5.270368896484375,1.98515784740448,4.1898884773254395,-8.641432762145996
1763692626258406400,5.280406494140625,1.963387131690979,4.17012882232666,-8.655953407287598
1763692626268487700,5.29048779296875,1.9440922737121582,4.156947135925293,-8.666642189025879
1763692626278569000,5.30056884765625,1.9280253648757935,4.158321857452393,-8.669570922851562
1763692626288682800,5.310682861328125,1.91213858127594,4.1580681800842285,-8.673211097717285
1763692626298764000,5.320763916015625,1.8945372104644775,4.150786876678467,-8.680558204650879
1763692626308845300,5.33084521484375,1.8705401420593262,4.139647006988525,-8.691075325012207
1763692626318347000,5.340346923828125,1.8404161930084229,4.120235919952393,-8.706716537475586
1763692626328428300,5.35042822265625,1.8072185516357422,4.085740089416504,-8.72989559173584
1763692626338509600,5.360509521484375,1.771706461906433,4.032799243927002,-8.761733055114746
1763692626348573700,5.37057373046875,1.7335360050201416,3.9659295082092285,-8.799809455871582
1763692626358655000,5.380655029296875,1.7015581130981445,3.891639471054077,-8.839130401611328
1763692626368736300,5.390736328125,1.6725860834121704,3.8126509189605713,-8.87899398803711
1763692626378827300,5.4008271484375,1.6399505138397217,3.7327563762664795,-8.918938636779785
1763692626398989800,5.42098974609375,1.5326354503631592,3.605851888656616,-8.989952087402344
1763692626409051600,5.4310517578125,1.4524019956588745,3.5797150135040283,-9.013687133789062
1763692626419133000,5.4411328125,1.3556065559387207,3.5797178745269775,-9.0287504196167
1763692626429214200,5.451214111328125,1.251926302909851,3.6046314239501953,-9.033808708190918
1763692626439288600,5.46128857421875,1.1458125114440918,3.651874303817749,-9.028915405273438
1763692626449369900,5.471369873046875,1.0412338972091675,3.712636709213257,-9.016792297363281
1763692626459451100,5.481451171875,0.9499966502189636,3.771766424179077,-9.002315521240234
1763692626469538000,5.4915380859375,0.8773484230041504,3.8173441886901855,-8.990468978881836
1763692626479619300,5.501619384765625,0.8176031708717346,3.8406755924224854,-8.986163139343262
1763692626489700600,5.51170068359375,0.764957845211029,3.841855049133301,-8.9902925491333
1763692626499776500,5.521776611328125,0.7106843590736389,3.827946424484253,-9.0006742477417
1763692626509857800,5.53185791015625,0.651238203048706,3.805260181427002,-9.014780044555664
1763692626519939000,5.54193896484375,0.5917108058929443,3.7781598567962646,-9.030269622802734
1763692626530018300,5.552018310546875,0.5390272736549377,3.747617483139038,-9.046280860900879
1763692626540099600,5.562099609375,0.49457037448883057,3.718884229660034,-9.060667037963867
1763692626550180900,5.572180908203125,0.460061639547348,3.697113513946533,-9.071388244628906
1763692626560265000,5.582264892578125,0.4515809416770935,3.678630828857422,-9.079324722290039
1763692626570346200,5.59234619140625,0.4497167468070984,3.679459810256958,-9.079081535339355
1763692626580427500,5.602427490234375,0.4315798878669739,3.704279661178589,-9.069864273071289
1763692626590495500,5.61249560546875,0.39565733075141907,3.7414565086364746,-9.056232452392578
1763692626600576800,5.62257666015625,0.3456787168979645,3.778229236602783,-9.043001174926758
1763692626610658000,5.632657958984375,0.2891847789287567,3.809443950653076,-9.031881332397461
1763692626620745000,5.642744873046875,0.23149563372135162,3.8359599113464355,-9.022316932678223
1763692626630826500,5.652826416015625,0.1738661378622055,3.8649749755859375,-9.011221885681152
1763692626640907800,5.66290771484375,0.11660407483577728,3.9036364555358887,-8.995466232299805
1763692626650980600,5.672980712890625,0.059885889291763306,3.9526309967041016,-8.974603652954102
1763692626661062000,5.683061767578125,0.003494765143841505,4.002776622772217,-8.952549934387207
1763692626671143200,5.69314306640625,-0.049808092415332794,4.047132968902588,-8.932448387145996
1763692626681226800,5.703226806640625,-0.09073671698570251,4.081043243408203,-8.916683197021484
1763692626691308000,5.71330810546875,-0.1145143210887909,4.103278636932373,-8.90619945526123
1763692626701389300,5.723389404296875,-0.12458619475364685,4.116438388824463,-8.899988174438477
1763692626711469300,5.73346923828125,-0.12534722685813904,4.123838424682617,-8.896551132202148
1763692626721550600,5.743550537109375,-0.11747241020202637,4.126723766326904,-8.895320892333984
1763692626731631900,5.7536318359375,-0.10373589396476746,4.126510143280029,-8.895590782165527
1763692626741704000,5.763703857421875,-0.08443259447813034,4.12469482421875,-8.896637916564941
1763692626751785200,5.77378515625,-0.05883340910077095,4.116079807281494,-8.900832176208496
1763692626761866500,5.783866455078125,-0.03602936491370201,4.109172821044922,-8.904144287109375
1763692626771954000,5.793953857421875,-0.022854052484035492,4.101208686828613,-8.907859802246094
1763692626782035200,5.80403515625,-0.02501356601715088,4.086330890655518,-8.914688110351562
1763692626792116500,5.814116455078125,-0.051395416259765625,4.060981273651123,-8.926151275634766
1763692626802190600,5.824190673828125,-0.1058550477027893,4.0226006507873535,-8.943035125732422
1763692626812271900,5.83427197265625,-0.18540512025356293,3.9666669368743896,-8.966691970825195
1763692626822353200,5.844353271484375,-0.28360843658447266,3.890737533569336,-8.997340202331543
1763692626832431900,5.854431884765625,-0.38897809386253357,3.793104887008667,-9.035012245178223
1763692626842513200,5.86451318359375,-0.48712846636772156,3.670234203338623,-9.08088493347168
1763692626852594400,5.874594482421875,-0.5828567743301392,3.5189287662506104,-9.134976387023926
1763692626862670600,5.884670654296875,-0.6861752867698669,3.3484649658203125,-9.191699028015137
1763692626872751900,5.894751953125,-0.7968154549598694,3.170070171356201,-9.245870590209961
1763692626882833200,5.904833251953125,-0.9146201014518738,2.997734785079956,-9.292332649230957
1763692626892904700,5.91490478515625,-1.0433363914489746,2.8467636108398438,-9.326188087463379
1763692626902986000,5.924986083984375,-1.1845626831054688,2.7266287803649902,-9.345195770263672
1763692626913067300,5.9350673828125,-1.327978253364563,2.640575408935547,-9.350626945495605
1763692626923153200,5.945153076171875,-1.4656509160995483,2.5887649059295654,-9.344547271728516
1763692626933234400,5.955234375,-1.5964382886886597,2.5682730674743652,-9.32875919342041
1763692626943315700,5.965315673828125,-1.7134069204330444,2.575031042098999,-9.30611801147461
1763692626953389300,5.975389404296875,-1.811902403831482,2.605572462081909,-9.278922080993652
1763692626963470600,5.985470703125,-1.8926111459732056,2.6574583053588867,-9.248044967651367
1763692626973551900,5.9955517578125,-1.9552586078643799,2.728222131729126,-9.21434497833252
1763692626983626500,6.00562646484375,-1.99980890750885,2.8150546550750732,-9.178596496582031
1763692626993707800,6.015707763671875,-2.0261926651000977,2.9125685691833496,-9.142312049865723
1763692627003789000,6.0257890625,-2.0269014835357666,3.0109164714813232,-9.110238075256348
1763692627013873000,6.035872802734375,-1.9964996576309204,3.1032283306121826,-9.085942268371582
1763692627023954200,6.0459541015625,-1.940286636352539,3.1884922981262207,-9.068583488464355
1763692627034035500,6.056035400390625,-1.866146206855774,3.268186569213867,-9.05576229095459
1763692627044110300,6.0661103515625,-1.783525824546814,3.347086191177368,-9.043585777282715
1763692627054191900,6.07619189453125,-1.700590968132019,3.432055711746216,-9.027700424194336
1763692627064273200,6.086273193359375,-1.6203876733779907,3.524937629699707,-9.006637573242188
1763692627074379500,6.096379638671875,-1.5418133735656738,3.621713638305664,-8.982004165649414
1763692627084460800,6.106460693359375,-1.4612290859222412,3.7146494388580322,-8.957487106323242
1763692627094542000,6.1165419921875,-1.380035161972046,3.7990670204162598,-8.934930801391602
1763692627104525600,6.126525634765625,-1.306679606437683,3.874480724334717,-8.91355037689209
1763692627114606800,6.13660693359375,-1.2424083948135376,3.945951461791992,-8.89136028289795
1763692627124688100,6.146688232421875,-1.1858298778533936,4.018568515777588,-8.86652660369873
1763692627134828800,6.156828857421875,-1.1324973106384277,4.095296382904053,-8.838346481323242
1763692627144910000,6.16691015625,-1.072221279144287,4.171574115753174,-8.810147285461426
1763692627154991400,6.176991455078125,-1.001448392868042,4.245183944702148,-8.783273696899414
1763692627165066000,6.18706591796875,-0.9184976816177368,4.3137078285217285,-8.758919715881348
1763692627175147300,6.197147216796875,-0.8162227869033813,4.3728742599487305,-8.7396879196167
1763692627185228500,6.207228515625,-0.6957195997238159,4.422461986541748,-8.72514820098877
1763692627195330600,6.21733056640625,-0.5601031184196472,4.467634201049805,-8.711883544921875
1763692627205411600,6.22741162109375,-0.4215942919254303,4.512298583984375,-8.696654319763184
1763692627215493000,6.2374931640625,-0.28962188959121704,4.555954933166504,-8.679272651672363
1763692627225558500,6.24755859375,-0.16822852194309235,4.595108509063721,-8.661816596984863
1763692627235638300,6.25763818359375,-0.05793758109211922,4.623956203460693,-8.647892951965332
1763692627245718300,6.26771826171875,0.044609833508729935,4.6361894607543945,-8.641420364379883
1763692627255774700,6.277774658203125,0.13849979639053345,4.629059791564941,-8.644246101379395
1763692627265854500,6.2878544921875,0.21433480083942413,4.603385925292969,-8.656401634216309
1763692627275934500,6.2979345703125,0.2620556056499481,4.5640645027160645,-8.675887107849121
1763692627286030300,6.3080302734375,0.2802148759365082,4.515368938446045,-8.700765609741211
1763692627296110000,6.318110107421875,0.2796936333179474,4.458440780639648,-8.730090141296387
1763692627306190000,6.328190185546875,0.28444984555244446,4.392975807189941,-8.7630615234375
1763692627316294100,6.338294189453125,0.31690168380737305,4.322179317474365,-8.797086715698242
1763692627326374000,6.348373779296875,0.3922005891799927,4.25351095199585,-8.827468872070312
1763692627336454000,6.358453857421875,0.5100833177566528,4.197312831878662,-8.848319053649902
1763692627346533600,6.36853369140625,0.658057451248169,4.163954734802246,-8.854310989379883
1763692627356589600,6.378589599609375,0.8239719867706299,4.15451192855835,-8.844856262207031
1763692627366669300,6.38866943359375,1.003106951713562,4.159749984741211,-8.823867797851562
1763692627376749300,6.398749267578125,1.1943145990371704,4.165008068084717,-8.797540664672852
1763692627386847000,6.408846923828125,1.4013829231262207,4.156951427459717,-8.770761489868164
1763692627407006700,6.4290068359375,1.8556865453720093,4.096433162689209,-8.714703559875488
1763692627417089300,6.43908935546875,2.0878636837005615,4.061736583709717,-8.678335189819336
1763692627427169300,6.449169189453125,2.3140366077423096,4.034247875213623,-8.633682250976562
1763692627437249000,6.4592490234375,2.5287625789642334,4.013696670532227,-8.582889556884766
1763692627447308500,6.46930859375,2.7269585132598877,3.9972646236419678,-8.52971076965332
1763692627457388300,6.47938818359375,2.9044888019561768,3.983215808868408,-8.477518081665039
1763692627467468000,6.489468017578125,3.0521273612976074,3.9728646278381348,-8.430377006530762
1763692627478145800,6.500145751953125,3.161208152770996,3.968919038772583,-8.391950607299805
1763692627488225800,6.510225830078125,3.209707736968994,3.9770610332489014,-8.369656562805176
1763692627498305800,6.520305908203125,3.1993935108184814,3.998095989227295,-8.363581657409668
1763692627508399900,6.53039990234375,3.127847909927368,4.027867794036865,-8.376350402832031
1763692627518479600,6.540479736328125,3.001852035522461,4.062028408050537,-8.405901908874512
1763692627528559600,6.5505595703125,2.8309905529022217,4.100632190704346,-8.446342468261719
1763692627538657300,6.5606572265625,2.6291441917419434,4.146512508392334,-8.489076614379883
1763692627548737300,6.5707373046875,2.4097442626953125,4.203422546386719,-8.526122093200684
1763692627558817000,6.580817138671875,2.18118953704834,4.272741794586182,-8.553155899047852
1763692627578345200,6.60034521484375,1.7128325700759888,4.4513444900512695,-8.568670272827148
1763692627588425000,6.610425048828125,1.4548263549804688,4.566256999969482,-8.555885314941406
1763692627598530600,6.620530517578125,1.1714584827423096,4.699119567871094,-8.527388572692871
1763692627608610300,6.6306103515625,0.8453482985496521,4.854030609130859,-8.479043006896973
1763692627618690300,6.640690185546875,0.4685779809951782,5.029818058013916,-8.4054594039917
1763692627628792800,6.650792724609375,0.05638750642538071,5.217539310455322,-8.303281784057617
1763692627638872600,6.66087255859375,-0.35382190346717834,5.405323505401611,-8.174818992614746
1763692627648952600,6.67095263671875,-0.7165484428405762,5.588838577270508,-8.026320457458496
1763692627658978800,6.680978759765625,-0.9798728823661804,5.770148754119873,-7.868648529052734
1763692627669058600,6.69105859375,-1.1107807159423828,5.958991050720215,-7.708889484405518
1763692627679138600,6.701138671875,-1.1010007858276367,6.159893989562988,-7.550754070281982
1763692627689251000,6.7112509765625,-0.9668911099433899,6.373456001281738,-7.390166759490967
1763692627699330800,6.721330810546875,-0.7480596303939819,6.598005771636963,-7.216447830200195
1763692627709410800,6.731410888671875,-0.49707484245300293,6.830705642700195,-7.018887042999268
1763692627719499300,6.741499267578125,-0.2680801749229431,7.057575225830078,-6.803613185882568
1763692627729579000,6.7515791015625,-0.08120498806238174,7.253848075866699,-6.598900318145752
1763692627739659000,6.761658935546875,0.04969713091850281,7.408828258514404,-6.424731254577637
1763692627749737200,6.7717373046875,0.11547376960515976,7.521496772766113,-6.291593551635742
1763692627759817000,6.78181689453125,0.11688517034053802,7.597257137298584,-6.19987154006958
1763692627769897000,6.79189697265625,0.059827063232660294,7.643190383911133,-6.143976211547852
1763692627779975400,6.801975341796875,-0.032383669167757034,7.663591384887695,-6.118717670440674
1763692627790055400,6.812055419921875,-0.12472821027040482,7.663712978363037,-6.117380142211914
1763692627800135200,6.82213525390625,-0.18983879685401917,7.654490947723389,-6.127244472503662
1763692627810216400,6.832216552734375,-0.21089310944080353,7.648406505584717,-6.134149551391602
1763692627820296400,6.84229638671875,-0.17988023161888123,7.653454303741455,-6.12883996963501
1763692627830376200,6.852376220703125,-0.09753184020519257,7.671783447265625,-6.107751369476318
1763692627840459500,6.86245947265625,0.02774360589683056,7.702216148376465,-6.070047378540039
1763692627850539500,6.87253955078125,0.18665915727615356,7.741547107696533,-6.016976356506348
1763692627860619500,6.88261962890625,0.3747897148132324,7.78593635559082,-5.950554370880127
1763692627870702300,6.892702392578125,0.5887613892555237,7.831498622894287,-5.872936725616455
1763692627880782300,6.9027822265625,0.8167403936386108,7.875681400299072,-5.785928726196289
1763692627890862300,6.9128623046875,1.045954942703247,7.91770601272583,-5.690896034240723
1763692627900938200,6.922938232421875,1.2670371532440186,7.955456733703613,-5.59246826171875
1763692627911018200,6.933018310546875,1.4733210802078247,7.985535621643066,-5.498266220092773
1763692627921098000,6.943097900390625,1.6599876880645752,8.004176139831543,-5.417377471923828
1763692627931179000,6.953178955078125,1.82478666305542,8.008511543273926,-5.357637882232666
1763692627941259000,6.963259033203125,1.9676309823989868,7.996956825256348,-5.32423734664917
1763692627951338800,6.9733388671875,2.0879595279693604,7.969809055328369,-5.319113254547119
1763692627961425400,6.98342529296875,2.1832220554351807,7.929310321807861,-5.341345310211182
1763692627971505400,6.99350537109375,2.247868299484253,7.88022518157959,-5.386979103088379
1763692627981585200,7.003585205078125,2.272803544998169,7.827558994293213,-5.452895164489746
1763692627991667000,7.0136669921875,2.2505171298980713,7.773451328277588,-5.538864612579346
1763692628001747000,7.023746826171875,2.1764795780181885,7.717005729675293,-5.64633846282959
1763692628011826700,7.03382666015625,2.053649425506592,7.653217792510986,-5.777644157409668
1763692628021904100,7.043904052734375,1.8941646814346313,7.576104164123535,-5.931709289550781
1763692628031984000,7.053984130859375,1.7117913961410522,7.485487937927246,-6.099804878234863
1763692628042064000,7.06406396484375,1.5165870189666748,7.384670257568359,-6.271921634674072
1763692628052142600,7.074142578125,1.3119568824768066,7.265649795532227,-6.454416751861572
1763692628062222600,7.08422265625,1.1237335205078125,7.107306957244873,-6.662866592407227
1763692628072302300,7.09430224609375,1.0153632164001465,6.894443988800049,-6.899714946746826
1763692628082364400,7.104364501953125,1.0318174362182617,6.632325649261475,-7.149685382843018
1763692628092444400,7.1144443359375,1.1643059253692627,6.354750156402588,-7.377800464630127
1763692628102524200,7.124524169921875,1.3265469074249268,6.113586902618408,-7.552132606506348
1763692628112623900,7.134623779296875,1.4573997259140015,5.944653511047363,-7.662079334259033
1763692628122704000,7.144703857421875,1.5186119079589844,5.854263782501221,-7.7195725440979
1763692628132783600,7.15478369140625,1.5164451599121094,5.810727596282959,-7.7528204917907715
1763692628142866700,7.16486669921875,1.4975157976150513,5.775191307067871,-7.782993793487549
1763692628152946400,7.174946533203125,1.4898669719696045,5.733347415924072,-7.815330982208252
1763692628163026400,7.1850263671875,1.5205978155136108,5.687130928039551,-7.843131065368652
1763692628173110500,7.195110595703125,1.595358967781067,5.650188446044922,-7.854971408843994
1763692628183190500,7.2051904296875,1.6979472637176514,5.634113788604736,-7.845005989074707
1763692628193270300,7.215270263671875,1.8161017894744873,5.635360240936279,-7.817599773406982
1763692628203351000,7.22535107421875,1.9454745054244995,5.641120433807373,-7.782240390777588
1763692628213431000,7.23543115234375,2.086545705795288,5.638335704803467,-7.747637748718262
1763692628223510800,7.2455107421875,2.2362112998962402,5.618829250335693,-7.720006942749023
1763692628233611500,7.255611572265625,2.3892085552215576,5.579318523406982,-7.7028093338012695
1763692628243691500,7.26569140625,2.541522979736328,5.5238566398620605,-7.694026470184326
1763692628253771500,7.275771484375,2.685337781906128,5.4648613929748535,-7.68730354309082
1763692628263807700,7.285807861328125,2.810201406478882,5.414849758148193,-7.678057670593262
1763692628273887700,7.2958876953125,2.9066028594970703,5.382277965545654,-7.665058612823486
1763692628283967700,7.3059677734375,2.9709508419036865,5.368236064910889,-7.650221347808838
1763692628294073900,7.316073974609375,3.00329327583313,5.368680477142334,-7.637269496917725
1763692628304153900,7.32615380859375,3.002480983734131,5.381186485290527,-7.628783226013184
1763692628314233900,7.33623388671875,2.971402645111084,5.405894756317139,-7.623480319976807
1763692628324327400,7.346327392578125,2.916677951812744,5.443483352661133,-7.617865085601807
1763692628334407400,7.356407470703125,2.8429739475250244,5.493971347808838,-7.609478950500488
1763692628344487400,7.3664873046875,2.752527952194214,5.560005187988281,-7.594756603240967
1763692628354532600,7.37653271484375,2.645658016204834,5.647291660308838,-7.568287372589111
1763692628364612600,7.386612548828125,2.5189664363861084,5.760159015655518,-7.52633810043335
1763692628374692600,7.396692626953125,2.366415500640869,5.899282455444336,-7.467860221862793
1763692628384795000,7.406794921875,2.171604633331299,6.063787937164307,-7.394930362701416
1763692628394875000,7.416875,1.9231526851654053,6.247868061065674,-7.309994697570801
1763692628404955000,7.426954833984375,1.6184836626052856,6.445006370544434,-7.211989402770996
1763692628415007500,7.437007568359375,1.268026351928711,6.648520469665527,-7.096455097198486
1763692628425087500,7.44708740234375,0.8996055126190186,6.852334022521973,-6.957485675811768
1763692628435167500,7.45716748046875,0.5565884113311768,7.045271396636963,-6.798878192901611
1763692628445340400,7.46734033203125,0.27993929386138916,7.219097137451172,-6.631490707397461
1763692628455420400,7.47742041015625,0.1004519984126091,7.369846820831299,-6.4688215255737305
1763692628465500400,7.48750048828125,0.01281871646642685,7.506906986236572,-6.310037136077881
1763692628475523800,7.49752392578125,-0.0034970694687217474,7.636228561401367,-6.152916431427002
1763692628485603800,7.507603759765625,0.019179515540599823,7.758967876434326,-5.997369289398193
1763692628495683800,7.517683837890625,0.04765928164124489,7.867630481719971,-5.853930950164795
1763692628505792300,7.527792236328125,0.06257140636444092,7.953730583190918,-5.736256122589111
1763692628515872300,7.537872314453125,0.05144093930721283,8.011452674865723,-5.655472278594971
1763692628525952300,7.5479521484375,0.0013445558724924922,8.041977882385254,-5.612217426300049
1763692628536005400,7.55800537109375,-0.09840649366378784,8.050222396850586,-5.599518299102783
1763692628546085400,7.56808544921875,-0.2509390413761139,8.03940200805664,-5.610297203063965
1763692628556165400,7.578165283203125,-0.4422544240951538,8.009918212890625,-5.640567302703857
1763692628566202600,7.58820263671875,-0.6464489102363586,7.963385581970215,-5.6865620613098145
1763692628576282600,7.59828271484375,-0.83913254737854,7.903079032897949,-5.745223045349121
1763692628586362600,7.608362548828125,-0.9904848337173462,7.834891319274902,-5.8141045570373535
1763692628596499200,7.618499267578125,-1.096100926399231,7.774096488952637,-5.876425266265869
1763692628606579200,7.6285791015625,-1.1519476175308228,7.725918292999268,-5.929047107696533
1763692628616659200,7.6386591796875,-1.150712251663208,7.687655925750732,-5.978812217712402
1763692628626739200,7.6487392578125,-1.1041747331619263,7.662936687469482,-6.019185543060303
1763692628636806000,7.658805908203125,-1.030577301979065,7.653781414031982,-6.043834686279297
1763692628646886000,7.668885986328125,-0.9396718144416809,7.657221794128418,-6.054285049438477
1763692628656966000,7.6789658203125,-0.8469792008399963,7.671030521392822,-6.050479412078857
1763692628667055600,7.6890556640625,-0.7685943245887756,7.693514347076416,-6.032370567321777
1763692628677135600,7.699135498046875,-0.7102813124656677,7.722436428070068,-6.0024871826171875
1763692628687215600,7.709215576171875,-0.6694976091384888,7.755038261413574,-5.965026378631592
1763692628697871000,7.71987109375,-0.6365036368370056,7.7885212898254395,-5.9248785972595215
1763692628707951000,7.729951171875,-0.60332852602005,7.815956115722656,-5.8921308517456055
1763692628718031000,7.740031005859375,-0.564968466758728,7.839663028717041,-5.86437463760376
1763692628728137200,7.75013720703125,-0.5315013527870178,7.861704349517822,-5.837936878204346
1763692628738217200,7.76021728515625,-0.5216512084007263,7.882777690887451,-5.810342788696289
1763692628748297200,7.770297119140625,-0.553670346736908,7.900514602661133,-5.7832255363464355
1763692628758378200,7.780378173828125,-0.6384181976318359,7.9086198806762695,-5.763378620147705
1763692628768458200,7.790458251953125,-0.7754741907119751,7.899134635925293,-5.759576320648193
1763692628778538200,7.800538330078125,-0.9564951062202454,7.866730213165283,-5.776681900024414
1763692628788569900,7.81056982421875,-1.169379711151123,7.812973976135254,-5.810368537902832
1763692628798649900,7.82064990234375,-1.401175856590271,7.745110988616943,-5.849815368652344
1763692628808729900,7.830729736328125,-1.633825659751892,7.674716472625732,-5.882153511047363
1763692628818236000,7.84023583984375,-1.8377530574798584,7.615720272064209,-5.898631572723389
1763692628828316000,7.85031591796875,-2.014378070831299,7.567933082580566,-5.902462005615234
1763692628838396000,7.86039599609375,-2.1252946853637695,7.532973289489746,-5.908284664154053
1763692628848500000,7.8705,-2.1549787521362305,7.497958183288574,-5.941976547241211
1763692628858580000,7.880580078125,-2.1056902408599854,7.442297458648682,-6.028985023498535
1763692628868660000,7.890659912109375,-2.01604962348938,7.334711074829102,-6.1893415451049805
1763692628878735400,7.9007353515625,-1.9333794116973877,7.1509904861450195,-6.426177978515625
1763692628888815400,7.9108154296875,-1.8956621885299683,6.885871410369873,-6.720241546630859
1763692628898895400,7.920895263671875,-1.938865303993225,6.563296318054199,-7.023839473724365
1763692628908938200,7.930938232421875,-2.078707218170166,6.225279331207275,-7.286648750305176
1763692628919018200,7.941018310546875,-2.2815961837768555,5.900015354156494,-7.493632793426514
1763692628929098200,7.95109814453125,-2.4712975025177,5.616400241851807,-7.649778842926025
1763692628939210800,7.961210693359375,-2.5732219219207764,5.39807653427124,-7.772367000579834
1763692628949290800,7.971290771484375,-2.5471768379211426,5.262630939483643,-7.8731818199157715
1763692628959370800,7.981370849609375,-2.393328905105591,5.217278003692627,-7.951250076293945
1763692628969456600,7.99145654296875,-2.119661331176758,5.255429267883301,-8.003617286682129
1763692628979536600,8.00153662109375,-1.7453937530517578,5.358914375305176,-8.025337219238281
1763692628989616600,8.01161669921875,-1.3052834272384644,5.501485824584961,-8.012507438659668
1763692628999695400,8.0216953125,-0.8279468417167664,5.647408485412598,-7.974438667297363
1763692629009775400,8.031775390625,-0.3381912410259247,5.769314765930176,-7.922816753387451
1763692629019855400,8.04185546875,0.13653558492660522,5.856038570404053,-7.865020751953125
1763692629029935000,8.05193505859375,0.5785242319107056,5.909449577331543,-7.80474853515625
1763692629040015000,8.06201513671875,0.9793156981468201,5.939575672149658,-7.741626262664795
1763692629050095000,8.07209521484375,1.3243695497512817,5.957203388214111,-7.676468849182129
1763692629060174600,8.082174560546875,1.5985699892044067,5.967973709106445,-7.615657806396484
1763692629070254600,8.092254638671875,1.7925349473953247,5.97714376449585,-7.565115451812744
1763692629080334600,8.10233447265625,1.9004849195480347,5.989479064941406,-7.528923988342285
1763692629090415000,8.1124150390625,1.9170678853988647,6.009260177612305,-7.508930206298828
1763692629100495000,8.1224951171875,1.8510104417800903,6.036938190460205,-7.503300666809082
1763692629110575000,8.1325751953125,1.7196298837661743,6.072179794311523,-7.506123065948486
1763692629120660200,8.14266015625,1.5417948961257935,6.117110252380371,-7.508276462554932
1763692629130740200,8.152740234375,1.3365548849105835,6.1742658615112305,-7.50083065032959
1763692629140820200,8.1628203125,1.1214951276779175,6.243868827819824,-7.478418827056885
1763692629150899500,8.1728994140625,0.9062999486923218,6.328420162200928,-7.436405181884766
1763692629160979500,8.1829794921875,0.6923072934150696,6.4296793937683105,-7.37226676940918
1763692629171059500,8.1930595703125,0.4764949381351471,6.542429447174072,-7.2897162437438965
1763692629181145000,8.20314501953125,0.2537943422794342,6.659111499786377,-7.194595813751221
1763692629191225000,8.21322509765625,0.02095125801861286,6.777773380279541,-7.087435245513916
1763692629201305000,8.22330517578125,-0.23193515837192535,6.905529975891113,-6.959183692932129
1763692629211386600,8.23338671875,-0.5083756446838379,7.0491790771484375,-6.7986040115356445
1763692629221466600,8.243466552734375,-0.8003615140914917,7.207279682159424,-6.601888179779053
1763692629231546600,8.253546630859375,-1.0743422508239746,7.369004249572754,-6.380748271942139
1763692629241623300,8.263623291015625,-1.2797874212265015,7.518674850463867,-6.164581298828125
1763692629251703300,8.273703369140625,-1.3808393478393555,7.642768859863281,-5.98763370513916
1763692629261783300,8.283783203125,-1.3688181638717651,7.735594749450684,-5.870033264160156
1763692629271860700,8.29386083984375,-1.2581844329833984,7.807775497436523,-5.798792839050293
1763692629281941000,8.30394091796875,-1.08066987991333,7.880268573760986,-5.736192226409912
1763692629292021000,8.31402099609375,-0.8699577450752258,7.972190856933594,-5.644266128540039
1763692629302108000,8.32410791015625,-0.6583845019340515,8.08205509185791,-5.515188217163086
1763692629312188000,8.33418798828125,-0.4861414134502411,8.19821834564209,-5.359409332275391
1763692629322268000,8.344267822265625,-0.37109875679016113,8.300531387329102,-5.209017276763916
1763692629332336400,8.35433642578125,-0.3165353536605835,8.371994018554688,-5.097047328948975
1763692629342416400,8.36441650390625,-0.32978448271751404,8.415043830871582,-5.02480411529541
1763692629352496400,8.374496337890625,-0.40599989891052246,8.435856819152832,-4.984160423278809
1763692629362586000,8.384586181640625,-0.5225562453269958,8.440638542175293,-4.965173244476318
1763692629372666000,8.394666015625,-0.6472511291503906,8.437033653259277,-4.956603527069092
1763692629382746000,8.40474609375,-0.7464304566383362,8.432472229003906,-4.950416564941406
1763692629392824000,8.414823974609375,-0.79268878698349,8.434065818786621,-4.940503120422363
1763692629402904000,8.424904052734375,-0.7709882259368896,8.448143005371094,-4.919841766357422
1763692629412984000,8.434984130859375,-0.6795923113822937,8.478780746459961,-4.880454063415527
1763692629423075300,8.445075439453126,-0.523244321346283,8.526261329650879,-4.816582679748535
1763692629433155300,8.4551552734375,-0.3126288056373596,8.586651802062988,-4.7267374992370605
1763692629443235300,8.4652353515625,-0.06602410227060318,8.65306568145752,-4.614163398742676
1763692629453308700,8.47530859375,0.1951068639755249,8.716024398803711,-4.490350246429443
1763692629463388700,8.485388671875,0.45208415389060974,8.766904830932617,-4.371199607849121
1763692629473468700,8.49546875,0.6877225637435913,8.80083179473877,-4.2711567878723145
1763692629483554600,8.505554443359374,0.8878857493400574,8.817383766174316,-4.199498176574707
1763692629493634600,8.515634521484374,1.0427113771438599,8.817766189575195,-4.162947654724121
1763692629503714600,8.525714599609374,1.1509429216384888,8.803301811218262,-4.16504430770874
1763692629513794300,8.535794189453124,1.2165418863296509,8.775518417358398,-4.204841613769531
1763692629523874300,8.545874267578125,1.2429713010787964,8.737011909484863,-4.276684284210205
1763692629533954300,8.555954345703125,1.232166051864624,8.69102954864502,-4.372432231903076
1763692629544034600,8.56603466796875,1.188989520072937,8.638538360595703,-4.486908435821533
1763692629554114600,8.576114501953125,1.1186273097991943,8.578476905822754,-4.618311405181885
1763692629564194800,8.58619482421875,1.020917296409607,8.508679389953613,-4.767651557922363
1763692629574292000,8.5962919921875,0.8959740400314331,8.425592422485352,-4.9373064041137695
1763692629584372000,8.6063720703125,0.7502706050872803,8.326738357543945,-5.125710487365723
1763692629594452200,8.6164521484375,0.6014503240585327,8.211899757385254,-5.326663970947266
1763692629604496400,8.626496337890625,0.471949964761734,8.086647987365723,-5.52754545211792
1763692629614576400,8.636576416015625,0.3705432415008545,7.954335689544678,-5.723778247833252
1763692629624656400,8.646656494140625,0.29887956380844116,7.815907001495361,-5.915459632873535
1763692629634769200,8.65676904296875,0.25717395544052124,7.663877010345459,-6.113037586212158
1763692629644849200,8.66684912109375,0.27547934651374817,7.465770721435547,-6.35269832611084
1763692629654929200,8.67692919921875,0.37534844875335693,7.204158306121826,-6.643011569976807
1763692629664948000,8.686947998046875,0.5541220903396606,6.8869476318359375,-6.959401607513428
1763692629675028000,8.697028076171875,0.7767149806022644,6.546234607696533,-7.260434627532959
1763692629685108000,8.70710791015625,0.9502849578857422,6.232260704040527,-7.511741638183594
1763692629695270000,8.717269775390625,1.0137850046157837,5.963170528411865,-7.719017505645752
1763692629705350000,8.727349853515625,0.9533625245094299,5.7447028160095215,-7.890492916107178
1763692629715430000,8.737429931640625,0.8013264536857605,5.571808815002441,-8.030143737792969
1763692629725500200,8.747500244140625,0.6184720396995544,5.438536643981934,-8.136964797973633
1763692629735580200,8.757580078125,0.456165075302124,5.344030380249023,-8.209972381591797
1763692629745660200,8.76766015625,0.34299710392951965,5.292815208435059,-8.248565673828125
1763692629755721000,8.777720947265625,0.2939773499965668,5.2879838943481445,-8.253556251525879
1763692629765801000,8.787801025390625,0.3085094392299652,5.3253326416015625,-8.228974342346191
1763692629775881000,8.797880859375,0.3794499635696411,5.390254974365234,-8.183615684509277
1763692629785970000,8.807969970703125,0.5010350942611694,5.468540668487549,-8.12492561340332
1763692629796050000,8.8180498046875,0.6577783823013306,5.545294284820557,-8.061478614807129
1763692629806130000,8.8281298828125,0.8292760252952576,5.614795207977295,-7.9972968101501465
1763692629816168200,8.838168212890626,0.9929621815681458,5.673069000244141,-7.93729829788208
1763692629826248200,8.848248291015626,1.1311923265457153,5.715148448944092,-7.88846492767334
1763692629836328200,8.858328125,1.2259521484375,5.7416839599609375,-7.854966163635254
1763692629846464500,8.868464599609375,1.266351342201233,5.755660057067871,-7.838311195373535
1763692629856544500,8.87854443359375,1.2455583810806274,5.759839057922363,-7.838573455810547
1763692629866624500,8.88862451171875,1.1605762243270874,5.759923458099365,-7.851542949676514
1763692629876704800,8.898704833984375,1.009338140487671,5.762869834899902,-7.870257377624512
1763692629886758000,8.9087578125,0.8013443946838379,5.77128791809082,-7.88799524307251
1763692629896838000,8.918837890625,0.5594254732131958,5.784311771392822,-7.899315357208252
1763692629906918100,8.928918212890625,0.30365344882011414,5.806178092956543,-7.89724588394165
1763692629917005600,8.939005615234375,0.04881146177649498,5.838680267333984,-7.878948211669922
1763692629927085600,8.94908544921875,-0.19052766263484955,5.88657808303833,-7.841063976287842
1763692629937165600,8.95916552734375,-0.41334325075149536,5.957126617431641,-7.778956890106201
1763692629947247900,8.969247802734374,-0.6160173416137695,6.0459794998168945,-7.696560859680176
1763692629957328000,8.979327880859374,-0.796974241733551,6.1502861976623535,-7.5966572761535645
1763692629967407900,8.989407958984375,-0.9819437861442566,6.276308536529541,-7.470885276794434
1763692629978044200,9.000044189453124,-1.2096840143203735,6.43386173248291,-7.301539421081543
1763692629988124200,9.010124267578124,-1.462715744972229,6.597795009613037,-7.106332302093506
1763692629998204200,9.0202041015625,-1.733388900756836,6.764909267425537,-6.884893417358398
1763692630008313900,9.03031396484375,-1.9673244953155518,6.922600269317627,-6.6616530418396
1763692630018393900,9.040393798828125,-2.096914529800415,7.06382942199707,-6.471139907836914
1763692630028473900,9.050473876953125,-2.090625762939453,7.195975303649902,-6.3259477615356445
1763692630038558500,9.060558349609375,-1.964443325996399,7.331838607788086,-6.209306716918945
1763692630048638500,9.070638427734375,-1.7591863870620728,7.4801836013793945,-6.092824459075928
1763692630058718700,9.08071875,-1.5325819253921509,7.650052547454834,-5.941235065460205
1763692630078266400,9.100266357421875,-1.1895233392715454,8.006187438964844,-5.536819934844971
1763692630088346400,9.110346435546875,-1.076619029045105,8.150837898254395,-5.345571041107178
1763692630098454800,9.120454833984375,-1.0117406845092773,8.256686210632324,-5.19364070892334
1763692630108534800,9.13053466796875,-1.008781909942627,8.32862377166748,-5.078067302703857
1763692630118614800,9.14061474609375,-1.075371265411377,8.373080253601074,-4.990540981292725
1763692630128697900,9.15069775390625,-1.1998639106750488,8.396411895751953,-4.922497272491455
1763692630138777900,9.16077783203125,-1.3494760990142822,8.404752731323242,-4.869234085083008
1763692630148857900,9.17085791015625,-1.4791734218597412,8.40718936920166,-4.827173709869385
1763692630158944500,9.180944580078124,-1.5445928573608398,8.415594100952148,-4.791908264160156
1763692630169024500,9.1910244140625,-1.5139211416244507,8.440305709838867,-4.758117198944092
1763692630179104500,9.2011044921875,-1.3767430782318115,8.48572826385498,-4.7188334465026855
1763692630189170000,9.211169921875,-1.1503971815109253,8.55035400390625,-4.662448883056641
1763692630199250000,9.22125,-0.8667847514152527,8.626697540283203,-4.582483291625977
1763692630209330200,9.231330078125,-0.5581920742988586,8.702583312988281,-4.485962390899658
1763692630219407400,9.241407470703125,-0.2522153854370117,8.765275001525879,-4.390528202056885
1763692630229487400,9.2514873046875,0.029285892844200134,8.80455493927002,-4.318488121032715
1763692630239567600,9.261567626953125,0.2703911364078522,8.819070816040039,-4.280333518981934
1763692630249654500,9.271654541015625,0.4579451084136963,8.81108570098877,-4.28082275390625
1763692630259734500,9.281734619140625,0.5861380696296692,8.782247543334961,-4.324227809906006
1763692630269814800,9.291814697265625,0.6600766181945801,8.731424331665039,-4.415529727935791
1763692630279892200,9.301892333984375,0.6902848482131958,8.660271644592285,-4.549020767211914
1763692630289972200,9.31197216796875,0.6888761520385742,8.573955535888672,-4.709896564483643
1763692630300052200,9.32205224609375,0.6678731441497803,8.476490020751953,-4.886045455932617
1763692630310132500,9.332132568359375,0.6293809413909912,8.374561309814453,-5.063694953918457
1763692630320212500,9.34221240234375,0.5722687244415283,8.274598121643066,-5.2320098876953125
1763692630330292500,9.35229248046875,0.48720723390579224,8.18210220336914,-5.383885860443115
1763692630340379100,9.362379150390625,0.37301549315452576,8.091174125671387,-5.52848482131958
1763692630350459100,9.372459228515625,0.23704546689987183,7.9991960525512695,-5.668072700500488
1763692630360539100,9.3825390625,0.07948263734579086,7.91026496887207,-5.795841693878174
1763692630370613200,9.39261328125,-0.07281012088060379,7.822511672973633,-5.9138312339782715
1763692630380693200,9.402693359375,-0.1947270780801773,7.716841697692871,-6.048372745513916
1763692630390773200,9.412773193359374,-0.2422221601009369,7.5707292556762695,-6.228625297546387
1763692630400870100,9.4228701171875,-0.17457585036754608,7.378815650939941,-6.4570112228393555
1763692630410950100,9.4329501953125,-0.00619379710406065,7.152225971221924,-6.709397792816162
1763692630421030100,9.443030029296875,0.19937454164028168,6.914649963378906,-6.951132774353027
1763692630431105800,9.453105712890626,0.32831063866615295,6.7111735343933105,-7.1430206298828125
1763692630441185800,9.463185791015626,0.30979564785957336,6.568967342376709,-7.274825096130371
1763692630451266000,9.47326611328125,0.16052815318107605,6.474645614624023,-7.363666534423828
1763692630461340400,9.48334033203125,-0.040555573999881744,6.396456718444824,-7.433309555053711
1763692630471420400,9.49342041015625,-0.2183815836906433,6.321384906768799,-7.494183540344238
1763692630481500400,9.50350048828125,-0.33303964138031006,6.262645721435547,-7.539147853851318
1763692630491585000,9.5135849609375,-0.3730469048023224,6.241080284118652,-7.555141448974609
1763692630501665300,9.523665283203124,-0.3439340889453888,6.2676615715026855,-7.534488677978516
1763692630511745300,9.533745361328124,-0.2587764859199524,6.337789535522461,-7.479026794433594
1763692630521824000,9.543823974609374,-0.130533829331398,6.434629440307617,-7.39924955368042
1763692630531904300,9.553904296875,0.028033625334501266,6.537599563598633,-7.309540748596191
1763692630541984300,9.563984375,0.20254959166049957,6.631487846374512,-7.221685409545898
1763692630552061400,9.5740615234375,0.3773570954799652,6.707245826721191,-7.144288063049316
1763692630562141400,9.584141357421874,0.5478604435920715,6.7603559494018555,-7.082925319671631
1763692630572221700,9.5942216796875,0.7098516225814819,6.804693698883057,-7.025855541229248
1763692630582303700,9.6043037109375,0.8475862741470337,6.845771312713623,-6.970465660095215
1763692630592384000,9.614384033203125,0.9548398852348328,6.880220413208008,-6.922516822814941
1763692630602464000,9.624464111328125,1.0326050519943237,6.906397342681885,-6.885186672210693
1763692630612543500,9.63454345703125,1.0906596183776855,6.922969341278076,-6.8595428466796875
1763692630622623500,9.64462353515625,1.1340787410736084,6.936746597290039,-6.838552951812744
1763692630632703500,9.654703369140625,1.1584645509719849,6.960075378417969,-6.810704231262207
1763692630642783500,9.664783447265625,1.159076452255249,7.000524520874023,-6.769016265869141
1763692630652863500,9.674863525390625,1.1389669179916382,7.059571743011475,-6.7108564376831055
1763692630662943700,9.68494384765625,1.105051040649414,7.13580846786499,-6.635471820831299
1763692630673032700,9.69503271484375,1.0508923530578613,7.223415851593018,-6.548914432525635
1763692630683112700,9.70511279296875,0.986518383026123,7.309303283691406,-6.463068962097168
1763692630693192700,9.715192626953124,0.9153501391410828,7.39509391784668,-6.375351428985596
1763692630703258400,9.72525830078125,0.8184269070625305,7.489025592803955,-6.278140544891357
1763692630713338400,9.73533837890625,0.6763227581977844,7.598755836486816,-6.162133693695068
1763692630723418600,9.745418701171875,0.4694738984107971,7.7277302742004395,-6.019315242767334
1763692630733511200,9.75551123046875,0.1960967481136322,7.868849277496338,-5.849200248718262
1763692630743591200,9.765591064453124,-0.10241058468818665,7.999384880065918,-5.671838760375977
1763692630753671200,9.775671142578124,-0.3481447994709015,8.098889350891113,-5.518802165985107
1763692630763763200,9.78576318359375,-0.4951600134372711,8.171833038330078,-5.398736953735352
1763692630773843200,9.79584326171875,-0.5338671207427979,8.233317375183105,-5.3007402420043945
1763692630783923500,9.80592333984375,-0.47920647263526917,8.298426628112793,-5.203542709350586
1763692630793995300,9.815995361328126,-0.3808597922325134,8.384071350097656,-5.072737693786621
1763692630804075300,9.8260751953125,-0.27713581919670105,8.494144439697266,-4.893167972564697
1763692630814155300,9.8361552734375,-0.17332255840301514,8.611824035644531,-4.687945365905762
1763692630824231700,9.846231689453125,-0.07064482569694519,8.720785140991211,-4.484786033630371
1763692630834311700,9.856311767578125,0.017438387498259544,8.811906814575195,-4.303531646728516
1763692630844391700,9.8663916015625,0.07152559608221054,8.87916374206543,-4.162417888641357
1763692630854420700,9.876420654296876,0.07824329286813736,8.925335884094238,-4.062345504760742
1763692630864500700,9.886500732421876,0.035222359001636505,8.956315040588379,-3.9941935539245605
1763692630874581000,9.8965810546875,-0.04595222696661949,8.9771089553833,-3.94712233543396
1763692630884745000,9.906744873046875,-0.1423056274652481,8.9926176071167,-3.90934419631958
1763692630894825000,9.916824951171876,-0.22306941449642181,9.005542755126953,-3.875669479370117
1763692630904905200,9.9269052734375,-0.26157712936401367,9.018501281738281,-3.842993974685669
1763692630914924800,9.9369248046875,-0.23769882321357727,9.033578872680664,-3.80898118019104
1763692630925004800,9.9470048828125,-0.14285998046398163,9.051756858825684,-3.7703683376312256
1763692630935084800,9.957084716796874,0.018505536019802094,9.072210311889648,-3.7235827445983887
1763692630945318000,9.96731787109375,0.23361968994140625,9.092719078063965,-3.6658220291137695
1763692630955398000,9.97739794921875,0.47179707884788513,9.108238220214844,-3.6038601398468018
1763692630965478000,9.987477783203126,0.7089772820472717,9.11396598815918,-3.5501208305358887
1763692630975461600,9.997461669921876,0.9219223856925964,9.107063293457031,-3.518784761428833
1763692630985541600,10.007541748046876,1.1004387140274048,9.087718963623047,-3.5174965858459473
1763692630995621600,10.01762158203125,1.227288007736206,9.062751770019531,-3.5398709774017334
1763692631005697300,10.027697265625,1.297773838043213,9.032530784606934,-3.591595411300659
1763692631015777300,10.03777734375,1.3168883323669434,8.994885444641113,-3.6780755519866943
1763692631025857300,10.047857177734375,1.2963672876358032,8.947832107543945,-3.798173189163208
1763692631035943700,10.057943603515625,1.2519216537475586,8.890798568725586,-3.944211006164551
1763692631046024000,10.06802392578125,1.1932647228240967,8.827933311462402,-4.10050106048584
1763692631056104000,10.07810400390625,1.1232306957244873,8.765931129455566,-4.250553607940674
1763692631066173400,10.08817333984375,1.0383754968643188,8.708453178405762,-4.388052940368652
1763692631076253400,10.09825341796875,0.9411358833312988,8.64509105682373,-4.532886981964111
1763692631086333400,10.10833349609375,0.8318374156951904,8.572381973266602,-4.689637660980225
1763692631096389400,10.118389404296876,0.6774429678916931,8.497347831726074,-4.848354339599609
1763692631106469400,10.128469482421876,0.5307410359382629,8.422077178955078,-4.995730400085449
1763692631116549600,10.138549560546876,0.411228746175766,8.347366333007812,-5.130570411682129
1763692631126643700,10.148643798828125,0.3469696342945099,8.277851104736328,-5.246635437011719
1763692631136723700,10.1587236328125,0.3537226617336273,8.216415405273438,-5.341890811920166
1763692631146804000,10.168803955078126,0.43877002596855164,8.154088973999023,-5.4303483963012695
1763692631156880000,10.1788798828125,0.6047941446304321,8.071416854858398,-5.536861896514893
1763692631166960000,10.188960205078125,0.8211842775344849,7.959261417388916,-5.6697611808776855
1763692631177040100,10.1990400390625,1.0248163938522339,7.8305583000183105,-5.813990592956543
1763692631187121700,10.20912158203125,1.153090000152588,7.710236072540283,-5.949203968048096
1763692631197202000,10.219201904296876,1.173399567604065,7.609257698059082,-6.07393741607666
1763692631207282000,10.229281982421876,1.1059335470199585,7.518968105316162,-6.197774887084961
1763692631217973200,10.23997314453125,1.002475380897522,7.421960830688477,-6.330869674682617
1763692631228053500,10.250053466796874,0.9352124333381653,7.326852798461914,-6.4508137702941895
1763692631238133500,10.260133544921874,0.9432362914085388,7.2360358238220215,-6.5513715744018555
1763692631248174300,10.27017431640625,1.0428513288497925,7.161674976348877,-6.61764669418335
1763692631258254300,10.28025439453125,1.2351734638214111,7.1102681159973145,-6.639942169189453
1763692631268334300,10.290334228515626,1.50670325756073,7.081150054931641,-6.6149492263793945
1763692631278421500,10.30042138671875,1.8308277130126953,7.066928863525391,-6.548051357269287
1763692631288502800,10.310502685546876,2.1837563514709473,7.054510593414307,-6.452556610107422
1763692631298584000,10.320583984375,2.555018186569214,7.028458595275879,-6.343740463256836
1763692631308676900,10.3306767578125,2.9365622997283936,6.975948333740234,-6.2356343269348145
1763692631318758100,10.340758056640626,3.313079595565796,6.894303798675537,-6.1369757652282715
1763692631328839400,10.35083935546875,3.670339584350586,6.789615154266357,-6.049803256988525
1763692631338350000,10.36035009765625,3.9681334495544434,6.684783458709717,-5.978123188018799
1763692631348431400,10.370431396484374,4.229671001434326,6.582451820373535,-5.911988258361816
1763692631358512600,10.3805126953125,4.429481506347656,6.501701354980469,-5.854739665985107
1763692631368574200,10.39057421875,4.558775424957275,6.450459003448486,-5.812015533447266
1763692631378655500,10.400655517578125,4.618618011474609,6.431480884552002,-5.785742282867432
1763692631388736800,10.41073681640625,4.616750717163086,6.441448211669922,-5.776135444641113
1763692631398829800,10.420829833984374,4.559764862060547,6.470615386962891,-5.788787841796875
1763692631408911000,10.4309111328125,4.460456848144531,6.507374286651611,-5.824842929840088
1763692631418992400,10.440992431640625,4.3393378257751465,6.547107696533203,-5.871619701385498
1763692631429052700,10.451052734375,4.220341682434082,6.588731288909912,-5.911659240722656
1763692631439134000,10.461134033203125,4.1172709465026855,6.6306304931640625,-5.937441825866699
1763692631449215200,10.47121533203125,4.0284857749938965,6.675683498382568,-5.947851657867432
1763692631459297000,10.481297119140624,3.953277349472046,6.732177734375,-5.934624671936035
1763692631469378000,10.4913779296875,3.8646624088287354,6.816287517547607,-5.89686393737793
1763692631479459300,10.501459228515625,3.7440249919891357,6.931668281555176,-5.8399176597595215
1763692631489538000,10.5115380859375,3.594679355621338,7.065007209777832,-5.773587703704834
1763692631499619300,10.521619384765625,3.4269282817840576,7.196232318878174,-5.713212013244629
1763692631509700600,10.53170068359375,3.272883415222168,7.296150207519531,-5.676690101623535
1763692631519773700,10.541773681640626,3.1850948333740234,7.346970558166504,-5.66105842590332
1763692631529855000,10.55185498046875,3.176952838897705,7.36043643951416,-5.648127555847168
1763692631539936300,10.561936279296875,3.225296974182129,7.355164051055908,-5.627558708190918
1763692631550023700,10.572023681640625,3.3180742263793945,7.3443193435668945,-5.587642192840576
1763692631560105000,10.58210498046875,3.4304256439208984,7.3348236083984375,-5.531991958618164
1763692631570186200,10.592186279296875,3.545671224594116,7.326192855834961,-5.470419406890869
1763692631580258800,10.6022587890625,3.6484222412109375,7.313793659210205,-5.419209957122803
1763692631590340000,10.612340087890624,3.7326300144195557,7.293028354644775,-5.389769077301025
1763692631600421400,10.62242138671875,3.78981351852417,7.262946605682373,-5.390482425689697
1763692631610507000,10.632507080078126,3.8189773559570312,7.230017185211182,-5.414116382598877
1763692631620588300,10.64258837890625,3.8291425704956055,7.19971227645874,-5.447218418121338
1763692631630669600,10.652669677734375,3.8330273628234863,7.177030086517334,-5.474352836608887
1763692631640737300,10.6627373046875,3.844261646270752,7.1642842292785645,-5.483162879943848
1763692631650818300,10.672818359375,3.8783044815063477,7.158748626708984,-5.466394424438477
1763692631660899600,10.682899658203125,3.950770854949951,7.153628826141357,-5.421013355255127
1763692631670986000,10.692986083984374,4.06992769241333,7.141708850860596,-5.348089218139648
1763692631681067300,10.7030673828125,4.233597278594971,7.118533611297607,-5.251049041748047
1763692631691148500,10.7131484375,4.435359477996826,7.083292484283447,-5.13078498840332
1763692631701217500,10.723217529296875,4.665163040161133,7.0364155769348145,-4.989538192749023
1763692631721380000,10.743380126953125,5.11359977722168,6.950212478637695,-4.6600470542907715
1763692631751620600,10.77362060546875,5.599372863769531,6.906833648681641,-4.1367950439453125
1763692631761715200,10.783715087890625,5.690619945526123,6.927040100097656,-3.975342273712158
1763692631771796500,10.79379638671875,5.749861240386963,6.9609246253967285,-3.828185796737671
1763692631781877800,10.803877685546874,5.784989356994629,6.998760223388672,-3.704273223876953
1763692631791944700,10.81394482421875,5.805832862854004,7.027806758880615,-3.615607261657715
1763692631802026000,10.82402587890625,5.816638469696045,7.04066276550293,-3.5729777812957764
1763692631812107300,10.834107177734374,5.810384273529053,7.037728309631348,-3.5889010429382324
1763692631822186000,10.84418603515625,5.780217170715332,7.024761199951172,-3.662268877029419
1763692631832267300,10.854267333984374,5.719349384307861,7.012036323547363,-3.780313730239868
1763692631842348500,10.8643486328125,5.622182369232178,7.0056233406066895,-3.9348068237304688
1763692631852425200,10.87442529296875,5.4853386878967285,7.0091142654418945,-4.117493152618408
1763692631872587800,10.894587890625,5.101858615875244,7.0684123039245605,-4.49210262298584
1763692631882664700,10.904664794921874,4.891256809234619,7.103010654449463,-4.668322563171387
1763692631892746000,10.91474609375,4.693224906921387,7.121540069580078,-4.840216636657715
1763692631902827300,10.9248271484375,4.545241355895996,7.099833965301514,-5.010341167449951
1763692631912906200,10.93490625,4.482734680175781,7.017224311828613,-5.180158615112305
1763692631922987500,10.944987548828125,4.5174736976623535,6.8805084228515625,-5.331173896789551
1763692631933068800,10.95506884765625,4.627577781677246,6.710484027862549,-5.45209264755249
1763692631943154200,10.965154296875,4.768967151641846,6.534585952758789,-5.543150424957275
1763692631953235500,10.9752353515625,4.889174938201904,6.386091709136963,-5.611076831817627
1763692631963316700,10.985316650390626,4.957171440124512,6.284616947174072,-5.66572380065918
1763692631973393200,10.99539306640625,4.968818187713623,6.228577613830566,-5.717172622680664
1763692631983474200,11.00547412109375,4.936114311218262,6.198941230773926,-5.7773942947387695
1763692631993555500,11.015555419921874,4.875157833099365,6.175342559814453,-5.853918552398682
1763692632003636200,11.02563623046875,4.8001532554626465,6.1489386558532715,-5.943019390106201
1763692632013717500,11.035717529296875,4.723752975463867,6.118396759033203,-6.035045623779297
1763692632023798800,11.045798828125,4.659409523010254,6.081189155578613,-6.122044086456299
1763692632043967700,11.0659677734375,4.6192545890808105,5.976836204528809,-6.253823757171631
1763692632054049000,11.076049072265626,4.652018070220947,5.910125255584717,-6.292816162109375
1763692632064115200,11.086115234375,4.719747543334961,5.835726261138916,-6.311789035797119
1763692632074196500,11.096196533203125,4.815837860107422,5.761917591094971,-6.307011127471924
1763692632084277800,11.10627783203125,4.929530143737793,5.700098037719727,-6.275269031524658
1763692632094382000,11.116382080078125,5.047534465789795,5.657495498657227,-6.219769477844238
1763692632104463400,11.12646337890625,5.155991554260254,5.635069847106934,-6.150781631469727
1763692632114544600,11.136544677734374,5.247034549713135,5.629881381988525,-6.07811164855957
1763692632124605700,11.146605712890626,5.321818828582764,5.638261318206787,-6.004885196685791
1763692632134687000,11.15668701171875,5.38621187210083,5.65638542175293,-5.929959774017334
1763692632144768300,11.166768310546875,5.447931289672852,5.681242942810059,-5.849266529083252
1763692632154831400,11.176831298828125,5.514445781707764,5.7104811668396,-5.757749557495117
1763692632164912600,11.18691259765625,5.587550640106201,5.743754863739014,-5.653224945068359
1763692632174994000,11.196993896484376,5.670634746551514,5.782809734344482,-5.529321670532227
1763692632185064400,11.207064453125,5.765158176422119,5.833152770996094,-5.376584529876709
1763692632195145700,11.217145751953124,5.867575168609619,5.899710655212402,-5.1899285316467285
1763692632205227000,11.22722705078125,5.973138332366943,5.981749534606934,-4.970983028411865
1763692632215282400,11.237282470703125,6.071822166442871,6.074491024017334,-4.733277320861816
1763692632225363700,11.24736376953125,6.1551103591918945,6.173641681671143,-4.491231441497803
1763692632235445000,11.257445068359376,6.223515510559082,6.268433570861816,-4.259693145751953
1763692632245570800,11.26757080078125,6.283955097198486,6.344359397888184,-4.053566932678223
1763692632255652000,11.277652099609375,6.340888500213623,6.390244483947754,-3.8895111083984375
1763692632265733400,11.2877333984375,6.398500919342041,6.402224063873291,-3.7737371921539307
1763692632275800800,11.29780078125,6.457937240600586,6.380770206451416,-3.7082622051239014
1763692632285882000,11.307882080078125,6.518701076507568,6.330996513366699,-3.6871957778930664
1763692632295963100,11.317963134765625,6.5774431228637695,6.259990215301514,-3.7040722370147705
1763692632306018600,11.3280185546875,6.626830577850342,6.179044723510742,-3.7516534328460693
1763692632316098600,11.3380986328125,6.655216217041016,6.105716228485107,-3.8208281993865967
1763692632326178300,11.34817822265625,6.646856784820557,6.057525157928467,-3.911020278930664
1763692632336291300,11.358291259765625,6.588726043701172,6.046921730041504,-4.024153232574463
1763692632346371300,11.368371337890625,6.476769924163818,6.074702262878418,-4.161710739135742
1763692632356451300,11.378451416015626,6.314296245574951,6.131297588348389,-4.325186252593994
1763692632366539500,11.38853955078125,6.1099772453308105,6.202578544616699,-4.512935161590576
1763692632376619500,11.39861962890625,5.876946926116943,6.275306224822998,-4.717247009277344
1763692632386699500,11.408699462890626,5.63079833984375,6.341922283172607,-4.923873424530029
1763692632396750300,11.418750244140625,5.388776779174805,6.39800500869751,-5.11829948425293
1763692632406830300,11.428830322265625,5.169457912445068,6.440998554229736,-5.28778076171875
1763692632416910000,11.43891015625,4.986553192138672,6.472319602966309,-5.423445224761963
1763692632427599000,11.44959912109375,4.839100360870361,6.496912002563477,-5.526628494262695
1763692632437679000,11.45967919921875,4.749494552612305,6.515408992767334,-5.58230447769165
1763692632457249300,11.479249267578124,4.68797492980957,6.5505218505859375,-5.593204498291016
1763692632467329300,11.489329345703124,4.696840286254883,6.566737174987793,-5.566689968109131
1763692632477409300,11.4994091796875,4.713907241821289,6.584908962249756,-5.530681133270264
1763692632487478500,11.509478515625,4.723796367645264,6.608144760131836,-5.494411945343018
1763692632497558300,11.519558349609374,4.721248626708984,6.629644393920898,-5.470650672912598
1763692632507638300,11.52963818359375,4.70412015914917,6.641745567321777,-5.47072696685791
1763692632518342700,11.5403427734375,4.667749404907227,6.641327857971191,-5.5022969245910645
1763692632528422700,11.550422607421876,4.614181995391846,6.628419399261475,-5.562713146209717
1763692632538502700,11.560502685546876,4.530244827270508,6.6085615158081055,-5.654572010040283
1763692632558059000,11.58005908203125,4.2327561378479,6.565587043762207,-5.9285101890563965
1763692632568139000,11.590138916015626,4.000903606414795,6.5372314453125,-6.117823600769043
1763692632578219000,11.600218994140626,3.732304334640503,6.492870807647705,-6.3311076164245605
1763692632588266000,11.610265869140624,3.4336652755737305,6.421551704406738,-6.568408966064453
1763692632598346000,11.620345947265625,3.1182289123535156,6.314736366271973,-6.824305057525635
1763692632608425700,11.63042578125,2.803872585296631,6.182006359100342,-7.07753324508667
1763692632618520600,11.6405205078125,2.4688079357147217,6.024763107299805,-7.333321571350098
1763692632628600300,11.650600341796874,2.1573843955993652,5.836921691894531,-7.579341888427734
1763692632638680300,11.660680419921874,1.9148107767105103,5.609042167663574,-7.812972068786621
1763692632648808700,11.67080859375,1.7960047721862793,5.322170257568359,-8.038610458374023
1763692632658888700,11.680888671875,1.8076151609420776,4.9832353591918945,-8.250472068786621
1763692632668968700,11.69096875,1.8779563903808594,4.620572566986084,-8.44357681274414
1763692632679001900,11.701001953125,1.9042636156082153,4.287905693054199,-8.611505508422852
1763692632689081900,11.711081787109375,1.8227732181549072,4.028904438018799,-8.753046989440918
1763692632699161900,11.721161865234375,1.6335200071334839,3.8526573181152344,-8.868992805480957
1763692632709264400,11.731264404296875,1.3881744146347046,3.728835344314575,-8.963210105895996
1763692632719344400,11.741344482421875,1.1507830619812012,3.622401237487793,-9.040148735046387
1763692632729424100,11.751424072265625,0.9599310159683228,3.5137112140655518,-9.105094909667969
1763692632739510800,11.7615107421875,0.8405666351318359,3.4060380458831787,-9.157660484313965
1763692632749590800,11.7715908203125,0.7777765989303589,3.3244597911834717,-9.19311809539795
1763692632759670500,11.78167041015625,0.7367376089096069,3.2822957038879395,-9.211630821228027
1763692632769749800,11.791749755859374,0.7248769998550415,3.2729859352111816,-9.2158842086792
1763692632779829800,11.801829833984375,0.7356147766113281,3.290923595428467,-9.20864200592041
1763692632799966500,11.821966552734375,0.7878623604774475,3.361536979675293,-9.178765296936035
1763692632810046500,11.83204638671875,0.8095858097076416,3.3942220211029053,-9.164835929870605
1763692632820126200,11.842126220703125,0.8299447894096375,3.4111123085021973,-9.156740188598633
1763692632830201000,11.852201171875,0.8445656895637512,3.412351369857788,-9.15494155883789
1763692632840281000,11.862281005859375,0.8436260223388672,3.4039406776428223,-9.158159255981445
1763692632850361000,11.872361083984375,0.8204737305641174,3.388239860534668,-9.166080474853516
1763692632860434700,11.8824345703125,0.7800127267837524,3.363246202468872,-9.17880916595459
1763692632870514700,11.8925146484375,0.7288902997970581,3.3311879634857178,-9.194687843322754
1763692632880594400,11.902594482421875,0.652864396572113,3.303457736968994,-9.210391998291016
1763692632890655000,11.912655029296875,0.5482858419418335,3.2893595695495605,-9.222249984741211
1763692632900735000,11.92273486328125,0.42720672488212585,3.294248342514038,-9.226906776428223
1763692632910815000,11.93281494140625,0.30429452657699585,3.3241126537323,-9.22106647491455
1763692632920919800,11.942919921875,0.17851541936397552,3.385753631591797,-9.201912879943848
1763692632930999800,11.952999755859375,0.048308115452528,3.479276180267334,-9.168570518493652
1763692632941079600,11.96307958984375,-0.08569452911615372,3.595888376235962,-9.123191833496094
1763692632951203000,11.973203125,-0.23124204576015472,3.7283875942230225,-9.067305564880371
1763692632961283000,11.983282958984375,-0.39138996601104736,3.8713998794555664,-9.001636505126953
1763692632971363000,11.993363037109376,-0.563581645488739,4.024577617645264,-8.924995422363281
1763692632981404400,12.003404296875,-0.7305418848991394,4.187480926513672,-8.837516784667969
1763692632991484400,12.013484375,-0.8444757461547852,4.352538108825684,-8.747151374816895
1763692633001564200,12.023564208984375,-0.8770231008529663,4.513847827911377,-8.661778450012207
1763692633011690000,12.03368994140625,-0.8347164988517761,4.668601989746094,-8.583577156066895
1763692633021769700,12.043769775390626,-0.7353342771530151,4.806288719177246,-8.516411781311035
1763692633031849700,12.053849609375,-0.6046523451805115,4.919090747833252,-8.462111473083496
1763692633041912300,12.063912353515626,-0.47604936361312866,5.008589267730713,-8.417706489562988
1763692633051992300,12.073992431640624,-0.37906894087791443,5.082794666290283,-8.378060340881348
1763692633062072000,12.084072021484374,-0.3264136016368866,5.145649433135986,-8.34183120727539
1763692633072161300,12.094161376953124,-0.3184184730052948,5.192444801330566,-8.313092231750488
1763692633082241300,12.1042412109375,-0.3545360565185547,5.218981742858887,-8.29499340057373
1763692633092321000,12.114321044921875,-0.42925548553466797,5.224451065063477,-8.288017272949219
1763692633102364000,12.124364013671874,-0.5214537382125854,5.2113938331604,-8.290950775146484
1763692633112443600,12.134443603515624,-0.6082130074501038,5.19148063659668,-8.297529220581055
1763692633122523600,12.144523681640624,-0.6724802255630493,5.185183525085449,-8.296506881713867
1763692633132631800,12.1546318359375,-0.6995331645011902,5.2104034423828125,-8.278450012207031
1763692633142711800,12.1647119140625,-0.6806886196136475,5.2737932205200195,-8.239789962768555
1763692633152791800,12.174791748046875,-0.6131377220153809,5.369358539581299,-8.183180809020996
1763692633162885000,12.184885009765624,-0.4967273771762848,5.486537933349609,-8.113048553466797
1763692633172965000,12.194965087890624,-0.3389630913734436,5.615492343902588,-8.03254222869873
1763692633183045000,12.205045166015625,-0.15671727061271667,5.751082420349121,-7.941717624664307
1763692633193134000,12.215134033203125,0.027673035860061646,5.889463424682617,-7.84116268157959
1763692633203213800,12.2252138671875,0.19460129737854004,6.024596691131592,-7.735421657562256
1763692633213293800,12.2352939453125,0.331755667924881,6.146248817443848,-7.634392261505127
1763692633223368200,12.2453681640625,0.4286368191242218,6.2426676750183105,-7.550878524780273
1763692633233448200,12.2554482421875,0.477649450302124,6.304810047149658,-7.496105670928955
1763692633243528000,12.26552783203125,0.48286357522010803,6.327901363372803,-7.476288795471191
1763692633253599200,12.27559912109375,0.4535815119743347,6.314377784729004,-7.48954439163208
1763692633263679200,12.28567919921875,0.4007989466190338,6.273465156555176,-7.526844024658203
1763692633273759200,12.29575927734375,0.3376482427120209,6.215309143066406,-7.578015327453613
1763692633283819500,12.305819580078126,0.2741073668003082,6.151261329650879,-7.63264274597168
1763692633293899500,12.3158994140625,0.2105192095041275,6.091259002685547,-7.682619094848633
1763692633303979300,12.325979248046876,0.14731383323669434,6.040055274963379,-7.724403381347656
1763692633314088700,12.336088623046875,0.08634035289287567,6.0009894371032715,-7.755711078643799
1763692633324169000,12.3461689453125,0.02958068624138832,5.969667911529541,-7.780269145965576
1763692633334249000,12.3562490234375,-0.025201797485351562,5.926104545593262,-7.813516139984131
1763692633344306200,12.36630615234375,-0.08562145382165909,5.8697614669799805,-7.855505466461182
1763692633354386400,12.376386474609374,-0.136655792593956,5.811901092529297,-7.897690296173096
1763692633364466400,12.386466552734374,-0.18620887398719788,5.753477573394775,-7.939345836639404
1763692633384599800,12.406599853515624,-0.20808690786361694,5.636512279510498,-8.022271156311035
1763692633394680000,12.41668017578125,-0.19476696848869324,5.581511974334717,-8.060966491699219
1763692633404799000,12.426799072265625,-0.12878772616386414,5.480567932128906,-8.131246566772461
1763692633414879000,12.43687890625,-0.014517768286168575,5.3073225021362305,-8.246362686157227
1763692633424959000,12.446958984375,0.1321447193622589,5.053539276123047,-8.403253555297852
1763692633435031000,12.457031005859376,0.25234994292259216,4.745954513549805,-8.578031539916992
1763692633445111000,12.467111083984374,0.27631402015686035,4.436336517333984,-8.741450309753418
1763692633455191300,12.47719140625,0.1920815259218216,4.164043426513672,-8.876611709594727
1763692633465335800,12.487335693359375,0.044545628130435944,3.9464120864868164,-8.977429389953613
1763692633475415800,12.497415771484375,-0.09310685098171234,3.7882895469665527,-9.044919967651367
1763692633485495800,12.507495849609375,-0.15916785597801208,3.687098503112793,-9.085722923278809
1763692633495496000,12.517495849609375,-0.12138641625642776,3.6505777835845947,-9.101040840148926
1763692633505576200,12.527576171875,0.024266907945275307,3.6861438751220703,-9.087471008300781
1763692633515656200,12.53765625,0.26600944995880127,3.790006637573242,-9.040767669677734
1763692633525804500,12.547804443359375,0.5755815505981445,3.9441709518432617,-8.960055351257324
1763692633535884500,12.557884521484375,0.9031845331192017,4.115852355957031,-8.855191230773926
1763692633545964500,12.567964599609375,1.2137435674667358,4.272699356079102,-8.74306869506836
1763692633556011500,12.578011474609376,1.4891449213027954,4.393360137939453,-8.640092849731445
1763692633566091500,12.588091552734374,1.7230956554412842,4.473721027374268,-8.554948806762695
1763692633576171500,12.598171630859374,1.9071354866027832,4.520556449890137,-8.491042137145996
1763692633586194000,12.60819384765625,2.0355608463287354,4.544386386871338,-8.44839859008789
1763692633596274000,12.61827392578125,2.1139817237854004,4.555530071258545,-8.423099517822266
1763692633606354000,12.62835400390625,2.1500394344329834,4.562436580657959,-8.410224914550781
1763692633616455000,12.638454833984374,2.147568464279175,4.571957588195801,-8.405685424804688
1763692633626535000,12.648534912109374,2.112194061279297,4.588631629943848,-8.405563354492188
1763692633636615000,12.658614990234375,2.0566954612731934,4.614847183227539,-8.404973983764648
1763692633647311600,12.6693115234375,1.9870035648345947,4.6535844802856445,-8.400378227233887
1763692633657391600,12.6793916015625,1.910399079322815,4.702689170837402,-8.390796661376953
1763692633667472000,12.689471923828124,1.820401668548584,4.767766952514648,-8.374063491821289
1763692633687021000,12.70902099609375,1.5877618789672852,4.95886754989624,-8.310175895690918
1763692633697101300,12.719101318359375,1.4435014724731445,5.077841281890869,-8.26451587677002
1763692633707194000,12.729194091796876,1.2857036590576172,5.207396507263184,-8.209774017333984
1763692633717274000,12.739274169921876,1.1089509725570679,5.348507404327393,-8.144573211669922
1763692633727354000,12.74935400390625,0.9103266596794128,5.5000152587890625,-8.06793212890625
1763692633738028800,12.76002880859375,0.7005887031555176,5.661897659301758,-7.976370334625244
1763692633748108800,12.77010888671875,0.552493691444397,5.8042826652526855,-7.885140419006348
1763692633758188800,12.780188720703125,0.49025729298591614,5.9264068603515625,-7.797930717468262
1763692633768278500,12.790278564453125,0.5011394023895264,6.037492275238037,-7.711545944213867
1763692633778358500,12.800358642578125,0.566710352897644,6.139134407043457,-7.626287460327148
1763692633788438800,12.810438720703125,0.6571366786956787,6.232464790344238,-7.542873382568359
1763692633808641800,12.830641845703125,0.7630782127380371,6.440913677215576,-7.355454921722412
1763692633818721800,12.8407216796875,0.7538837194442749,6.56077766418457,-7.249706745147705
1763692633838269700,12.860269775390625,0.6026524305343628,6.796925067901611,-7.043365955352783
1763692633848349700,12.870349609375,0.48577603697776794,6.913768768310547,-6.937882423400879
1763692633858410800,12.88041064453125,0.36990222334861755,7.025275230407715,-6.832208156585693
1763692633868490800,12.89049072265625,0.27033016085624695,7.13631534576416,-6.720885753631592
1763692633878570800,12.90057080078125,0.2119949758052826,7.2521820068359375,-6.597825527191162
1763692633888665300,12.910665283203125,0.2205781489610672,7.376609802246094,-6.458123683929443
1763692633898745600,12.92074560546875,0.3071891665458679,7.508211612701416,-6.3010149002075195
1763692633908825600,12.93082568359375,0.4662877917289734,7.6431756019592285,-6.126567363739014
1763692633918889000,12.940888916015625,0.6782355308532715,7.775873184204102,-5.936849117279053
1763692633928969000,12.950968994140625,0.9113925099372864,7.900487899780273,-5.7377729415893555
1763692633939049000,12.961049072265626,1.1381721496582031,8.008346557617188,-5.544486999511719
1763692633949109500,12.971109619140625,1.3383530378341675,8.090356826782227,-5.3782267570495605
1763692633959189500,12.981189453125,1.5029895305633545,8.13882064819336,-5.260324954986572
1763692633969269500,12.99126953125,1.6254329681396484,8.150036811828613,-5.206271171569824
1763692633979336000,13.0013359375,1.686431884765625,8.13963794708252,-5.2031354904174805
1763692633989416200,13.011416259765625,1.6914008855819702,8.110759735107422,-5.246440410614014
1763692633999496200,13.02149609375,1.6582566499710083,8.062423706054688,-5.330842971801758
1763692634009625600,13.03162548828125,1.6042556762695312,7.995957374572754,-5.446229457855225
1763692634019705600,13.04170556640625,1.5526084899902344,7.909819602966309,-5.585207462310791
1763692634029785600,13.05178564453125,1.5011669397354126,7.812108039855957,-5.734792709350586
1763692634039864600,13.061864501953124,1.441582441329956,7.714523792266846,-5.880335807800293
1763692634049944600,13.071944580078124,1.3819825649261475,7.6147847175598145,-6.022918701171875
1763692634060024600,13.082024658203125,1.3197588920593262,7.506258487701416,-6.171281337738037
1763692634070108200,13.092108154296875,1.2473081350326538,7.386831283569336,-6.32845401763916
1763692634080188200,13.102188232421875,1.1369974613189697,7.257537364959717,-6.496597766876221
1763692634090268200,13.11226806640625,1.0112135410308838,7.120284557342529,-6.667037487030029
1763692634100307700,13.1223076171875,0.8901099562644958,6.9709882736206055,-6.839840412139893
1763692634110387700,13.1323876953125,0.7778216600418091,6.8037614822387695,-7.019559383392334
1763692634120467700,13.1424677734375,0.657787561416626,6.63516902923584,-7.191122531890869
1763692634130613000,13.152613037109376,0.5502890944480896,6.458101749420166,-7.359381675720215
1763692634140693000,13.16269287109375,0.5027107000350952,6.246161937713623,-7.5434160232543945
1763692634150773000,13.17277294921875,0.5591760277748108,5.971560478210449,-7.7587480545043945
1763692634160831200,13.182831298828125,0.7132406830787659,5.63873815536499,-7.991639614105225
1763692634170911200,13.1929111328125,0.883126974105835,5.288382530212402,-8.211179733276367
1763692634180991500,13.202991455078125,0.9717627763748169,4.971923828125,-8.396787643432617
1763692634191091000,13.213091064453126,0.9299361109733582,4.707968711853027,-8.552229881286621
1763692634201171000,13.2231708984375,0.7808253169059753,4.482840538024902,-8.687049865722656
1763692634211251000,13.2332509765625,0.5975826978683472,4.2783894538879395,-8.803899765014648
1763692634221310700,13.243310791015626,0.4523203670978546,4.098489761352539,-8.897649765014648
1763692634231391000,13.253390869140626,0.3799906075000763,3.963709831237793,-8.96186351776123
1763692634241471000,13.263470947265626,0.3824717700481415,3.8910696506500244,-8.993535041809082
1763692634251571000,13.273571044921875,0.4429953396320343,3.879547119140625,-8.995735168457031
1763692634261651000,13.28365087890625,0.5406110286712646,3.914062976837158,-8.975423812866211
1763692634271731200,13.293731201171875,0.6591849327087402,3.9704713821411133,-8.942663192749023
1763692634281771500,13.303771484375,0.7832401990890503,4.024544715881348,-8.908421516418457
1763692634291851500,13.3138515625,0.9016614556312561,4.061278343200684,-8.880507469177246
1763692634301931800,13.323931884765624,1.0106186866760254,4.075632572174072,-8.862180709838867
1763692634312014000,13.33401416015625,1.117737054824829,4.068594932556152,-8.852546691894531
1763692634332174300,13.35417431640625,1.3244401216506958,4.039934158325195,-8.83714771270752
