time,seconds_elapsed,z,y,x
1763692621096789500,0.11878955078125,0.2338186502456665,-0.3234313726425171,0.15339355170726776
1763692621116967400,0.138967529296875,0.23594911396503448,-0.3628450036048889,0.11291470378637314
1763692621137139200,0.15913916015625,0.17629607021808624,-0.20092958211898804,0.03728315606713295
1763692621157271600,0.179271484375,0.06870753318071365,0.11650986224412918,-0.04687025398015976
1763692621167351600,0.1893515625,0.0015978495357558131,0.1474016159772873,-0.07669677585363388
1763692621177431600,0.199431640625,-0.029293907806277275,0.1452711522579193,-0.14593692123889923
1763692621187532800,0.20953271484375,-0.07616416364908218,0.1995980441570282,-0.25139498710632324
1763692621197612800,0.21961279296875,-0.13475197553634644,0.26883819699287415,-0.3483312129974365
1763692621207692800,0.22969287109375,-0.14753477275371552,0.30186042189598083,-0.37602725625038147
1763692621218358300,0.240358154296875,-0.11025162041187286,0.24540305137634277,-0.31850466132164
1763692621228438300,0.250438232421875,-0.039946239441633224,-0.03794892504811287,-0.2460688352584839
1763692621238518300,0.260518310546875,-0.023967742919921875,-0.354323148727417,-0.1395455300807953
1763692621248602000,0.27060205078125,-0.10279498994350433,-0.48854249715805054,0.01917419396340847
1763692621258682000,0.28068212890625,-0.19440503418445587,-0.5758916139602661,0.15765449404716492
1763692621268762000,0.29076220703125,-0.245536208152771,-0.6046528816223145,0.2556559145450592
1763692621278268700,0.3002685546875,-0.264710396528244,-0.4512593448162079,0.3323526978492737
1763692621288348700,0.3103486328125,-0.2657756507396698,-0.1402112990617752,0.41011470556259155
1763692621298428700,0.3204287109375,-0.2892107665538788,0.21238084137439728,0.5251598954200745
1763692621308480800,0.330480712890625,-0.28281936049461365,0.39347043633461,0.6412702798843384
1763692621318560800,0.340560791015625,-0.1262301206588745,0.18042384088039398,0.6519225835800171
1763692621328640800,0.350640869140625,0.047402869910001755,-0.3117138147354126,0.551790714263916
1763692621338731500,0.3607314453125,0.034620072692632675,-0.6376751065254211,0.4250279664993286
1763692621348811500,0.3708115234375,-0.1283605843782425,-0.653653621673584,0.2663082480430603
1763692621358891500,0.3808916015625,-0.28175413608551025,-0.4480636417865753,0.05539211630821228
1763692621368981800,0.390981689453125,-0.3382114768028259,-0.2275604009628296,-0.12569749355316162
1763692621379061800,0.401061767578125,-0.34460288286209106,-0.2169080674648285,-0.2343512624502182
1763692621389142000,0.41114208984375,-0.353124737739563,-0.2999962568283081,-0.275895357131958
1763692621399212800,0.421212890625,-0.353124737739563,-0.3511274456977844,-0.2886781394481659
1763692621409292800,0.431292724609375,-0.30199354887008667,-0.4075847864151001,-0.3270265460014343
1763692621419372800,0.441372802734375,-0.21997061371803284,-0.4288894534111023,-0.3547225892543793
1763692621429450200,0.4514501953125,-0.15925233066082,-0.3436708152294159,-0.30146095156669617
1763692621439530200,0.4615302734375,-0.14540430903434753,-0.24566936492919922,-0.18641577661037445
1763692621449610200,0.4716103515625,-0.15925233066082,-0.2509955167770386,-0.06710968166589737
1763692621459689000,0.48168896484375,-0.1922745555639267,-0.3010614812374115,0.0426093190908432
1763692621469769000,0.49176904296875,-0.24873191118240356,-0.27549588680267334,0.16617634892463684
1763692621479849000,0.501848876953125,-0.3009283244609833,-0.2062557488679886,0.275895357131958
1763692621489933800,0.511933837890625,-0.34779858589172363,-0.17855969071388245,0.3376788794994354
1763692621500013800,0.522013916015625,-0.42023444175720215,-0.11784140020608902,0.364309698343277
1763692621510093800,0.53209375,-0.5299534201622009,-0.02836182899773121,0.3749620318412781
1763692621520174600,0.542174560546875,-0.6407376527786255,0.11650986224412918,0.3824186623096466
1763692621530254600,0.552254638671875,-0.7067821025848389,0.27736005187034607,0.3856143653392792
1763692621540334600,0.56233447265625,-0.7110430598258972,0.44034069776535034,0.38774481415748596
1763692621550416000,0.572415771484375,-0.6609770655632019,0.6407376527786255,0.360048770904541
1763692621560495900,0.582495849609375,-0.6023892760276794,0.7717612981796265,0.24713405966758728
1763692621570576100,0.592576171875,-0.5885412693023682,0.7312824726104736,0.08734910935163498
1763692621580664800,0.602664794921875,-0.629020094871521,0.5990604162216187,-0.03728315606713295
1763692621590744800,0.612744873046875,-0.6982602477073669,0.4232969582080841,-0.10226237028837204
1763692621600824800,0.622824951171875,-0.7376738786697388,0.22942456603050232,-0.12143656611442566
1763692621610900200,0.632900146484375,-0.750456690788269,0.16124965250492096,-0.10865376889705658
1763692621620980200,0.642980224609375,-0.7451304793357849,0.24646829068660736,-0.08202294260263443
1763692621631060200,0.653060302734375,-0.7270215153694153,0.43821024894714355,-0.05219641700387001
1763692621641168600,0.663168701171875,-0.7280867695808411,0.6631075739860535,-0.02982652559876442
1763692621651248600,0.67324853515625,-0.8111749291419983,0.9091764092445374,-0.03408745676279068
1763692621661328600,0.68332861328125,-1.0082430839538574,1.133940577507019,-0.1171756312251091
1763692621671397000,0.693397216796875,-1.3011821508407593,1.3810746669769287,-0.2897433936595917
1763692621681477000,0.70347705078125,-1.6686875820159912,1.7283406257629395,-0.5475297570228577
1763692621691557400,0.713557373046875,-2.0437827110290527,2.076671838760376,-0.8862738609313965
1763692621701625600,0.72362548828125,-2.248307466506958,2.314218759536743,-1.2527140378952026
1763692621711705600,0.73370556640625,-2.1151533126831055,2.4771993160247803,-1.5893276929855347
1763692621721785600,0.74378564453125,-1.6154258251190186,2.674267530441284,-1.8183528184890747
1763692621731844900,0.753844970703125,-0.8388710021972656,2.9096839427948,-1.8279398679733276
1763692621741924900,0.7639248046875,-0.11451254785060883,2.8830530643463135,-1.5935885906219482
1763692621752005000,0.774005126953125,0.22423155605793,2.460155725479126,-1.1493864059448242
1763692621762081800,0.784081787109375,0.21570968627929688,1.9967793226242065,-0.5464645624160767
1763692621772161800,0.794161865234375,0.08149032294750214,1.8220810890197754,0.04580501839518547
1763692621782241800,0.80424169921875,-0.18375270068645477,1.7304710149765015,0.4580501914024353
1763692621792354000,0.81435400390625,-0.5001268982887268,1.3405957221984863,0.5315513014793396
1763692621802434000,0.82443408203125,-0.7099778056144714,1.012503981590271,0.1501978635787964
1763692621812514000,0.83451416015625,-0.6822817325592041,1.0721570253372192,-0.5816172361373901
1763692621822588000,0.844587890625,-0.4809527099132538,1.00504732131958,-1.356041669845581
1763692621832668000,0.85466796875,-0.35632044076919556,0.39453569054603577,-1.9163541793823242
1763692621842748000,0.864747802734375,-0.4127778112888336,-0.43421560525894165,-2.262554883956909
1763692621852833300,0.874833251953125,-0.5001268982887268,-0.8027862310409546,-2.491713285446167
1763692621862913300,0.884913330078125,-0.567236602306366,-0.8166342377662659,-2.65575909614563
1763692621872993300,0.8949931640625,-0.6812165379524231,-0.9199618697166443,-2.762282371520996
1763692621883036200,0.9050361328125,-0.7941312193870544,-0.975354015827179,-2.814478874206543
1763692621893116200,0.9151162109375,-0.844197154045105,-0.929548978805542,-2.82300066947937
1763692621903196200,0.925196044921875,-0.8026530742645264,-0.8528521656990051,-2.7931740283966064
1763692621923384800,0.945384765625,-0.43940863013267517,-1.5559059381484985,-2.3509693145751953
1763692621933465000,0.955465087890625,-0.19653549790382385,-1.84884512424469,-1.840722680091858
1763692621943597800,0.965597900390625,-0.028228675946593285,-2.0459132194519043,-1.2228875160217285
1763692621953677800,0.975677734375,0.15605664253234863,-2.1897196769714355,-0.6316831707954407
1763692621973761500,0.995761474609375,0.6460638046264648,-1.8680192232131958,0.2865476906299591
1763692621983841500,1.005841552734375,0.8516538143157959,-1.6017110347747803,0.7456631064414978
1763692621993921500,1.015921630859375,0.8463276624679565,-1.406773328781128,1.2079741954803467
1763692622004028000,1.02602783203125,0.6684337258338928,-1.1393998861312866,1.6223498582839966
1763692622014108000,1.03610791015625,0.42343011498451233,-0.9146357178688049,1.9845291376113892
1763692622024188000,1.04618798828125,0.18268746137619019,-0.7410027384757996,2.298906087875366
1763692622044361000,1.06636083984375,-0.052729032933712006,-0.606783390045166,2.752695322036743
1763692622054441000,1.07644091796875,0.09001219272613525,-0.39054104685783386,2.837913990020752
1763692622064486000,1.08648583984375,0.1603175699710846,-0.1519288569688797,2.6514980792999268
1763692622074566000,1.09656591796875,0.1688394397497177,0.37749195098876953,2.2572288513183594
1763692622084646000,1.10664599609375,0.21997061371803284,0.9624380469322205,1.8290051221847534
1763692622094759400,1.116759521484375,0.30412402749061584,1.1786803007125854,1.4998481273651123
1763692622104839400,1.12683935546875,0.3722989559173584,1.213832974433899,1.311301827430725
1763692622114919400,1.13691943359375,0.4074516296386719,1.194658875465393,1.1919957399368286
1763692622124967000,1.146966796875,0.4916050434112549,1.0785484313964844,1.0460587739944458
1763692622135047000,1.157046875,0.6034545302391052,0.9070459008216858,0.8766867518424988
1763692622145127000,1.167126953125,0.6407376527786255,0.65245521068573,0.7115756869316101
1763692622155309600,1.1773095703125,0.6002588272094727,0.4222317337989807,0.5741605758666992
1763692622175470000,1.197469970703125,0.4447347819805145,0.35192635655403137,0.4793548583984375
1763692622185440000,1.20743994140625,0.31584158539772034,0.4328840672969818,0.5102466344833374
1763692622195520300,1.217520263671875,0.21038351953029633,0.5383421182632446,0.5805519819259644
1763692622205600500,1.2276005859375,0.18694838881492615,0.6854774355888367,0.6945319175720215
1763692622215730200,1.237730224609375,0.2135792225599289,0.8133054375648499,0.8564473390579224
1763692622225810400,1.247810546875,0.27110180258750916,0.8729584813117981,1.0172975063323975
1763692622235890700,1.257890625,0.3307548463344574,0.8889369368553162,1.111038088798523
1763692622245957600,1.26795751953125,0.35845091938972473,0.8750889301300049,1.1238207817077637
1763692622256038000,1.278037841796875,0.34460288286209106,0.866567075252533,1.1025161743164062
1763692622266118100,1.2881181640625,0.30518925189971924,0.8559147119522095,1.0907986164093018
1763692622276184800,1.298184814453125,0.2529928386211395,0.8165011405944824,1.0918638706207275
1763692622286265000,1.30826513671875,0.20931829512119293,0.7685656547546387,1.0854724645614624
1763692622296345300,1.318345458984375,0.18694838881492615,0.7461957335472107,1.0620373487472534
1763692622306378500,1.32837841796875,0.15286093950271606,0.7834789156913757,1.033276081085205
1763692622316458800,1.338458740234375,0.09746882319450378,0.8708279728889465,0.9938623905181885
1763692622326539000,1.3485390625,0.046337638050317764,1.012503981590271,0.9533835649490356
1763692622336668400,1.35866845703125,0.00585878174751997,1.211702585220337,0.9246222376823425
1763692622346748700,1.368748779296875,-0.041011471301317215,1.3640308380126953,0.889469563961029
1763692622356829000,1.378828857421875,-0.11131685227155685,1.3938573598861694,0.813838005065918
1763692622366897400,1.3888974609375,-0.19333979487419128,1.342726230621338,0.705184280872345
1763692622376977700,1.398977783203125,-0.25086238980293274,1.2319419384002686,0.5709648728370667
1763692622387058000,1.409057861328125,-0.27216702699661255,1.0668308734893799,0.4271584451198578
1763692622397136100,1.41913623046875,-0.2444709837436676,0.9251548647880554,0.29506954550743103
1763692622407216400,1.42921630859375,-0.14646953344345093,0.8505885601043701,0.19919857382774353
1763692622417296600,1.439296630859375,0.0005326165119186044,0.8005226254463196,0.16724158823490143
1763692622428001500,1.45000146484375,0.16670896112918854,0.7792179584503174,0.20558997988700867
1763692622438081800,1.460081787109375,0.3403419554233551,0.8239577412605286,0.3089175820350647
1763692622448162000,1.470162109375,0.4809527099132538,0.942198634147644,0.4356802999973297
1763692622458208000,1.4802080078125,0.5576494932174683,1.1222230195999146,0.5315513014793396
1763692622468288300,1.490288330078125,0.5725627541542053,1.278812289237976,0.5816172361373901
1763692622478368500,1.500368408203125,0.5299534201622009,1.288399338722229,0.5453993082046509
1763692622488457700,1.510457763671875,0.43195199966430664,1.149919033050537,0.40052762627601624
1763692622498538000,1.5205380859375,0.2966673970222473,0.9709599018096924,0.13634982705116272
1763692622508618500,1.530618408203125,0.15499140322208405,0.7696308493614197,-0.22050324082374573
1763692622518678800,1.5406787109375,0.036750540137290955,0.5724295973777771,-0.621030867099762
1763692622528759000,1.550759033203125,-0.055924732238054276,0.4158403277397156,-0.9842753410339355
1763692622538839300,1.56083935546875,-0.14114338159561157,0.3242303133010864,-1.2292789220809937
1763692622548363800,1.57036376953125,-0.2114487588405609,0.3679048418998718,-1.326215147972107
1763692622558444000,1.580444091796875,-0.21890538930892944,0.580951452255249,-1.267627239227295
1763692622568524300,1.590524169921875,-0.11451254785060883,0.8623061180114746,-1.0748201608657837
1763692622578601000,1.60060107421875,0.13368675112724304,1.0103734731674194,-0.827686071395874
1763692622588681200,1.61068115234375,0.437278151512146,0.9496552348136902,-0.5667039752006531
1763692622598761500,1.620761474609375,0.6439333558082581,0.7547175884246826,-0.2961347699165344
1763692622608800300,1.63080029296875,0.690803587436676,0.6396724581718445,-0.0426093190908432
1763692622618880500,1.640880615234375,0.5970631241798401,0.6492595076560974,0.14274121820926666
1763692622628960800,1.650960693359375,0.48521363735198975,0.7121082544326782,0.23009033501148224
1763692622639051800,1.6610517578125,0.4170387387275696,0.7920007705688477,0.2130466103553772
1763692622649132000,1.671132080078125,0.39999499917030334,0.8410014510154724,0.13208889961242676
1763692622659212300,1.68121240234375,0.42343011498451233,0.8718932271003723,0.05006595328450203
1763692622669310000,1.69131005859375,0.4766917824745178,0.9027850031852722,0.009587096981704235
1763692622679390200,1.70139013671875,0.5203663110733032,0.9528509378433228,0.03089175745844841
1763692622689470500,1.711470458984375,0.5629756450653076,0.9986559748649597,0.0852186381816864
1763692622699549700,1.7215498046875,0.6173025369644165,0.9368724226951599,0.1288931965827942
1763692622709630000,1.7316298828125,0.6130415797233582,0.8250229954719543,0.10758853703737259
1763692622719710200,1.741710205078125,0.5278229713439941,0.7792179584503174,0.0319569893181324
1763692622729791000,1.751791015625,0.3967992961406708,0.8292838931083679,-0.04047885537147522
1763692622739871200,1.761871337890625,0.2849498391151428,0.8708279728889465,-0.07563154399394989
1763692622749951500,1.771951416015625,0.24127528071403503,0.7792179584503174,-0.08202294260263443
1763692622760036600,1.78203662109375,0.245536208152771,0.5479292273521423,-0.08095771074295044
1763692622770116900,1.792116943359375,0.24021004140377045,0.3071865737438202,-0.06604444980621338
1763692622780197000,1.802197021484375,0.21997061371803284,0.20811989903450012,-0.02023942768573761
1763692622790275000,1.812275146484375,0.22103585302829742,0.26670771837234497,0.04367455467581749
1763692622800355300,1.822355224609375,0.23275341093540192,0.3711005449295044,0.11291470378637314
1763692622810435600,1.832435546875,0.24873191118240356,0.4435364007949829,0.2023942768573761
1763692622820524000,1.84252392578125,0.30199354887008667,0.6118432283401489,0.3003957271575928
1763692622830604300,1.852604248046875,0.3936035931110382,0.7376738786697388,0.36537492275238037
1763692622840684500,1.8626845703125,0.4170387387275696,0.7110430598258972,0.3717663288116455
1763692622850754800,1.8727548828125,0.3499290347099304,0.5276898145675659,0.32489606738090515
1763692622860835000,1.8828349609375,0.24873191118240356,0.3380783200263977,0.2577863931655884
1763692622870915300,1.892915283203125,0.13581721484661102,0.20492419600486755,0.22902509570121765
1763692622880993300,1.9029931640625,0.07616416364908218,0.20279373228549957,0.2886781394481659
1763692622891073500,1.913073486328125,0.11344731599092484,0.26031631231307983,0.4154408872127533
1763692622901153800,1.92315380859375,0.20612259209156036,0.2528596818447113,0.5571168661117554
1763692622911241700,1.93324169921875,0.2860150635242462,0.21344606578350067,0.6742925047874451
1763692622921322000,1.943322021484375,0.32436347007751465,0.23368549346923828,0.7477935552597046
1763692622931402200,1.95340234375,0.329689621925354,0.31251272559165955,0.6742925047874451
1763692622941486300,1.963486328125,0.3190372884273529,0.8015878796577454,-0.009587096981704235
1763692622951566600,1.973566650390625,0.2125139832496643,0.55751633644104,-0.27376487851142883
1763692622961646800,1.983646728515625,0.08362079411745071,0.3306216895580292,-0.3738967776298523
1763692622971718400,1.993718505859375,-0.1177082508802414,0.02276935614645481,-0.5453993082046509
1763692622981798700,2.003798583984375,-0.4894745647907257,0.008921326138079166,-0.36963585019111633
1763692622991879000,2.01387890625,-0.735543429851532,-0.03262276202440262,-0.04367455467581749
1763692623001960700,2.023960693359375,-0.736608624458313,-0.27549588680267334,0.3525921404361725
1763692623012041000,2.034041015625,-0.5619103908538818,-0.507716715335846,0.7563154697418213
1763692623022121200,2.044121337890625,-0.3083849549293518,-0.507716715335846,0.9991886019706726
1763692623032192300,2.054192138671875,-0.07083799690008163,-0.27336543798446655,1.0322108268737793
1763692623042272500,2.0642724609375,0.0846860259771347,0.00359516148455441,0.9171656370162964
1763692623052352800,2.074352783203125,0.13262151181697845,0.1356840580701828,0.7190322875976562
1763692623062440000,2.08443994140625,0.0633813664317131,0.1250317245721817,0.5027899742126465
1763692623072520200,2.094520263671875,-0.09746882319450378,0.06324820965528488,0.3387441039085388
1763692623082600400,2.104600341796875,-0.2657756507396698,0.015312724746763706,0.2684387266635895
1763692623092682200,2.11468212890625,-0.37762510776519775,0.01744319126009941,0.3067871034145355
1763692623102762500,2.124762451171875,-0.42023444175720215,0.03768261894583702,0.40798425674438477
1763692623112842800,2.1348427734375,-0.44153907895088196,0.09094426780939102,0.5102466344833374
1763692623122923000,2.144923095703125,-0.4681699275970459,0.16551057994365692,0.5485950112342834
1763692623133003300,2.155003173828125,-0.4798874855041504,0.23901166021823883,0.5219641923904419
1763692623143083500,2.16508349609375,-0.4703003764152527,0.2933385372161865,0.46444159746170044
1763692623153174000,2.175174072265625,-0.4671046733856201,0.2826862037181854,0.39094051718711853
1763692623163254300,2.185254150390625,-0.46390897035598755,0.25925108790397644,0.3483312129974365
1763692623173334500,2.19533447265625,-0.4479304850101471,0.2517944574356079,0.360048770904541
1763692623183405300,2.2054052734375,-0.44260433316230774,0.2411421239376068,0.3856143653392792
1763692623193485300,2.2154853515625,-0.4468652606010437,0.1889457106590271,0.3334179222583771
1763692623203565300,2.2255654296875,-0.4692351520061493,0.10479229688644409,0.17469821870326996
1763692623213644500,2.23564453125,-0.49586597084999084,0.03448691964149475,-0.04900071769952774
1763692623223724500,2.245724609375,-0.4916050434112549,-0.0017310036346316338,-0.25032976269721985
1763692623233804800,2.2558046875,-0.4468652606010437,0.00359516148455441,-0.3547225892543793
1763692623243878000,2.2658779296875,-0.36803799867630005,0.014247491955757141,-0.3440702557563782
1763692623253958100,2.275958251953125,-0.27216702699661255,0.04194355010986328,-0.2439383566379547
1763692623264038100,2.2860380859375,-0.1922745555639267,0.15911918878555298,-0.08841434121131897
1763692623274122500,2.29612255859375,-0.14007814228534698,0.2720338702201843,0.07669677585363388
1763692623294282800,2.31628271484375,-0.1272953450679779,0.15485824644565582,0.2748301327228546
1763692623304347000,2.326346923828125,-0.16138280928134918,0.08348763734102249,0.31424373388290405
1763692623314427000,2.336427001953125,-0.20931829512119293,0.014247491955757141,0.3206351399421692
1763692623324507100,2.346507080078125,-0.24021004140377045,-0.09227581322193146,0.30252617597579956
1763692623334633500,2.356633544921875,-0.24021004140377045,-0.10292813926935196,0.2556559145450592
1763692623344713500,2.36671337890625,-0.19973118603229523,-0.013448567129671574,0.1821548491716385
1763692623354793500,2.37679345703125,-0.07829462736845016,-0.0347532257437706,0.2130466103553772
1763692623364835300,2.38683544921875,0.051663801074028015,-0.1316894292831421,0.38667958974838257
1763692623374915300,2.396915283203125,0.047402869910001755,-0.13914605975151062,0.6295527219772339
1763692623384995300,2.406995361328125,-0.058055199682712555,-0.15938548743724823,0.874556303024292
1763692623395051300,2.41705126953125,-0.17736129462718964,-0.32875755429267883,0.9672315716743469
1763692623405131300,2.42713134765625,-0.2796236574649811,-0.6057181358337402,0.4995943009853363
1763692623425335000,2.4473349609375,-0.18907886743545532,0.08455286920070648,0.21091613173484802
1763692623435415300,2.457415283203125,-0.11344731599092484,0.07816147059202194,0.10226237028837204
1763692623445495300,2.467495361328125,-0.018641578033566475,0.1260969638824463,-0.0021304660476744175
1763692623455564000,2.47756396484375,0.032489608973264694,0.2209026962518692,-0.02556559257209301
1763692623465644000,2.48764404296875,0.029293907806277275,0.3071865737438202,-0.02236989326775074
1763692623475724000,2.49772412109375,0.0005326165119186044,0.39560091495513916,-0.012782796286046505
1763692623485820000,2.50781982421875,-0.053794268518686295,0.4552539587020874,0.0106523297727108
1763692623495900000,2.51789990234375,-0.10918638855218887,0.47016721963882446,0.0532616525888443
1763692623505980200,2.527980224609375,-0.0846860259771347,0.43927547335624695,0.09480573982000351
1763692623516034600,2.53803466796875,-0.021837277337908745,0.3913399875164032,0.11078423261642456
1763692623526114600,2.548114501953125,-0.015445878729224205,0.3572525382041931,0.09267527610063553
1763692623536194800,2.55819482421875,-0.08042509108781815,0.3295564651489258,0.04367455467581749
1763692623546316300,2.56831640625,-0.16670896112918854,0.30079516768455505,-0.0053261648863554
1763692623556396500,2.578396484375,-0.21677492558956146,0.3274259865283966,-0.04367455467581749
1763692623566476500,2.5884765625,-0.20931829512119293,0.37429624795913696,-0.05539211630821228
1763692623576509000,2.598509033203125,-0.15712186694145203,0.37429624795913696,-0.02982652559876442
1763692623586589000,2.6085888671875,-0.018641578033566475,0.33168694376945496,0.01171756349503994
1763692623596669000,2.6186689453125,0.14220860600471497,0.3242303133010864,0.06817491352558136
1763692623616852700,2.638852783203125,0.2892107665538788,0.42862313985824585,0.29400432109832764
1763692623626932700,2.6489326171875,0.20931829512119293,0.4872109591960907,0.3334179222583771
1763692623637006600,2.659006591796875,0.039946239441633224,0.5947995185852051,0.23754696547985077
1763692623647086600,2.669086669921875,-0.17310036718845367,0.7632394433021545,0.01810896210372448
1763692623657166600,2.67916650390625,-0.32649391889572144,0.8931978940963745,-0.23861220479011536
1763692623667252700,2.689252685546875,-0.4351477026939392,1.03593909740448,-0.4399412274360657
1763692623677332700,2.699332763671875,-0.5363448262214661,1.1115707159042358,-0.5432688593864441
1763692623687413000,2.7094130859375,-0.5896064639091492,1.0625699758529663,-0.529420793056488
1763692623698123000,2.720123046875,-0.5725627541542053,0.9336767196655273,-0.43248459696769714
1763692623708203300,2.730203369140625,-0.4926702678203583,0.8292838931083679,-0.28228676319122314
1763692623718283300,2.740283203125,-0.3936035931110382,0.75152188539505,-0.0852186381816864
1763692623747891200,2.76989111328125,-0.3840165138244629,0.8995893001556396,0.2141118347644806
1763692623757971200,2.77997119140625,-0.4926702678203583,0.9411333799362183,0.09054480493068695
1763692623768076000,2.790075927734375,-0.6162372827529907,1.0007864236831665,-0.11824086308479309
1763692623778156000,2.800156005859375,-0.713173508644104,0.9624380469322205,-0.32596129179000854
1763692623788236000,2.810236083984375,-0.7440652847290039,0.9070459008216858,-0.5027899742126465
1763692623798264300,2.820264404296875,-0.736608624458313,0.9027850031852722,-0.5912043452262878
1763692623808344600,2.830344482421875,-0.7035863995552063,0.9102416038513184,-0.5762910842895508
1763692623818424600,2.840424560546875,-0.6556509137153625,0.8473928570747375,-0.5262250900268555
1763692623828541200,2.850541259765625,-0.6119763851165771,0.7312824726104736,-0.49320289492607117
1763692623838621200,2.86062109375,-0.5949326157569885,0.6492595076560974,-0.4921376705169678
1763692623848701400,2.870701416015625,-0.6087806820869446,0.6812165379524231,-0.4687025249004364
1763692623858794800,2.880794677734375,-0.6769555807113647,0.6801512837409973,-0.4900071918964386
1763692623868874800,2.890874755859375,-0.774957001209259,0.6599118709564209,-0.5496602654457092
1763692623878954800,2.900954833984375,-0.8505885601043701,0.6331478953361511,-0.5944000482559204
1763692623888972500,2.91097265625,-0.8836107850074768,0.5937342643737793,-0.6071828007698059
1763692623899052500,2.921052490234375,-0.8367405533790588,0.6577813625335693,-0.7083799839019775
1763692623909132500,2.931132568359375,-0.7334129214286804,0.6577813625335693,-0.7829462885856628
1763692623919245800,2.941245849609375,-0.7003906965255737,0.04833494871854782,-0.3291569948196411
1763692623929325800,2.951325927734375,-0.7014559507369995,-0.2989310026168823,-0.14700216054916382
1763692623939405800,2.96140576171875,-0.651390016078949,-0.5045210123062134,-0.1810896098613739
1763692623949487900,2.97148779296875,-0.5363448262214661,-0.5204994678497314,-0.3195699155330658
1763692623959568000,2.98156787109375,-0.3808208107948303,-0.4714987576007843,-0.4495283365249634
1763692623969648000,2.991648193359375,-0.23594911396503448,-0.3745625615119934,-0.48255056142807007
1763692623979727000,3.00172705078125,-0.15712186694145203,-0.21051667630672455,-0.4495283365249634
1763692623989807000,3.01180712890625,-0.1486000120639801,-0.04434032365679741,-0.4260932207107544
1763692623999887000,3.02188720703125,-0.17416560649871826,0.008921326138079166,-0.4505935609340668
1763692624009967400,3.03196728515625,-0.18588316440582275,-0.01983996480703354,-0.4985290467739105
1763692624020047400,3.04204736328125,-0.16777420043945312,-0.0667102187871933,-0.5262250900268555
1763692624030127400,3.05212744140625,-0.1283605843782425,-0.10079767554998398,-0.5081161260604858
1763692624040205000,3.062205078125,-0.06764229387044907,-0.1306242048740387,-0.43035414814949036
1763692624050285000,3.07228515625,0.01118494663387537,-0.1732335239648819,-0.3206351399421692
1763692624060365300,3.082365234375,0.06764229387044907,-0.22862564027309418,-0.2226337045431137
1763692624070446000,3.092446044921875,0.07190322875976562,-0.312779039144516,-0.15126308798789978
1763692624080526000,3.102526123046875,0.017576344311237335,-0.3979976773262024,-0.08308817446231842
1763692624090606000,3.112606201171875,-0.052729032933712006,-0.4928034245967865,0.009587096981704235
1763692624100678400,3.122678466796875,-0.0750989317893982,-0.6408708095550537,0.11291470378637314
1763692624110758700,3.132758544921875,0.00585878174751997,-0.7708292603492737,0.2023942768573761
1763692624120838700,3.142838623046875,0.14540430903434753,-0.8134385943412781,0.21943800151348114
1763692624130929200,3.15292919921875,0.2881455421447754,-0.8677654266357422,0.14700216054916382
1763692624141009200,3.163009033203125,0.4660394489765167,-0.9199618697166443,0.02236989326775074
1763692624151089400,3.17308935546875,0.6077154278755188,-0.9508536458015442,-0.08202294260263443
1763692624161175800,3.18317578125,0.6694989800453186,-0.9519188404083252,-0.1065233051776886
1763692624171256000,3.193256103515625,0.6620423197746277,-0.82196044921875,-0.0532616525888443
1763692624181336000,3.203336181640625,0.582149863243103,-0.6035876870155334,0.05219641700387001
1763692624191411700,3.21341162109375,0.4468652606010437,-0.4299546778202057,0.18961147964000702
1763692624201491700,3.22349169921875,0.29453691840171814,-0.31597474217414856,0.3419398069381714
1763692624211572000,3.233572021484375,0.14327384531497955,-0.21158191561698914,0.4591154456138611
1763692624221646300,3.243646240234375,-0.0005326165119186044,-0.12742850184440613,0.5177032351493835
1763692624231726300,3.253726318359375,-0.14007814228534698,-0.0667102187871933,0.551790714263916
1763692624241806600,3.263806640625,-0.2753627300262451,0.06218297779560089,0.6242265701293945
1763692624251889200,3.27388916015625,-0.36910325288772583,0.21557652950286865,0.8468602299690247
1763692624261969200,3.28396923828125,-0.3957340717315674,0.21344606578350067,1.0769505500793457
1763692624272049400,3.29404931640625,-0.4127778112888336,0.14420592784881592,1.1376688480377197
1763692624282126300,3.304126220703125,-0.4031907021999359,0.06537867337465286,1.0939942598342896
1763692624292206600,3.31420654296875,-0.35525521636009216,-0.03049229457974434,1.0460587739944458
1763692624302286600,3.32428662109375,-0.24766667187213898,-0.04220985993742943,0.9704272747039795
1763692624312358100,3.334358154296875,-0.10386022180318832,0.05898727849125862,0.8628387451171875
1763692624322438100,3.344438232421875,0.00585878174751997,0.19320663809776306,0.7712287306785583
1763692624332518400,3.354518310546875,0.06870753318071365,0.32103461027145386,0.7169018387794495
1763692624342605300,3.364605224609375,0.14433906972408295,0.3806876540184021,0.7169018387794495
1763692624352685300,3.374685302734375,0.14007814228534698,0.430753618478775,0.7232932448387146
1763692624362765300,3.384765380859375,0.13155627250671387,0.4872109591960907,0.7073147296905518
1763692624372853800,3.394853759765625,0.1581871062517166,0.6407376527786255,0.682814359664917
1763692624382933800,3.404933837890625,0.18801362812519073,0.7962616682052612,0.7030537724494934
1763692624393013800,3.415013671875,0.16138280928134918,0.8473928570747375,0.7797505855560303
1763692624403084000,3.425083984375,0.11451254785060883,0.8324795961380005,0.8660344481468201
1763692624413164000,3.4351640625,0.029293907806277275,0.8122401833534241,0.9437964558601379
1763692624423244300,3.445244384765625,-0.08042509108781815,0.8218272924423218,1.0162322521209717
1763692624433334300,3.455334228515625,-0.16244803369045258,0.8367405533790588,1.0141018629074097
1763692624443414300,3.465414306640625,-0.2018616646528244,0.758978545665741,0.888404369354248
1763692624453494300,3.475494384765625,-0.21570968627929688,0.6182346343994141,0.696662425994873
1763692624463582700,3.485582763671875,-0.19014409184455872,0.5031894445419312,0.504920482635498
1763692624473662700,3.495662841796875,-0.15392617881298065,0.4446016252040863,0.364309698343277
1763692624483743000,3.505742919921875,-0.1272953450679779,0.4254274368286133,0.275895357131958
1763692624493812700,3.515812744140625,-0.09959928691387177,0.435014545917511,0.2641777992248535
1763692624503892700,3.525892822265625,-0.0750989317893982,0.4680367708206177,0.2865476906299591
1763692624513973000,3.535972900390625,0.010119713842868805,0.5106461048126221,0.30572187900543213
1763692624524047000,3.546047119140625,0.11877348273992538,0.5543206334114075,0.2130466103553772
1763692624534127400,3.55612744140625,0.14753477275371552,0.6342130899429321,0.02556559257209301
1763692624544207400,3.566207275390625,0.1486000120639801,0.5671034455299377,-0.12037133425474167
1763692624554296800,3.576296875,0.19333979487419128,0.5276898145675659,-0.20452474057674408
1763692624564377000,3.586377197265625,0.28068891167640686,0.6492595076560974,-0.31530898809432983
1763692624574457000,3.59645703125,0.2956021726131439,0.6939992904663086,-0.46444159746170044
1763692624584513800,3.606513671875,0.20718781650066376,0.6503247618675232,-0.6231613159179688
1763692624594593800,3.61659375,0.14433906972408295,0.5287550687789917,-0.7659025192260742
1763692624604674000,3.626674072265625,0.054859500378370285,0.4211665093898773,-0.874556303024292
1763692624614750700,3.636750732421875,-0.11451254785060883,0.3263607621192932,-0.897991418838501
1763692624624830700,3.646830810546875,-0.5129097104072571,0.22409839928150177,-0.8660344481468201
1763692624634910700,3.65691064453125,-0.9294158220291138,0.3199693560600281,-0.8010552525520325
1763692624645021000,3.66702099609375,-1.1350058317184448,0.6449986100196838,-0.6561835408210754
1763692624655101200,3.67710107421875,-1.2074416875839233,0.9379376769065857,-0.4228975176811218
1763692624665181200,3.68718115234375,-1.204245924949646,1.0710917711257935,-0.1597849577665329
1763692624675311600,3.6973115234375,-1.0881354808807373,1.2085068225860596,0.02343512699007988
1763692624685391600,3.7073916015625,-0.8324795961380005,1.5142287015914917,0.05752258375287056
1763692624695471900,3.717471923828125,-0.558714747428894,1.8039721250534058,-0.06284874677658081
1763692624705482200,3.727482177734375,-0.3861469626426697,1.9882574081420898,-0.2439383566379547
1763692624715562200,3.737562255859375,-0.4287562966346741,2.024475336074829,-0.364309698343277
1763692624725642200,3.747642333984375,-0.5810846090316772,1.824211597442627,-0.4239627420902252
1763692624735737600,3.757737548828125,-0.7760222554206848,1.6335347890853882,-0.5208989381790161
1763692624745817600,3.767817626953125,-0.9869384169578552,1.342726230621338,-0.6934667229652405
1763692624755897600,3.777897705078125,-1.166962742805481,1.0551133155822754,-0.8937305212020874
1763692624765967400,3.78796728515625,-1.3970531225204468,0.9368724226951599,-1.1717562675476074
1763692624776047400,3.79804736328125,-1.6473828554153442,0.8708279728889465,-1.520087480545044
1763692624786127600,3.808127685546875,-1.77201509475708,0.603321373462677,-1.7043728828430176
1763692624796187600,3.818187744140625,-1.748579978942871,0.48188477754592896,-1.6212846040725708
1763692624806267600,3.828267578125,-1.6676223278045654,0.5969299674034119,-1.3432588577270508
1763692624816347600,3.83834765625,-1.4769456386566162,0.627821683883667,-1.0141018629074097
1763692624826476000,3.84847607421875,-1.1424623727798462,0.5692338943481445,-0.7445979118347168
1763692624836556000,3.85855615234375,-0.7014559507369995,0.4232969582080841,-0.5432688593864441
1763692624846636300,3.86863623046875,-0.23275341093540192,0.26883819699287415,-0.4037233293056488
1763692624856716300,3.87871630859375,0.2252967804670334,0.17083674669265747,-0.31530898809432983
1763692624866756600,3.888756591796875,0.6204982399940491,0.10479229688644409,-0.252460241317749
1763692624876836600,3.898836669921875,0.9145025610923767,0.06644391268491745,-0.18428531289100647
1763692624886916900,3.908916748046875,1.1371362209320068,0.07603100687265396,-0.09054480493068695
1763692624896996400,3.918996337890625,1.3374000787734985,0.08668334037065506,0.05539211630821228
1763692624907076400,3.929076416015625,1.503576397895813,0.13035789132118225,0.24926452338695526
1763692624917156600,3.939156494140625,1.6143606901168823,0.26777294278144836,0.4271584451198578
1763692624927230500,3.94923046875,1.6899921894073486,0.45951488614082336,0.598660945892334
1763692624937310500,3.959310546875,1.7709499597549438,0.5788210034370422,0.8404688835144043
1763692624947390500,3.969390380859375,1.863625168800354,0.6192998290061951,1.1419297456741333
1763692624958060800,3.980060791015625,1.9509742259979248,0.5916038155555725,1.5019785165786743
1763692624968140800,3.990140869140625,1.9584308862686157,0.3295564651489258,1.6244803667068481
1763692624978221000,4.000220947265625,1.924343466758728,0.37323102355003357,1.4838695526123047
1763692624988333600,4.01033349609375,1.9520394802093506,0.21238084137439728,1.6127628087997437
1763692624998413600,4.02041357421875,1.8859950304031372,0.05579157918691635,1.5776101350784302
1763692625008493600,4.03049365234375,1.8061026334762573,-0.08375394344329834,1.3922595977783203
1763692625018568700,4.040568603515625,1.748579978942871,-0.3628450036048889,1.1547125577926636
1763692625028648700,4.050648681640625,1.6708179712295532,-0.6366099119186401,0.8916000127792358
1763692625048232700,4.070232666015625,1.5163592100143433,-0.8762873411178589,0.7232932448387146
1763692625058312700,4.080312744140625,1.4577714204788208,-0.8858743906021118,0.851121187210083
1763692625068392700,4.090392822265625,1.3832050561904907,-0.808112382888794,1.0769505500793457
1763692625078472400,4.100472412109375,1.278812289237976,-0.7452636361122131,1.3411283493041992
1763692625088552400,4.110552490234375,1.1328753232955933,-0.6110442876815796,1.6127628087997437
1763692625098632400,4.120632568359375,0.9145025610923767,-0.42462852597236633,1.8769406080245972
1763692625108706600,4.13070654296875,0.6481943130493164,-0.1402112990617752,2.1336617469787598
1763692625118786600,4.14078662109375,0.3701684772968292,0.35512205958366394,2.323406457901001
1763692625128866600,4.150866455078125,0.09959928691387177,0.8921326398849487,2.3542981147766113
1763692625138960000,4.1609599609375,-0.14646953344345093,1.2340724468231201,2.319145441055298
1763692625149040000,4.1710400390625,-0.3627118468284607,1.2702903747558594,2.2690794467926025
1763692625159120100,4.1811201171875,-0.5288882255554199,1.0955921411514282,2.2007713317871094
1763692625169187000,4.19118701171875,-0.6396724581718445,0.8729584813117981,2.103835105895996
1763692625179267000,4.20126708984375,-0.7195649147033691,0.7163692116737366,1.9696158170700073
1763692625189347000,4.21134716796875,-0.8047835230827332,0.6129084229469299,1.800243854522705
1763692625199422000,4.221421875,-0.858045220375061,0.5820167064666748,1.594653844833374
1763692625209502000,4.231501953125,-0.8186315894126892,0.5979951620101929,1.356041669845581
1763692625219582000,4.24158203125,-0.7536523938179016,0.6352783441543579,1.0993205308914185
1763692625229666000,4.251666015625,-0.6790860295295715,0.6535204648971558,0.851121187210083
1763692625239746000,4.26174609375,-0.5714974999427795,0.5692338943481445,0.622096061706543
1763692625249826300,4.271826416015625,-0.43195199966430664,0.4041227698326111,0.41117995977401733
1763692625259907800,4.281907958984375,-0.2956021726131439,0.15059731900691986,0.23222079873085022
1763692625269987800,4.29198779296875,-0.15712186694145203,-0.18069015443325043,0.08947957307100296
1763692625280067800,4.30206787109375,0.048468101769685745,-0.5758916139602661,-0.05006595328450203
1763692625290156000,4.312156005859375,0.24766667187213898,-0.9583102464675903,-0.20878566801548004
1763692625300236000,4.322236083984375,0.41064733266830444,-1.242727518081665,-0.38667958974838257
1763692625310316300,4.33231640625,0.5565842390060425,-1.4227519035339355,-0.5496602654457092
1763692625320365600,4.342365478515625,0.6503247618675232,-1.6112980842590332,-0.6668358445167542
1763692625330445600,4.352445556640625,0.6609770655632019,-1.820083737373352,-0.7499240636825562
1763692625340525600,4.362525634765625,0.5928021669387817,-2.0352609157562256,-0.8468602299690247
1763692625350631700,4.372631591796875,0.5267577171325684,-2.2003719806671143,-1.0023843050003052
1763692625360711700,4.382711669921875,0.5416709780693054,-2.3590917587280273,-1.2005176544189453
1763692625370792000,4.3927919921875,0.690803587436676,-2.5455074310302734,-1.4082380533218384
1763692625380866800,4.40286669921875,0.9816122055053711,-2.6797268390655518,-1.5861319303512573
1763692625390946800,4.41294677734375,1.3054430484771729,-2.7457711696624756,-1.702242374420166
1763692625401027000,4.423027099609375,1.5770775079727173,-2.8022286891937256,-1.7501778602600098
1763692625411106600,4.4331064453125,1.7922545671463013,-2.8735992908477783,-1.7523083686828613
1763692625421186600,4.4431865234375,1.955235242843628,-2.9673397541046143,-1.76296067237854
1763692625431266800,4.453266845703125,2.0447146892547607,-3.024862289428711,-1.795982837677002
1763692625441349000,4.46334912109375,2.138455390930176,-2.921534776687622,-1.8726797103881836
1763692625451429000,4.47342919921875,2.2087607383728027,-2.6797268390655518,-1.9792029857635498
1763692625461509000,4.483509033203125,2.0873241424560547,-2.41767954826355,-2.0729434490203857
1763692625471593700,4.49359375,1.8114287853240967,-2.1066315174102783,-2.179466724395752
1763692625481673700,4.503673828125,1.4694889783859253,-1.719951868057251,-2.305164337158203
1763692625491754000,4.51375390625,1.0987879037857056,-1.3194242715835571,-2.411820650100708
1763692625501829400,4.523829345703125,0.7568480372428894,-1.0264852046966553,-2.3990378379821777
1763692625511909400,4.533909423828125,0.5246272683143616,-0.9284837245941162,-2.263620138168335
1763692625521989400,4.5439892578125,0.4447347819805145,-0.906113862991333,-2.0889220237731934
1763692625532072700,4.55407275390625,0.48308318853378296,-1.0083762407302856,-1.8961148262023926
1763692625542153000,4.564153076171875,0.6173025369644165,-1.680538296699524,-1.4742825031280518
1763692625552233000,4.57423291015625,0.8527190089225769,-2.04697847366333,-1.029015064239502
1763692625562295600,4.584295654296875,1.1318100690841675,-2.144979953765869,-0.8788172602653503
1763692625572375600,4.59437548828125,1.2585728168487549,-2.1236751079559326,-0.8447297811508179
1763692625582455600,4.60445556640625,1.2127678394317627,-1.9234113693237305,-1.0087757110595703
1763692625592552400,4.614552490234375,1.082809329032898,-1.5910587310791016,-1.22501802444458
1763692625602632400,4.624632568359375,0.8314144015312195,-1.1191604137420654,-1.2633663415908813
1763692625612712700,4.634712646484375,0.45112618803977966,-0.7633726000785828,-1.1046466827392578
1763692625622792700,4.644792724609375,0.13155627250671387,-0.5130428671836853,-0.9448617100715637
1763692625632872700,4.654872802734375,0.054859500378370285,-0.13701559603214264,-0.8990566730499268
1763692625642952700,4.66495263671875,0.041011471301317215,0.3135779798030853,-0.9001219272613525
1763692625653038600,4.67503857421875,-0.056989967823028564,0.5713643431663513,-0.911839485168457
1763692625663118800,4.685118896484375,-0.16457849740982056,0.5319507122039795,-0.9033176302909851
1763692625673198800,4.69519873046875,-0.28388461470603943,0.4754934012889862,-0.9342093467712402
1763692625683279600,4.705279541015625,-0.36697277426719666,0.46910199522972107,-0.9608401656150818
1763692625693359600,4.715359619140625,-0.3722989559173584,0.44034069776535034,-0.9395354986190796
1763692625703440000,4.72543994140625,-0.29134124517440796,0.40731847286224365,-0.8383383750915527
1763692625713517000,4.73551708984375,-0.17416560649871826,0.38814428448677063,-0.6774882078170776
1763692625723597300,4.745597412109375,-0.10492545366287231,0.36683961749076843,-0.48468104004859924
1763692625733677300,4.75567724609375,-0.07616416364908218,0.40625324845314026,-0.31317850947380066
1763692625743771400,4.765771484375,-0.09746882319450378,0.47229769825935364,-0.19493764638900757
1763692625753851400,4.775851318359375,-0.2114487588405609,0.5585815906524658,-0.1704372763633728
1763692625763931600,4.785931640625,-0.3840165138244629,0.6567161679267883,-0.2577863931655884
1763692625773999600,4.79599951171875,-0.5810846090316772,0.750456690788269,-0.40159285068511963
1763692625784079600,4.80607958984375,-0.7706961035728455,0.7866745591163635,-0.5304860472679138
1763692625794159600,4.81615966796875,-0.9496552348136902,0.7994573712348938,-0.5954652428627014
1763692625804270300,4.826270263671875,-1.1296796798706055,0.7728265523910522,-0.6316831707954407
1763692625814350300,4.836350341796875,-1.278812289237976,0.6961297988891602,-0.6796186566352844
1763692625824430600,4.8464306640625,-1.2894645929336548,0.7760222554206848,-0.812772810459137
1763692625834461700,4.856461669921875,-1.1978545188903809,0.6876079440116882,-0.9523183107376099
1763692625844542000,4.8665419921875,-1.1392667293548584,0.45205825567245483,-0.9299484491348267
1763692625854622000,4.8766220703125,-0.9603075981140137,0.4115794003009796,-0.8298165202140808
1763692625864756700,4.8867568359375,-0.7057169079780579,0.3583177626132965,-0.6540530920028687
1763692625874836700,4.896836669921875,-0.47456130385398865,0.3039908707141876,-0.4601806700229645
1763692625884917000,4.9069169921875,-0.2753627300262451,0.305056095123291,-0.30252617597579956
1763692625894944800,4.91694482421875,-0.09427312016487122,0.30079516768455505,-0.20026381313800812
1763692625905024800,4.927024658203125,0.0633813664317131,0.3370130956172943,-0.16298064589500427
1763692625915105000,4.93710498046875,0.16244803369045258,0.4041227698326111,-0.15658925473690033
1763692625925206300,4.947206298828125,0.22423155605793,0.44886255264282227,-0.191741943359375
1763692625935286300,4.957286376953125,0.2636451721191406,0.5734948515892029,-0.35578784346580505
1763692625945366500,4.967366455078125,0.2998631000518799,0.5841471552848816,-0.4591154456138611
1763692625955434800,4.977434814453125,0.2870802879333496,0.5734948515892029,-0.5262250900268555
1763692625965514800,4.9875146484375,0.2029268890619278,0.542603075504303,-0.5688344240188599
1763692625975595000,4.997594970703125,0.06657706201076508,0.5276898145675659,-0.5826824903488159
1763692625985697300,5.007697265625,-0.049533337354660034,0.5681686401367188,-0.5869433879852295
1763692625995777300,5.01777734375,-0.0846860259771347,0.566038191318512,-0.5922695398330688
1763692626005857500,5.027857421875,-0.049533337354660034,0.5159722566604614,-0.5688344240188599
1763692626015960600,5.037960693359375,0.033554840832948685,0.49253711104393005,-0.514507532119751
1763692626026040600,5.04804052734375,0.1166430190205574,0.5287550687789917,-0.4378107786178589
1763692626036120800,5.058120849609375,0.19653549790382385,0.566038191318512,-0.3270265460014343
1763692626046173200,5.068173095703125,0.32329821586608887,0.6182346343994141,-0.16724158823490143
1763692626056253200,5.078253173828125,0.4042559266090393,0.6022561192512512,0.012782796286046505
1763692626066333200,5.088333251953125,0.4585828185081482,0.49466758966445923,0.19493764638900757
1763692626076354600,5.0983544921875,0.4894745647907257,0.38494858145713806,0.3845491111278534
1763692626086434800,5.108434814453125,0.47562655806541443,0.38707906007766724,0.5496602654457092
1763692626096514800,5.118514892578125,0.437278151512146,0.5287550687789917,0.635944128036499
1763692626106633000,5.128633056640625,0.41064733266830444,0.5553858876228333,0.6465964317321777
1763692626116713000,5.138712890625,0.4031907021999359,0.4563191831111908,0.6902710199356079
1763692626126793200,5.148793212890625,0.3605813682079315,0.35618728399276733,0.8106423020362854
1763692626136879900,5.1588798828125,0.2572537660598755,0.25925108790397644,0.9597749710083008
1763692626146960000,5.1689599609375,0.09320788830518723,0.21344606578350067,1.0950595140457153
1763692626157039900,5.179039794921875,-0.09746882319450378,0.18255430459976196,1.1440602540969849
1763692626167115300,5.189115234375,-0.2774932086467743,0.02063889056444168,1.127016544342041
1763692626177195500,5.199195556640625,-0.4042559266090393,-0.1529940962791443,1.0854724645614624
1763692626187275500,5.209275634765625,-0.5001268982887268,-0.183885857462883,1.0002537965774536
1763692626197964300,5.21996435546875,-0.5714974999427795,-0.1295589655637741,0.8905348181724548
1763692626208044300,5.230044189453125,-0.6013240218162537,-0.1412765234708786,0.7861419916152954
1763692626218124500,5.24012451171875,-0.6098458766937256,-0.16790735721588135,0.7328802943229675
1763692626228206300,5.250206298828125,-0.5842803120613098,-0.16045072674751282,0.7595111727714539
1763692626238287600,5.26028759765625,-0.5118444561958313,-0.13701559603214264,0.8170337080955505
1763692626248369000,5.270368896484375,-0.4244953691959381,-0.1316894292831421,0.8788172602653503
1763692626258406400,5.280406494140625,-0.3499290347099304,-0.14660269021987915,0.9288831949234009
1763692626268487700,5.29048779296875,-0.2657756507396698,-0.19666863977909088,0.9576444625854492
1763692626278569000,5.30056884765625,-0.14327384531497955,-0.2584521770477295,1.0204932689666748
1763692626288682800,5.310682861328125,-0.19653549790382385,-0.3095833361148834,1.0961247682571411
1763692626298764000,5.320763916015625,-0.29347169399261475,-0.3095833361148834,1.103581428527832
1763692626308845300,5.33084521484375,-0.35525521636009216,-0.2158428430557251,1.0481892824172974
1763692626318347000,5.340346923828125,-0.46390897035598755,-0.09440627694129944,0.9714925289154053
1763692626328428300,5.35042822265625,-0.6162372827529907,-0.05073172226548195,0.897991418838501
1763692626338509600,5.360509521484375,-0.8037183284759521,0.006790860556066036,0.8149032592773438
1763692626348573700,5.37057373046875,-0.9411333799362183,0.06857437640428543,0.743532657623291
1763692626358655000,5.380655029296875,-1.0188953876495361,0.0185084231197834,0.7275541424751282
1763692626368736300,5.390736328125,-1.0742875337600708,-0.02303566411137581,0.7669677734375
1763692626378827300,5.4008271484375,-1.0838745832443237,-0.004926702938973904,0.827686071395874
1763692626388908500,5.410908447265625,-1.0018516778945923,0.1367492824792862,0.8724258542060852
1763692626409051600,5.4310517578125,-0.46071329712867737,0.477623850107193,1.019428014755249
1763692626419133000,5.4411328125,-0.20825305581092834,0.603321373462677,1.1515169143676758
1763692626429214200,5.451214111328125,0.045272402465343475,0.6363435983657837,1.2559096813201904
1763692626439288600,5.46128857421875,0.2902759909629822,0.6320826411247253,1.3198237419128418
1763692626449369900,5.471369873046875,0.45325663685798645,0.6011908650398254,1.30491042137146
1763692626459451100,5.481451171875,0.4671046733856201,0.5063851475715637,1.1611039638519287
1763692626469538000,5.4915380859375,0.3499290347099304,0.38814428448677063,0.9704272747039795
1763692626479619300,5.501619384765625,0.1283605843782425,0.32316505908966064,0.8021204471588135
1763692626489700600,5.51170068359375,-0.10066451877355576,0.31144750118255615,0.6849448084831238
1763692626499776500,5.521776611328125,-0.2572537660598755,0.3604482114315033,0.644465982913971
1763692626509857800,5.53185791015625,-0.3403419554233551,0.4328840672969818,0.6274222731590271
1763692626519939000,5.54193896484375,-0.3722989559173584,0.45205825567245483,0.5901390910148621
1763692626530018300,5.552018310546875,-0.3861469626426697,0.4126446545124054,0.49426811933517456
1763692626540099600,5.562099609375,-0.3392767310142517,0.3806876540184021,0.35685306787490845
1763692626550180900,5.572180908203125,-0.2540580630302429,0.32316505908966064,0.21943800151348114
1763692626560265000,5.582264892578125,-0.1912093311548233,0.11011846363544464,0.03621792420744896
1763692626570346200,5.59234619140625,0.034620072692632675,0.12716218829154968,-0.1821548491716385
1763692626580427500,5.602427490234375,0.2881455421447754,0.3572525382041931,-0.3110480308532715
1763692626590495500,5.61249560546875,0.3925383687019348,0.5351464152336121,-0.2769605815410614
1763692626600576800,5.62257666015625,0.3701684772968292,0.6352783441543579,-0.19493764638900757
1763692626610658000,5.632657958984375,0.31584158539772034,0.7046516537666321,-0.22795987129211426
1763692626620745000,5.642744873046875,0.28175413608551025,0.773891806602478,-0.37709248065948486
1763692626630826500,5.652826416015625,0.3190372884273529,0.8420667052268982,-0.528355598449707
1763692626640907800,5.66290771484375,0.42236489057540894,0.859110414981842,-0.5613778233528137
1763692626650980600,5.672980712890625,0.5246272683143616,0.8133054375648499,-0.4591154456138611
1763692626661062000,5.683061767578125,0.5416709780693054,0.7291520237922668,-0.29080861806869507
1763692626671143200,5.69314306640625,0.4916050434112549,0.6182346343994141,-0.14274121820926666
1763692626681226800,5.703226806640625,0.39892977476119995,0.42968836426734924,-0.04154408723115921
1763692626691308000,5.71330810546875,0.29134124517440796,0.20385897159576416,0.02236989326775074
1763692626701389300,5.723389404296875,0.2018616646528244,0.02170412242412567,0.07243584841489792
1763692626711469300,5.73346923828125,0.14007814228534698,-0.10718907415866852,0.10758853703737259
1763692626721550600,5.743550537109375,0.0846860259771347,-0.21051667630672455,0.10971900075674057
1763692626731631900,5.7536318359375,0.046337638050317764,-0.2584521770477295,0.06924014538526535
1763692626741704000,5.763703857421875,0.017576344311237335,-0.289343923330307,0.0106523297727108
1763692626751785200,5.77378515625,-0.038881003856658936,-0.3447360396385193,-0.01384802907705307
1763692626761866500,5.783866455078125,-0.015445878729224205,-0.29360485076904297,-0.05965305119752884
1763692626771954000,5.793953857421875,-0.032489608973264694,-0.14660269021987915,-0.1501978635787964
1763692626782035200,5.80403515625,-0.11983871459960938,0.08668334037065506,-0.2748301327228546
1763692626792116500,5.814116455078125,-0.245536208152771,0.4264926612377167,-0.37709248065948486
1763692626802190600,5.824190673828125,-0.4031907021999359,0.7675004005432129,-0.40052762627601624
1763692626812271900,5.83427197265625,-0.6119763851165771,1.0412652492523193,-0.3717663288116455
1763692626822353200,5.844353271484375,-0.8463276624679565,1.2319419384002686,-0.34726595878601074
1763692626832431900,5.854431884765625,-1.0902659893035889,1.3182258605957031,-0.3504616618156433
1763692626842513200,5.86451318359375,-1.3682918548583984,1.2362029552459717,-0.2865476906299591
1763692626852594400,5.874594482421875,-1.664426565170288,1.133940577507019,-0.0958709716796875
1763692626862670600,5.884670654296875,-1.8541712760925293,1.1318100690841675,0.08415340632200241
1763692626872751900,5.894751953125,-1.9180852174758911,1.157375693321228,0.19600287079811096
1763692626882833200,5.904833251953125,-1.8360623121261597,1.2106373310089111,0.24819929897785187
1763692626892904700,5.91490478515625,-1.5994473695755005,1.325682520866394,0.24713405966758728
1763692626902986000,5.924986083984375,-1.2660294771194458,1.466293215751648,0.21624229848384857
1763692626913067300,5.9350673828125,-0.9091764092445374,1.5067721605300903,0.15232832729816437
1763692626923153200,5.945153076171875,-0.558714747428894,1.470554232597351,0.05645735189318657
1763692626933234400,5.955234375,-0.24766667187213898,1.426879644393921,-0.06710968166589737
1763692626943315700,5.965315673828125,0.00905448105186224,1.3171606063842773,-0.2226337045431137
1763692626953389300,5.975389404296875,0.21890538930892944,1.1690932512283325,-0.4058537781238556
1763692626963470600,5.985470703125,0.3957340717315674,1.0327434539794922,-0.6007914543151855
1763692626973551900,5.9955517578125,0.5491276383399963,0.8985240459442139,-0.7829462885856628
1763692626983626500,6.00562646484375,0.6854774355888367,0.758978545665741,-0.9171656370162964
1763692626993707800,6.015707763671875,0.7792179584503174,0.5990604162216187,-0.982144832611084
1763692627003789000,6.0257890625,0.7888050675392151,0.3359478712081909,-0.9608401656150818
1763692627013873000,6.035872802734375,0.7472609877586365,-0.012383334338665009,-0.8649691939353943
1763692627023954200,6.0459541015625,0.7121082544326782,-0.32556185126304626,-0.7190322875976562
1763692627034035500,6.056035400390625,0.7099778056144714,-0.5758916139602661,-0.529420793056488
1763692627044110300,6.0661103515625,0.7664351463317871,-0.7420679330825806,-0.3217003643512726
1763692627054191900,6.07619189453125,0.88148033618927,-0.8091776371002197,-0.15552401542663574
1763692627064273200,6.086273193359375,0.9922645688056946,-0.8187647461891174,-0.06817491352558136
1763692627074379500,6.096379638671875,1.043395757675171,-0.8176994919776917,-0.0426093190908432
1763692627084460800,6.106460693359375,1.0156997442245483,-0.8528521656990051,-0.03408745676279068
1763692627094542000,6.1165419921875,0.9347419738769531,-0.8784177899360657,-0.012782796286046505
1763692627104525600,6.126525634765625,0.8559147119522095,-0.8294170498847961,0.02769605815410614
1763692627114606800,6.13660693359375,0.8228924870491028,-0.7559159994125366,0.08308817446231842
1763692627124688100,6.146688232421875,0.8516538143157959,-0.6962629556655884,0.11930610239505768
1763692627134828800,6.156828857421875,0.9017197489738464,-0.6653711795806885,0.12356702983379364
1763692627144910000,6.16691015625,0.904915452003479,-0.7473941445350647,0.11078423261642456
1763692627154991400,6.176991455078125,0.8718932271003723,-0.8485912680625916,0.05858781561255455
1763692627165066000,6.18706591796875,0.8154358863830566,-0.9487231373786926,-0.01810896210372448
1763692627175147300,6.197147216796875,0.713173508644104,-1.1170300245285034,-0.11184946447610855
1763692627185228500,6.207228515625,0.6119763851165771,-1.2650973796844482,-0.21730753779411316
1763692627195330600,6.21733056640625,0.5736280083656311,-1.3748164176940918,-0.30359140038490295
1763692627205411600,6.22741162109375,0.582149863243103,-1.366294503211975,-0.3525921404361725
1763692627215493000,6.2374931640625,0.5810846090316772,-1.2672278881072998,-0.3611139953136444
1763692627225558500,6.24755859375,0.5384752750396729,-1.1425955295562744,-0.3280917704105377
1763692627235638300,6.25763818359375,0.4266258180141449,-1.0424636602401733,-0.2439383566379547
1763692627245718300,6.26771826171875,0.24127528071403503,-1.013702392578125,-0.11291470378637314
1763692627255774700,6.277774658203125,0.019706811755895615,-0.9934629201889038,0.02769605815410614
1763692627265854500,6.2878544921875,-0.19653549790382385,-0.8571131229400635,0.13634982705116272
1763692627275934500,6.2979345703125,-0.36590754985809326,-0.59293532371521,0.2023942768573761
1763692627286030300,6.3080302734375,-0.4894745647907257,-0.27230018377304077,0.19813334941864014
1763692627296110000,6.318110107421875,-0.6045197248458862,-0.04860125854611397,0.14593692123889923
1763692627306190000,6.328190185546875,-0.7227606177330017,-0.09121058136224747,0.08415340632200241
1763692627316294100,6.338294189453125,-0.7962616682052612,-0.3841496706008911,0.0159784946590662
1763692627326374000,6.348373779296875,-0.774957001209259,-0.845395565032959,-0.05645735189318657
1763692627336454000,6.358453857421875,-0.6247591972351074,-1.3002500534057617,-0.12356702983379364
1763692627346533600,6.36853369140625,-0.3616466224193573,-1.6176894903182983,-0.1800243854522705
1763692627356589600,6.378589599609375,-0.09853405505418777,-1.8051705360412598,-0.24713405966758728
1763692627366669300,6.38866943359375,0.0633813664317131,-1.9084981679916382,-0.3632444739341736
1763692627376749300,6.398749267578125,0.07616416364908218,-1.9606945514678955,-0.5560516119003296
1763692627386847000,6.408846923828125,-0.041011471301317215,-2.013956069946289,-0.8149032592773438
1763692627396926700,6.4189267578125,-0.18588316440582275,-2.0682830810546875,-1.0748201608657837
1763692627407006700,6.4290068359375,-0.2444709837436676,-2.071478843688965,-1.2686924934387207
1763692627417089300,6.43908935546875,-0.20399212837219238,-2.042717456817627,-1.3475197553634644
1763692627427169300,6.449169189453125,-0.11983871459960938,-2.004369020462036,-1.3038451671600342
1763692627437249000,6.4592490234375,-0.06551183015108109,-1.951107382774353,-1.164299726486206
1763692627447308500,6.46930859375,-0.06657706201076508,-1.874410629272461,-0.9608401656150818
1763692627457388300,6.47938818359375,-0.1070559173822403,-1.7561697959899902,-0.7179670333862305
1763692627467468000,6.489468017578125,-0.14327384531497955,-1.542057991027832,-0.45378926396369934
1763692627478145800,6.500145751953125,-0.15179570019245148,-1.1649655103683472,-0.15126308798789978
1763692627488225800,6.510225830078125,-0.14433906972408295,-0.6951977014541626,0.20558997988700867
1763692627498305800,6.520305908203125,-0.1283605843782425,-0.17749445140361786,0.5805519819259644
1763692627508399900,6.53039990234375,-0.14327384531497955,0.37323102355003357,0.9395354986190796
1763692627518479600,6.540479736328125,-0.17842653393745422,0.8612409234046936,1.248453140258789
1763692627528559600,6.5505595703125,-0.1709699034690857,1.2660294771194458,1.4689563512802124
1763692627538657300,6.5606572265625,-0.09001219272613525,1.5397943258285522,1.5903929471969604
1763692627548737300,6.5707373046875,0.07296846061944962,1.702775001525879,1.6372631788253784
1763692627558817000,6.580817138671875,0.2774932086467743,1.786928415298462,1.6351326704025269
1763692627578345200,6.60034521484375,0.7802832126617432,2.0223448276519775,1.435934066772461
1763692627588425000,6.610425048828125,1.059374213218689,2.221543550491333,1.2750838994979858
1763692627598530600,6.620530517578125,1.3640308380126953,2.5741355419158936,1.1078423261642456
1763692627608610300,6.6306103515625,1.7081011533737183,3.156818151473999,0.9235570430755615
1763692627618690300,6.640690185546875,2.006366491317749,3.849219560623169,0.706249475479126
1763692627628792800,6.650792724609375,2.170412302017212,4.3892927169799805,0.4505935609340668
1763692627638872600,6.66087255859375,2.1906516551971436,4.583165168762207,0.11824086308479309
1763692627648952600,6.67095263671875,2.1437814235687256,4.341357231140137,-0.3312874734401703
1763692627658978800,6.680978759765625,2.1256725788116455,3.6372382640838623,-0.9320788979530334
1763692627669058600,6.69105859375,2.2044997215270996,2.627397298812866,-1.6543068885803223
1763692627679138600,6.701138671875,2.3781328201293945,1.5355334281921387,-2.371208667755127
1763692627689251000,6.7112509765625,2.6178102493286133,0.534081220626831,-2.940176248550415
1763692627699330800,6.721330810546875,2.9289913177490234,-0.07310161739587784,-3.3481605052948
1763692627709410800,6.731410888671875,3.2421698570251465,-0.08055824786424637,-3.6070122718811035
1763692627719499300,6.741499267578125,3.3540194034576416,0.46910199522972107,-3.6624042987823486
1763692627729579000,6.7515791015625,3.04829740524292,1.0178301334381104,-3.4440314769744873
1763692627739659000,6.761658935546875,2.5208740234375,1.4844021797180176,-2.9742636680603027
1763692627749737200,6.7717373046875,1.910495400428772,1.810363531112671,-2.296642303466797
1763692627759817000,6.78181689453125,1.3299434185028076,1.9126259088516235,-1.4891958236694336
1763692627769897000,6.79189697265625,0.8346100449562073,1.8817341327667236,-0.697727620601654
1763692627779975400,6.801975341796875,0.4074516296386719,1.6974488496780396,-0.11930610239505768
1763692627790055400,6.812055419921875,0.0846860259771347,1.3981183767318726,0.09267527610063553
1763692627800135200,6.82213525390625,-0.054859500378370285,1.1307448148727417,-0.05752258375287056
1763692627810216400,6.832216552734375,-0.010119713842868805,0.9294158220291138,-0.46337637305259705
1763692627820296400,6.84229638671875,0.15286093950271606,0.7440652847290039,-0.9704272747039795
1763692627830376200,6.852376220703125,0.3637770712375641,0.5394073724746704,-1.435934066772461
1763692627840459500,6.86245947265625,0.5810846090316772,0.31144750118255615,-1.7586997747421265
1763692627850539500,6.87253955078125,0.7706961035728455,0.02916075475513935,-1.927006483078003
1763692627860619500,6.88261962890625,0.9176982641220093,-0.3436708152294159,-1.9813333749771118
1763692627870702300,6.892702392578125,1.022091031074524,-0.7633726000785828,-1.9674854278564453
1763692627880782300,6.9027822265625,1.087070345878601,-1.0584421157836914,-1.9163541793823242
1763692627890862300,6.9128623046875,1.1243534088134766,-1.1766830682754517,-1.8481793403625488
1763692627900938200,6.922938232421875,1.106244444847107,-1.1553783416748047,-1.7693520784378052
1763692627911018200,6.933018310546875,1.0039820671081543,-1.0616378784179688,-1.6532416343688965
1763692627921098000,6.943097900390625,0.8005226254463196,-0.967897355556488,-1.4764130115509033
1763692627931179000,6.953178955078125,0.5022573471069336,-0.9157009124755859,-1.242061734199524
1763692627941259000,6.963259033203125,0.13475197553634644,-0.9316794276237488,-0.9565792679786682
1763692627951338800,6.9733388671875,-0.25938424468040466,-1.021159052848816,-0.61250901222229
1763692627961425400,6.98342529296875,-0.6300853490829468,-1.1393998861312866,-0.21517707407474518
1763692627971505400,6.99350537109375,-0.9336767196655273,-1.215031385421753,0.2236989289522171
1763692627981585200,7.003585205078125,-1.157375693321228,-1.158574104309082,0.6913362145423889
1763692627991667000,7.0136669921875,-1.3342043161392212,-0.9561797976493835,1.157908320426941
1763692628001747000,7.023746826171875,-1.5025111436843872,-0.6398055553436279,1.604240894317627
1763692628011826700,7.03382666015625,-1.702775001525879,-0.3010614812374115,1.9930509328842163
1763692628021904100,7.043904052734375,-1.9244766235351562,-0.03688369318842888,2.2690794467926025
1763692628031984000,7.053984130859375,-2.071478843688965,0.19640234112739563,2.3819942474365234
1763692628042064000,7.06406396484375,-2.140718936920166,0.42755791544914246,2.337254524230957
1763692628052142600,7.074142578125,-2.3580265045166016,0.6716294288635254,2.194380044937134
1763692628062222600,7.08422265625,-2.865077257156372,0.5276898145675659,2.0452473163604736
1763692628072302300,7.09430224609375,-3.483977794647217,-0.48747727274894714,1.8971799612045288
1763692628082364400,7.104364501953125,-3.927114725112915,-2.0086300373077393,1.7043728828430176
1763692628092444400,7.1144443359375,-3.842961311340332,-3.240039348602295,1.4369993209838867
1763692628102524200,7.124524169921875,-3.0866458415985107,-3.27732253074646,1.160038709640503
1763692628112623900,7.134623779296875,-2.071478843688965,-2.6147475242614746,0.9459269046783447
1763692628122704000,7.144703857421875,-1.1211577653884888,-1.5026443004608154,0.6806839108467102
1763692628132783600,7.15478369140625,-0.5725627541542053,-0.4097152650356293,0.34726595878601074
1763692628142866700,7.16486669921875,-0.49373549222946167,0.11118369549512863,0.02236989326775074
1763692628152946400,7.174946533203125,-0.5928021669387817,0.18575000762939453,-0.20665520429611206
1763692628163026400,7.1850263671875,-0.6716294288635254,-0.23075610399246216,-0.2641777992248535
1763692628173110500,7.195110595703125,-0.583215057849884,-0.8464608192443848,-0.15445879101753235
1763692628183190500,7.2051904296875,-0.3637770712375641,-1.3375332355499268,0.05858781561255455
1763692628193270300,7.215270263671875,-0.20505735278129578,-1.6933209896087646,0.26950395107269287
1763692628203351000,7.22535107421875,-0.19866596162319183,-1.9479117393493652,0.3856143653392792
1763692628213431000,7.23543115234375,-0.32436347007751465,-2.1279361248016357,0.3845491111278534
1763692628223510800,7.2455107421875,-0.5267577171325684,-2.1907849311828613,0.29080861806869507
1763692628233611500,7.255611572265625,-0.7557828426361084,-2.149240732192993,0.1597849577665329
1763692628243691500,7.26569140625,-0.943263828754425,-2.0810658931732178,0.06924014538526535
1763692628253771500,7.275771484375,-1.0018516778945923,-1.9915863275527954,0.09800143539905548
1763692628263807700,7.285807861328125,-0.9464595317840576,-1.8871934413909912,0.2972000241279602
1763692628273887700,7.2958876953125,-0.8271534442901611,-1.7348651885986328,0.6050523519515991
1763692628283967700,7.3059677734375,-0.6982602477073669,-1.5591017007827759,0.9139699339866638
1763692628294073900,7.316073974609375,-0.5746932029724121,-1.3109023571014404,1.127016544342041
1763692628304153900,7.32615380859375,-0.4383433759212494,-0.9604407548904419,1.2090394496917725
1763692628314233900,7.33623388671875,-0.2657756507396698,-0.5758916139602661,1.1888000965118408
1763692628324327400,7.346327392578125,-0.044207170605659485,-0.20945143699645996,1.0769505500793457
1763692628334407400,7.356407470703125,0.20825305581092834,0.13994498550891876,0.920361340045929
1763692628344487400,7.3664873046875,0.4916050434112549,0.4531235098838806,0.7786853313446045
1763692628354532600,7.37653271484375,0.8324795961380005,0.7206301689147949,0.6945319175720215
1763692628364612600,7.386612548828125,1.2148982286453247,0.9837427139282227,0.6615096926689148
1763692628374692600,7.396692626953125,1.618621587753296,1.3320739269256592,0.6306179761886597
1763692628384795000,7.406794921875,2.0170187950134277,1.9232782125473022,0.5762910842895508
1763692628394875000,7.416875,2.348306179046631,2.7062244415283203,0.5166380405426025
1763692628404955000,7.426954833984375,2.5783965587615967,3.5339105129241943,0.47402870655059814
1763692628415007500,7.437007568359375,2.716876745223999,4.245486259460449,0.4356802999973297
1763692628425087500,7.44708740234375,2.769073247909546,4.62364387512207,0.3376788794994354
1763692628435167500,7.45716748046875,2.7051591873168945,4.545881748199463,0.12356702983379364
1763692628445340400,7.46734033203125,2.5240695476531982,4.028178691864014,-0.2535254657268524
1763692628455420400,7.47742041015625,2.3355233669281006,3.307015895843506,-0.7829462885856628
1763692628465500400,7.48750048828125,2.2598917484283447,2.750964403152466,-1.3858681917190552
1763692628475523800,7.49752392578125,2.2620222568511963,2.4526989459991455,-1.9259413480758667
1763692628485603800,7.507603759765625,2.21728253364563,2.4260683059692383,-2.273207187652588
1763692628495683800,7.517683837890625,2.025540590286255,2.6348538398742676,-2.3786654472351074
1763692628505792300,7.527792236328125,1.6527090072631836,2.861748456954956,-2.262554883956909
1763692628515872300,7.537872314453125,1.164832353591919,2.9757285118103027,-1.938724160194397
1763692628525952300,7.5479521484375,0.6801512837409973,3.0183377265930176,-1.433803677558899
1763692628536005400,7.55800537109375,0.2679060995578766,3.0897083282470703,-0.8425993323326111
1763692628546085400,7.56808544921875,-0.0857512578368187,3.250558614730835,-0.31317850947380066
1763692628556165400,7.578165283203125,-0.4170387387275696,3.4167349338531494,0.02450035884976387
1763692628566202600,7.58820263671875,-0.7238258123397827,3.5062143802642822,0.10013190656900406
1763692628576282600,7.59828271484375,-0.9794817566871643,3.4870402812957764,-0.0745663121342659
1763692628586362600,7.608362548828125,-1.1914631128311157,3.199427366256714,-0.40798425674438477
1763692628596499200,7.618499267578125,-1.127549171447754,2.9352495670318604,-0.8159685134887695
1763692628606579200,7.6285791015625,-0.9805470108985901,2.5602874755859375,-1.1632344722747803
1763692628616659200,7.6386591796875,-0.8463276624679565,1.8998430967330933,-1.3848029375076294
1763692628626739200,7.6487392578125,-0.6204982399940491,1.333139181137085,-1.5211527347564697
1763692628636806000,7.658805908203125,-0.3318201005458832,0.9613727927207947,-1.573349118232727
1763692628646886000,7.668885986328125,-0.07616416364908218,0.6439333558082581,-1.533935546875
1763692628656966000,7.6789658203125,0.14433906972408295,0.48188477754592896,-1.4156947135925293
1763692628667055600,7.6890556640625,0.32542869448661804,0.4786891043186188,-1.2218222618103027
1763692628677135600,7.699135498046875,0.45432189106941223,0.4882761836051941,-0.9704272747039795
1763692628687215600,7.709215576171875,0.5224968194961548,0.435014545917511,-0.7030537724494934
1763692628697871000,7.71987109375,0.5086487531661987,0.2635120153427124,-0.4569849669933319
1763692628707951000,7.729951171875,0.45325663685798645,-0.06990591436624527,-0.21091613173484802
1763692628718031000,7.740031005859375,0.42343011498451233,-0.5396736860275269,0.09054480493068695
1763692628728137200,7.75013720703125,0.45219141244888306,-1.027550458908081,0.5208989381790161
1763692628738217200,7.76021728515625,0.5118444561958313,-1.3982515335083008,1.0844072103500366
1763692628748297200,7.770297119140625,0.5363448262214661,-1.5527102947235107,1.702242374420166
1763692628758378200,7.780378173828125,0.46497422456741333,-1.4632307291030884,2.2668159008026123
1763692628768458200,7.790458251953125,0.28068891167640686,-1.2033138275146484,2.7090206146240234
1763692628778538200,7.800538330078125,0.033554840832948685,-0.883743941783905,3.0136773586273193
1763692628788569900,7.81056982421875,-0.17416560649871826,-0.5439345836639404,3.184114694595337
1763692628798649900,7.82064990234375,-0.2540580630302429,-0.24140843749046326,3.2096803188323975
1763692628808729900,7.830729736328125,-0.18588316440582275,-0.02623136341571808,3.0839827060699463
1763692628818236000,7.84023583984375,-0.025032976642251015,0.08668334037065506,2.799565553665161
1763692628828316000,7.85031591796875,0.11238208413124084,-0.02197043038904667,2.36495041847229
1763692628838396000,7.86039599609375,0.11238208413124084,-0.43208515644073486,1.819417953491211
1763692628848500000,7.8705,-0.1166430190205574,-1.1330084800720215,1.328345537185669
1763692628858580000,7.880580078125,-0.5917369723320007,-2.0672178268432617,1.0886681079864502
1763692628868660000,7.890659912109375,-1.3544437885284424,-2.983318328857422,1.356041669845581
1763692628878735400,7.9007353515625,-2.205698013305664,-3.6874372959136963,2.1762709617614746
1763692628888815400,7.9108154296875,-2.932187080383301,-3.87172269821167,3.1947669982910156
1763692628898895400,7.920895263671875,-3.328453779220581,-3.1676034927368164,3.9244515895843506
1763692628908938200,7.930938232421875,-3.2890400886535645,-1.8626930713653564,4.19502067565918
1763692628919018200,7.941018310546875,-3.0024924278259277,-0.6973281502723694,4.000082969665527
1763692628929098200,7.95109814453125,-2.5838558673858643,-0.20306004583835602,3.277855157852173
1763692628939210800,7.961210693359375,-2.0224781036376953,-0.522629976272583,2.2476415634155273
1763692628949290800,7.971290771484375,-1.302247405052185,-1.3790773153305054,1.2314094305038452
1763692628959370800,7.981370849609375,-0.4766917824745178,-2.3590917587280273,0.3611139953136444
1763692628969456600,7.99145654296875,0.30199354887008667,-3.343367099761963,-0.37709248065948486
1763692628979536600,8.00153662109375,0.9390029311180115,-4.149881362915039,-0.99599289894104
1763692628989616600,8.01161669921875,1.3395304679870605,-4.582365989685059,-1.500913381576538
1763692628999695400,8.0216953125,1.38853120803833,-4.763455867767334,-1.8630925416946411
1763692629009775400,8.031775390625,1.1754846572875977,-4.770912170410156,-2.0324645042419434
1763692629019855400,8.04185546875,0.8601756691932678,-4.600475311279297,-1.9898552894592285
1763692629029935000,8.05193505859375,0.5523233413696289,-4.371449947357178,-1.7501778602600098
1763692629040015000,8.06201513671875,0.32542869448661804,-4.145620822906494,-1.3837376832962036
1763692629050095000,8.07209521484375,0.18801362812519073,-3.7854387760162354,-0.9523183107376099
1763692629060174600,8.082174560546875,0.07616416364908218,-3.263474464416504,-0.4687025249004364
1763692629070254600,8.092254638671875,-0.016511112451553345,-2.6520307064056396,0.06497921794652939
1763692629080334600,8.10233447265625,-0.08042509108781815,-1.9681512117385864,0.6093133091926575
1763692629090415000,8.1124150390625,-0.0964035913348198,-1.1937267780303955,1.1312774419784546
1763692629100495000,8.1224951171875,-0.07829462736845016,-0.46723783016204834,1.5680229663848877
1763692629110575000,8.1325751953125,-0.013315413147211075,0.15059731900691986,1.8417879343032837
1763692629120660200,8.14266015625,0.1390129029750824,0.6631075739860535,1.9344631433486938
1763692629130740200,8.152740234375,0.36697277426719666,1.03593909740448,1.8950495719909668
1763692629140820200,8.1628203125,0.6194329857826233,1.2585728168487549,1.7512431144714355
1763692629150899500,8.1728994140625,0.9123721122741699,1.4322057962417603,1.5168918371200562
1763692629160979500,8.1829794921875,1.2266157865524292,1.6537742614746094,1.2239527702331543
1763692629171059500,8.1930595703125,1.4609670639038086,1.9499090909957886,0.9161003828048706
1763692629181145000,8.20314501953125,1.5813384056091309,2.3078272342681885,0.6391398310661316
1763692629191225000,8.21322509765625,1.664426565170288,2.698767900466919,0.40159285068511963
1763692629201305000,8.22330517578125,1.824211597442627,3.2058188915252686,0.19387240707874298
1763692629211386600,8.23338671875,2.057497501373291,3.7629356384277344,0.0106523297727108
1763692629221466600,8.243466552734375,2.249239444732666,4.23270320892334,-0.1704372763633728
1763692629231546600,8.253546630859375,2.286522626876831,4.300878524780273,-0.39946237206459045
1763692629241623300,8.263623291015625,2.1128897666931152,3.7150001525878906,-0.6934667229652405
1763692629251703300,8.273703369140625,1.7240796089172363,2.6412453651428223,-1.0716243982315063
1763692629261783300,8.283783203125,1.225550651550293,1.5365986824035645,-1.5701534748077393
1763692629271860700,8.29386083984375,0.8942631483078003,0.7866745591163635,-2.1528358459472656
1763692629281941000,8.30394091796875,0.974155604839325,0.5372769236564636,-2.6941075325012207
1763692629292021000,8.31402099609375,1.4109011888504028,0.5468640327453613,-3.0136773586273193
1763692629302108000,8.32410791015625,1.8380595445632935,0.6556509137153625,-3.0136773586273193
1763692629312188000,8.33418798828125,2.079867362976074,1.1286144256591797,-2.7739999294281006
1763692629322268000,8.344267822265625,1.9307348728179932,1.716623067855835,-2.386121988296509
1763692629332336400,8.35433642578125,1.409835934638977,2.1160852909088135,-1.8535054922103882
1763692629342416400,8.36441650390625,0.8974588513374329,2.502764940261841,-1.250583529472351
1763692629352496400,8.374496337890625,0.48308318853378296,2.8265957832336426,-0.6913362145423889
1763692629362586000,8.384586181640625,0.17523083090782166,2.9863808155059814,-0.32383084297180176
1763692629372666000,8.394666015625,-0.00585878174751997,3.0044896602630615,-0.256721168756485
1763692629382746000,8.40474609375,-0.0750989317893982,2.857487678527832,-0.48468104004859924
1763692629392824000,8.414823974609375,-0.030359141528606415,2.525134801864624,-0.911839485168457
1763692629402904000,8.424904052734375,0.13688243925571442,2.061758518218994,-1.4199556112289429
1763692629412984000,8.434984130859375,0.41916918754577637,1.5078372955322266,-1.8790709972381592
1763692629423075300,8.445075439453126,0.7717612981796265,0.8473928570747375,-2.211423873901367
1763692629433155300,8.4551552734375,1.1222230195999146,0.17190198600292206,-2.411820650100708
1763692629443235300,8.4652353515625,1.3874660730361938,-0.3553883731365204,-2.4895827770233154
1763692629453308700,8.47530859375,1.4790760278701782,-0.6877411007881165,-2.4469733238220215
1763692629463388700,8.485388671875,1.3693571090698242,-0.8581783771514893,-2.2902510166168213
1763692629473468700,8.49546875,1.0955921411514282,-0.9210271239280701,-2.011159896850586
1763692629483554600,8.505554443359374,0.7238258123397827,-0.906113862991333,-1.618088960647583
1763692629493634600,8.515634521484374,0.2902759909629822,-0.8411346077919006,-1.142994999885559
1763692629503714600,8.525714599609374,-0.17842653393745422,-0.8624392747879028,-0.613574206829071
1763692629513794300,8.535794189453124,-0.6364767551422119,-1.0520507097244263,-0.04367455467581749
1763692629523874300,8.545874267578125,-1.0252867937088013,-1.326880931854248,0.5336817502975464
1763692629533954300,8.555954345703125,-1.3011821508407593,-1.535666584968567,1.0652329921722412
1763692629544034600,8.56603466796875,-1.503576397895813,-1.6634944677352905,1.5115656852722168
1763692629554114600,8.576114501953125,-1.6676223278045654,-1.6858644485473633,1.8598968982696533
1763692629564194800,8.58619482421875,-1.827540397644043,-1.5601669549942017,2.1400530338287354
1763692629574292000,8.5962919921875,-2.009695291519165,-1.3375332355499268,2.366015672683716
1763692629584372000,8.6063720703125,-2.1993067264556885,-1.105312466621399,2.5130178928375244
1763692629594452200,8.6164521484375,-2.347374200820923,-1.0126371383666992,2.5258007049560547
1763692629604496400,8.626496337890625,-2.384657382965088,-1.1127690076828003,2.3862550258636475
1763692629614576400,8.636576416015625,-2.3686788082122803,-1.1319432258605957,2.091052532196045
1763692629624656400,8.646656494140625,-2.4198100566864014,-1.0541812181472778,1.662828803062439
1763692629634769200,8.65676904296875,-2.616878032684326,-1.0392680168151855,1.288931965827942
1763692629644849200,8.66684912109375,-3.2794530391693115,-1.5846673250198364,1.0045146942138672
1763692629654929200,8.67692919921875,-4.094356060028076,-2.5955734252929688,0.8628387451171875
1763692629664948000,8.686947998046875,-4.63869047164917,-3.6395018100738525,0.9097089767456055
1763692629675028000,8.697028076171875,-4.6312336921691895,-4.2372307777404785,1.1334079504013062
1763692629685108000,8.70710791015625,-4.10607385635376,-3.7247204780578613,1.5073047876358032
1763692629695270000,8.717269775390625,-3.4669339656829834,-2.4368536472320557,1.856701135635376
1763692629705350000,8.727349853515625,-2.8629469871520996,-0.8113080859184265,1.8854624032974243
1763692629715430000,8.737429931640625,-2.2845253944396973,0.604386568069458,1.5754796266555786
1763692629725500200,8.747500244140625,-1.7784065008163452,1.2990516424179077,1.173886775970459
1763692629735580200,8.757580078125,-1.297986388206482,1.2915949821472168,0.8468602299690247
1763692629745660200,8.76766015625,-0.7845441102981567,0.858045220375061,0.6178351640701294
1763692629755721000,8.777720947265625,-0.24127528071403503,0.21770699322223663,0.43035414814949036
1763692629765801000,8.787801025390625,0.25086238980293274,-0.40438908338546753,0.2226337045431137
1763692629775881000,8.797880859375,0.5725627541542053,-0.9188966155052185,-0.012782796286046505
1763692629785970000,8.807969970703125,0.7259563207626343,-1.3844034671783447,-0.24180789291858673
1763692629796050000,8.8180498046875,0.7184996604919434,-1.7380608320236206,-0.3536573648452759
1763692629806130000,8.8281298828125,0.6407376527786255,-1.921280860900879,-0.34620073437690735
1763692629816168200,8.838168212890626,0.5001268982887268,-1.9298027753829956,-0.22050324082374573
1763692629826248200,8.848248291015626,0.28388461470603943,-1.780670166015625,0.01704372838139534
1763692629836328200,8.858328125,0.06657706201076508,-1.4898614883422852,0.364309698343277
1763692629846464500,8.868464599609375,-0.12409964948892593,-1.1191604137420654,0.7967942953109741
1763692629856544500,8.87854443359375,-0.2785584330558777,-0.6781539916992188,1.234605073928833
1763692629866624500,8.88862451171875,-0.34673336148262024,-0.14873315393924713,1.5957190990447998
1763692629876704800,8.898704833984375,-0.2987978756427765,0.48081955313682556,1.8524402379989624
1763692629886758000,8.9087578125,-0.18588316440582275,1.0785484313964844,1.9983772039413452
1763692629896838000,8.918837890625,-0.06551183015108109,1.4748151302337646,1.9951814413070679
1763692629906918100,8.928918212890625,0.13049104809761047,1.7240796089172363,1.8417879343032837
1763692629917005600,8.939005615234375,0.33395054936408997,1.8998430967330933,1.5584359169006348
1763692629927085600,8.94908544921875,0.5725627541542053,1.9435176849365234,1.18134343624115
1763692629937165600,8.95916552734375,0.9017197489738464,2.039388656616211,0.7754896283149719
1763692629947247900,8.969247802734374,1.1637670993804932,2.1033027172088623,0.36537492275238037
1763692629957328000,8.979327880859374,1.382139801979065,2.1682817935943604,-0.03621792420744896
1763692629967407900,8.989407958984375,1.664426565170288,2.576266050338745,-0.41863659024238586
1763692629978044200,9.000044189453124,1.9531047344207764,3.2803850173950195,-0.6860100626945496
1763692629988124200,9.010124267578124,2.108628749847412,3.9972870349884033,-0.8489907383918762
1763692629998204200,9.0202041015625,2.0702803134918213,4.522446632385254,-1.0417978763580322
1763692630008313900,9.03031396484375,1.8274072408676147,4.390357971191406,-1.3240846395492554
1763692630018393900,9.040393798828125,1.52488112449646,3.373060464859009,-1.6798725128173828
1763692630028473900,9.050473876953125,1.3906617164611816,1.9190173149108887,-2.089987277984619
1763692630038558500,9.060558349609375,1.533402919769287,0.6214303374290466,-2.4522995948791504
1763692630048638500,9.070638427734375,1.8966474533081055,-0.2147776037454605,-2.691977024078369
1763692630058718700,9.08071875,2.4154157638549805,-0.12103710323572159,-2.9188716411590576
1763692630078266400,9.100266357421875,2.7488338947296143,1.8295377492904663,-3.192636489868164
1763692630088346400,9.110346435546875,2.2055649757385254,2.572005033493042,-3.029655933380127
1763692630098454800,9.120454833984375,1.5983821153640747,3.067338466644287,-2.6333892345428467
1763692630108534800,9.13053466796875,1.0998530387878418,3.3144724369049072,-1.9578982591629028
1763692630118614800,9.14061474609375,0.7248910665512085,3.319798707962036,-1.0939942598342896
1763692630128697900,9.15069775390625,0.4553871154785156,3.194101333618164,-0.3312874734401703
1763692630138777900,9.16077783203125,0.23807957768440247,3.0321857929229736,0.04793548583984375
1763692630148857900,9.17085791015625,0.07829462736845016,2.787182092666626,-0.06071828305721283
1763692630158944500,9.180944580078124,0.026098208501935005,2.380263090133667,-0.5837476849555969
1763692630169024500,9.1910244140625,0.1166430190205574,1.7847979068756104,-1.3389979600906372
1763692630179104500,9.2011044921875,0.3382114768028259,1.0465914011001587,-2.1059656143188477
1763692630189170000,9.211169921875,0.667368471622467,0.3370130956172943,-2.679194211959839
1763692630199250000,9.22125,0.9965254664421082,-0.2509955167770386,-2.949763298034668
1763692630209330200,9.231330078125,1.1861369609832764,-0.7708292603492737,-2.908219337463379
1763692630219407400,9.241407470703125,1.1328753232955933,-1.2171618938446045,-2.6142148971557617
1763692630229487400,9.2514873046875,0.8186315894126892,-1.5228837728500366,-2.169879674911499
1763692630239567600,9.261567626953125,0.3808208107948303,-1.6794730424880981,-1.6457849740982056
1763692630249654500,9.271654541015625,-0.09746882319450378,-1.6666902303695679,-1.0620373487472534
1763692630259734500,9.281734619140625,-0.6034545302391052,-1.572949767112732,-0.45165881514549255
1763692630269814800,9.291814697265625,-1.1477885246276855,-1.5591017007827759,0.14700216054916382
1763692630279892200,9.301892333984375,-1.6175563335418701,-1.6411246061325073,0.706249475479126
1763692630289972200,9.31197216796875,-1.9148895740509033,-1.7870615720748901,1.1770825386047363
1763692630300052200,9.32205224609375,-2.074674367904663,-2.0118257999420166,1.5637620687484741
1763692630310132500,9.332132568359375,-2.0725440979003906,-2.1705453395843506,1.901440978050232
1763692630320212500,9.34221240234375,-1.9329984188079834,-2.2312636375427246,2.215684652328491
1763692630330292500,9.35229248046875,-1.7134273052215576,-2.093848705291748,2.5087568759918213
1763692630340379100,9.362379150390625,-1.578142762184143,-1.7774744033813477,2.697303056716919
1763692630350459100,9.372459228515625,-1.5238158702850342,-1.3119676113128662,2.679194211959839
1763692630360539100,9.3825390625,-1.4535104036331177,-0.7559159994125366,2.5449748039245605
1763692630370613200,9.39261328125,-1.4236838817596436,-0.5162385702133179,2.3127541542053223
1763692630380693200,9.402693359375,-1.7517757415771484,-0.5109124183654785,1.909962773323059
1763692630390773200,9.412773193359374,-2.4230055809020996,-1.3513813018798828,1.585066795349121
1763692630400870100,9.4228701171875,-2.9907748699188232,-2.869338274002075,1.4199556112289429
1763692630410950100,9.4329501953125,-3.263474464416504,-4.173316478729248,1.4007813930511475
1763692630421030100,9.443030029296875,-3.1803863048553467,-4.589822769165039,1.4796086549758911
1763692630431105800,9.453105712890626,-2.5817253589630127,-3.539369821548462,1.6596330404281616
1763692630441185800,9.463185791015626,-1.7858631610870361,-1.649646520614624,1.8875929117202759
1763692630451266000,9.47326611328125,-1.257507562637329,0.09733566641807556,1.927006483078003
1763692630461340400,9.48334033203125,-1.1222230195999146,1.0061125755310059,1.6766767501831055
1763692630471420400,9.49342041015625,-1.1030488014221191,1.0412652492523193,1.2974538803100586
1763692630481500400,9.50350048828125,-0.8846760392189026,0.5415378212928772,0.9395354986190796
1763692630491585000,9.5135849609375,-0.3957340717315674,-0.1508636325597763,0.6284874677658081
1763692630501665300,9.523665283203124,0.2231663167476654,-0.7729597091674805,0.3089175820350647
1763692630511745300,9.533745361328124,0.7685656547546387,-1.1990529298782349,-0.05113118514418602
1763692630521824000,9.543823974609374,1.0977226495742798,-1.457904577255249,-0.41117995977401733
1763692630531904300,9.553904296875,1.1776151657104492,-1.6294070482254028,-0.6689663529396057
1763692630541984300,9.563984375,1.073222279548645,-1.766822099685669,-0.743532657623291
1763692630552061400,9.5740615234375,0.8473928570747375,-1.8690844774246216,-0.6327484250068665
1763692630562141400,9.584141357421874,0.5640408992767334,-2.0022385120391846,-0.4239627420902252
1763692630572221700,9.5942216796875,0.45219141244888306,-2.132197141647339,-0.1821548491716385
1763692630582303700,9.6043037109375,0.4042559266090393,-2.080000638961792,0.10332760214805603
1763692630592384000,9.614384033203125,0.306254506111145,-1.9202157258987427,0.36644014716148376
1763692630602464000,9.624464111328125,0.1816222369670868,-1.7114299535751343,0.5560516119003296
1763692630612543500,9.63454345703125,0.054859500378370285,-1.5314055681228638,0.63700932264328
1763692630622623500,9.64462353515625,0.045272402465343475,-1.3087719678878784,0.6071828007698059
1763692630632703500,9.654703369140625,0.21570968627929688,-0.9455274343490601,0.5017247796058655
1763692630642783500,9.664783447265625,0.4873441159725189,-0.48747727274894714,0.36537492275238037
1763692630652863500,9.674863525390625,0.7770875096321106,-0.05925358831882477,0.2236989289522171
1763692630662943700,9.68494384765625,1.0508524179458618,0.24007689952850342,0.10971900075674057
1763692630673032700,9.69503271484375,1.2340724468231201,0.6374087929725647,0.01704372838139534
1763692630683112700,9.70511279296875,1.2308768033981323,0.9443290829658508,-0.1395455300807953
1763692630693192700,9.715192626953124,1.2830731868743896,1.2457900047302246,-0.3110480308532715
1763692630703258400,9.72525830078125,1.464162826538086,1.7283406257629395,-0.3515268862247467
1763692630713338400,9.73533837890625,1.725144863128662,2.2577614784240723,-0.1800243854522705
1763692630723418600,9.745418701171875,2.015953540802002,2.960815191268921,0.09480573982000351
1763692630733511200,9.75551123046875,2.1874561309814453,3.7703921794891357,0.3206351399421692
1763692630743591200,9.765591064453124,2.034062385559082,4.142158508300781,0.3930709958076477
1763692630753671200,9.775671142578124,1.603708267211914,3.5189971923828125,0.23754696547985077
1763692630763763200,9.78576318359375,1.2628337144851685,2.4622862339019775,-0.17895914614200592
1763692630773843200,9.79584326171875,1.1914631128311157,1.456706166267395,-0.7403369545936584
1763692630783923500,9.80592333984375,1.4151620864868164,0.6844122409820557,-1.2601706981658936
1763692630793995300,9.815995361328126,1.9413871765136719,0.7280867695808411,-1.7107642889022827
1763692630804075300,9.8260751953125,2.479329824447632,1.3768136501312256,-2.0654869079589844
1763692630814155300,9.8361552734375,2.6774632930755615,1.9307348728179932,-2.2700116634368896
1763692630824231700,9.846231689453125,2.5602874755859375,2.2662832736968994,-2.320077419281006
1763692630834311700,9.856311767578125,2.2364566326141357,2.552830934524536,-2.187988519668579
1763692630844391700,9.8663916015625,1.7507104873657227,2.7243335247039795,-1.7981133460998535
1763692630854420700,9.876420654296876,1.2734861373901367,2.7658774852752686,-1.2335398197174072
1763692630864500700,9.886500732421876,0.8857412338256836,2.7935736179351807,-0.6668358445167542
1763692630874581000,9.8965810546875,0.6173025369644165,2.8958358764648438,-0.28015628457069397
1763692630884745000,9.906744873046875,0.4596480429172516,3.017272472381592,-0.17363297939300537
1763692630894825000,9.916824951171876,0.36484232544898987,3.0034244060516357,-0.3270265460014343
1763692630904905200,9.9269052734375,0.3211677670478821,2.7392466068267822,-0.6679010987281799
1763692630914924800,9.9369248046875,0.34460288286209106,2.226869583129883,-1.1142337322235107
1763692630925004800,9.9470048828125,0.43088674545288086,1.5632294416427612,-1.578675389289856
1763692630935084800,9.957084716796874,0.5608451962471008,0.8953283429145813,-1.9887900352478027
1763692630945318000,9.96731787109375,0.6886731386184692,0.3828181326389313,-2.292381525039673
1763692630955398000,9.97739794921875,0.736608624458313,0.11224892735481262,-2.4331254959106445
1763692630965478000,9.987477783203126,0.6226286888122559,-0.01664426550269127,-2.352034568786621
1763692630975461600,9.997461669921876,0.3403419554233551,-0.20838621258735657,-2.0377907752990723
1763692630985541600,10.007541748046876,-0.026098208501935005,-0.49706435203552246,-1.533935546875
1763692630995621600,10.01762158203125,-0.3179720640182495,-0.6515231728553772,-0.911839485168457
1763692631005697300,10.027697265625,-0.667368471622467,-0.7953296303749084,-0.2556559145450592
1763692631015777300,10.03777734375,-1.0785484313964844,-0.9860063195228577,0.360048770904541
1763692631025857300,10.047857177734375,-1.4620323181152344,-1.1745525598526,0.8681648969650269
1763692631035943700,10.057943603515625,-1.756036639213562,-1.4174257516860962,1.248453140258789
1763692631046024000,10.06802392578125,-1.8797367811203003,-1.6847991943359375,1.5488488674163818
1763692631056104000,10.07810400390625,-1.8318012952804565,-1.9543031454086304,1.8343312740325928
1763692631066173400,10.08817333984375,-1.6708179712295532,-2.1002399921417236,2.1123571395874023
1763692631076253400,10.09825341796875,-1.7240796089172363,-2.1609582901000977,2.3127541542053223
1763692631086333400,10.10833349609375,-1.8147575855255127,-2.0491089820861816,2.4246034622192383
1763692631096389400,10.118389404296876,-1.7688194513320923,-1.2853368520736694,2.560953378677368
1763692631106469400,10.128469482421876,-1.6761441230773926,-1.1639002561569214,2.4224729537963867
1763692631116549600,10.138549560546876,-1.580273151397705,-1.1404651403427124,2.0697476863861084
1763692631126643700,10.148643798828125,-1.4449886083602905,-1.4259475469589233,1.5861319303512573
1763692631136723700,10.1587236328125,-1.29585599899292,-1.8392579555511475,1.0172975063323975
1763692631146804000,10.168803955078126,-1.3097039461135864,-2.485854387283325,0.5230293869972229
1763692631156880000,10.1788798828125,-1.601577877998352,-3.52445650100708,0.2854824364185333
1763692631166960000,10.188960205078125,-1.9670859575271606,-4.443885803222656,0.39839714765548706
1763692631177040100,10.1990400390625,-2.122609853744507,-4.619649410247803,0.7914681434631348
1763692631187121700,10.20912158203125,-1.9926515817642212,-3.909005641937256,1.288931965827942
1763692631197202000,10.219201904296876,-1.7741456031799316,-2.5678772926330566,1.6798725128173828
1763692631207282000,10.229281982421876,-1.6899921894073486,-1.2480536699295044,1.7821348905563354
1763692631217973200,10.23997314453125,-1.7230144739151,-0.45552027225494385,1.5456531047821045
1763692631228053500,10.250053466796874,-1.7272753715515137,-0.3628450036048889,1.0790810585021973
1763692631238133500,10.260133544921874,-1.5792080163955688,-0.8816134929656982,0.5475297570228577
1763692631248174300,10.27017431640625,-1.251116156578064,-1.6794730424880981,0.04154408723115921
1763692631258254300,10.28025439453125,-0.8165011405944824,-2.5039634704589844,-0.4463326334953308
1763692631268334300,10.290334228515626,-0.3744294047355652,-3.146298885345459,-0.9406007528305054
1763692631278421500,10.30042138671875,-0.01118494663387537,-3.4669339656829834,-1.3858681917190552
1763692631288502800,10.310502685546876,0.16457849740982056,-3.5841095447540283,-1.7192860841751099
1763692631298584000,10.320583984375,0.10172975063323975,-3.6959590911865234,-1.9291369915008545
1763692631308676900,10.3306767578125,-0.15712186694145203,-3.787569284439087,-2.043117046356201
1763692631318758100,10.340758056640626,-0.4873441159725189,-3.7843735218048096,-2.052704095840454
1763692631328839400,10.35083935546875,-0.774957001209259,-3.6863720417022705,-1.9344631433486938
1763692631338350000,10.36035009765625,-0.9070459008216858,-3.3305842876434326,-1.7001118659973145
1763692631348431400,10.370431396484374,-0.8836107850074768,-2.8437726497650146,-1.395455241203308
1763692631358512600,10.3805126953125,-0.7898702621459961,-2.3441784381866455,-0.9746882319450378
1763692631368574200,10.39057421875,-0.6737598776817322,-1.7796049118041992,-0.4452674090862274
1763692631378655500,10.400655517578125,-0.5619103908538818,-1.2533798217773438,0.1278279572725296
1763692631388736800,10.41073681640625,-0.47243085503578186,-0.7942643761634827,0.6402050256729126
1763692631398829800,10.420829833984374,-0.4149082601070404,-0.270169734954834,0.9842753410339355
1763692631408911000,10.4309111328125,-0.38827744126319885,0.2432725876569748,1.136603593826294
1763692631418992400,10.440992431640625,-0.29134124517440796,0.6097127795219421,1.0982552766799927
1763692631429052700,10.451052734375,-0.07296846061944962,0.7930659651756287,0.8681648969650269
1763692631439134000,10.461134033203125,0.2125139832496643,0.904915452003479,0.51344233751297
1763692631449215200,10.47121533203125,0.5320838689804077,1.0252867937088013,0.17789392173290253
1763692631459297000,10.481297119140624,0.904915452003479,1.0178301334381104,-0.0426093190908432
1763692631469378000,10.4913779296875,1.456706166267395,1.382139801979065,-0.17363297939300537
1763692631479459300,10.501459228515625,2.0053012371063232,1.9989097118377686,-0.22050324082374573
1763692631489538000,10.5115380859375,2.264152765274048,2.4526989459991455,-0.1491326242685318
1763692631499619300,10.521619384765625,2.156564235687256,2.712615966796875,-0.06710968166589737
1763692631509700600,10.53170068359375,1.681470274925232,2.599701166152954,-0.1491326242685318
1763692631519773700,10.541773681640626,1.1009182929992676,1.8593642711639404,-0.47509393095970154
1763692631529855000,10.55185498046875,0.8623061180114746,1.2266157865524292,-1.0077104568481445
1763692631539936300,10.561936279296875,0.9613727927207947,1.0710917711257935,-1.602110505104065
1763692631550023700,10.572023681640625,1.1616365909576416,0.8782846331596375,-2.025007963180542
1763692631560105000,10.58210498046875,1.3405957221984863,0.7888050675392151,-2.1666839122772217
1763692631570186200,10.592186279296875,1.386400818824768,0.7302172183990479,-2.099574327468872
1763692631580258800,10.6022587890625,1.2852036952972412,0.8346100449562073,-1.9674854278564453
1763692631590340000,10.612340087890624,1.0583089590072632,0.9901341199874878,-1.7821348905563354
1763692631600421400,10.62242138671875,0.6588466167449951,1.0508524179458618,-1.4487168788909912
1763692631610507000,10.632507080078126,0.2977326214313507,0.9848079085350037,-1.019428014755249
1763692631620588300,10.64258837890625,0.07722939550876617,0.8165011405944824,-0.6476616859436035
1763692631630669600,10.652669677734375,0.07296846061944962,0.6609770655632019,-0.4559197425842285
1763692631640737300,10.6627373046875,0.2572537660598755,0.5500596761703491,-0.4814853370189667
1763692631650818300,10.672818359375,0.5193011164665222,0.4094489514827728,-0.6955971717834473
1763692631660899600,10.682899658203125,0.7728265523910522,0.1772281378507614,-1.0449936389923096
1763692631670986000,10.692986083984374,0.9997211694717407,-0.08162347972393036,-1.4828044176101685
1763692631681067300,10.7030673828125,1.2053111791610718,-0.28401774168014526,-1.933397889137268
1763692631691148500,10.7131484375,1.3778789043426514,-0.500260055065155,-2.301968574523926
1763692631701217500,10.723217529296875,1.4790760278701782,-0.7974600791931152,-2.4991698265075684
1763692631711298800,10.733298828125,1.6260782480239868,-0.9039833545684814,-2.4704084396362305
1763692631731458000,10.7534580078125,1.7901240587234497,-0.9519188404083252,-1.933397889137268
1763692631761715200,10.783715087890625,1.173354148864746,-1.32901132106781,-0.35898351669311523
1763692631771796500,10.79379638671875,0.8260881900787354,-1.5005139112472534,0.15339355170726776
1763692631781877800,10.803877685546874,0.4053211510181427,-1.6102328300476074,0.5006595253944397
1763692631791944700,10.81394482421875,-0.036750540137290955,-1.5633625984191895,0.6189003586769104
1763692631802026000,10.82402587890625,-0.44047385454177856,-1.3045109510421753,0.5933347940444946
1763692631812107300,10.834107177734374,-0.7951964735984802,-0.7686987519264221,0.5549864172935486
1763692631822186000,10.84418603515625,-1.1445928812026978,-0.20306004583835602,0.6082480549812317
1763692631832267300,10.854267333984374,-1.4460538625717163,0.23688119649887085,0.813838005065918
1763692631842348500,10.8643486328125,-1.709166407585144,0.5415378212928772,1.1461907625198364
1763692631852425200,10.87442529296875,-1.9713468551635742,0.7451304793357849,1.5381964445114136
1763692631862506500,10.884506591796875,-2.041652202606201,0.8527190089225769,2.006899118423462
1763692631882664700,10.904664794921874,-1.8499102592468262,0.9208939671516418,2.309558391571045
1763692631892746000,10.91474609375,-1.7475147247314453,1.0668308734893799,1.9887900352478027
1763692631902827300,10.9248271484375,-1.9138243198394775,0.8175663352012634,1.4540430307388306
1763692631912906200,10.93490625,-2.3718745708465576,0.04940018057823181,0.8180989623069763
1763692631922987500,10.944987548828125,-2.6893138885498047,-0.9210271239280701,0.1928071826696396
1763692631933068800,10.95506884765625,-2.702096700668335,-1.5867977142333984,-0.3483312129974365
1763692631943154200,10.965154296875,-2.4293971061706543,-1.719951868057251,-0.7030537724494934
1763692631953235500,10.9752353515625,-1.9063676595687866,-1.3183590173721313,-0.728619396686554
1763692631963316700,10.985316650390626,-1.3714874982833862,-0.7431331872940063,-0.4165061116218567
1763692631973393200,10.99539306640625,-1.0348738431930542,-0.265908807516098,0.05752258375287056
1763692631983474200,11.00547412109375,-0.951785683631897,0.09733566641807556,0.4399412274360657
1763692631993555500,11.015555419921874,-1.0476566553115845,0.3593829870223999,0.6412702798843384
1763692632003636200,11.02563623046875,-1.1690932512283325,0.5085155963897705,0.720097541809082
1763692632013717500,11.035717529296875,-1.255377173423767,0.5042546987533569,0.7403369545936584
1763692632023798800,11.045798828125,-1.3480523824691772,0.31144750118255615,0.7328802943229675
1763692632033886700,11.05588671875,-1.4822717905044556,-0.10079767554998398,0.6987928748130798
1763692632043967700,11.0659677734375,-1.5632294416427612,-0.5758916139602661,0.597595751285553
1763692632054049000,11.076049072265626,-1.5909255743026733,-1.0030500888824463,0.44313693046569824
1763692632064115200,11.086115234375,-1.5621641874313354,-1.3950557708740234,0.26950395107269287
1763692632074196500,11.096196533203125,-1.4109011888504028,-1.7007776498794556,0.11611039936542511
1763692632084277800,11.10627783203125,-1.1232882738113403,-1.895715355873108,0.012782796286046505
1763692632094382000,11.116382080078125,-0.758978545665741,-1.9361941814422607,-0.03089175745844841
1763692632104463400,11.12646337890625,-0.39999499917030334,-1.7859963178634644,-0.05645735189318657
1763692632114544600,11.136544677734374,-0.09107742458581924,-1.4792091846466064,-0.11930610239505768
1763692632124605700,11.146605712890626,0.15925233066082,-1.1873353719711304,-0.17363297939300537
1763692632134687000,11.15668701171875,0.353124737739563,-0.9955934286117554,-0.18322007358074188
1763692632144768300,11.166768310546875,0.5033226013183594,-0.9380708336830139,-0.19493764638900757
1763692632154831400,11.176831298828125,0.6449986100196838,-0.9849410653114319,-0.2588516175746918
1763692632164912600,11.18691259765625,0.8314144015312195,-1.0200937986373901,-0.3749620318412781
1763692632174994000,11.196993896484376,1.0998530387878418,-1.090399146080017,-0.5187684893608093
1763692632185064400,11.207064453125,1.4865326881408691,-1.2011834383010864,-0.6519225835800171
1763692632195145700,11.217145751953124,1.9594961404800415,-1.2874672412872314,-0.7499240636825562
1763692632205227000,11.22722705078125,2.4260683059692383,-1.3322070837020874,-0.8180989623069763
1763692632215282400,11.237282470703125,2.828726291656494,-1.2043790817260742,-0.8670997023582458
1763692632225363700,11.24736376953125,3.146298885345459,-0.8752220869064331,-0.9075785279273987
1763692632235445000,11.257445068359376,3.2783877849578857,-0.49706435203552246,-0.9459269046783447
1763692632245570800,11.26757080078125,3.1100809574127197,-0.19134248793125153,-0.9832100868225098
1763692632255652000,11.277652099609375,2.6817240715026855,0.04087831825017929,-1.0215585231781006
1763692632265733400,11.2877333984375,2.1128897666931152,0.20385897159576416,-1.0716243982315063
1763692632275800800,11.29780078125,1.496119737625122,0.3252955377101898,-1.1419297456741333
1763692632285882000,11.307882080078125,0.9219591617584229,0.4009270668029785,-1.1994524002075195
1763692632295963100,11.317963134765625,0.4788222312927246,0.5127765536308289,-1.244192123413086
1763692632306018600,11.3280185546875,0.21038351953029633,0.6854774355888367,-1.218626618385315
1763692632316098600,11.3380986328125,0.15073047578334808,0.9315462708473206,-1.033276081085205
1763692632326178300,11.34817822265625,0.222101092338562,1.3128997087478638,-0.6625749468803406
1763692632336291300,11.358291259765625,0.306254506111145,1.7592322826385498,-0.1501978635787964
1763692632346371300,11.368371337890625,0.3201025128364563,2.211956262588501,0.3941362202167511
1763692632356451300,11.378451416015626,0.25831902027130127,2.650832414627075,0.8521864414215088
1763692632366539500,11.38853955078125,0.15179570019245148,3.044968605041504,1.1515169143676758
1763692632376619500,11.39861962890625,0.056989967823028564,3.357081890106201,1.2697577476501465
1763692632386699500,11.408699462890626,0.042076703161001205,3.5434975624084473,1.2133004665374756
1763692632396750300,11.418750244140625,0.1177082508802414,3.5999550819396973,0.99599289894104
1763692632406830300,11.428830322265625,0.2561885416507721,3.464670419692993,0.6455312371253967
1763692632416910000,11.43891015625,0.4489957094192505,3.207949161529541,0.2343512624502182
1763692632427599000,11.44959912109375,0.6577813625335693,2.8351175785064697,-0.15339355170726776
1763692632437679000,11.45967919921875,0.8559147119522095,2.3227405548095703,-0.46124589443206787
1763692632447759000,11.469759033203125,1.0082430839538574,1.810363531112671,-0.6487269401550293
1763692632467329300,11.489329345703124,0.9645684957504272,0.8282186985015869,-0.6529878377914429
1763692632487478500,11.509478515625,0.7025212049484253,0.27842527627944946,-0.19493764638900757
1763692632497558300,11.519558349609374,0.3967992961406708,0.1346188187599182,0.11078423261642456
1763692632507638300,11.52963818359375,-0.036750540137290955,0.03129122033715248,0.40798425674438477
1763692632518342700,11.5403427734375,-0.5182358622550964,-0.0454055592417717,0.7083799839019775
1763692632528422700,11.550422607421876,-0.9677641987800598,-0.06457975506782532,1.0130366086959839
1763692632538502700,11.560502685546876,-1.3150302171707153,0.07922670245170593,1.3411283493041992
1763692632558059000,11.58005908203125,-1.8328665494918823,0.7983921766281128,2.1400530338287354
1763692632568139000,11.590138916015626,-2.103435754776001,1.1840064525604248,2.5726709365844727
1763692632578219000,11.600218994140626,-2.408092498779297,1.3810746669769287,2.9060888290405273
1763692632588266000,11.610265869140624,-2.744706153869629,1.6143606901168823,3.076526165008545
1763692632598346000,11.620345947265625,-3.06108021736145,1.746449589729309,3.1244616508483887
1763692632608425700,11.63042578125,-3.1441683769226074,1.8721470832824707,2.9508285522460938
1763692632618520600,11.6405205078125,-3.192103862762451,2.3408496379852295,2.646172046661377
1763692632628600300,11.650600341796874,-3.3252580165863037,2.243913412094116,2.3255367279052734
1763692632638680300,11.660680419921874,-3.5425655841827393,1.6505786180496216,1.9493764638900757
1763692632648808700,11.67080859375,-3.9388322830200195,0.4669715166091919,1.5073047876358032
1763692632658888700,11.680888671875,-4.299946308135986,-0.8262213468551636,1.203713297843933
1763692632668968700,11.69096875,-4.393686771392822,-1.4706873893737793,1.227148413658142
1763692632679001900,11.701001953125,-3.9984853267669678,-1.0808120965957642,1.5307399034500122
1763692632689081900,11.711081787109375,-3.1857125759124756,0.0014646954368799925,1.9227455854415894
1763692632699161900,11.721161865234375,-2.318612813949585,1.143527626991272,2.137922763824463
1763692632709264400,11.731264404296875,-1.7272753715515137,1.824211597442627,2.0260732173919678
1763692632719344400,11.741344482421875,-1.4630975723266602,1.9094301462173462,1.6756114959716797
1763692632729424100,11.751424072265625,-1.395987868309021,1.564294695854187,1.3336716890335083
1763692632739510800,11.7615107421875,-1.3768136501312256,0.8410014510154724,1.203713297843933
1763692632749590800,11.7715908203125,-1.106244444847107,0.24007689952850342,1.1717562675476074
1763692632759670500,11.78167041015625,-0.6854774355888367,-0.02303566411137581,1.220757007598877
1763692632769749800,11.791749755859374,-0.353124737739563,-0.38308441638946533,1.3219541311264038
1763692632779829800,11.801829833984375,-0.07935985922813416,-0.677088737487793,1.4082380533218384
1763692632789909500,11.811909423828125,0.062316130846738815,-0.8613740801811218,1.4551082849502563
1763692632799966500,11.821966552734375,0.0964035913348198,-0.9327446818351746,1.4487168788909912
1763692632810046500,11.83204638671875,0.055924732238054276,-0.8571131229400635,1.3911943435668945
1763692632820126200,11.842126220703125,-0.0964035913348198,-0.8262213468551636,1.3272804021835327
1763692632830201000,11.852201171875,-0.24873191118240356,-0.7548507452011108,1.281475305557251
1763692632840281000,11.862281005859375,-0.33395054936408997,-0.5748263597488403,1.234605073928833
1763692632850361000,11.872361083984375,-0.3829512596130371,-0.3117138147354126,1.1536474227905273
1763692632860434700,11.8824345703125,-0.4383433759212494,-0.06564498692750931,0.9917319416999817
1763692632870514700,11.8925146484375,-0.4820179343223572,0.15166255831718445,0.696662425994873
1763692632880594400,11.902594482421875,-0.4031907021999359,0.5319507122039795,0.3611139953136444
1763692632890655000,11.912655029296875,-0.2146444469690323,0.9560466408729553,0.0745663121342659
1763692632900735000,11.92273486328125,0.021837277337908745,1.2266157865524292,-0.16724158823490143
1763692632910815000,11.93281494140625,0.30518925189971924,1.327812910079956,-0.38667958974838257
1763692632920919800,11.942919921875,0.6599118709564209,1.4236838817596436,-0.5848129391670227
1763692632930999800,11.952999755859375,1.0252867937088013,1.5397943258285522,-0.7552502155303955
1763692632941079600,11.96307958984375,1.278812289237976,1.6612309217453003,-0.9608401656150818
1763692632951203000,11.973203125,1.4364666938781738,1.8827993869781494,-1.22501802444458
1763692632961283000,11.983282958984375,1.548316240310669,2.1736080646514893,-1.5051742792129517
1763692632971363000,11.993363037109376,1.6335347890853882,2.4676122665405273,-1.8066352605819702
1763692632981404400,12.003404296875,1.6985141038894653,2.6359190940856934,-2.1730754375457764
1763692632991484400,12.013484375,1.6601656675338745,2.3270015716552734,-2.6067583560943604
1763692633001564200,12.023564208984375,1.5855993032455444,1.7347320318222046,-3.025394916534424
1763692633011690000,12.03368994140625,1.5206201076507568,1.1637670993804932,-3.291703224182129
1763692633021769700,12.043769775390626,1.3906617164611816,0.6384740471839905,-3.3183341026306152
1763692633031849700,12.053849609375,1.1925283670425415,0.23581595718860626,-3.1031570434570312
1763692633041912300,12.063912353515626,1.0167648792266846,0.11864032596349716,-2.758021354675293
1763692633051992300,12.073992431640624,0.904915452003479,0.3380783200263977,-2.4043641090393066
1763692633062072000,12.084072021484374,0.8218272924423218,0.6929340958595276,-2.056964874267578
1763692633072161300,12.094161376953124,0.6545857191085815,1.012503981590271,-1.6777420043945312
1763692633082241300,12.1042412109375,0.418103963136673,1.3065083026885986,-1.2963886260986328
1763692633092321000,12.114321044921875,0.16351327300071716,1.571751356124878,-0.9917319416999817
1763692633102364000,12.124364013671874,-0.0644465982913971,1.6654918193817139,-0.8191642165184021
1763692633112443600,12.134443603515624,-0.15392617881298065,1.5887950658798218,-0.8266208171844482
1763692633122523600,12.144523681640624,-0.016511112451553345,1.4449886083602905,-1.035406470298767
1763692633132631800,12.1546318359375,0.306254506111145,1.2585728168487549,-1.4284775257110596
1763692633142711800,12.1647119140625,0.6993255019187927,1.0540480613708496,-1.9163541793823242
1763692633152791800,12.174791748046875,1.043395757675171,0.8090444803237915,-2.352034568786621
1763692633162885000,12.184885009765624,1.3054430484771729,0.4648410677909851,-2.604627847671509
1763692633172965000,12.194965087890624,1.5003807544708252,0.05366111174225807,-2.622736930847168
1763692633183045000,12.205045166015625,1.6612309217453003,-0.31917044520378113,-2.425668716430664
1763692633193134000,12.215134033203125,1.7752108573913574,-0.5418041348457336,-2.089987277984619
1763692633203213800,12.2252138671875,1.7943850755691528,-0.5886744260787964,-1.7011771202087402
1763692633213293800,12.2352939453125,1.6537742614746094,-0.5023905038833618,-1.3070409297943115
1763692633223368200,12.2453681640625,1.3342043161392212,-0.30851811170578003,-0.89692622423172
1763692633233448200,12.2554482421875,0.8655018210411072,-0.04966649040579796,-0.4591154456138611
1763692633243528000,12.26552783203125,0.3201025128364563,0.13781452178955078,-0.0106523297727108
1763692633253599200,12.27559912109375,-0.18588316440582275,0.21344606578350067,0.4239627420902252
1763692633263679200,12.28567919921875,-0.5523233413696289,0.16124965250492096,0.8479254841804504
1763692633273759200,12.29575927734375,-0.7706961035728455,-0.04860125854611397,1.2623010873794556
1763692633283819500,12.305819580078126,-0.8239577412605286,-0.3745625615119934,1.6660244464874268
1763692633293899500,12.3158994140625,-0.7312824726104736,-0.6611102223396301,2.0186166763305664
1763692633303979300,12.325979248046876,-0.5800193548202515,-0.845395565032959,2.245511293411255
1763692633314088700,12.336088623046875,-0.40958210825920105,-0.9476579427719116,2.318080186843872
1763692633324169000,12.3461689453125,-0.2668408751487732,-0.9583102464675903,2.2797317504882812
1763692633334249000,12.3562490234375,-0.41064733266830444,-0.8741568326950073,2.1357922554016113
1763692633344306200,12.36630615234375,-0.568301796913147,-0.6408708095550537,1.9163541793823242
1763692633354386400,12.376386474609374,-0.5714974999427795,-0.40438908338546753,1.517957091331482
1763692633364466400,12.386466552734374,-0.6279548406600952,-0.09760197252035141,1.0929291248321533
1763692633374519800,12.396519775390624,-0.7675004005432129,-0.24034319818019867,0.7616416215896606
1763692633394680000,12.41668017578125,-0.773891806602478,-0.6344794034957886,0.8117075562477112
1763692633404799000,12.426799072265625,-1.3405957221984863,-1.5367318391799927,1.2101047039031982
1763692633414879000,12.43687890625,-2.154567003250122,-2.4879848957061768,1.819417953491211
1763692633435031000,12.457031005859376,-3.488238573074341,-3.1910386085510254,3.178788423538208
1763692633445111000,12.467111083984374,-3.427520513534546,-2.187589168548584,3.548424243927002
1763692633455191300,12.47719140625,-2.9716007709503174,-0.8698959350585938,3.5175325870513916
1763692633465335800,12.487335693359375,-2.350569725036621,0.12929265201091766,2.9934380054473877
1763692633475415800,12.497415771484375,-1.7336667776107788,0.44992780685424805,2.160292625427246
1763692633485495800,12.507495849609375,-1.1307448148727417,0.04300878196954727,1.3922595977783203
1763692633495496000,12.517495849609375,-0.4468652606010437,-0.860308825969696,0.9214265942573547
1763692633505576200,12.527576171875,0.3083849549293518,-1.9287375211715698,0.6945319175720215
1763692633515656200,12.53765625,1.012503981590271,-2.9289913177490234,0.5358121991157532
1763692633525804500,12.547804443359375,1.5280767679214478,-3.6150014400482178,0.3717663288116455
1763692633535884500,12.557884521484375,1.7283406257629395,-3.833374261856079,0.2545906901359558
1763692633545964500,12.567964599609375,1.5621641874313354,-3.6959590911865234,0.252460241317749
1763692633556011500,12.578011474609376,1.143527626991272,-3.41367244720459,0.3515268862247467
1763692633566091500,12.588091552734374,0.6535204648971558,-3.057884454727173,0.504920482635498
1763692633576171500,12.598171630859374,0.2348838746547699,-2.609421491622925,0.6742925047874451
1763692633586194000,12.60819384765625,-0.0633813664317131,-2.071478843688965,0.8255556225776672
1763692633596274000,12.61827392578125,-0.24127528071403503,-1.5473841428756714,0.9256874918937683
1763692633606354000,12.62835400390625,-0.30199354887008667,-1.1063776016235352,1.005579948425293
1763692633616455000,12.638454833984374,-0.2636451721191406,-0.6951977014541626,1.0769505500793457
1763692633626535000,12.648534912109374,-0.15499140322208405,-0.3117138147354126,1.058841586112976
1763692633636615000,12.658614990234375,0.016511112451553345,0.0025299284607172012,0.8873391151428223
1763692633647311600,12.6693115234375,0.2338186502456665,0.2954690158367157,0.5720301270484924
1763692633657391600,12.6793916015625,0.47562655806541443,0.6246260404586792,0.18641577661037445
1763692633667472000,12.689471923828124,0.7387390732765198,0.9816122055053711,-0.1608501821756363
1763692633687021000,12.70902099609375,1.333139181137085,1.6463176012039185,-0.45165881514549255
1763692633697101300,12.719101318359375,1.4630975723266602,1.9115606546401978,-0.63700932264328
1763692633707194000,12.729194091796876,1.6079692840576172,2.202369213104248,-0.8340774774551392
1763692633717274000,12.739274169921876,1.7581671476364136,2.5176782608032227,-0.9342093467712402
1763692633727354000,12.74935400390625,1.8551032543182373,2.7882473468780518,-0.9342093467712402
1763692633738028800,12.76002880859375,1.8519076108932495,2.8372480869293213,-0.9789491295814514
1763692633748108800,12.77010888671875,1.7389929294586182,2.347240924835205,-1.1536474227905273
1763692633758188800,12.780188720703125,1.5813384056091309,1.5025111436843872,-1.3848029375076294
1763692633768278500,12.790278564453125,1.5760122537612915,0.8292838931083679,-1.580805778503418
1763692633778358500,12.800358642578125,1.5887950658798218,0.28907760977745056,-1.672415852546692
1763692633788438800,12.810438720703125,1.6079692840576172,0.02063889056444168,-1.6543068885803223
1763692633808641800,12.830641845703125,2.014888286590576,0.9592423439025879,-1.648980736732483
1763692633818721800,12.8407216796875,2.156564235687256,1.687861680984497,-1.6777420043945312
1763692633838269700,12.860269775390625,2.058562755584717,2.8042259216308594,-1.365628719329834
1763692633858410800,12.88041064453125,1.830603003501892,2.7882473468780518,-0.9512531161308289
1763692633868490800,12.89049072265625,1.8082330226898193,2.606092691421509,-0.9629706740379333
1763692633878570800,12.90057080078125,1.87747323513031,2.2929141521453857,-1.189865231513977
1763692633888665300,12.910665283203125,2.020214319229126,1.8114287853240967,-1.5999799966812134
1763692633898745600,12.92074560546875,2.192782163619995,1.2607033252716064,-2.077204465866089
1763692633908825600,12.93082568359375,2.3632194995880127,0.7184996604919434,-2.473604202270508
1763692633918889000,12.940888916015625,2.498504161834717,0.25925108790397644,-2.682389974594116
1763692633928969000,12.950968994140625,2.5368523597717285,0.02489982172846794,-2.6749331951141357
1763692633939049000,12.961049072265626,2.385589361190796,-0.05179695412516594,-2.472538948059082
1763692633949109500,12.971109619140625,1.9914531707763672,-0.05712312087416649,-2.1059656143188477
1763692633959189500,12.981189453125,1.3523132801055908,-0.09760197252035141,-1.6351326704025269
1763692633969269500,12.99126953125,0.5789541602134705,-0.16364642977714539,-1.0833419561386108
1763692633979336000,13.0013359375,0.0037283156998455524,0.00359516148455441,-0.4601806700229645
1763692633989416200,13.011416259765625,-0.5320838689804077,0.09413997083902359,0.12037133425474167
