time,seconds_elapsed,z,y,x
1763697239323816200,0.177816162109375,8.768464088439941,3.397498607635498,-2.7823402881622314
1763697239343584300,0.197584228515625,8.706154823303223,3.503680944442749,-2.84560489654541
1763697239364152000,0.218152099609375,8.58310604095459,3.693136692047119,-2.9768152236938477
1763697239373728500,0.227728515625,8.532379150390625,3.7691428661346436,-3.026956796646118
1763697239383837200,0.237837158203125,8.516069412231445,3.8194355964660645,-3.009793996810913
1763697239393918500,0.24791845703125,8.507322311401367,3.834235429763794,-3.0157077312469482
1763697239404684500,0.2586845703125,8.503204345703125,3.7920644283294678,-3.0799624919891357
1763697239414765600,0.268765625,8.501909255981445,3.708197832107544,-3.18389630317688
1763697239424846800,0.278846923828125,8.504608154296875,3.6225547790527344,-3.2740046977996826
1763697239444410400,0.298410400390625,8.553153991699219,3.5170836448669434,-3.2625234127044678
1763697239454491600,0.30849169921875,8.582283020019531,3.486307144165039,-3.218768358230591
1763697239464606500,0.3186064453125,8.59068775177002,3.4913992881774902,-3.1907026767730713
1763697239474687500,0.3286875,8.573369026184082,3.5389111042022705,-3.1849398612976074
1763697239484768800,0.338768798828125,8.555715560913086,3.611694574356079,-3.150519371032715
1763697239494853600,0.348853515625,8.52872085571289,3.70139741897583,-3.1194491386413574
1763697239504935000,0.358934814453125,8.483851432800293,3.8007233142852783,-3.122366428375244
1763697239515016000,0.369015869140625,8.42776870727539,3.8968725204467773,-3.155547618865967
1763697239525091300,0.37909130859375,8.364724159240723,3.978437662124634,-3.220839738845825
1763697239535172600,0.389172607421875,8.31896686553955,4.028474807739258,-3.2766683101654053
1763697239545253600,0.399253662109375,8.30202579498291,4.03980016708374,-3.3055646419525146
1763697239555329300,0.409329345703125,8.294515609741211,4.029232978820801,-3.3371670246124268
1763697239565410300,0.419410400390625,8.281269073486328,4.016739845275879,-3.3847875595092773
1763697239575491300,0.4294912109375,8.268401145935059,4.012697696685791,-3.4208459854125977
1763697239585576200,0.439576171875,8.262870788574219,4.018610000610352,-3.4272642135620117
1763697239595657500,0.449657470703125,8.258898735046387,4.0349907875061035,-3.4175751209259033
1763697239605738500,0.459738525390625,8.255816459655762,4.054985523223877,-3.401320457458496
1763697239615822600,0.469822509765625,8.254951477050781,4.070598125457764,-3.3847296237945557
1763697239625903600,0.479903564453125,8.253623962402344,4.07786226272583,-3.3792178630828857
1763697239635985000,0.48998486328125,8.251352310180664,4.079436779022217,-3.382864475250244
1763697239646095400,0.500095458984375,8.249296188354492,4.080618381500244,-3.386453628540039
1763697239656176600,0.5101767578125,8.245150566101074,4.086254596710205,-3.389747381210327
1763697239666257700,0.520257568359375,8.239137649536133,4.100619792938232,-3.387021780014038
1763697239676344600,0.530344482421875,8.232706069946289,4.12360143661499,-3.374737024307251
1763697239686425600,0.540425537109375,8.221000671386719,4.154569149017334,-3.3652753829956055
1763697239696507000,0.5505068359375,8.203493118286133,4.190492153167725,-3.363459587097168
1763697239706530000,0.560530029296875,8.186939239501953,4.223342418670654,-3.3627052307128906
1763697239716611000,0.570611083984375,8.177643775939941,4.2429046630859375,-3.3606972694396973
1763697239726692400,0.5806923828125,8.178471565246582,4.246954917907715,-3.353557586669922
1763697239736781800,0.59078173828125,8.188798904418945,4.238076686859131,-3.3395607471466064
1763697239746862800,0.60086279296875,8.207856178283691,4.214282989501953,-3.322847604751587
1763697239756944100,0.610944091796875,8.237433433532715,4.170454502105713,-3.304905652999878
1763697239767150300,0.621150390625,8.272828102111816,4.097846031188965,-3.307321071624756
1763697239777231600,0.631231689453125,8.300049781799316,4.004406929016113,-3.353250503540039
1763697239787312600,0.641312744140625,8.319613456726074,3.900355815887451,-3.426608085632324
1763697239797301800,0.6513017578125,8.333494186401367,3.7974934577941895,-3.5074641704559326
1763697239807382800,0.6613828125,8.349260330200195,3.7041561603546143,-3.56923770904541
1763697239817464000,0.671464111328125,8.370999336242676,3.6271567344665527,-3.5972883701324463
1763697239827517200,0.68151708984375,8.391961097717285,3.564885139465332,-3.6106767654418945
1763697239837598200,0.69159814453125,8.404277801513672,3.512515068054199,-3.633282423019409
1763697239847679500,0.701679443359375,8.406152725219727,3.473585844039917,-3.666221857070923
1763697239857788400,0.711788330078125,8.397408485412598,3.455273389816284,-3.703376293182373
1763697239867869400,0.721869384765625,8.379165649414062,3.4590907096862793,-3.740945816040039
1763697239877950700,0.73195068359375,8.352191925048828,3.4724667072296143,-3.7885704040527344
1763697239888034800,0.742034912109375,8.315528869628906,3.4836766719818115,-3.8582820892333984
1763697239898115800,0.75211572265625,8.268428802490234,3.48689341545105,-3.9553818702697754
1763697239908196900,0.76219677734375,8.199047088623047,3.4718823432922363,-4.109992980957031
1763697239918278100,0.772278076171875,8.144242286682129,3.4075629711151123,-4.269686698913574
1763697239928342500,0.782342529296875,8.138936042785645,3.290212631225586,-4.370652675628662
1763697239938423800,0.792423828125,8.17024040222168,3.140733242034912,-4.421918869018555
1763697239948504800,0.8025048828125,8.223020553588867,2.978076219558716,-4.436595439910889
1763697239958563600,0.8125634765625,8.276300430297852,2.8189151287078857,-4.441502571105957
1763697239968644600,0.82264453125,8.314616203308105,2.6741020679473877,-4.459453582763672
1763697239978726000,0.832725830078125,8.334344863891602,2.5498459339141846,-4.495261192321777
1763697239988804000,0.84280419921875,8.326345443725586,2.4468541145324707,-4.566756725311279
1763697240008966400,0.86296630859375,8.18598747253418,2.3029613494873047,-4.884298324584961
1763697240019678700,0.8736787109375,8.054691314697266,2.25430965423584,-5.119611740112305
1763697240029759700,0.883759765625,7.924348831176758,2.2058379650115967,-5.339415073394775
1763697240039841000,0.893841064453125,7.822158336639404,2.1607375144958496,-5.505945682525635
1763697240049912000,0.903912109375,7.7380900382995605,2.136463165283203,-5.632750988006592
1763697240059993300,0.913993408203125,7.655179500579834,2.142666816711426,-5.742611408233643
1763697240070074400,0.924074462890625,7.569729328155518,2.1794347763061523,-5.841202259063721
1763697240080128500,0.93412841796875,7.486701488494873,2.2392008304595947,-5.925004005432129
1763697240090209800,0.944209716796875,7.415337562561035,2.311798334121704,-5.986546039581299
1763697240100290800,0.954290771484375,7.365517616271973,2.3892295360565186,-6.017568111419678
1763697240110388700,0.964388671875,7.335628032684326,2.46205472946167,-6.024718761444092
1763697240120470000,0.974469970703125,7.319534778594971,2.524660348892212,-6.018378734588623
1763697240130551000,0.984551025390625,7.3045501708984375,2.571737289428711,-6.016652584075928
1763697240140056000,0.99405615234375,7.28286075592041,2.5973689556121826,-6.031915187835693
1763697240150137000,1.00413720703125,7.264511585235596,2.6100151538848877,-6.048560619354248
1763697240160218000,1.014218017578125,7.253411293029785,2.6094086170196533,-6.062127590179443
1763697240170316800,1.02431689453125,7.241717338562012,2.592341899871826,-6.083393573760986
1763697240180398000,1.034398193359375,7.223556995391846,2.561350107192993,-6.118014335632324
1763697240190479000,1.04447900390625,7.202087879180908,2.5256283283233643,-6.158044338226318
1763697240200489200,1.0544892578125,7.173128604888916,2.4992687702178955,-6.20244026184082
1763697240210570500,1.064570556640625,7.134730339050293,2.4927845001220703,-6.2491631507873535
1763697240220651500,1.074651611328125,7.106033802032471,2.5100462436676025,-6.274898052215576
1763697240230788600,1.08478857421875,7.096541404724121,2.5498969554901123,-6.269570350646973
1763697240240870000,1.094869873046875,7.110050201416016,2.6005916595458984,-6.233338356018066
1763697240250951000,1.104950927734375,7.149013996124268,2.647402763366699,-6.168731689453125
1763697240261018000,1.11501806640625,7.192298412322998,2.6862590312957764,-6.101249694824219
1763697240271099100,1.12509912109375,7.211679458618164,2.7214488983154297,-6.062654972076416
1763697240281180200,1.13518017578125,7.206308364868164,2.7538630962371826,-6.0543999671936035
1763697240291259000,1.1452587890625,7.1974592208862305,2.7776808738708496,-6.054043769836426
1763697240301340200,1.155340087890625,7.186110019683838,2.7984066009521484,-6.057980537414551
1763697240311421200,1.165421142578125,7.170673847198486,2.8235323429107666,-6.064610004425049
1763697240321505000,1.175505126953125,7.149142265319824,2.857938528060913,-6.073906898498535
1763697240331586300,1.18558642578125,7.112993240356445,2.9070770740509033,-6.0929975509643555
1763697240341667300,1.195667236328125,7.064144611358643,2.9702439308166504,-6.119304656982422
1763697240351752200,1.205752197265625,7.014887809753418,3.0441014766693115,-6.139640808105469
1763697240361833200,1.215833251953125,6.951905727386475,3.1352813243865967,-6.16533899307251
1763697240371914200,1.225914306640625,6.868137359619141,3.2456469535827637,-6.202004432678223
1763697240381995300,1.235995361328125,6.774388313293457,3.3615434169769287,-6.243242263793945
1763697240392077300,1.246077392578125,6.679022789001465,3.4681077003479004,-6.287549018859863
1763697240402159400,1.256159423828125,6.578385829925537,3.5621085166931152,-6.340867519378662
1763697240412251100,1.266251220703125,6.473716735839844,3.6470110416412354,-6.40005350112915
1763697240422333200,1.276333251953125,6.375362873077393,3.7244138717651367,-6.453982353210449
1763697240432415200,1.286415283203125,6.297232151031494,3.791276693344116,-6.491647243499756
1763697240442428700,1.2964287109375,6.2429280281066895,3.842841863632202,-6.513739585876465
1763697240452511000,1.306510986328125,6.199153900146484,3.8820223808288574,-6.532286643981934
1763697240472709400,1.32670947265625,6.1211161613464355,3.9465160369873047,-6.567140579223633
1763697240482791700,1.336791748046875,6.047824859619141,3.9944310188293457,-6.605961799621582
1763697240492873700,1.346873779296875,5.940367221832275,4.0494704246521,-6.669648170471191
1763697240502968800,1.35696875,5.822263240814209,4.093211650848389,-6.746647357940674
1763697240513051000,1.36705078125,5.726143836975098,4.128692150115967,-6.807023525238037
1763697240523133200,1.37713330078125,5.666757583618164,4.159832000732422,-6.837693214416504
1763697240533156900,1.387156982421875,5.633899688720703,4.175803184509277,-6.855088233947754
1763697240543239000,1.397239013671875,5.617678642272949,4.154314041137695,-6.881405830383301
1763697240553321000,1.407321044921875,5.615913391113281,4.087301254272461,-6.922852039337158
1763697240563432200,1.41743212890625,5.633688449859619,3.983640193939209,-6.96868371963501
1763697240573514200,1.42751416015625,5.678586483001709,3.8562064170837402,-7.003835678100586
1763697240583596500,1.437596435546875,5.733523368835449,3.7183597087860107,-7.033555030822754
1763697240593681400,1.447681396484375,5.7760491371154785,3.5919711589813232,-7.064373970031738
1763697240603763700,1.457763671875,5.801321983337402,3.4930858612060547,-7.093194007873535
1763697240613845800,1.467845703125,5.806093215942383,3.426863670349121,-7.1215362548828125
1763697240623934000,1.477933837890625,5.782427787780762,3.3912296295166016,-7.157756328582764
1763697240634016000,1.48801611328125,5.733266830444336,3.379748821258545,-7.202592372894287
1763697240644098000,1.49809814453125,5.673642158508301,3.3851068019866943,-7.247152328491211
1763697240654169600,1.508169677734375,5.613201141357422,3.3992879390716553,-7.287468910217285
1763697240664251600,1.518251708984375,5.5580549240112305,3.4116456508636475,-7.323871612548828
1763697240674334000,1.528333984375,5.555997848510742,3.386622190475464,-7.337033748626709
1763697240684438300,1.538438232421875,5.543044090270996,3.345787763595581,-7.365511894226074
1763697240694520300,1.548520263671875,5.541764736175537,3.308100461959839,-7.383474349975586
1763697240704602600,1.5586025390625,5.539298057556152,3.27250599861145,-7.401166915893555
1763697240714670800,1.5686708984375,5.528171062469482,3.240936756134033,-7.423343658447266
1763697240724753200,1.578753173828125,5.503261566162109,3.2196567058563232,-7.451060771942139
1763697240734835200,1.588835205078125,5.463815689086914,3.2067270278930664,-7.485587120056152
1763697240744904400,1.598904541015625,5.419106483459473,3.1985368728637695,-7.521504878997803
1763697240754986500,1.608986572265625,5.380411624908447,3.193582534790039,-7.551330089569092
1763697240765068500,1.619068603515625,5.347296714782715,3.187134265899658,-7.577531337738037
1763697240775161300,1.629161376953125,5.319118022918701,3.1765670776367188,-7.601761817932129
1763697240785243400,1.639243408203125,5.296078681945801,3.1611740589141846,-7.624233245849609
1763697240795325700,1.64932568359375,5.276678562164307,3.14253568649292,-7.645359516143799
1763697240805385000,1.659385009765625,5.256682395935059,3.1237690448760986,-7.666794776916504
1763697240815467000,1.669467041015625,5.23500919342041,3.1043989658355713,-7.689459323883057
1763697240825549000,1.679549072265625,5.212790489196777,3.089961290359497,-7.710339546203613
1763697240835642000,1.68964208984375,5.1898040771484375,3.0788183212280273,-7.730278491973877
1763697240845724200,1.69972412109375,5.1642985343933105,3.0694923400878906,-7.751039505004883
1763697240855806200,1.70980615234375,5.130842208862305,3.060840129852295,-7.776638507843018
1763697240865859600,1.719859619140625,5.095096588134766,3.0490188598632812,-7.8047332763671875
1763697240875941600,1.729941650390625,5.064120292663574,3.0531857013702393,-7.823243141174316
1763697240886024000,1.74002392578125,5.0309648513793945,3.0666520595550537,-7.839351177215576
1763697240896150800,1.75015087890625,4.995468616485596,3.081120252609253,-7.856358051300049
1763697240906232800,1.76023291015625,4.954193115234375,3.098783016204834,-7.875525951385498
1763697240916315000,1.77031494140625,4.905348300933838,3.1131157875061035,-7.900408744812012
1763697240926414600,1.78041455078125,4.860010147094727,3.141502618789673,-7.917173862457275
1763697240936496600,1.79049658203125,4.820953369140625,3.1847610473632812,-7.92376708984375
1763697240946578700,1.80057861328125,4.779029369354248,3.228756904602051,-7.9313554763793945
1763697240956601000,1.81060107421875,4.736759185791016,3.263911247253418,-7.942316055297852
1763697240966683100,1.82068310546875,4.688843250274658,3.2877392768859863,-7.960898399353027
1763697240976765200,1.83076513671875,4.636149883270264,3.302110433578491,-7.98577356338501
1763697240986854400,1.8408544921875,4.588390350341797,3.308292865753174,-8.010759353637695
1763697240996936400,1.8509365234375,4.551427841186523,3.302516222000122,-8.034193992614746
1763697241007018800,1.861018798828125,4.514772891998291,3.2888412475585938,-8.060442924499512
1763697241017150500,1.871150390625,4.465150356292725,3.2775588035583496,-8.092616081237793
1763697241027232500,1.881232421875,4.416560649871826,3.273977279663086,-8.120680809020996
1763697241037314600,1.891314453125,4.357611656188965,3.2655766010284424,-8.15583324432373
1763697241047334100,1.901334228515625,4.288829326629639,3.255063056945801,-8.196394920349121
1763697241057416200,1.911416259765625,4.213778018951416,3.2435529232025146,-8.23976993560791
1763697241067498500,1.92149853515625,4.132266044616699,3.2294344902038574,-8.286465644836426
1763697241077542000,1.9315419921875,4.046351432800293,3.2102596759796143,-8.336165428161621
1763697241087624200,1.941624267578125,3.960130453109741,3.18416166305542,-8.387423515319824
1763697241097706200,1.951706298828125,3.86948823928833,3.15285325050354,-8.441383361816406
1763697241107827200,1.9618271484375,3.77543568611145,3.11722469329834,-8.49702262878418
1763697241117909200,1.9719091796875,3.674407958984375,3.0760631561279297,-8.556105613708496
1763697241127991300,1.9819912109375,3.563450574874878,3.040045738220215,-8.615702629089355
1763697241138027300,1.99202734375,3.4414772987365723,3.014333724975586,-8.67412281036377
1763697241148109300,2.002109375,3.3173487186431885,2.9979248046875,-8.728002548217773
1763697241158191600,2.012191650390625,3.197599172592163,2.9870309829711914,-8.776297569274902
1763697241168323300,2.0223232421875,3.0983729362487793,2.982605218887329,-8.813316345214844
1763697241178405600,2.032405517578125,3.0431325435638428,2.9825446605682373,-8.832562446594238
1763697241188487700,2.04248779296875,3.0296106338500977,2.9775683879852295,-8.838888168334961
1763697241198561800,2.052561767578125,3.0275747776031494,2.955542802810669,-8.84697437286377
1763697241208644000,2.06264404296875,3.0075206756591797,2.911911725997925,-8.868256568908691
1763697241218726100,2.07272607421875,2.966090202331543,2.862600088119507,-8.898215293884277
1763697241228779800,2.08277978515625,2.910217761993408,2.8122658729553223,-8.932647705078125
1763697241238861800,2.09286181640625,2.8435757160186768,2.762057065963745,-8.96969985961914
1763697241248944000,2.102944091796875,2.7689199447631836,2.7170917987823486,-9.006712913513184
1763697241259649800,2.11364990234375,2.6829710006713867,2.6731584072113037,-9.045788764953613
1763697241269731800,2.12373193359375,2.6036229133605957,2.627199172973633,-9.082365036010742
1763697241279814000,2.13381396484375,2.5334928035736084,2.5770769119262695,-9.116495132446289
1763697241289867500,2.143867431640625,2.4786155223846436,2.517839193344116,-9.148078918457031
1763697241299949600,2.153949462890625,2.4433767795562744,2.443784236907959,-9.177593231201172
1763697241310032000,2.164031982421875,2.420330762863159,2.3652546405792236,-9.204236030578613
1763697241320117500,2.174117431640625,2.3977601528167725,2.286456346511841,-9.230018615722656
1763697241330199800,2.18419970703125,2.37677001953125,2.200728178024292,-9.25624942779541
1763697241340281900,2.19428173828125,2.3603599071502686,2.1035358905792236,-9.28300666809082
1763697241350377000,2.204376953125,2.3470611572265625,1.994299054145813,-9.31044864654541
1763697241360459000,2.214458984375,2.3315274715423584,1.8767563104629517,-9.338744163513184
1763697241370541300,2.224541259765625,2.2985620498657227,1.753794550895691,-9.370762825012207
1763697241390079500,2.24407958984375,2.1916236877441406,1.502039909362793,-9.439864158630371
1763697241400161800,2.254161865234375,2.1248533725738525,1.3676140308380127,-9.475495338439941
1763697241410276400,2.2642763671875,2.056339979171753,1.231921911239624,-9.509164810180664
1763697241420357600,2.274357666015625,1.9919015169143677,1.0997918844223022,-9.539034843444824
1763697241430439200,2.284439208984375,1.9350956678390503,0.973899245262146,-9.564376831054688
1763697241440538600,2.29453857421875,1.8919888734817505,0.8533479571342468,-9.584495544433594
1763697241450620000,2.304619873046875,1.870097279548645,0.7356106638908386,-9.598542213439941
1763697241460701200,2.314701171875,1.8678799867630005,0.6205205917358398,-9.607099533081055
1763697241470751700,2.324751708984375,1.877057671546936,0.5086051821708679,-9.611886024475098
1763697241480833300,2.334833251953125,1.8955737352371216,0.396807461977005,-9.613517761230469
1763697241490914600,2.34491455078125,1.925491452217102,0.28579655289649963,-9.611513137817383
1763697241500990000,2.354989990234375,1.9666531085968018,0.18062952160835266,-9.605729103088379
1763697241511071200,2.3650712890625,2.0217196941375732,0.08829621225595474,-9.59558391571045
1763697241521152800,2.37515283203125,2.0953516960144043,0.016282929107546806,-9.580167770385742
1763697241531238700,2.38523876953125,2.1891045570373535,-0.035865265876054764,-9.559127807617188
1763697241541320000,2.39531982421875,2.300041913986206,-0.07092979550361633,-9.532846450805664
1763697241551401500,2.4054013671875,2.4266138076782227,-0.09390584379434586,-9.501216888427734
1763697241561478100,2.41547802734375,2.5641281604766846,-0.10589531064033508,-9.464903831481934
1763697241571559400,2.425559326171875,2.701781749725342,-0.10479693114757538,-9.426546096801758
1763697241581641000,2.435640869140625,2.830287456512451,-0.092008575797081,-9.388896942138672
1763697241591730400,2.44573046875,2.944678783416748,-0.074620321393013,-9.353805541992188
1763697241601811700,2.455811767578125,3.046395778656006,-0.06070408225059509,-9.32127571105957
1763697241611893000,2.46589306640625,3.1387884616851807,-0.051999419927597046,-9.290623664855957
1763697241621963000,2.475962890625,3.220205307006836,-0.045186493545770645,-9.262754440307617
1763697241632044500,2.48604443359375,3.29377818107605,-0.041612524539232254,-9.236865997314453
1763697241642125800,2.496125732421875,3.37060809135437,-0.04477293789386749,-9.20909309387207
1763697241652213000,2.506212890625,3.459406852722168,-0.054956160485744476,-9.17604923248291
1763697241662294500,2.51629443359375,3.553715467453003,-0.07259310781955719,-9.139815330505371
1763697241672375800,2.526375732421875,3.6415512561798096,-0.10175681859254837,-9.10489559173584
1763697241682459100,2.536459228515625,3.719480276107788,-0.14405886828899384,-9.07276725769043
1763697241692540700,2.546540771484375,3.786916732788086,-0.1952761560678482,-9.043865203857422
1763697241702622000,2.5566220703125,3.844228982925415,-0.25138163566589355,-9.018264770507812
1763697241712693500,2.566693603515625,3.8889405727386475,-0.31092140078544617,-8.997214317321777
1763697241722774800,2.57677490234375,3.9200005531311035,-0.37513431906700134,-8.98127269744873
1763697241732856000,2.58685595703125,3.940418243408203,-0.4457031488418579,-8.969104766845703
1763697241742933500,2.59693359375,3.948281764984131,-0.5247227549552917,-8.961368560791016
1763697241753015000,2.60701513671875,3.950967311859131,-0.6116563677787781,-8.954670906066895
1763697241763096300,2.617096435546875,3.9558773040771484,-0.7037515044212341,-8.945734024047852
1763697241773186000,2.62718603515625,3.9656689167022705,-0.7973742485046387,-8.9335355758667
1763697241783267300,2.637267333984375,3.9760494232177734,-0.888390064239502,-8.920323371887207
1763697241793348900,2.647348876953125,3.980459690093994,-0.9736358523368835,-8.909453392028809
1763697241803410000,2.657409912109375,3.9725823402404785,-1.0487534999847412,-8.904441833496094
1763697241813491200,2.6674912109375,3.9468023777008057,-1.1109070777893066,-8.908368110656738
1763697241823572500,2.677572509765625,3.9006524085998535,-1.158798098564148,-8.922582626342773
1763697241833674000,2.687674072265625,3.836130142211914,-1.1939514875411987,-8.945892333984375
1763697241843755500,2.697755615234375,3.7581560611724854,-1.2194297313690186,-8.975502014160156
1763697241853836800,2.7078369140625,3.67155385017395,-1.2390096187591553,-9.008604049682617
1763697241863895000,2.71789501953125,3.580115556716919,-1.2550773620605469,-9.04311466217041
1763697241873976600,2.7279765625,3.483548641204834,-1.2669519186019897,-9.079103469848633
1763697241884057900,2.738057861328125,3.3865184783935547,-1.2761574983596802,-9.114455223083496
1763697241894160400,2.748160400390625,3.283611536026001,-1.2816708087921143,-9.151262283325195
1763697241904242000,2.758241943359375,3.175764322280884,-1.2816674709320068,-9.189245223999023
1763697241914323200,2.7683232421875,3.078277111053467,-1.2683185338974,-9.224205017089844
1763697241924384300,2.77838427734375,3.00612211227417,-1.2345067262649536,-9.252546310424805
1763697241934465800,2.7884658203125,2.950669527053833,-1.1828721761703491,-9.277109146118164
1763697241944547000,2.798547119140625,2.906013011932373,-1.1325851678848267,-9.297457695007324
1763697241954623000,2.808623046875,2.864250421524048,-1.1004698276519775,-9.31425952911377
1763697241964704300,2.818704345703125,2.815741539001465,-1.0914934873580933,-9.330092430114746
1763697241974785800,2.828785888671875,2.753837823867798,-1.0998533964157104,-9.34757137298584
1763697241984883200,2.83888330078125,2.6811625957489014,-1.1097787618637085,-9.367504119873047
1763697241994964700,2.84896484375,2.6044058799743652,-1.109697937965393,-9.389143943786621
1763697242005046000,2.8590458984375,2.522015333175659,-1.0991203784942627,-9.412851333618164
1763697242015104000,2.86910400390625,2.429110050201416,-1.0818805694580078,-9.43924617767334
1763697242025185500,2.879185546875,2.3250417709350586,-1.0553059577941895,-9.468416213989258
1763697242035266800,2.889266845703125,2.2187023162841797,-1.0161893367767334,-9.498163223266602
1763697242055438300,2.909438232421875,2.0184006690979004,-0.9155668020248413,-9.5529146194458
1763697242065519900,2.919519775390625,1.9391648769378662,-0.8745976090431213,-9.573144912719727
1763697242075609300,2.929609375,1.8735252618789673,-0.8512075543403625,-9.588313102722168
1763697242085690600,2.939690673828125,1.8066112995147705,-0.8437237739562988,-9.601805686950684
1763697242095772000,2.94977197265625,1.7321159839630127,-0.8387035131454468,-9.615962982177734
1763697242105867300,2.9598671875,1.6536908149719238,-0.8377091884613037,-9.629846572875977
1763697242115948500,2.969948486328125,1.5734663009643555,-0.8454723954200745,-9.642601013183594
1763697242126030000,2.980030029296875,1.4938898086547852,-0.8547280430793762,-9.654436111450195
1763697242136109600,2.990109619140625,1.4077603816986084,-0.8631793856620789,-9.666618347167969
1763697242146190800,3.00019091796875,1.3041683435440063,-0.8654634356498718,-9.68093490600586
1763697242166400300,3.020400146484375,1.0779337882995605,-0.8466268181800842,-9.710389137268066
1763697242176481500,3.0304814453125,0.9895615577697754,-0.8680463433265686,-9.717904090881348
1763697242196630800,3.050630859375,0.878815770149231,-0.9031199812889099,-9.725350379943848
1763697242206712000,3.060712158203125,0.8207021951675415,-0.8818350434303284,-9.732378959655762
1763697242216793600,3.070793701171875,0.7460880875587463,-0.843773603439331,-9.741755485534668
1763697242226791200,3.080791259765625,0.6784707307815552,-0.8035768866539001,-9.750093460083008
1763697242236872400,3.09087255859375,0.6227547526359558,-0.7624929547309875,-9.757109642028809
1763697242246953700,3.10095361328125,0.5709570050239563,-0.7164706587791443,-9.763762474060059
1763697242257049300,3.11104931640625,0.5308486819267273,-0.6731715798377991,-9.769105911254883
1763697242267131000,3.121130859375,0.49253055453300476,-0.6370625495910645,-9.77353286743164
1763697242277212200,3.131212158203125,0.4460636079311371,-0.610024094581604,-9.77748966217041
1763697242287321900,3.14132177734375,0.40321648120880127,-0.6153499484062195,-9.77901554107666
1763697242297403400,3.1514033203125,0.34085750579833984,-0.6634423732757568,-9.778243064880371
1763697242307484700,3.161484619140625,0.27491822838783264,-0.7107871770858765,-9.776992797851562
1763697242317556000,3.171555908203125,0.20982399582862854,-0.7570726275444031,-9.775131225585938
1763697242327637500,3.181637451171875,0.14785942435264587,-0.8001359701156616,-9.772834777832031
1763697242337718800,3.19171875,0.10900356620550156,-0.8263692259788513,-9.771162033081055
1763697242347808300,3.201808349609375,0.09023187309503555,-0.8341559171676636,-9.770691871643066
1763697242357889500,3.2118896484375,0.07790730893611908,-0.8304442763328552,-9.771114349365234
1763697242367971000,3.22197119140625,0.06701314449310303,-0.8229219913482666,-9.771831512451172
1763697242378027800,3.23202783203125,0.04612934589385986,-0.8173553347587585,-9.772420883178711
1763697242388109000,3.242109130859375,-0.005465823691338301,-0.8229915499687195,-9.772054672241211
1763697242398190300,3.2521904296875,-0.08901239931583405,-0.8520063161849976,-9.769163131713867
1763697242408264200,3.26226416015625,-0.20318685472011566,-0.9029421210289001,-9.76287841796875
1763697242428426000,3.282426025390625,-0.4736899435520172,-0.8792389631271362,-9.755661964416504
1763697242438517200,3.292517333984375,-0.5837385058403015,-0.901347279548645,-9.747676849365234
1763697242448598000,3.302597900390625,-0.6821354031562805,-0.9981094598770142,-9.731846809387207
1763697242458679000,3.312678955078125,-0.7768059372901917,-1.1393022537231445,-9.709219932556152
1763697242468761600,3.32276171875,-0.8397127985954285,-1.3058234453201294,-9.68298053741455
1763697242478842400,3.33284228515625,-0.8679781556129456,-1.464339017868042,-9.657780647277832
1763697242488923100,3.342923095703125,-0.8750763535499573,-1.5912854671478271,-9.637035369873047
1763697242499021600,3.353021484375,-0.8666593432426453,-1.6989203691482544,-9.619405746459961
1763697242509102300,3.363102294921875,-0.8720080256462097,-1.821370244026184,-9.596488952636719
1763697242519183000,3.37318310546875,-0.9151220917701721,-1.995133876800537,-9.557844161987305
1763697242529828400,3.383828369140625,-0.9930517673492432,-2.2584729194641113,-9.49123477935791
1763697242539909400,3.393909423828125,-1.0719608068466187,-2.582979679107666,-9.399441719055176
1763697242549990100,3.403990234375,-1.1272945404052734,-2.9614217281341553,-9.280601501464844
1763697242569532200,3.4235322265625,-1.1009536981582642,-3.7411224842071533,-8.997904777526855
1763697242579613000,3.433613037109375,-1.0887888669967651,-4.113913536071777,-8.835192680358887
1763697242590371300,3.444371337890625,-1.0942764282226562,-4.4708099365234375,-8.65937614440918
1763697242600452400,3.454452392578125,-1.0761291980743408,-4.8018598556518555,-8.482598304748535
1763697242610533000,3.464533203125,-1.052894115447998,-5.130529403686523,-8.290925979614258
1763697242630040300,3.484040283203125,-1.0258185863494873,-5.6991682052612305,-7.9143900871276855
1763697242640121000,3.49412109375,-0.9947102665901184,-5.94825553894043,-7.732994079589844
1763697242650213000,3.504213134765625,-0.9540948271751404,-6.162720680236816,-7.568419456481934
1763697242660294000,3.5142939453125,-0.9183238744735718,-6.344635009765625,-7.421097278594971
1763697242670374700,3.524374755859375,-0.9097485542297363,-6.499759197235107,-7.2866926193237305
1763697242680526800,3.53452685546875,-0.9512078166007996,-6.642988204956055,-7.150964260101318
1763697242690607600,3.544607666015625,-1.012007713317871,-6.784992694854736,-7.007859706878662
1763697242700688400,3.5546884765625,-1.0802973508834839,-6.941322326660156,-6.842616081237793
1763697242710686700,3.564686767578125,-1.1464354991912842,-7.115170001983643,-6.650595664978027
1763697242720767500,3.574767578125,-1.2011122703552246,-7.296532154083252,-6.44114351272583
1763697242730848300,3.58484814453125,-1.2533410787582397,-7.475102424621582,-6.2227301597595215
1763697242740943400,3.594943359375,-1.298233151435852,-7.659465789794922,-5.984777927398682
1763697242751024400,3.6050244140625,-1.3396308422088623,-7.8363423347473145,-5.741733551025391
1763697242761105200,3.615105224609375,-1.3775933980941772,-7.995255947113037,-5.50894832611084
1763697242771222300,3.62522216796875,-1.3991576433181763,-8.132855415344238,-5.298056125640869
1763697242781303000,3.635302978515625,-1.4027639627456665,-8.245659828186035,-5.119738578796387
1763697242791383800,3.6453837890625,-1.3881529569625854,-8.337140083312988,-4.973480701446533
1763697242801473800,3.655473876953125,-1.3580243587493896,-8.410543441772461,-4.856841564178467
1763697242811554600,3.665554443359375,-1.3161457777023315,-8.469327926635742,-4.765359401702881
1763697242821635300,3.67563525390625,-1.2757534980773926,-8.514633178710938,-4.695091247558594
1763697242841781200,3.69578125,-1.2442280054092407,-8.58709716796875,-4.569906711578369
1763697242861948200,3.7159482421875,-1.145039677619934,-8.709772109985352,-4.358802318572998
1763697242872029200,3.726029296875,-1.1508917808532715,-8.761797904968262,-4.251674175262451
1763697242882110000,3.73610986328125,-1.1330764293670654,-8.820549011230469,-4.133332252502441
1763697242892193000,3.746193115234375,-1.0902668237686157,-8.887992858886719,-3.998161554336548
1763697242902273800,3.756273681640625,-1.0569220781326294,-8.95888900756836,-3.8459863662719727
1763697242912354800,3.766354736328125,-1.0547730922698975,-9.025015830993652,-3.6887552738189697
1763697242922440400,3.7764404296875,-1.0393692255020142,-9.086737632751465,-3.538543462753296
1763697242932521200,3.786521240234375,-0.9910492897033691,-9.14611530303955,-3.396585702896118
1763697242942602200,3.796602294921875,-0.9264117479324341,-9.2046480178833,-3.25370454788208
1763697242952629800,3.806629638671875,-0.8311910629272461,-9.260248184204102,-3.1188647747039795
1763697242962710500,3.81671044921875,-0.6955403089523315,-9.308653831481934,-3.00592303276062
1763697242972791600,3.82679150390625,-0.5446195602416992,-9.346549034118652,-2.9181876182556152
1763697242982931700,3.836931640625,-0.3994257152080536,-9.373638153076172,-2.854076862335205
1763697242993012500,3.847012451171875,-0.2709004580974579,-9.387202262878418,-2.824434757232666
1763697243003093500,3.857093505859375,-0.1591513752937317,-9.383689880371094,-2.8445451259613037
1763697243013145900,3.867145751953125,-0.061981551349163055,-9.364245414733887,-2.911606550216675
1763697243023226600,3.8772265625,0.036779142916202545,-9.332409858703613,-3.0125014781951904
1763697243033307400,3.887307373046875,0.1499674916267395,-9.293639183044434,-3.1266839504241943
1763697243043403300,3.8974033203125,0.29702314734458923,-9.262331008911133,-3.208022356033325
1763697243053484000,3.907484130859375,0.46804943680763245,-9.249645233154297,-3.2241859436035156
1763697243063564800,3.917564697265625,0.6245006918907166,-9.250638008117676,-3.1946959495544434
1763697243073647400,3.9276474609375,0.7539249062538147,-9.248852729797363,-3.1718602180480957
1763697243083728100,3.93772802734375,0.854758620262146,-9.233560562133789,-3.190789222717285
1763697243093809200,3.94780908203125,0.9315232634544373,-9.20689868927002,-3.2458696365356445
1763697243103878400,3.95787841796875,0.9927492141723633,-9.171387672424316,-3.3272316455841064
1763697243113959200,3.967959228515625,1.0458757877349854,-9.129822731018066,-3.4238686561584473
1763697243124040000,3.9780400390625,1.0902514457702637,-9.088479042053223,-3.518704891204834
1763697243134133000,3.988133056640625,1.132861852645874,-9.05128288269043,-3.600177764892578
1763697243144214000,3.998214111328125,1.1821033954620361,-9.02021598815918,-3.661789894104004
1763697243154294800,4.008294677734375,1.23652184009552,-8.997600555419922,-3.699267864227295
1763697243164371700,4.018371826171875,1.287320852279663,-8.985078811645508,-3.7123513221740723
1763697243174452500,4.028452392578125,1.3301714658737183,-8.98218822479248,-3.704230308532715
1763697243184533500,4.038533447265625,1.365963339805603,-8.987436294555664,-3.678384780883789
1763697243194603800,4.048603759765625,1.3973760604858398,-8.998893737792969,-3.638356924057007
1763697243204684800,4.058684814453125,1.4255149364471436,-9.014204978942871,-3.589205265045166
1763697243214765600,4.068765625,1.4530038833618164,-9.029348373413086,-3.5397794246673584
1763697243224863200,4.07886328125,1.4846384525299072,-9.03738021850586,-3.5059940814971924
1763697243234944000,4.088944091796875,1.522619366645813,-9.033024787902832,-3.500922441482544
1763697243245024800,4.099024658203125,1.564815640449524,-9.019308090209961,-3.5176451206207275
1763697243255092200,4.10909228515625,1.6115909814834595,-9.002888679504395,-3.5385243892669678
1763697243265173000,4.119173095703125,1.665453314781189,-8.989595413208008,-3.5473694801330566
1763697243275254000,4.12925390625,1.704296588897705,-8.994367599487305,-3.516690969467163
1763697243285326300,4.139326416015625,1.7073746919631958,-9.012886047363281,-3.467440605163574
1763697243295407400,4.149407470703125,1.6924933195114136,-9.019964218139648,-3.456312894821167
1763697243305488100,4.159488037109375,1.6917781829833984,-9.013660430908203,-3.4730679988861084
1763697243315600000,4.169599853515625,1.7153581380844116,-9.000679969787598,-3.4950942993164062
1763697243325681000,4.179680908203125,1.7514201402664185,-8.981456756591797,-3.5265209674835205
1763697243335761700,4.18976171875,1.7735861539840698,-8.960416793823242,-3.5687129497528076
1763697243345839600,4.199839599609375,1.7644623517990112,-8.937959671020508,-3.629040241241455
1763697243355920400,4.20992041015625,1.7461339235305786,-8.91673469543457,-3.6896116733551025
1763697243366001200,4.220001220703125,1.7460674047470093,-8.901053428649902,-3.7273154258728027
1763697243376065800,4.230065673828125,1.7721683979034424,-8.889055252075195,-3.7435929775238037
1763697243386146800,4.240146728515625,1.8088380098342896,-8.878779411315918,-3.750436305999756
1763697243396227600,4.2502275390625,1.8208140134811401,-8.875019073486328,-3.753541946411133
1763697243406344700,4.2603447265625,1.7860057353973389,-8.881204605102539,-3.7556324005126953
1763697243416425700,4.27042578125,1.720848560333252,-8.890547752380371,-3.763939380645752
1763697243426506500,4.280506591796875,1.6416717767715454,-8.898651123046875,-3.780121088027954
1763697243436551000,4.290551025390625,1.5450584888458252,-8.903118133544922,-3.8102076053619385
1763697243446632000,4.3006318359375,1.4267053604125977,-8.905077934265137,-3.8515565395355225
1763697243456713000,4.310712890625,1.2871743440628052,-8.912306785583496,-3.8838586807250977
1763697243466784000,4.320783935546875,1.1458537578582764,-8.942365646362305,-3.8589494228363037
1763697243476865000,4.330864990234375,1.033694863319397,-8.996031761169434,-3.7647411823272705
1763697243486946300,4.3409462890625,0.9889708161354065,-9.049788475036621,-3.6460442543029785
1763697243496982000,4.35098193359375,1.0476025342941284,-9.090274810791016,-3.527012586593628
1763697243507063300,4.361063232421875,1.1613719463348389,-9.123444557189941,-3.403580904006958
1763697243517144300,4.371144287109375,1.2522176504135132,-9.156067848205566,-3.2815823554992676
1763697243527266800,4.381266845703125,1.2866743803024292,-9.189982414245605,-3.1716034412384033
1763697243537347800,4.391347900390625,1.2371723651885986,-9.225066184997559,-3.0883562564849854
1763697243547429000,4.40142919921875,1.1490217447280884,-9.257255554199219,-3.0254507064819336
1763697243557482800,4.411482666015625,1.083661437034607,-9.283956527709961,-2.967188596725464
1763697243567563800,4.421563720703125,1.0622915029525757,-9.302205085754395,-2.9173474311828613
1763697243577645000,4.43164501953125,1.0936808586120605,-9.305282592773438,-2.8958516120910645
1763697243587780400,4.4417802734375,1.1685459613800049,-9.2986421585083,-2.8879282474517822
1763697243597861600,4.451861572265625,1.229610800743103,-9.292553901672363,-2.8821659088134766
1763697243607942700,4.461942626953125,1.2337409257888794,-9.291642189025879,-2.883340835571289
1763697243618024700,4.472024658203125,1.1697787046432495,-9.302363395690918,-2.8754212856292725
1763697243628105700,4.482105712890625,1.0757019519805908,-9.327256202697754,-2.8311731815338135
1763697243638187000,4.49218701171875,0.989563524723053,-9.359455108642578,-2.7553131580352783
1763697243648241200,4.5022412109375,0.9266578555107117,-9.384122848510742,-2.6925699710845947
1763697243658322400,4.512322509765625,0.8827983140945435,-9.400696754455566,-2.6491456031799316
1763697243668403500,4.522403564453125,0.8586195111274719,-9.410639762878418,-2.621643304824829
1763697243678512000,4.53251220703125,0.875892162322998,-9.415916442871094,-2.596865653991699
1763697243688593400,4.542593505859375,0.9578461050987244,-9.419144630432129,-2.555901288986206
1763697243698674400,4.55267431640625,1.0805964469909668,-9.420958518981934,-2.4996471405029297
1763697243708753400,4.56275341796875,1.1642565727233887,-9.424477577209473,-2.4482882022857666
1763697243718834700,4.572834716796875,1.1703659296035767,-9.434089660644531,-2.408020257949829
1763697243728916000,4.582916015625,1.1156691312789917,-9.447901725769043,-2.379667282104492
1763697243739594500,4.593594482421875,1.0253983736038208,-9.463513374328613,-2.3581466674804688
1763697243749675800,4.60367578125,0.9381800889968872,-9.477132797241211,-2.3396899700164795
1763697243759756800,4.6137568359375,0.8670864105224609,-9.489741325378418,-2.315894365310669
1763697243769837600,4.623837646484375,0.8103157877922058,-9.503397941589355,-2.2801756858825684
1763697243789999900,4.643999755859375,0.6926065683364868,-9.539013862609863,-2.167466402053833
1763697243800049700,4.654049560546875,0.6195924878120422,-9.561895370483398,-2.087259531021118
1763697243820212000,4.6742119140625,0.5186758637428284,-9.613310813903809,-1.866981863975525
1763697243830311000,4.684310791015625,0.5011053085327148,-9.64016342163086,-1.7281583547592163
1763697243840392000,4.694391845703125,0.49846264719963074,-9.666406631469727,-1.5756003856658936
1763697243850473200,4.70447314453125,0.503857433795929,-9.690698623657227,-1.4166455268859863
1763697243870017000,4.72401708984375,0.4783083498477936,-9.729886054992676,-1.1273550987243652
1763697243880098000,4.73409814453125,0.4390507936477661,-9.745981216430664,-0.9967247247695923
1763697243890190000,4.744190185546875,0.3712198734283447,-9.760644912719727,-0.8731513023376465
1763697243900271000,4.75427099609375,0.28516125679016113,-9.773622512817383,-0.7519142031669617
1763697243910352400,4.764352294921875,0.2140759974718094,-9.783278465270996,-0.6418830752372742
1763697243920454100,4.7744541015625,0.15362870693206787,-9.789716720581055,-0.5552005767822266
1763697243930535200,4.78453515625,0.08313184976577759,-9.79312515258789,-0.508104681968689
1763697243940616400,4.794616455078125,-0.0018902304582297802,-9.793774604797363,-0.5023599863052368
1763697243950657500,4.804657470703125,-0.09658151865005493,-9.792496681213379,-0.5177526473999023
1763697243960738800,4.81473876953125,-0.18898457288742065,-9.791094779968262,-0.5187982320785522
1763697243970819800,4.82481982421875,-0.26822105050086975,-9.790692329406738,-0.4907083511352539
1763697243980934000,4.834933837890625,-0.3361918330192566,-9.791342735290527,-0.432393342256546
1763697243991015000,4.845014892578125,-0.39556798338890076,-9.79263973236084,-0.34366926550865173
1763697244001096200,4.85509619140625,-0.4455075263977051,-9.793848037719727,-0.22901149094104767
1763697244011191300,4.86519140625,-0.4930576980113983,-9.793749809265137,-0.09878259152173996
1763697244021272300,4.875272216796875,-0.540821373462677,-9.791625022888184,0.04437129944562912
1763697244031353600,4.885353515625,-0.5864410996437073,-9.7869234085083,0.20642314851284027
1763697244041415200,4.895415283203125,-0.6365184187889099,-9.778631210327148,0.378928005695343
1763697244051496200,4.90549609375,-0.6814870834350586,-9.765437126159668,0.5849742293357849
1763697244061577500,4.915577392578125,-0.6958732604980469,-9.741472244262695,0.8887474536895752
1763697244071667200,4.925667236328125,-0.7015546560287476,-9.704695701599121,1.223555564880371
1763697244081748500,4.93574853515625,-0.7324510216712952,-9.664793968200684,1.4918632507324219
1763697244091829500,4.94582958984375,-0.775512158870697,-9.632731437683105,1.667169451713562
1763697244101912600,4.95591259765625,-0.8301007747650146,-9.610725402832031,1.765018343925476
1763697244111993900,4.965993896484375,-0.9000370502471924,-9.59357738494873,1.8230738639831543
1763697244122075000,4.976074951171875,-0.9828782081604004,-9.575967788696289,1.87221097946167
1763697244132146400,4.986146484375,-1.0583388805389404,-9.560141563415527,1.9115374088287354
1763697244142227700,4.996227783203125,-1.1049165725708008,-9.550911903381348,1.9312267303466797
1763697244152308700,5.006308837890625,-1.144851803779602,-9.547479629516602,1.9249267578125
1763697244162399000,5.01639892578125,-1.185209035873413,-9.546241760253906,1.9065501689910889
1763697244172480000,5.02647998046875,-1.2193710803985596,-9.544511795043945,1.8936271667480469
1763697244182561300,5.036561279296875,-1.2452890872955322,-9.541778564453125,1.8905302286148071
1763697244192635000,5.046634765625,-1.2631900310516357,-9.538472175598145,1.8953362703323364
1763697244202716200,5.056716064453125,-1.2745740413665771,-9.534428596496582,1.9080196619033813
1763697244212797200,5.066797119140625,-1.282014012336731,-9.529532432556152,1.9273921251296997
1763697244222881500,5.076881591796875,-1.283420205116272,-9.524313926696777,1.952094554901123
1763697244232962600,5.086962646484375,-1.2784513235092163,-9.519394874572754,1.979161262512207
1763697244243043800,5.0970439453125,-1.2694568634033203,-9.515353202819824,2.0042243003845215
1763697244253130800,5.107130859375,-1.2567076683044434,-9.512619018554688,2.025129795074463
1763697244263212000,5.1172119140625,-1.2418023347854614,-9.51120376586914,2.0409085750579834
1763697244273293000,5.12729296875,-1.2219127416610718,-9.511590003967285,2.0510873794555664
1763697244283373800,5.137373779296875,-1.188004970550537,-9.515877723693848,2.0511252880096436
1763697244293455000,5.147455078125,-1.147448182106018,-9.524948120117188,2.0320231914520264
1763697244303536000,5.1575361328125,-1.1126704216003418,-9.5397310256958,1.9813828468322754
1763697244313615400,5.167615478515625,-1.0807561874389648,-9.559083938598633,1.9042775630950928
1763697244323696600,5.177696533203125,-1.0380825996398926,-9.582064628601074,1.8101930618286133
1763697244333777700,5.187777587890625,-0.9589228630065918,-9.60454273223877,1.7330946922302246
1763697244343850000,5.19785009765625,-0.8607220649719238,-9.61343002319336,1.7353672981262207
1763697244353931300,5.20793115234375,-0.778475284576416,-9.61129093170166,1.7853429317474365
1763697244364012300,5.21801220703125,-0.7162554860115051,-9.608222007751465,1.8274126052856445
1763697244374087000,5.2280869140625,-0.6535899639129639,-9.608407020568848,1.8497906923294067
1763697244384168200,5.238168212890625,-0.5706719756126404,-9.611680030822754,1.8601967096328735
1763697244394249200,5.248249267578125,-0.4584674835205078,-9.61744213104248,1.8614490032196045
1763697244404317700,5.258317626953125,-0.31306877732276917,-9.624979019165039,1.852609634399414
1763697244414398700,5.268398681640625,-0.13531287014484406,-9.633131980895996,1.8316240310668945
1763697244424479700,5.278479736328125,0.06565979868173599,-9.640684127807617,1.7953470945358276
1763697244434583300,5.288583251953125,0.27327027916908264,-9.64698600769043,1.7410879135131836
1763697244444664600,5.29866455078125,0.4720272719860077,-9.652522087097168,1.6662534475326538
1763697244454745600,5.30874560546875,0.6612278819084167,-9.657879829406738,1.5679668188095093
1763697244464810000,5.31881005859375,0.8517612814903259,-9.662501335144043,1.4425486326217651
1763697244474891300,5.328891357421875,1.0552617311477661,-9.664034843444824,1.2896679639816284
1763697244484972000,5.338971923828125,1.274451494216919,-9.65957260131836,1.1130245923995972
1763697244495067100,5.349067138671875,1.5079615116119385,-9.646504402160645,0.9172684550285339
1763697244505148200,5.359148193359375,1.7509255409240723,-9.62225341796875,0.7189418077468872
1763697244515229200,5.369229248046875,1.9991481304168701,-9.585302352905273,0.5438674092292786
1763697244525295400,5.37929541015625,2.252509355545044,-9.53550910949707,0.4130985736846924
1763697244535376400,5.38937646484375,2.5169522762298584,-9.47238540649414,0.3305351436138153
1763697244545457400,5.39945751953125,2.7939553260803223,-9.395761489868164,0.2895888388156891
1763697244555559000,5.409558837890625,3.0791542530059814,-9.306396484375,0.28314200043678284
1763697244565640000,5.419639892578125,3.3642239570617676,-9.206570625305176,0.302423894405365
1763697244575721000,5.429720947265625,3.648676872253418,-9.096442222595215,0.33506977558135986
1763697244585801200,5.43980126953125,3.9351887702941895,-8.974804878234863,0.3709014654159546
1763697244595882200,5.44988232421875,4.226298809051514,-8.83993911743164,0.4052903950214386
1763697244605963300,5.45996337890625,4.519717693328857,-8.692008018493652,0.4376645088195801
1763697244616063000,5.47006298828125,4.812685012817383,-8.53205394744873,0.4610000550746918
1763697244626143700,5.480143798828125,5.100862979888916,-8.3626070022583,0.4673066735267639
1763697244636224800,5.490224853515625,5.376512050628662,-8.187967300415039,0.4697844684123993
1763697244646268400,5.500268310546875,5.641152858734131,-8.007364273071289,0.47947049140930176
1763697244656349400,5.510349365234375,5.9032063484191895,-7.815367221832275,0.49253541231155396
1763697244666430500,5.520430419921875,6.1608123779296875,-7.6127753257751465,0.5103175044059753
1763697244676516000,5.53051611328125,6.409451007843018,-7.402567386627197,0.539745569229126
1763697244686597000,5.54059716796875,6.646397590637207,-7.187210559844971,0.5829094648361206
1763697244696678100,5.55067822265625,6.8705525398254395,-6.968661308288574,0.6353335976600647
1763697244706747400,5.560747314453125,7.077207088470459,-6.752256393432617,0.7003970742225647
1763697244716828400,5.570828369140625,7.262696743011475,-6.543405532836914,0.7793993353843689
1763697244726909400,5.580909423828125,7.426133632659912,-6.346982955932617,0.8595041036605835
1763697244737150500,5.591150390625,7.5716328620910645,-6.161731243133545,0.9347895979881287
1763697244747231200,5.601231201171875,7.696419715881348,-5.993601322174072,1.0061079263687134
1763697244757312500,5.6113125,7.805548191070557,-5.837550640106201,1.0801911354064941
1763697244767240000,5.621239990234375,7.899669170379639,-5.695557117462158,1.1516215801239014
1763697244777321000,5.631321044921875,7.981903553009033,-5.564988613128662,1.220859408378601
1763697244787402000,5.641402099609375,8.049768447875977,-5.451598167419434,1.2851800918579102
1763697244797510700,5.6515107421875,8.102903366088867,-5.356625080108643,1.3490432500839233
1763697244807591700,5.661591796875,8.142251968383789,-5.282019138336182,1.4051330089569092
1763697244817672700,5.671672607421875,8.16948127746582,-5.228058815002441,1.4482226371765137
1763697244827745300,5.681745361328125,8.187199592590332,-5.192316055297852,1.4764870405197144
1763697244837826300,5.691826416015625,8.198095321655273,-5.173323154449463,1.482679843902588
1763697244847907000,5.701906982421875,8.203058242797852,-5.170784950256348,1.463965654373169
1763697244858012000,5.712011962890625,8.200831413269043,-5.184502601623535,1.4274755716323853
1763697244868093000,5.722093017578125,8.191210746765137,-5.212636947631836,1.3794448375701904
1763697244878173700,5.732173583984375,8.174980163574219,-5.251080513000488,1.328998327255249
1763697244888254700,5.742254638671875,8.153255462646484,-5.295918941497803,1.2837682962417603
1763697244898323500,5.752323486328125,8.124387741088867,-5.351020812988281,1.2374502420425415
1763697244908404500,5.762404541015625,8.085416793823242,-5.420108795166016,1.1911522150039673
1763697244918485500,5.772485595703125,8.037399291992188,-5.4995198249816895,1.1514662504196167
1763697244928566300,5.782566162109375,7.987684726715088,-5.578648090362549,1.1162303686141968
1763697244938635000,5.792635009765625,7.948678970336914,-5.643048286437988,1.0699961185455322
1763697244948716000,5.802716064453125,7.92685604095459,-5.683255195617676,1.0178146362304688
1763697244958797000,5.812797119140625,7.920387268066406,-5.695921897888184,0.9971531629562378
1763697244968869600,5.82286962890625,7.922482967376709,-5.687722206115723,1.0268728733062744
1763697244978950700,5.83295068359375,7.91773796081543,-5.6847968101501465,1.078376293182373
1763697244989031700,5.84303173828125,7.900818347930908,-5.700618267059326,1.11821448802948
1763697244999105500,5.85310546875,7.878805160522461,-5.726325035095215,1.1419401168823242
1763697245009186600,5.8631865234375,7.85482120513916,-5.755669116973877,1.1594971418380737
1763697245019267600,5.873267578125,7.821248531341553,-5.796704292297363,1.1818114519119263
1763697245029952500,5.883952392578125,7.76854133605957,-5.862558841705322,1.2043873071670532
1763697245040033300,5.894033203125,7.706648826599121,-5.942935943603516,1.2080787420272827
1763697245050114300,5.9041142578125,7.6402459144592285,-6.030285835266113,1.196950078010559
1763697245060173800,5.914173828125,7.5726118087768555,-6.117626190185547,1.183464527130127
1763697245070254800,5.9242548828125,7.505451202392578,-6.2015252113342285,1.1745978593826294
1763697245080336000,5.9343359375,7.437191486358643,-6.283369064331055,1.1738169193267822
1763697245090407700,5.94440771484375,7.361245155334473,-6.3699517250061035,1.185821533203125
1763697245100488700,5.95448876953125,7.27414083480835,-6.464900493621826,1.2092608213424683
1763697245110569700,5.96456982421875,7.174272060394287,-6.571622371673584,1.2304438352584839
1763697245120072400,5.974072509765625,7.063208103179932,-6.689624309539795,1.237096905708313
1763697245130153500,5.984153564453125,6.926051139831543,-6.833307266235352,1.2272417545318604
1763697245140234200,5.994234130859375,6.772703170776367,-6.991043567657471,1.194227695465088
1763697245150386700,6.00438671875,6.6118083000183105,-7.153827667236328,1.1301056146621704
1763697245160467700,6.0144677734375,6.4502644538879395,-7.311397075653076,1.0525898933410645
1763697245170548700,6.024548828125,6.2817254066467285,-7.466070652008057,0.9839270710945129
1763697245180610800,6.03461083984375,6.105219841003418,-7.618131160736084,0.9277654886245728
1763697245190691800,6.04469189453125,5.920454025268555,-7.768208980560303,0.8795119524002075
1763697245200772900,6.05477294921875,5.733287811279297,-7.9115705490112305,0.8407401442527771
1763697245220947200,6.074947265625,5.373956203460693,-8.168485641479492,0.7528856992721558
1763697245231028200,6.0850283203125,5.1846089363098145,-8.295753479003906,0.686072587966919
1763697245241040100,6.0950400390625,4.982670307159424,-8.424454689025879,0.6098681092262268
1763697245251121400,6.105121337890625,4.768544673919678,-8.553226470947266,0.5231424570083618
1763697245261202200,6.1152021484375,4.549829959869385,-8.676504135131836,0.43326881527900696
1763697245271310000,6.12531005859375,4.328188896179199,-8.79298210144043,0.3473268151283264
1763697245281391000,6.13539111328125,4.103970527648926,-8.902721405029297,0.26337873935699463
1763697245291472100,6.14547216796875,3.8800392150878906,-9.004616737365723,0.180439755320549
1763697245301545500,6.15554541015625,3.6628286838531494,-9.096317291259766,0.10534995794296265
1763697245311626500,6.16562646484375,3.4556281566619873,-9.177512168884277,0.04777486249804497
1763697245321707500,6.17570751953125,3.253986120223999,-9.251049995422363,0.004665698390454054
1763697245331775200,6.185775146484375,3.057945728302002,-9.317586898803711,-0.04397738724946976
1763697245341856300,6.195856201171875,2.8706111907958984,-9.376315116882324,-0.12121815234422684
1763697245351937300,6.205937255859375,2.688809871673584,-9.428051948547363,-0.22919142246246338
1763697245362064100,6.216064208984375,2.5063600540161133,-9.474520683288574,-0.3493019640445709
1763697245372145200,6.226145263671875,2.324159622192383,-9.516419410705566,-0.4543336033821106
1763697245382226200,6.23622607421875,2.147531270980835,-9.553688049316406,-0.5343642234802246
1763697245392298200,6.24629833984375,1.982170581817627,-9.586064338684082,-0.5905469655990601
1763697245402379300,6.256379150390625,1.830399751663208,-9.613874435424805,-0.6272502541542053
1763697245422524200,6.276524169921875,1.5570348501205444,-9.65855884552002,-0.6769493222236633
1763697245432605200,6.286605224609375,1.438277244567871,-9.675211906433105,-0.7014408707618713
1763697245442686200,6.296686279296875,1.3349519968032837,-9.68797779083252,-0.7289577722549438
1763697245452776200,6.306776123046875,1.2436209917068481,-9.69692611694336,-0.7703329920768738
1763697245462857200,6.316857177734375,1.1554973125457764,-9.702220916748047,-0.8379390239715576
1763697245472938200,6.326938232421875,1.0655955076217651,-9.70384407043457,-0.9328986406326294
1763697245483015000,6.337014892578125,0.9766923785209656,-9.701719284057617,-1.0455073118209839
1763697245493096200,6.34709619140625,0.8891347646713257,-9.695548057556152,-1.173105239868164
1763697245503177200,6.35717724609375,0.8002510070800781,-9.684195518493652,-1.3214961290359497
1763697245513253000,6.367253173828125,0.7112981081008911,-9.66754150390625,-1.4842801094055176
1763697245523334400,6.37733447265625,0.6269485950469971,-9.649422645568848,-1.6327815055847168
1763697245533415400,6.38741552734375,0.5490706562995911,-9.63424301147461,-1.7465003728866577
1763697245543491600,6.39749169921875,0.47023969888687134,-9.62117862701416,-1.8390698432922363
1763697245553572600,6.407572509765625,0.39092493057250977,-9.610513687133789,-1.9119634628295898
1763697245563654000,6.41765380859375,0.31242403388023376,-9.598807334899902,-1.9838522672653198
1763697245573728000,6.42772802734375,0.2347048968076706,-9.583029747009277,-2.069019317626953
1763697245583809300,6.437809326171875,0.15617232024669647,-9.567492485046387,-2.1468780040740967
1763697245593890300,6.447890380859375,0.08502290397882462,-9.553999900817871,-2.2100350856781006
1763697245603975200,6.45797509765625,0.024312159046530724,-9.54211139678955,-2.2622792720794678
1763697245614056400,6.468056396484375,-0.03133273497223854,-9.533775329589844,-2.2970693111419678
1763697245624137500,6.478137451171875,-0.0856577605009079,-9.530552864074707,-2.309025764465332
1763697245634213400,6.48821337890625,-0.1394045501947403,-9.531196594238281,-2.3037447929382324
1763697245644294400,6.49829443359375,-0.18996305763721466,-9.535588264465332,-2.281852960586548
1763697245654375700,6.508375732421875,-0.23680593073368073,-9.543907165527344,-2.2423534393310547
1763697245664461800,6.5184619140625,-0.27322885394096375,-9.553969383239746,-2.1948580741882324
1763697245674542800,6.52854296875,-0.3007037937641144,-9.565143585205078,-2.141958236694336
1763697245684624100,6.5386240234375,-0.32425200939178467,-9.57821273803711,-2.0792031288146973
1763697245694706200,6.5487060546875,-0.3483426570892334,-9.594067573547363,-2.000722646713257
1763697245704787200,6.558787109375,-0.3722469210624695,-9.613444328308105,-1.900921106338501
1763697245714868500,6.568868408203125,-0.3957560956478119,-9.637113571166992,-1.7719500064849854
1763697245724928500,6.578928466796875,-0.41036108136177063,-9.665665626525879,-1.605277180671692
1763697245735009800,6.589009765625,-0.40804481506347656,-9.696640968322754,-1.4067829847335815
1763697245745090800,6.5990908203125,-0.39587149024009705,-9.724705696105957,-1.2015656232833862
1763697245755188700,6.609188720703125,-0.3898351490497589,-9.746994018554688,-1.0072330236434937
1763697245765270000,6.61927001953125,-0.39752593636512756,-9.763110160827637,-0.8330966234207153
1763697245775351000,6.62935107421875,-0.40940648317337036,-9.774107933044434,-0.6852698922157288
1763697245785482200,6.639482177734375,-0.42078539729118347,-9.781314849853516,-0.5649850964546204
1763697245795563300,6.649563232421875,-0.43222102522850037,-9.785703659057617,-0.47282907366752625
1763697245805644500,6.65964453125,-0.4479966461658478,-9.787851333618164,-0.40948760509490967
1763697245815675400,6.66967529296875,-0.4754161536693573,-9.787951469421387,-0.3746638894081116
1763697245825756700,6.679756591796875,-0.5199873447418213,-9.786238670349121,-0.3599199950695038
1763697245835837700,6.689837646484375,-0.5758627653121948,-9.783456802368164,-0.3503507375717163
1763697245845927700,6.699927734375,-0.6315934658050537,-9.780449867248535,-0.3380441963672638
1763697245856009000,6.710009033203125,-0.6778842806816101,-9.777873039245605,-0.322574257850647
1763697245876126000,6.7301259765625,-0.7457632422447205,-9.77387809753418,-0.29245269298553467
1763697245886207000,6.74020703125,-0.771791398525238,-9.77235221862793,-0.27541929483413696
1763697245896288300,6.750288330078125,-0.7901905179023743,-9.771349906921387,-0.25825434923171997
1763697245906405000,6.760405029296875,-0.8102921843528748,-9.770087242126465,-0.243353009223938
1763697245916486100,6.770486083984375,-0.834510862827301,-9.768373489379883,-0.2299143671989441
1763697245926567400,6.7805673828125,-0.8597133755683899,-9.766489028930664,-0.21670164167881012
1763697245936629800,6.790629638671875,-0.8847393989562988,-9.764561653137207,-0.20240573585033417
1763697245946710800,6.800710693359375,-0.9082881212234497,-9.762715339660645,-0.18651357293128967
1763697245966941000,6.82094091796875,-0.9347185492515564,-9.76069450378418,-0.15981243550777435
1763697245977022200,6.831022216796875,-0.9366359710693359,-9.760635375976562,-0.15195757150650024
1763697245987103200,6.841103271484375,-0.930960476398468,-9.761321067810059,-0.14256076514720917
1763697245997141800,6.851141845703125,-0.914920449256897,-9.763033866882324,-0.12837164103984833
1763697246007222800,6.861222900390625,-0.8854508996009827,-9.765970230102539,-0.11040082573890686
1763697246017304000,6.871303955078125,-0.8450683951377869,-9.769737243652344,-0.09201420843601227
1763697246027330000,6.881330078125,-0.8000972867012024,-9.773666381835938,-0.07532955706119537
1763697246037411000,6.8914111328125,-0.7543612122535706,-9.777406692504883,-0.06025781109929085
1763697246047492400,6.901492431640625,-0.7088906168937683,-9.78089427947998,-0.04447278380393982
1763697246057645800,6.911645751953125,-0.6631459593772888,-9.784172058105469,-0.02485000155866146
1763697246067727000,6.92172705078125,-0.6164556741714478,-9.787256240844727,0.0003703795082401484
1763697246077808000,6.93180810546875,-0.561739444732666,-9.790496826171875,0.03160575404763222
1763697246087847400,6.941847412109375,-0.4896836578845978,-9.794188499450684,0.06677398085594177
1763697246097928400,6.951928466796875,-0.3953428566455841,-9.798145294189453,0.10214364528656006
1763697246108009700,6.962009765625,-0.27723556756973267,-9.801796913146973,0.1352682113647461
1763697246118073900,6.972073974609375,-0.13473005592823029,-9.804350852966309,0.16414359211921692
1763697246128155100,6.982155029296875,0.03213166818022728,-9.804817199707031,0.18685656785964966
1763697246138236200,6.992236083984375,0.22059638798236847,-9.80210018157959,0.20140115916728973
1763697246148374300,7.002374267578125,0.42673924565315247,-9.795214653015137,0.20507106184959412
1763697246158455300,7.012455322265625,0.6426435708999634,-9.783609390258789,0.1958969682455063
1763697246168536600,7.02253662109375,0.86380934715271,-9.766998291015625,0.17306382954120636
1763697246178574300,7.03257421875,1.0838769674301147,-9.745622634887695,0.13573963940143585
1763697246188655400,7.0426552734375,1.299450397491455,-9.719830513000488,0.08191710710525513
1763697246198736600,7.052736572265625,1.5069177150726318,-9.690176010131836,0.008465775288641453
1763697246208838400,7.06283837890625,1.7077581882476807,-9.656449317932129,-0.08328230679035187
1763697246218919700,7.072919677734375,1.901226282119751,-9.61878776550293,-0.18615402281284332
1763697246229000700,7.083000732421875,2.0865352153778076,-9.577515602111816,-0.29654228687286377
1763697246239674000,7.093674072265625,2.275341749191284,-9.529836654663086,-0.4188309907913208
1763697246249755100,7.103755126953125,2.448227882385254,-9.481481552124023,-0.5273240804672241
1763697246259836400,7.11383642578125,2.620192527770996,-9.430610656738281,-0.6071017384529114
1763697246269958100,7.123958251953125,2.797744035720825,-9.376959800720215,-0.6447099447250366
1763697246280039400,7.134039306640625,2.985415458679199,-9.318944931030273,-0.6441580653190613
1763697246290120400,7.144120361328125,3.1832358837127686,-9.254851341247559,-0.6205701231956482
1763697246309587000,7.1635869140625,3.5793161392211914,-9.112129211425781,-0.5727028846740723
1763697246319668000,7.17366796875,3.7875804901123047,-9.028260231018066,-0.5613550543785095
1763697246329799700,7.183799560546875,3.9984846115112305,-8.937407493591309,-0.552503228187561
1763697246339881000,7.193880859375,4.206843852996826,-8.842363357543945,-0.5342812538146973
1763697246349962000,7.2039619140625,4.41041898727417,-8.744406700134277,-0.5039243102073669
1763697246360046000,7.214046142578125,4.608776092529297,-8.6434965133667,-0.4685421586036682
1763697246370127400,7.22412744140625,4.803755760192871,-8.538413047790527,-0.4356822371482849
1763697246380208400,7.23420849609375,4.997619152069092,-8.427801132202148,-0.40786078572273254
1763697246390260700,7.2442607421875,5.189192295074463,-8.312410354614258,-0.3827565610408783
1763697246400341800,7.254341796875,5.378964900970459,-8.192217826843262,-0.35310280323028564
1763697246420538400,7.274538330078125,5.763740062713623,-7.929911136627197,-0.25731411576271057
1763697246430619400,7.284619384765625,5.960770130157471,-7.784491062164307,-0.20323514938354492
1763697246440700700,7.29470068359375,6.157021999359131,-7.63131046295166,-0.15671376883983612
1763697246450794200,7.304794189453125,6.349429607391357,-7.472701549530029,-0.11772939562797546
1763697246460875500,7.31487548828125,6.534901142120361,-7.3115153312683105,-0.08493337780237198
1763697246470956800,7.324956787109375,6.710378170013428,-7.151086807250977,-0.05621945485472679
1763697246481011000,7.335010986328125,6.873262882232666,-6.9948530197143555,-0.025885701179504395
1763697246491092200,7.34509228515625,7.026165962219238,-6.841292381286621,0.009793726727366447
1763697246501173200,7.35517333984375,7.170281410217285,-6.689884185791016,0.054041460156440735
1763697246511218700,7.36521875,7.304687976837158,-6.542172908782959,0.10900946706533432
1763697246521299500,7.375299560546875,7.428852558135986,-6.3995041847229,0.16993902623653412
1763697246531380000,7.3853798828125,7.540035724639893,-6.266061305999756,0.23393122851848602
1763697246541516500,7.3955166015625,7.637207984924316,-6.144330978393555,0.3010685443878174
1763697246551597000,7.40559716796875,7.719273567199707,-6.03719425201416,0.36809492111206055
1763697246561677600,7.415677490234375,7.788958549499512,-5.94277811050415,0.431153267621994
1763697246571752400,7.42575244140625,7.848942756652832,-5.858925819396973,0.4873282313346863
1763697246581833000,7.4358330078125,7.900802135467529,-5.784871578216553,0.5319534540176392
1763697246591913500,7.44591357421875,7.944884777069092,-5.720720291137695,0.5679413080215454
1763697246601995300,7.455995361328125,7.982076644897461,-5.665628433227539,0.5979147553443909
1763697246612076000,7.466075927734375,8.013004302978516,-5.619358539581299,0.6204504370689392
1763697246622156500,7.476156494140625,8.037513732910156,-5.582204341888428,0.638558566570282
1763697246632263200,7.48626318359375,8.055805206298828,-5.553741931915283,0.6560071706771851
1763697246642343700,7.49634375,8.067631721496582,-5.5345964431762695,0.672264814376831
1763697246652424200,7.506424072265625,8.072933197021484,-5.525479793548584,0.6835298538208008
1763697246662461400,7.51646142578125,8.07088851928711,-5.527706146240234,0.6896350383758545
1763697246672542000,7.5265419921875,8.061405181884766,-5.5415263175964355,0.689651608467102
1763697246682622700,7.536622802734375,8.045873641967773,-5.565012454986572,0.6818665862083435
1763697246692687400,7.546687255859375,8.028992652893066,-5.591415882110596,0.6646405458450317
1763697246702767900,7.556767822265625,8.016597747802734,-5.6123809814453125,0.6369792222976685
1763697246712848400,7.566848388671875,8.008633613586426,-5.626540184020996,0.6117396950721741
1763697246722955300,7.576955322265625,8.002527236938477,-5.635495185852051,0.6092128157615662
1763697246733035800,7.587035888671875,7.996987819671631,-5.640558242797852,0.6345767378807068
1763697246743116300,7.5971162109375,7.987208843231201,-5.6499924659729,0.6726539134979248
1763697246753242000,7.6072421875,7.967002868652344,-5.674676895141602,0.7037777304649353
1763697246763323000,7.617322998046875,7.937173366546631,-5.714366912841797,0.719508171081543
1763697246773403400,7.6274033203125,7.906222343444824,-5.7564873695373535,0.7244969010353088
1763697246783463400,7.63746337890625,7.884067058563232,-5.7869768142700195,0.7230226993560791
1763697246793544000,7.6475439453125,7.872303485870361,-5.803656101226807,0.7174873948097229
1763697246803624700,7.657624755859375,7.864139080047607,-5.8154168128967285,0.7117785215377808
1763697246813711400,7.66771142578125,7.852748870849609,-5.8311662673950195,0.7086750864982605
1763697246823791900,7.6777919921875,7.835944175720215,-5.854272842407227,0.7041730284690857
1763697246843930600,7.6979306640625,7.791117191314697,-5.916897773742676,0.6776382923126221
1763697246854011100,7.70801123046875,7.767106533050537,-5.949981689453125,0.663438081741333
1763697246864091600,7.718091552734375,7.740601062774658,-5.984971523284912,0.65848308801651
1763697246874189000,7.72818896484375,7.711058616638184,-6.02236795425415,0.6641178727149963
1763697246884269600,7.73826953125,7.677862167358398,-6.063558578491211,0.6738484501838684
1763697246894350300,7.748350341796875,7.636301040649414,-6.1144280433654785,0.686340868473053
1763697246904464000,7.7584638671875,7.584052085876465,-6.17720890045166,0.7032908797264099
1763697246914544400,7.76854443359375,7.523412227630615,-6.249171733856201,0.7186878323554993
1763697246924625200,7.778625244140625,7.456460952758789,-6.328268527984619,0.724293053150177
1763697246934670800,7.7886708984375,7.384291648864746,-6.412832260131836,0.7198712825775146
1763697246944751400,7.79875146484375,7.3045477867126465,-6.5042877197265625,0.7128850221633911
1763697246954832000,7.808831787109375,7.214710712432861,-6.60406494140625,0.7103877663612366
1763697246964914400,7.81891455078125,7.119344234466553,-6.707393646240234,0.7044045925140381
1763697246974995200,7.8289951171875,7.01904821395874,-6.814077854156494,0.6868016719818115
1763697246985075700,7.83907568359375,6.907050609588623,-6.930912494659424,0.6522981524467468
1763697246995203800,7.849203857421875,6.780754089355469,-7.0589823722839355,0.6020931601524353
1763697247005284400,7.859284423828125,6.646511554718018,-7.190086841583252,0.5449062585830688
1763697247015365000,7.869365234375,6.507604598999023,-7.320215225219727,0.4857235252857208
1763697247025419500,7.87941943359375,6.362827777862549,-7.450066566467285,0.42581042647361755
1763697247035500000,7.8895,6.21012544631958,-7.580996513366699,0.3649972379207611
1763697247045580500,7.89958056640625,6.051807403564453,-7.710573673248291,0.3050841689109802
1763697247055650800,7.90965087890625,5.8902482986450195,-7.836695671081543,0.24811460077762604
1763697247065731300,7.9197314453125,5.724173069000244,-7.9603271484375,0.19346988201141357
1763697247075812000,7.92981201171875,5.553794860839844,-8.081253051757812,0.13826613128185272
1763697247085863700,7.93986376953125,5.379152297973633,-8.199300765991211,0.08107944577932358
1763697247095944400,7.9499443359375,5.1978960037231445,-8.315760612487793,0.01995791681110859
1763697247106025000,7.96002490234375,5.009055137634277,-8.430774688720703,-0.04237164929509163
1763697247116092700,7.9700927734375,4.812516689300537,-8.543996810913086,-0.1009194403886795
1763697247126173400,7.98017333984375,4.611326217651367,-8.653458595275879,-0.15394733846187592
1763697247136254000,7.99025390625,4.411725997924805,-8.755941390991211,-0.2013460397720337
1763697247146414800,8.000414794921875,4.2136054039001465,-8.851937294006348,-0.24311895668506622
1763697247156495600,8.01049560546875,4.013793468475342,-8.943257331848145,-0.2792907953262329
1763697247166576000,8.020576171875,3.8085672855377197,-9.031460762023926,-0.3129149377346039
1763697247176612900,8.03061279296875,3.604285955429077,-9.113779067993164,-0.3442946970462799
1763697247186693400,8.040693359375,3.404399871826172,-9.18925666809082,-0.37151268124580383
1763697247196774000,8.05077392578125,3.2101268768310547,-9.258063316345215,-0.3920920193195343
1763697247206862000,8.060862060546874,3.0217058658599854,-9.320788383483887,-0.4032151401042938
1763697247216942800,8.07094287109375,2.8435163497924805,-9.376684188842773,-0.4032418131828308
1763697247227023400,8.0810234375,2.676469564437866,-9.426202774047852,-0.39191964268684387
1763697247247173000,8.101173095703125,2.3548765182495117,-9.51343822479248,-0.34558430314064026
1763697247257253600,8.111253662109375,2.1950535774230957,-9.55257797241211,-0.31681162118911743
1763697247267334700,8.121334716796875,2.038902759552002,-9.587964057922363,-0.29018324613571167
1763697247277415400,8.13141552734375,1.8875435590744019,-9.619556427001953,-0.2678002417087555
1763697247287496000,8.141495849609376,1.7394671440124512,-9.64795207977295,-0.24830077588558197
1763697247297598000,8.151597900390625,1.5928946733474731,-9.673698425292969,-0.22941742837429047
1763697247307678500,8.161678466796875,1.4500755071640015,-9.696609497070312,-0.20839084684848785
1763697247317759000,8.171759033203125,1.3139538764953613,-9.716521263122559,-0.18196190893650055
1763697247327840000,8.181840087890626,1.1870123147964478,-9.733443260192871,-0.14653567969799042
1763697247337920800,8.191920654296876,1.0700483322143555,-9.747564315795898,-0.10181553661823273
1763697247348001300,8.202001220703124,0.9605027437210083,-9.759361267089844,-0.05190370976924896
1763697247358030800,8.21203076171875,0.8565090894699097,-9.769174575805664,-0.0028859623707830906
1763697247368111400,8.222111328125,0.7556287050247192,-9.777413368225098,0.04013262316584587
1763697247378192000,8.23219189453125,0.6578885316848755,-9.78427505493164,0.0743802860379219
1763697247388301800,8.2423017578125,0.5642984509468079,-9.789898872375488,0.09916485846042633
1763697247398382600,8.252382568359375,0.4781835377216339,-9.79429817199707,0.11601971089839935
1763697247408463000,8.262463134765625,0.3978801965713501,-9.797745704650879,0.1275118738412857
1763697247418546700,8.272546630859376,0.31788402795791626,-9.800564765930176,0.1351465880870819
1763697247428627500,8.28262744140625,0.23548182845115662,-9.802842140197754,0.13869312405586243
1763697247438708000,8.2927080078125,0.15357449650764465,-9.804454803466797,0.13950756192207336
1763697247448772000,8.302772216796875,0.07817279547452927,-9.805339813232422,0.139901265501976
1763697247458852900,8.312852783203125,0.011644802987575531,-9.805635452270508,0.14057312905788422
1763697247468933400,8.322933349609375,-0.048449330031871796,-9.805535316467285,0.13975200057029724
1763697247489105000,8.34310498046875,-0.16547971963882446,-9.804354667663574,0.13280074298381805
1763697247499185400,8.353185302734374,-0.21962134540081024,-9.803293228149414,0.13262546062469482
1763697247509898800,8.363898681640626,-0.2694275975227356,-9.801986694335938,0.13725733757019043
1763697247519979300,8.373979248046876,-0.3070507049560547,-9.800783157348633,0.14410734176635742
1763697247530059800,8.384059814453124,-0.3355805277824402,-9.7997407913208,0.15117911994457245
1763697247549631500,8.403631591796875,-0.36905959248542786,-9.798336029052734,0.16366544365882874
1763697247559712800,8.413712646484376,-0.37680116295814514,-9.79793930053711,0.16970591247081757
1763697247569718300,8.42371826171875,-0.378528356552124,-9.797778129577637,0.175035297870636
1763697247579799600,8.433799560546875,-0.3770953416824341,-9.797735214233398,0.1804446130990982
1763697247589881000,8.443881103515626,-0.37615910172462463,-9.797659873962402,0.18639777600765228
1763697247600025900,8.45402587890625,-0.37918373942375183,-9.797401428222656,0.19376647472381592
1763697247610107400,8.464107421875,-0.3860388398170471,-9.796961784362793,0.20222195982933044
1763697247620188700,8.474188720703125,-0.39461272954940796,-9.796414375305176,0.21196503937244415
1763697247630283800,8.48428369140625,-0.4051043689250946,-9.795753479003906,0.22244064509868622
1763697247640365300,8.494365234375,-0.4182961881160736,-9.79497241973877,0.23221233487129211
1763697247650446800,8.50444677734375,-0.43531906604766846,-9.794058799743652,0.23939228057861328
1763697247660504300,8.51450439453125,-0.4568991959095001,-9.792922973632812,0.24555616080760956
1763697247670585600,8.524585693359375,-0.4817536175251007,-9.791548728942871,0.2527148127555847
1763697247680667100,8.534667236328126,-0.5076879858970642,-9.790002822875977,0.26167911291122437
1763697247690761200,8.54476123046875,-0.5346160531044006,-9.788260459899902,0.2730305790901184
1763697247700842800,8.5548427734375,-0.5628554224967957,-9.786300659179688,0.2861737012863159
1763697247710924000,8.564924072265624,-0.5906340479850769,-9.784260749816895,0.2996484339237213
1763697247720978000,8.57497802734375,-0.6142187714576721,-9.782445907592773,0.3112282454967499
1763697247731059500,8.5850595703125,-0.6346240639686584,-9.780871391296387,0.31968528032302856
1763697247741141000,8.59514111328125,-0.6547217965126038,-9.779352188110352,0.325570672750473
1763697247751234600,8.605234619140624,-0.6757190823554993,-9.77778148651123,0.3297775387763977
1763697247761315800,8.61531591796875,-0.6976260542869568,-9.776177406311035,0.33174508810043335
1763697247771397400,8.6253974609375,-0.7208674550056458,-9.77453899383545,0.33032649755477905
1763697247781458200,8.635458251953125,-0.744356095790863,-9.772850036621094,0.32821133732795715
1763697247791539700,8.645539794921875,-0.7657997608184814,-9.77121639251709,0.3275124430656433
1763697247801621200,8.655621337890626,-0.785349428653717,-9.769643783569336,0.32815009355545044
1763697247811720000,8.665719970703124,-0.8049200177192688,-9.767990112304688,0.32993587851524353
1763697247831883000,8.685883056640625,-0.8399150967597961,-9.76458740234375,0.3431541621685028
1763697247841939000,8.69593896484375,-0.855101466178894,-9.76284122467041,0.3551272451877594
1763697247852020500,8.7060205078125,-0.8718703985214233,-9.760783195495605,0.3705941140651703
1763697247862102000,8.71610205078125,-0.8886098861694336,-9.75859546661377,0.3880533277988434
1763697247872233500,8.7262333984375,-0.903269350528717,-9.756574630737305,0.40462419390678406
1763697247882315000,8.73631494140625,-0.9187350273132324,-9.754524230957031,0.4190206229686737
1763697247892396300,8.746396240234375,-0.9374200701713562,-9.752203941345215,0.43144604563713074
1763697247902408000,8.756407958984376,-0.9585429430007935,-9.749659538269043,0.44240081310272217
1763697247912489500,8.766489501953124,-0.9817249178886414,-9.746864318847656,0.45302000641822815
1763697247922571000,8.776571044921875,-1.0068897008895874,-9.743762969970703,0.4643843173980713
1763697247932690700,8.786690673828126,-1.03316068649292,-9.740397453308105,0.47710010409355164
1763697247942772200,8.796772216796874,-1.0570931434631348,-9.737127304077148,0.49121227860450745
1763697247952853800,8.806853759765625,-1.076775312423706,-9.734204292297363,0.5061704516410828
1763697247962943700,8.81694384765625,-1.0919872522354126,-9.731718063354492,0.5211735963821411
1763697247973025000,8.82702490234375,-1.1016379594802856,-9.729846954345703,0.5356101989746094
1763697247983106600,8.8371064453125,-1.1044896841049194,-9.72876262664795,0.549252450466156
1763697247993205500,8.84720556640625,-1.0988597869873047,-9.728614807128906,0.5629842877388
1763697248003286800,8.857286865234375,-1.0822129249572754,-9.729619026184082,0.5776715278625488
1763697248013368300,8.867368408203125,-1.0531256198883057,-9.731947898864746,0.5920385122299194
1763697248023427800,8.877427734375,-1.011785864830017,-9.735529899597168,0.6050816178321838
1763697248033509400,8.88750927734375,-0.9590032696723938,-9.740023612976074,0.6185752749443054
1763697248043590700,8.897590576171876,-0.8958947658538818,-9.744863510131836,0.6367089748382568
1763697248053656600,8.907656494140625,-0.8217045664787292,-9.749682426452637,0.6624761819839478
1763697248063738000,8.917738037109375,-0.731922447681427,-9.754475593566895,0.6963291168212891
1763697248073819400,8.9278193359375,-0.6208693981170654,-9.759309768676758,0.7353848814964294
1763697248083906300,8.93790625,-0.4851538836956024,-9.763901710510254,0.7754080295562744
1763697248093987600,8.947987548828126,-0.32540029287338257,-9.767529487609863,0.8123220205307007
1763697248104069000,8.958069091796874,-0.1417170614004135,-9.7692232131958,0.8441392779350281
1763697248114142700,8.968142822265625,0.0659717321395874,-9.767836570739746,0.8691489696502686
1763697248124224300,8.978224365234375,0.2942202091217041,-9.762029647827148,0.8868893980979919
1763697248134305800,8.988305908203126,0.5361884832382202,-9.750800132751465,0.8970994353294373
1763697248144402400,8.99840234375,0.7850120067596436,-9.733832359313965,0.8981292247772217
1763697248154484000,9.00848388671875,1.032687783241272,-9.711688995361328,0.8871415257453918
1763697248164565500,9.0185654296875,1.2744663953781128,-9.685524940490723,0.8583254814147949
1763697248174629400,9.02862939453125,1.5098576545715332,-9.65615177154541,0.8058943748474121
1763697248184710700,9.038710693359375,1.7407252788543701,-9.623502731323242,0.7269445657730103
1763697248194792200,9.048792236328126,1.963431477546692,-9.587967872619629,0.6214525699615479
1763697248204860400,9.0588603515625,2.1745195388793945,-9.549825668334961,0.4926103949546814
1763697248214941700,9.068941650390625,2.3736679553985596,-9.508681297302246,0.347950279712677
1763697248225023200,9.079023193359374,2.559626340866089,-9.464595794677734,0.20027343928813934
1763697248235142400,9.089142333984375,2.7338247299194336,-9.417672157287598,0.06354764103889465
1763697248245224000,9.099223876953126,2.9001851081848145,-9.367862701416016,-0.04973752051591873
1763697248255305500,9.109305419921874,3.0679588317871094,-9.313433647155762,-0.13404220342636108
1763697248265374700,9.119374755859376,3.245013475418091,-9.252302169799805,-0.18750426173210144
1763697248275456300,9.129456298828124,3.4342312812805176,-9.1831693649292,-0.21413110196590424
1763697248285537500,9.13953759765625,3.630995035171509,-9.106995582580566,-0.22112677991390228
1763697248295601000,9.149600830078125,3.828843593597412,-9.02574634552002,-0.21508517861366272
1763697248305682400,9.159682373046875,4.025520324707031,-8.940122604370117,-0.19944337010383606
1763697248315764000,9.169763916015626,4.22088098526001,-8.850053787231445,-0.17631316184997559
1763697248325854000,9.17985400390625,4.41531229019165,-8.755216598510742,-0.14692361652851105
1763697248335935500,9.189935546875,4.60750150680542,-8.656123161315918,-0.11335381865501404
1763697248346017000,9.20001708984375,4.795920372009277,-8.553561210632324,-0.07817647606134415
1763697248356087600,9.210087646484375,4.980195045471191,-8.44784927368164,-0.043447382748126984
1763697248366168800,9.2201689453125,5.163778305053711,-8.337006568908691,-0.010219253599643707
1763697248376250400,9.23025048828125,5.349151611328125,-8.219270706176758,0.023674502968788147
1763697248386342400,9.24034228515625,5.53685188293457,-8.093770980834961,0.06725934892892838
1763697248396423700,9.250423583984375,5.726169109344482,-7.960270881652832,0.12434951215982437
1763697248406505200,9.260505126953126,5.9178924560546875,-7.817531585693359,0.18746548891067505
1763697248416559000,9.27055908203125,6.109513759613037,-7.666996002197266,0.2477969229221344
1763697248426640400,9.280640380859374,6.298885345458984,-7.510105609893799,0.30456268787384033
1763697248436722000,9.290721923828125,6.482142448425293,-7.350098609924316,0.3581596314907074
1763697248446787800,9.300787841796875,6.654814720153809,-7.191307067871094,0.4109971523284912
1763697248456869400,9.310869384765626,6.817463397979736,-7.034129619598389,0.4621727466583252
1763697248466951000,9.320950927734375,6.9737725257873535,-6.875957489013672,0.5080296993255615
1763697248477105400,9.33110546875,7.127246856689453,-6.713451862335205,0.5498262047767639
1763697248487187000,9.34118701171875,7.2746663093566895,-6.550017356872559,0.5889714360237122
1763697248497268200,9.351268310546875,7.413483142852783,-6.389095783233643,0.6245887875556946
1763697248507335400,9.36133544921875,7.538164138793945,-6.2382731437683105,0.6560578942298889
1763697248517416700,9.371416748046874,7.645956993103027,-6.102504730224609,0.6849591732025146
1763697248527498200,9.381498291015625,7.737721920013428,-5.982368469238281,0.7136585116386414
1763697248537559000,9.39155908203125,7.815609455108643,-5.876613616943359,0.7429987192153931
1763697248547640000,9.40164013671875,7.883125305175781,-5.781552791595459,0.7748386263847351
1763697248557721000,9.41172119140625,7.943471431732178,-5.694164276123047,0.8050774931907654
1763697248567802000,9.421802001953125,7.9978532791137695,-5.613907814025879,0.8299220204353333
1763697248577824000,9.431823974609374,8.045496940612793,-5.542708396911621,0.8477974534034729
1763697248587905000,9.441905029296874,8.086761474609375,-5.480481147766113,0.859658420085907
1763697248597986000,9.451986083984375,8.121720314025879,-5.426949501037598,0.8696379661560059
1763697248608076300,9.462076171875,8.150285720825195,-5.381733417510986,0.8832669258117676
1763697248618157300,9.4721572265625,8.171455383300781,-5.346656799316406,0.9005334973335266
1763697248628238300,9.48223828125,8.184993743896484,-5.322575569152832,0.9200279116630554
1763697248638339600,9.492339599609375,8.191367149353027,-5.309094429016113,0.9409655332565308
1763697248648420600,9.502420654296875,8.191232681274414,-5.305051803588867,0.9646302461624146
1763697248658501600,9.512501708984376,8.184808731079102,-5.310708522796631,0.9877635836601257
1763697248668586000,9.5225859375,8.172022819519043,-5.32684326171875,1.0065678358078003
1763697248678667000,9.5326669921875,8.152582168579102,-5.354143142700195,1.0192859172821045
1763697248688748000,9.542748046875,8.1264066696167,-5.392729759216309,1.0248686075210571
1763697248698857200,9.552857177734374,8.093215942382812,-5.442388534545898,1.0250113010406494
1763697248708938200,9.562938232421875,8.053839683532715,-5.500735282897949,1.0236974954605103
1763697248719019000,9.57301904296875,8.013209342956543,-5.560484409332275,1.0197495222091675
1763697248729739000,9.583739013671876,7.97905969619751,-5.612679481506348,1.0014113187789917
1763697248739820000,9.593820068359374,7.958001613616943,-5.647780418395996,0.9711729288101196
1763697248749901000,9.603901123046874,7.944058895111084,-5.671466827392578,0.9469852447509766
1763697248759888400,9.613888427734375,7.936622619628906,-5.682256698608398,0.9446499943733215
1763697248769969400,9.623969482421876,7.9321441650390625,-5.685400485992432,0.9631715416908264
1763697248780050400,9.634050537109376,7.922574996948242,-5.695345401763916,0.9829776883125305
1763697248789626000,9.643626220703124,7.905804634094238,-5.716346740722656,0.9960108399391174
1763697248799707000,9.653706787109375,7.884969234466553,-5.742913722991943,1.008259892463684
1763697248819865000,9.673864990234375,7.850510597229004,-5.787075519561768,1.0245095491409302
1763697248840027000,9.69402685546875,7.810628890991211,-5.839593887329102,1.0313128232955933
1763697248850108000,9.70410791015625,7.784129619598389,-5.874342918395996,1.0343180894851685
1763697248870206700,9.724206787109376,7.730226516723633,-5.943979740142822,1.040716528892517
1763697248880287700,9.734287841796874,7.705367565155029,-5.975086688995361,1.046920895576477
1763697248890400800,9.74440087890625,7.681158542633057,-6.005110740661621,1.0530140399932861
1763697248900481800,9.754481689453126,7.657367706298828,-6.034623622894287,1.0575579404830933
1763697248910562800,9.764562744140624,7.633013725280762,-6.064774036407471,1.0611364841461182
1763697248920633600,9.774633544921874,7.606147766113281,-6.097573280334473,1.0660656690597534
1763697248930714600,9.784714599609375,7.572239398956299,-6.138003826141357,1.0754011869430542
1763697248940795400,9.79479541015625,7.531501293182373,-6.186612606048584,1.0829144716262817
1763697248950882300,9.80488232421875,7.489095687866211,-6.239201068878174,1.0752705335617065
1763697248971044000,9.825044189453125,7.399360179901123,-6.355034828186035,1.0165584087371826
1763697248981066200,9.835066162109374,7.346638202667236,-6.421844482421875,0.9783693552017212
1763697248991147300,9.845147216796875,7.287578582763672,-6.4947309494018555,0.9381090402603149
1763697249001228300,9.855228271484375,7.2238287925720215,-6.571500301361084,0.8955832719802856
1763697249011359500,9.865359375,7.15651273727417,-6.650684833526611,0.8503608703613281
1763697249021440500,9.8754404296875,7.085392475128174,-6.7318196296691895,0.8063582181930542
1763697249031521500,9.885521484375,7.006656646728516,-6.818347454071045,0.766340970993042
1763697249041582300,9.895582275390625,6.919781684875488,-6.911059379577637,0.7240573763847351
1763697249051663400,9.905663330078125,6.825493335723877,-7.00925350189209,0.6733480095863342
1763697249061744400,9.915744384765626,6.724483013153076,-7.1114115715026855,0.616077184677124
1763697249071845000,9.92584521484375,6.6177592277526855,-7.2155561447143555,0.558030903339386
1763697249081926100,9.935926025390625,6.503479480743408,-7.322694301605225,0.5032725930213928
1763697249092007200,9.946007080078125,6.379086971282959,-7.434680938720703,0.45072460174560547
1763697249102096100,9.95609619140625,6.248258590698242,-7.548131942749023,0.39414340257644653
1763697249112177200,9.96617724609375,6.1132402420043945,-7.660788536071777,0.33318087458610535
1763697249122258200,9.976258056640624,5.975592613220215,-7.771093845367432,0.2697841227054596
1763697249132336400,9.98633642578125,5.836165904998779,-7.878328800201416,0.20366574823856354
1763697249142417400,9.99641748046875,5.686983585357666,-7.9881463050842285,0.13461710512638092
1763697249152498400,10.00649853515625,5.524369239807129,-8.102315902709961,0.0647958517074585
1763697249162524000,10.01652392578125,5.358148574829102,-8.213441848754883,-0.0037732550408691168
1763697249172605000,10.02660498046875,5.192725658416748,-8.31869888305664,-0.07232392579317093
1763697249182686000,10.03668603515625,5.022217273712158,-8.421902656555176,-0.13883177936077118
1763697249192826600,10.04682666015625,4.839028835296631,-8.527217864990234,-0.2018529772758484
1763697249202907600,10.05690771484375,4.651926517486572,-8.629108428955078,-0.26164257526397705
1763697249212988400,10.066988525390625,4.466093063354492,-8.724811553955078,-0.3194834589958191
1763697249223038500,10.07703857421875,4.278284072875977,-8.816218376159668,-0.3754432797431946
1763697249233119500,10.087119384765625,4.084780216217041,-8.90511417388916,-0.4288339614868164
1763697249243200500,10.097200439453125,3.8928050994873047,-8.988176345825195,-0.47869569063186646
1763697249253301000,10.107301025390624,3.707524299621582,-9.063660621643066,-0.5241249799728394
1763697249263382000,10.117382080078125,3.5288655757904053,-9.132341384887695,-0.5637573599815369
1763697249273463000,10.127463134765625,3.355624198913574,-9.195453643798828,-0.5948201417922974
1763697249283511000,10.137510986328126,3.1909937858581543,-9.252532958984375,-0.6152839064598083
1763697249293592000,10.147592041015624,3.0362164974212646,-9.30394458770752,-0.6232125759124756
1763697249303673000,10.157673095703124,2.88848614692688,-9.351119041442871,-0.6193596720695496
1763697249313777000,10.16777685546875,2.740391969680786,-9.396252632141113,-0.6091582775115967
1763697249323858000,10.17785791015625,2.588759660720825,-9.43982982635498,-0.5986032485961914
1763697249333939000,10.18793896484375,2.435492515563965,-9.481078147888184,-0.5898569226264954
1763697249344029400,10.198029541015625,2.2874929904937744,-9.51855182647705,-0.5787397027015686
1763697249354110200,10.208110107421875,2.149787425994873,-9.551684379577637,-0.5604721307754517
1763697249364191200,10.218191162109376,2.0226190090179443,-9.580920219421387,-0.5341939330101013
1763697249374289400,10.228289306640624,1.9061518907546997,-9.606547355651855,-0.5012152791023254
1763697249384370400,10.238370361328125,1.7995023727416992,-9.628946304321289,-0.46429839730262756
1763697249394451500,10.248451416015625,1.6981717348098755,-9.64900016784668,-0.4282579720020294
1763697249404533200,10.258533203125,1.5985678434371948,-9.667290687561035,-0.39805546402931213
1763697249414614300,10.2686142578125,1.5003809928894043,-9.683964729309082,-0.37426334619522095
1763697249424695000,10.278695068359376,1.4040138721466064,-9.699118614196777,-0.3552995026111603
1763697249434768400,10.288768310546875,1.3089463710784912,-9.713014602661133,-0.3382294476032257
1763697249444849400,10.298849365234375,1.2167843580245972,-9.725589752197266,-0.32053402066230774
1763697249454930400,10.308930419921875,1.130689024925232,-9.736588478088379,-0.30129531025886536
1763697249465010000,10.319010009765625,1.050032377243042,-9.746309280395508,-0.2780081331729889
1763697249475091000,10.329091064453126,0.9716020226478577,-9.755144119262695,-0.252101868391037
1763697249485172000,10.339171875,0.892763078212738,-9.763310432434082,-0.22612649202346802
1763697249495229200,10.349229248046875,0.8161605000495911,-9.770577430725098,-0.20018956065177917
1763697249505310200,10.359310302734375,0.7466676235198975,-9.776650428771973,-0.17309272289276123
1763697249515391200,10.36939111328125,0.6845302581787109,-9.781649589538574,-0.14538390934467316
1763697249525493000,10.379492919921875,0.6263481974601746,-9.78590202331543,-0.11912545561790466
1763697249535574000,10.389573974609375,0.5706043243408203,-9.789546966552734,-0.09789016097784042
1763697249545655000,10.399655029296875,0.5172766447067261,-9.792654991149902,-0.08191344887018204
1763697249555734000,10.409734130859375,0.467343807220459,-9.795273780822754,-0.0678553357720375
1763697249565815000,10.41981494140625,0.42038148641586304,-9.79749584197998,-0.05235215649008751
1763697249575896000,10.42989599609375,0.37676456570625305,-9.79935359954834,-0.033514030277729034
1763697249585992400,10.439992431640626,0.3370405435562134,-9.800847053527832,-0.013008404523134232
1763697249606154200,10.460154296875,0.25764885544776917,-9.803234100341797,0.02433747984468937
1763697249616190500,10.4701904296875,0.21576806902885437,-9.80419635772705,0.039638374000787735
1763697249626271200,10.480271240234375,0.17668963968753815,-9.804899215698242,0.055928245186805725
1763697249636352300,10.490352294921875,0.14334392547607422,-9.8052978515625,0.07730253040790558
1763697249646453000,10.500452880859376,0.11592859774827957,-9.805388450622559,0.10626551508903503
1763697249656534000,10.510533935546874,0.09136197715997696,-9.805238723754883,0.13915178179740906
1763697249666614800,10.52061474609375,0.06470375508069992,-9.80495548248291,0.17043434083461761
1763697249676719900,10.530719970703124,0.03035043552517891,-9.804642677307129,0.1960902214050293
1763697249686800600,10.540800537109375,-0.01454793568700552,-9.804253578186035,0.21628183126449585
1763697249696881700,10.550881591796875,-0.06701647490262985,-9.803611755371094,0.23470985889434814
1763697249707037000,10.561036865234374,-0.12011799216270447,-9.802555084228516,0.256674200296402
1763697249717118000,10.571117919921875,-0.16861891746520996,-9.80116081237793,0.28144773840904236
1763697249727199000,10.581198974609375,-0.21287843585014343,-9.799567222595215,0.3058728575706482
1763697249737166800,10.591166748046875,-0.2534019649028778,-9.797847747802734,0.32917773723602295
1763697249747247600,10.60124755859375,-0.2927910089492798,-9.795904159545898,0.35342326760292053
1763697249757328600,10.61132861328125,-0.3313915431499481,-9.793766975402832,0.3777509927749634
1763697249767411000,10.621410888671875,-0.3691708743572235,-9.791529655456543,0.4000559151172638
1763697249777492000,10.631491943359375,-0.4082881510257721,-9.789233207702637,0.4178435802459717
1763697249787572700,10.64157275390625,-0.44739240407943726,-9.786948204040527,0.43113067746162415
1763697249797632300,10.65163232421875,-0.4829770624637604,-9.784677505493164,0.4440823495388031
1763697249807713300,10.66171337890625,-0.5132623910903931,-9.782276153564453,0.4626297652721405
1763697249817794000,10.6717939453125,-0.5365316867828369,-9.77983283996582,0.48721185326576233
1763697249827918800,10.6819189453125,-0.5531381964683533,-9.7776460647583,0.5119413137435913
1763697249837999900,10.691999755859374,-0.5666755437850952,-9.775808334350586,0.5318300127983093
1763697249848081000,10.702080810546875,-0.5795602798461914,-9.774176597595215,0.5476897954940796
1763697249868257000,10.722257080078125,-0.5977275967597961,-9.771259307861328,0.5793148875236511
1763697249878337800,10.732337890625,-0.6048741936683655,-9.76970100402832,0.5978820323944092
1763697249888418800,10.742418701171875,-0.6154745221138,-9.767853736877441,0.6169406175613403
1763697249898479600,10.752479736328125,-0.6270920634269714,-9.765982627868652,0.6346144080162048
1763697249908560600,10.762560546875,-0.6369746327400208,-9.76420783996582,0.6518251299858093
1763697249918641700,10.7726416015625,-0.6454333066940308,-9.762430191040039,0.6698883175849915
1763697249928729000,10.78272900390625,-0.6558557152748108,-9.760407447814941,0.6889825463294983
1763697249938810000,10.79281005859375,-0.6688411235809326,-9.758162498474121,0.7080374360084534
1763697249948891100,10.80289111328125,-0.6828587055206299,-9.75571060180664,0.728152334690094
1763697249958933200,10.812933349609375,-0.6972560882568359,-9.75281810760498,0.75282883644104
1763697249969014300,10.82301416015625,-0.7106974720954895,-9.749399185180664,0.7839024066925049
1763697249979095000,10.833094970703126,-0.7178758382797241,-9.745933532714844,0.81963711977005
1763697249989800400,10.843800537109376,-0.7149081826210022,-9.742593765258789,0.8609040975570679
1763697249999881500,10.853881591796876,-0.7020764946937561,-9.73978328704834,0.9022750854492188
1763697250009962500,10.86396240234375,-0.68232262134552,-9.737089157104492,0.9454735517501831
1763697250020019500,10.87401953125,-0.6567864418029785,-9.7345609664917,0.9886032342910767
1763697250030100500,10.8841005859375,-0.6227632164955139,-9.732479095458984,1.0302486419677734
1763697250040181500,10.894181396484376,-0.5759860873222351,-9.731253623962402,1.0683239698410034
1763697250050273500,10.9042734375,-0.5128200650215149,-9.731208801269531,1.1004486083984375
1763697250060354600,10.9143544921875,-0.4322110414505005,-9.732378005981445,1.1244544982910156
1763697250070435600,10.924435546875,-0.3340696692466736,-9.734445571899414,1.1398911476135254
1763697250079948500,10.933948486328125,-0.22459496557712555,-9.736746788024902,1.1470465660095215
1763697250090029300,10.944029296875,-0.09265429526567459,-9.738831520080566,1.1475849151611328
1763697250100110300,10.9541103515625,0.0531952865421772,-9.740147590637207,1.1388986110687256
1763697250110190600,10.964190673828124,0.20987704396247864,-9.740543365478516,1.1172140836715698
1763697250120271600,10.974271728515625,0.37448498606681824,-9.740065574645996,1.0776221752166748
1763697250130352400,10.984352294921875,0.5439293384552002,-9.73872184753418,1.0157920122146606
1763697250140426200,10.99442626953125,0.7171439528465271,-9.7361478805542,0.9292528033256531
1763697250150507000,11.004507080078126,0.8946710228919983,-9.731449127197266,0.8178466558456421
1763697250160588000,11.014588134765624,1.0747891664505005,-9.723453521728516,0.6853166222572327
1763697250170681000,11.02468115234375,1.2544782161712646,-9.71107292175293,0.5401184558868408
1763697250180762000,11.03476220703125,1.4280019998550415,-9.694188117980957,0.3923020660877228
1763697250190843100,11.044843017578126,1.5939514636993408,-9.673023223876953,0.2496592104434967
1763697250200909300,11.054909423828125,1.7591426372528076,-9.646788597106934,0.12351084500551224
1763697250210990300,11.064990234375,1.9361294507980347,-9.613588333129883,0.02672790177166462
1763697250221071400,11.0750712890625,2.1303508281707764,-9.572392463684082,-0.03575778752565384
1763697250251311400,11.105311279296876,2.7546143531799316,-9.411079406738281,-0.11861512809991837
1763697250261394000,11.115393798828125,2.9517526626586914,-9.350794792175293,-0.14203323423862457
1763697250271475000,11.125474853515625,3.144320011138916,-9.287432670593262,-0.16502714157104492
1763697250281556000,11.135555908203125,3.338282346725464,-9.219208717346191,-0.18015609681606293
1763697250291639300,11.145639404296874,3.537503480911255,-9.144590377807617,-0.18141771852970123
1763697250301720300,11.15572021484375,3.7421071529388428,-9.063021659851074,-0.16933651268482208
1763697250311801000,11.165801025390625,3.9499459266662598,-8.974737167358398,-0.1496906876564026
1763697250321876200,11.175876220703126,4.159660816192627,-8.879814147949219,-0.12852007150650024
1763697250331957200,11.185957275390624,4.370268821716309,-8.778331756591797,-0.109655000269413
1763697250342038300,11.196038330078125,4.579949378967285,-8.670965194702148,-0.0938655361533165
1763697250352120800,11.206120849609375,4.787393093109131,-8.55831241607666,-0.08094895631074905
1763697250362201900,11.216201904296875,4.990645408630371,-8.441505432128906,-0.06938449293375015
1763697250372283000,11.226282958984376,5.190542697906494,-8.320223808288574,-0.05027122423052788
1763697250382365700,11.23636572265625,5.3931050300598145,-8.190502166748047,-0.02220899425446987
1763697250392446700,11.24644677734375,5.601171016693115,-8.04967212677002,0.005777173209935427
1763697250402527500,11.256527587890625,5.811128616333008,-7.899393081665039,0.027604660019278526
1763697250412609800,11.26660986328125,6.018348693847656,-7.742605686187744,0.04389270767569542
1763697250422690800,11.27669091796875,6.221077919006348,-7.5805864334106445,0.05733641982078552
1763697250432771600,11.286771484375,6.419427871704102,-7.413239002227783,0.07225817441940308
1763697250442848500,11.2968486328125,6.6110687255859375,-7.24263334274292,0.09180150181055069
1763697250452929500,11.306929443359374,6.792218208312988,-7.072535514831543,0.12414396554231644
1763697250463010600,11.317010498046875,6.960933685302734,-6.905457019805908,0.17450514435768127
1763697250473093600,11.32709375,7.117612361907959,-6.741786956787109,0.24143797159194946
1763697250483174400,11.33717431640625,7.261977195739746,-6.58269739151001,0.3196270167827606
1763697250493255400,11.34725537109375,7.3929853439331055,-6.430426597595215,0.40466752648353577
1763697250503323600,11.35732373046875,7.510747909545898,-6.28635835647583,0.4906715452671051
1763697250513404400,11.367404296875,7.616162300109863,-6.151152610778809,0.5725132822990417
1763697250533585000,11.3875849609375,7.793386459350586,-5.909780979156494,0.7127420902252197
1763697250543666000,11.397666015625,7.868917465209961,-5.802424430847168,0.7631487250328064
1763697250553747000,11.407746826171875,7.935702323913574,-5.705528736114502,0.8012167811393738
1763697250563822800,11.41782275390625,7.99335241317749,-5.6205010414123535,0.8286623358726501
1763697250573904000,11.42790380859375,8.042475700378418,-5.547549247741699,0.8447884917259216
1763697250583984600,11.437984619140625,8.082322120666504,-5.487522125244141,0.8564779162406921
1763697250594062000,11.44806201171875,8.113655090332031,-5.43866491317749,0.871726930141449
1763697250604143000,11.45814306640625,8.13705825805664,-5.401193618774414,0.8864375352859497
1763697250614224000,11.468223876953125,8.152044296264648,-5.3767781257629395,0.897113561630249
1763697250624306700,11.478306640625,8.158809661865234,-5.3652238845825195,0.904755175113678
1763697250634387700,11.4883876953125,8.158066749572754,-5.365655899047852,0.9088858366012573
1763697250644468700,11.49846875,8.151445388793945,-5.375918865203857,0.9076476693153381
1763697250654528300,11.5085283203125,8.139372825622559,-5.395771503448486,0.898141622543335
1763697250664609300,11.518609375,8.121308326721191,-5.4259724617004395,0.8795275688171387
1763697250674690000,11.52868994140625,8.096314430236816,-5.4674482345581055,0.8526933193206787
1763697250684798000,11.5387978515625,8.063029289245605,-5.52151346206665,0.81904137134552
1763697250694879000,11.54887890625,8.02226734161377,-5.586413860321045,0.7782050371170044
1763697250704960000,11.5589599609375,7.982443809509277,-5.650208473205566,0.7253447771072388
1763697250715043600,11.569043701171875,7.95410680770874,-5.69815731048584,0.6584672927856445
1763697250725124600,11.57912451171875,7.936634063720703,-5.729107856750488,0.5979551076889038
1763697250735205400,11.589205322265625,7.927946090698242,-5.744006156921387,0.5696062445640564
1763697250745295000,11.599295166015626,7.926948547363281,-5.744055271148682,0.5828433632850647
1763697250755375900,11.6093759765625,7.925055503845215,-5.743018627166748,0.6177574396133423
1763697250765457000,11.619456787109375,7.9143571853637695,-5.75461483001709,0.646325409412384
1763697250775525400,11.629525390625,7.898133754730225,-5.7744574546813965,0.6674671769142151
1763697250785606400,11.6396064453125,7.885598182678223,-5.789030075073242,0.6891127824783325
1763697250795687200,11.649687255859375,7.879236698150635,-5.794626235961914,0.7143674492835999
1763697250815842300,11.66984228515625,7.855697154998779,-5.819868564605713,0.7665095925331116
1763697250825923000,11.679923095703124,7.83112907409668,-5.850491046905518,0.7845703363418579
1763697250836032300,11.6900322265625,7.802731037139893,-5.886651039123535,0.7969369888305664
1763697250846113000,11.700113037109375,7.773466110229492,-5.9242658615112305,0.8041714429855347
1763697250856194000,11.710194091796875,7.742001533508301,-5.964576244354248,0.8097028732299805
1763697250866228000,11.72022802734375,7.70876407623291,-6.006258964538574,0.8186511993408203
1763697250876308700,11.730308837890625,7.67665433883667,-6.044894695281982,0.8358354568481445
1763697250886389800,11.7403896484375,7.644510746002197,-6.081408500671387,0.8650481104850769
1763697250896499000,11.7504990234375,7.605095863342285,-6.1249542236328125,0.9043393731117249
1763697250906579700,11.760579833984375,7.554117679595947,-6.181102275848389,0.94850754737854
1763697250916660700,11.77066064453125,7.495171070098877,-6.246432304382324,0.987358033657074
1763697250926744000,11.780744140625,7.43138313293457,-6.319111347198486,1.0068576335906982
1763697250936824800,11.790824951171874,7.359971046447754,-6.403141975402832,1.0004889965057373
1763697250946905900,11.80090576171875,7.278170585632324,-6.499703884124756,0.9759526252746582
1763697250957053200,11.81105322265625,7.18809175491333,-6.603921413421631,0.9433638453483582
1763697250967134000,11.821134033203125,7.093817234039307,-6.709986686706543,0.9078624248504639
1763697250977214700,11.831214599609375,6.992857933044434,-6.819934844970703,0.871093213558197
1763697250987228000,11.841227783203125,6.8808722496032715,-6.937872886657715,0.8305977582931519
1763697250997309000,11.851308837890626,6.753503322601318,-7.0679779052734375,0.7773558497428894
1763697251007389700,11.8613896484375,6.614987850189209,-7.204385757446289,0.7135462760925293
1763697251027549200,11.881549072265624,6.3119988441467285,-7.482919692993164,0.5787538886070251
1763697251037630000,11.8916298828125,6.149757385253906,-7.621891498565674,0.5075936913490295
1763697251047740700,11.90174072265625,5.980749607086182,-7.75963020324707,0.43492549657821655
1763697251057821400,11.911821533203126,5.805418014526367,-7.89527702331543,0.3634584844112396
1763697251067902500,11.92190234375,5.623205661773682,-8.02901840209961,0.2912219762802124
1763697251077879800,11.9318798828125,5.437920570373535,-8.157926559448242,0.21827274560928345
1763697251087960800,11.9419609375,5.247506618499756,-8.28332233428955,0.14364303648471832
1763697251098041600,11.95204150390625,5.053193092346191,-8.404173851013184,0.07405261695384979
1763697251108191000,11.96219091796875,4.852066516876221,-8.522184371948242,0.01478014700114727
1763697251118271700,11.972271728515626,4.649896144866943,-8.634109497070312,-0.03155743330717087
1763697251128352800,11.982352783203124,4.4484663009643555,-8.73940372467041,-0.06596970558166504
1763697251138423000,11.992423095703124,4.244787693023682,-8.83989143371582,-0.09212981909513474
1763697251148504000,12.002504150390624,4.037952899932861,-8.935975074768066,-0.11687735468149185
1763697251158585000,12.012585205078125,3.8353283405303955,-9.024413108825684,-0.14358797669410706
1763697251168684800,12.022684814453125,3.641918659210205,-9.103681564331055,-0.17260926961898804
1763697251178765600,12.032765625,3.456190586090088,-9.175207138061523,-0.20174585282802582
1763697251188846600,12.0428466796875,3.272073984146118,-9.241808891296387,-0.2300029695034027
1763697251198895400,12.052895263671875,3.0900180339813232,-9.303572654724121,-0.2563669681549072
1763697251208976400,12.062976318359375,2.914205551147461,-9.359306335449219,-0.2849108874797821
1763697251219057200,12.07305712890625,2.743752956390381,-9.4097261428833,-0.31505778431892395
1763697251229729000,12.08372900390625,2.561833620071411,-9.460105895996094,-0.33732643723487854
1763697251239810000,12.09381005859375,2.389641046524048,-9.504903793334961,-0.34177127480506897
1763697251249890800,12.103890869140624,2.223140001296997,-9.54544448852539,-0.3354298174381256
1763697251259975700,12.1139755859375,2.0647225379943848,-9.581177711486816,-0.32915863394737244
1763697251270056400,12.124056396484375,1.9144644737243652,-9.61250114440918,-0.32409369945526123
1763697251280137500,12.134137451171876,1.7714722156524658,-9.640156745910645,-0.3156665861606598
1763697251290217700,12.1442177734375,1.6364896297454834,-9.664484024047852,-0.30007967352867126
1763697251300298800,12.154298828125,1.5117838382720947,-9.685568809509277,-0.273226797580719
1763697251310379500,12.164379638671875,1.3986363410949707,-9.703558921813965,-0.23484256863594055
1763697251319914200,12.173914306640626,1.3011618852615356,-9.718085289001465,-0.19027890264987946
1763697251329995300,12.183995361328124,1.2043507099151611,-9.731427192687988,-0.13876941800117493
1763697251340076000,12.194075927734374,1.1097912788391113,-9.743243217468262,-0.08920380473136902
1763697251350148000,12.204148193359375,1.0159142017364502,-9.75375747680664,-0.050211306661367416
1763697251360229000,12.21422900390625,0.9217374920845032,-9.763206481933594,-0.02421979047358036
1763697251370310000,12.224309814453125,0.8306143879890442,-9.77140998840332,-0.004173182882368565
1763697251380373200,12.234373291015626,0.7475502490997314,-9.778097152709961,0.019503964111208916
1763697251390454300,12.244454345703126,0.6725081205368042,-9.78342056274414,0.052856963127851486
1763697251400535000,12.25453515625,0.6018593907356262,-9.787697792053223,0.09546200186014175
1763697251410646800,12.264646728515626,0.5306345820426941,-9.791279792785645,0.14014217257499695
1763697251420727600,12.2747275390625,0.45620301365852356,-9.794387817382812,0.179541677236557
1763697251430808600,12.28480859375,0.3798074722290039,-9.797036170959473,0.21026930212974548
1763697251440816600,12.294816650390626,0.30675530433654785,-9.799067497253418,0.23357804119586945
1763697251450897700,12.304897705078124,0.23862594366073608,-9.800444602966309,0.2544182538986206
1763697251460978400,12.314978515625,0.17374317348003387,-9.801243782043457,0.27536821365356445
1763697251471106600,12.3251064453125,0.10882385820150375,-9.801555633544922,0.2967442274093628
1763697251481187600,12.3351875,0.04657468944787979,-9.801421165466309,0.3167930245399475
1763697251491268400,12.345268310546874,-0.007430920843034983,-9.800920486450195,0.33509159088134766
1763697251501352200,12.355352294921875,-0.05101265013217926,-9.800146102905273,0.3534297049045563
1763697251511433000,12.365432861328125,-0.08787406235933304,-9.799229621887207,0.3711825907230377
1763697251521514000,12.375513916015626,-0.12310653924942017,-9.798232078552246,0.3871420621871948
1763697251531591400,12.38559130859375,-0.15797922015190125,-9.797207832336426,0.40020042657852173
1763697251551753200,12.405753173828124,-0.22066977620124817,-9.795061111450195,0.4224587082862854
1763697251561833200,12.415833251953124,-0.24856653809547424,-9.793773651123047,0.4365667998790741
1763697251571914000,12.4259140625,-0.2786540389060974,-9.792116165161133,0.45520445704460144
1763697251581995000,12.4359951171875,-0.3114524781703949,-9.790046691894531,0.4778667986392975
1763697251592073700,12.44607373046875,-0.3431089520454407,-9.787872314453125,0.5002299547195435
1763697251602154800,12.45615478515625,-0.3704862892627716,-9.7860107421875,0.5168472528457642
1763697251612235500,12.466235595703125,-0.3920022249221802,-9.784741401672363,0.5249403715133667
1763697251622312700,12.476312744140625,-0.40647202730178833,-9.783940315246582,0.5288267731666565
1763697251632393700,12.486393798828125,-0.41341233253479004,-9.783403396606445,0.5333764553070068
1763697251642474500,12.496474609375,-0.41703909635543823,-9.782729148864746,0.5428341627120972
1763697251652568800,12.50656884765625,-0.4158724248409271,-9.781943321228027,0.5577012300491333
1763697251662649900,12.51664990234375,-0.40808936953544617,-9.78146743774414,0.5716162323951721
1763697251672730600,12.526730712890625,-0.40179675817489624,-9.7813720703125,0.577667772769928
1763697251682808800,12.536808837890625,-0.4015895128250122,-9.781458854675293,0.5763415098190308
1763697251692889600,12.5468896484375,-0.4046827554702759,-9.781386375427246,0.575388491153717
1763697251713044700,12.567044677734375,-0.42342519760131836,-9.780539512634277,0.5763078927993774
1763697251733206500,12.58720654296875,-0.4666616916656494,-9.778377532958984,0.579610288143158
1763697251743291100,12.597291015625,-0.48714184761047363,-9.776778221130371,0.5896523594856262
1763697251753372000,12.607371826171875,-0.5033047795295715,-9.775205612182617,0.6020163297653198
1763697251773542700,12.627542724609375,-0.5403586626052856,-9.771821975708008,0.6244165301322937
1763697251783623700,12.637623779296876,-0.5621224641799927,-9.769918441772461,0.6348961591720581
1763697251793704400,12.647704345703126,-0.5841302871704102,-9.767946243286133,0.6452859044075012
1763697251803774500,12.6577744140625,-0.6066745519638062,-9.765933990478516,0.6548722386360168
1763697251813855500,12.66785546875,-0.6281324028968811,-9.76393985748291,0.6643177270889282
1763697251823936300,12.677936279296874,-0.643378496170044,-9.762171745300293,0.6756076812744141
1763697251834029000,12.688029052734375,-0.6484963297843933,-9.760833740234375,0.6899079084396362
1763697251844110000,12.698110107421876,-0.6432735919952393,-9.759904861450195,0.7077017426490784
1763697251854191000,12.708191162109374,-0.628028392791748,-9.759317398071289,0.7291691899299622
1763697251864242700,12.71824267578125,-0.6029808521270752,-9.758928298950195,0.7550644278526306
1763697251874323700,12.72832373046875,-0.5685507655143738,-9.758530616760254,0.7862632274627686
1763697251884404500,12.738404541015624,-0.5246168971061707,-9.758077621459961,0.8216314911842346
1763697251894508500,12.748508544921876,-0.47001737356185913,-9.757766723632812,0.8575844764709473
1763697251904589300,12.75858935546875,-0.4036036431789398,-9.757699012756348,0.8915079236030579
1763697251914670300,12.76867041015625,-0.32350826263427734,-9.757652282714844,0.9240967631340027
1763697251924758800,12.7787587890625,-0.22823305428028107,-9.757240295410156,0.9563186168670654
1763697251944920600,12.798920654296875,0.0036625948268920183,-9.754067420959473,1.0141749382019043
1763697251954995000,12.808994873046874,0.13573428988456726,-9.750726699829102,1.0369632244110107
1763697251965076000,12.819075927734374,0.2766498923301697,-9.74575424194336,1.0555245876312256
1763697251975156700,12.82915673828125,0.42417043447494507,-9.739058494567871,1.0682709217071533
1763697251985212200,12.839212158203125,0.5761718153953552,-9.730978012084961,1.070734977722168
1763697251995293000,12.84929296875,0.7335381507873535,-9.721744537353516,1.0582951307296753
1763697252005374000,12.8593740234375,0.8967402577400208,-9.711350440979004,1.0275753736495972
1763697252015481000,12.869481201171874,1.066650629043579,-9.699304580688477,0.9778256416320801
1763697252025561900,12.879561767578124,1.2427359819412231,-9.684900283813477,0.9103357195854187
1763697252035643000,12.889642822265625,1.426235318183899,-9.667094230651855,0.8267627358436584
1763697252045720800,12.899720947265624,1.6149570941925049,-9.645108222961426,0.7308835387229919
1763697252055801900,12.9098017578125,1.800925612449646,-9.619355201721191,0.6285455226898193
1763697252065882600,12.919882568359375,1.9778616428375244,-9.590741157531738,0.5254876613616943
1763697252075992300,12.929992431640626,2.1444783210754395,-9.559699058532715,0.42866596579551697
1763697252086073300,12.9400732421875,2.3016164302825928,-9.526450157165527,0.34596794843673706
1763697252096154000,12.950154052734375,2.455899238586426,-9.489981651306152,0.2814036011695862
1763697252106168000,12.96016796875,2.612391471862793,-9.449379920959473,0.2345428466796875
1763697252116249000,12.9702490234375,2.7757720947265625,-9.403485298156738,0.19987653195858002
1763697252126329900,12.980329833984374,2.9458298683166504,-9.352173805236816,0.1711931824684143
1763697252136473600,12.9904736328125,3.1262013912200928,-9.29388427734375,0.14477843046188354
1763697252146554600,13.0005546875,3.3166801929473877,-9.227950096130371,0.12235421687364578
1763697252156635400,13.010635498046875,3.5184857845306396,-9.153088569641113,0.10775479674339294
1763697252166686500,13.0206865234375,3.7265994548797607,-9.070404052734375,0.10304111242294312
1763697252176767200,13.030767333984375,3.935919761657715,-8.98147201538086,0.10988511890172958
1763697252186848300,13.04084814453125,4.14323616027832,-8.887521743774414,0.12620685994625092
1763697252197113900,13.05111376953125,4.352502822875977,-8.786619186401367,0.14640119671821594
1763697252207194600,13.061194580078125,4.556697368621826,-8.68218994140625,0.1626935452222824
1763697252217275600,13.071275634765625,4.761922836303711,-8.571195602416992,0.17051328718662262
1763697252227154200,13.081154296875,4.9658708572387695,-8.454689025878906,0.16958671808242798
1763697252237235000,13.09123486328125,5.177294731140137,-8.326994895935059,0.16485919058322906
1763697252247316000,13.10131591796875,5.392682075500488,-8.18911075592041,0.1668809950351715
1763697252257414000,13.111413818359376,5.611106872558594,-8.04068374633789,0.18241019546985626
1763697252267494700,13.12149462890625,5.828284740447998,-7.883965492248535,0.21115198731422424
1763697252277575700,13.13157568359375,6.0423173904418945,-7.720160961151123,0.24474965035915375
1763697252287616500,13.141616455078125,6.2502312660217285,-7.55173397064209,0.2762224078178406
1763697252297697300,13.151697265625,6.453006744384766,-7.378071308135986,0.30519962310791016
1763697252307778300,13.1617783203125,6.64866828918457,-7.2010498046875,0.332364946603775
1763697252317898800,13.171898681640625,6.835213661193848,-7.022815227508545,0.3609841465950012
1763697252327979800,13.181979736328126,7.009860992431641,-6.846843242645264,0.39111119508743286
1763697252338060500,13.192060546875,7.17302131652832,-6.673652648925781,0.4248690903186798
1763697252348109300,13.202109375,7.323676109313965,-6.505062103271484,0.46725043654441833
1763697252358190000,13.212190185546875,7.4614057540893555,-6.342644691467285,0.518339216709137
1763697252368271000,13.22227099609375,7.585165023803711,-6.189179420471191,0.574222207069397
1763697252378404400,13.232404296875,7.695502281188965,-6.045248031616211,0.6360840201377869
1763697252388485400,13.2424853515625,7.792099475860596,-5.91277551651001,0.7018968462944031
1763697252398566400,13.25256640625,7.8763651847839355,-5.791162490844727,0.7718111872673035
1763697252408643300,13.262643310546874,7.949928283691406,-5.680029392242432,0.8404151797294617
1763697252418724000,13.27272412109375,8.01429271697998,-5.579686641693115,0.8992155194282532
1763697252428805000,13.28280517578125,8.070287704467773,-5.4901018142700195,0.9484823346138
1763697252438852400,13.292852294921875,8.117948532104492,-5.411229133605957,0.9939306974411011
1763697252448933000,13.30293310546875,8.157618522644043,-5.343947410583496,1.0324095487594604
1763697252459014100,13.31301416015625,8.189876556396484,-5.287858486175537,1.0652999877929688
1763697252469072600,13.32307275390625,8.215926170349121,-5.240678310394287,1.0973862409591675
1763697252479153700,13.333153564453125,8.236681938171387,-5.201554298400879,1.1275080442428589
1763697252489234700,13.343234619140626,8.252416610717773,-5.170621871948242,1.1544119119644165
1763697252499938300,13.353938232421875,8.263310432434082,-5.147605895996094,1.1790891885757446
1763697252510019300,13.364019287109375,8.268160820007324,-5.136397361755371,1.1938639879226685
1763697252520100400,13.374100341796876,8.267107963562012,-5.136631965637207,1.2001333236694336
1763697252540253200,13.394253173828124,8.245339393615723,-5.171972274780273,1.1981127262115479
1763697252550334200,13.404334228515625,8.224359512329102,-5.206880569458008,1.1910916566848755
1763697252560434200,13.41443408203125,8.195934295654297,-5.253407955169678,1.1826844215393066
1763697252570515200,13.42451513671875,8.15965747833252,-5.311888694763184,1.172273874282837
1763697252580596000,13.434595947265626,8.11865234375,-5.377573013305664,1.1574019193649292
