time,seconds_elapsed,z,y,x
1763701039878841300,0.04884130859375,0.09024699032306671,0.3182263970375061,-0.11220895498991013
1763701039888800300,0.05880029296875,0.12979276478290558,0.4393664598464966,-0.12545841932296753
1763701039898759400,0.068759521484375,0.13915909826755524,0.5139150023460388,-0.09694422781467438
1763701039908717300,0.07871728515625,0.1288585513830185,0.5371771454811096,-0.0317683070898056
1763701039918676500,0.088676513671875,0.10974478721618652,0.5285865664482117,0.056427862495183945
1763701039928635400,0.098635498046875,0.08618488162755966,0.5181506872177124,0.14532165229320526
1763701039938594300,0.10859423828125,0.055752143263816833,0.5126041173934937,0.22405347228050232
1763701039948552400,0.118552490234375,0.020990656688809395,0.4941311776638031,0.28384414315223694
1763701039958511400,0.128511474609375,-0.01826753467321396,0.5138883590698242,0.32853731513023376
1763701039968470300,0.13847021484375,-0.05020178109407425,0.5476540923118591,0.36467626690864563
1763701039978428400,0.148428466796875,-0.06564731150865555,0.5613390207290649,0.3808451294898987
1763701039988387300,0.15838720703125,-0.07238109409809113,0.5710389614105225,0.3588857352733612
1763701039998346200,0.16834619140625,-0.07465756684541702,0.5488138198852539,0.3052997589111328
1763701040008305400,0.178305419921875,-0.0793948769569397,0.47023656964302063,0.23797373473644257
1763701040018263300,0.18826318359375,-0.08926268666982651,0.3472357988357544,0.17114970088005066
1763701040028222200,0.19822216796875,-0.12500810623168945,0.15527988970279694,0.11608748137950897
1763701040038181400,0.208181396484375,-0.1928872913122177,-0.16180671751499176,0.06258750706911087
1763701040048139300,0.21813916015625,-0.3564658463001251,-0.7392799258232117,0.02534693107008934
1763701040058098400,0.228098388671875,-0.5559259653091431,-1.5118157863616943,0.020027801394462585
1763701040068057300,0.238057373046875,-0.6952982544898987,-1.9034929275512695,-0.006140134762972593
1763701040078015200,0.24801513671875,-0.6939077973365784,-2.0527071952819824,-0.09990230947732925
1763701040087974700,0.257974609375,-0.6027858853340149,-2.251311779022217,-0.21139822900295258
1763701040097933800,0.267933837890625,-0.3906001150608063,-2.3440330028533936,-0.4118567407131195
1763701040107892700,0.277892822265625,-0.1778300404548645,-2.3057215213775635,-0.6103487014770508
1763701040117851000,0.287850830078125,0.048540517687797546,-2.140533447265625,-0.7371636629104614
1763701040127809800,0.297809814453125,0.2520742118358612,-2.011425495147705,-0.7146472334861755
1763701040137768700,0.307768798828125,0.40635886788368225,-1.899103045463562,-0.5789786577224731
1763701040147726800,0.317726806640625,0.4770658016204834,-1.5986268520355225,-0.33029839396476746
1763701040157685800,0.327685791015625,0.439960777759552,-1.2625125646591187,0.04303363338112831
1763701040167644700,0.337644775390625,0.32192012667655945,-1.0639512538909912,0.5457761287689209
1763701040177603800,0.347603759765625,0.178573876619339,-1.041567325592041,1.168088436126709
1763701040187561700,0.357561767578125,0.2762557566165924,-0.8613075613975525,1.5740703344345093
1763701040197520600,0.367520751953125,0.4029489755630493,-0.5839880704879761,1.5832188129425049
1763701040207479800,0.377479736328125,0.34593889117240906,-0.408972829580307,1.2518153190612793
1763701040217437700,0.387437744140625,0.4465688467025757,-0.3258148431777954,0.8371115922927856
1763701040227396600,0.397396728515625,0.551426887512207,-0.4586677551269531,0.5295884609222412
1763701040237355800,0.407355712890625,0.5041986107826233,-0.7189549803733826,0.35548487305641174
1763701040247313700,0.417313720703125,0.44404447078704834,-0.9669432044029236,0.3056442141532898
1763701040257272800,0.42727294921875,0.41766640543937683,-1.1371042728424072,0.4083263874053955
1763701040267231700,0.437231689453125,0.3675001561641693,-1.2113020420074463,0.6396220922470093
1763701040277190700,0.447190673828125,0.31661245226860046,-1.175761342048645,0.9158927798271179
1763701040287148800,0.457148681640625,0.2640214264392853,-1.3637795448303223,1.1231253147125244
1763701040297107700,0.467107666015625,0.2508339583873749,-1.150722861289978,1.3164764642715454
1763701040307066600,0.477066650390625,0.18125145137310028,-0.9699597358703613,1.5168492794036865
1763701040317024800,0.487024658203125,0.17544735968112946,-0.8553594350814819,1.661413311958313
1763701040326983700,0.496983642578125,0.10265649110078812,-0.686274528503418,1.6956043243408203
1763701040336942600,0.506942626953125,0.10899880528450012,-0.6233040690422058,1.6086318492889404
1763701040346900700,0.516900634765625,0.09350001811981201,-0.6015942692756653,1.3825328350067139
1763701040356859600,0.526859619140625,0.08624103665351868,-0.621494472026825,1.0224113464355469
1763701040366818600,0.536818603515625,0.005990949459373951,-0.7808319330215454,0.6535935401916504
1763701040376777700,0.54677783203125,-0.011076184920966625,-1.0504580736160278,0.2638694941997528
1763701040386735600,0.556735595703125,0.052162449806928635,-1.0266482830047607,-0.052144549787044525
1763701040396694800,0.56669482421875,0.12538179755210876,-0.8493643403053284,-0.22239111363887787
1763701040406653700,0.57665380859375,0.22894997894763947,-0.6618181467056274,-0.30004021525382996
1763701040416611600,0.586611572265625,0.2592167854309082,-0.5110694169998169,-0.2848663330078125
1763701040426570800,0.59657080078125,0.22642268240451813,-0.5459980964660645,-0.2606026828289032
1763701040436529700,0.60652978515625,0.1672925055027008,-0.6939505338668823,-0.2710265517234802
1763701040446488600,0.616488525390625,0.1249421164393425,-0.8872254490852356,-0.32449498772621155
1763701040456446700,0.62644677734375,0.10783343762159348,-1.0823384523391724,-0.40679970383644104
1763701040466405600,0.636405517578125,0.12983888387680054,-1.2564765214920044,-0.5161198377609253
1763701040476364500,0.646364501953125,0.1667657345533371,-1.388024926185608,-0.6234334707260132
1763701040486322700,0.65632275390625,0.21589457988739014,-1.3362928628921509,-0.6974360346794128
1763701040496281600,0.666281494140625,0.29996925592422485,-1.2316453456878662,-0.6576406359672546
1763701040506240500,0.676240478515625,0.3195543885231018,-1.0468661785125732,-0.648100733757019
1763701040516198700,0.68619873046875,0.3010576665401459,-0.7832161784172058,-0.6333723664283752
1763701040526157600,0.696157470703125,0.20839762687683105,-0.5735307335853577,-0.5465431213378906
1763701040536116500,0.706116455078125,0.08043114095926285,-0.3752354681491852,-0.4181409180164337
1763701040546075600,0.71607568359375,-0.08099537342786789,-0.14876362681388855,-0.2849981486797333
1763701040556033500,0.726033447265625,-0.23238036036491394,0.1520651876926422,-0.19697588682174683
1763701040565992700,0.73599267578125,-0.25076091289520264,0.0766870379447937,0.02557048574090004
1763701040575951600,0.74595166015625,-0.20447173714637756,0.029937904328107834,0.2611236274242401
1763701040585909500,0.755909423828125,-0.22737014293670654,0.3908340632915497,0.284562885761261
1763701040595868700,0.76586865234375,-0.12656550109386444,0.5255112051963806,0.32349297404289246
1763701040605827600,0.77582763671875,-0.09653729200363159,0.6296309232711792,0.3158092498779297
1763701040615785500,0.785785400390625,-0.07221277058124542,0.7533257007598877,0.2744450271129608
1763701040625744600,0.79574462890625,-0.01157396100461483,0.7869670987129211,0.237590491771698
1763701040635703600,0.80570361328125,0.06231304630637169,0.7463197708129883,0.18852467834949493
1763701040645662700,0.815662841796875,0.13001328706741333,0.6419376730918884,0.11124212294816971
1763701040655620600,0.82562060546875,0.1773405820131302,0.4736999273300171,0.03382030501961708
1763701040665579500,0.83557958984375,0.19533686339855194,0.259030818939209,-0.016196373850107193
1763701040675538700,0.84553857421875,0.18212732672691345,0.08828862011432648,-0.03488564118742943
1763701040685496600,0.85549658203125,0.1819327026605606,-0.005480817519128323,-0.015854857861995697
1763701040695455500,0.86545556640625,0.196471706032753,-0.025020960718393326,0.02071034349501133
1763701040705414700,0.87541455078125,0.19671529531478882,-0.003845013678073883,0.05022553354501724
1763701040715373800,0.885373779296875,0.18277552723884583,0.02609078213572502,0.05375182628631592
1763701040725331700,0.895331787109375,0.14542977511882782,0.046537697315216064,0.02833593264222145
1763701040735291000,0.905290771484375,0.12781935930252075,0.056717097759246826,-0.005148790776729584
1763701040745249800,0.915249755859375,0.13174115121364594,0.07794860005378723,-0.01655152253806591
1763701040755207700,0.925207763671875,0.14854009449481964,0.1374681144952774,-0.009949546307325363
1763701040765166800,0.935166748046875,0.16379417479038239,0.19990165531635284,-0.005739365704357624
1763701040775125800,0.945125732421875,0.1584864854812622,0.2327573448419571,-0.011569024994969368
1763701040785083600,0.955083740234375,0.1322210729122162,0.21493783593177795,-0.018168214708566666
1763701040795042800,0.965042724609375,0.12043126672506332,0.16598093509674072,-0.02006438374519348
1763701040805001700,0.975001708984375,0.12919703125953674,0.14365996420383453,-0.012577824294567108
1763701040814960600,0.984960693359375,0.1398608535528183,0.17705361545085907,0.002597666811197996
1763701040824918800,0.994918701171875,0.1453048139810562,0.2670823633670807,0.02341403439640999
1763701040834877700,1.004877685546875,0.15130038559436798,0.32135334610939026,0.02335970476269722
1763701040844836600,1.014836669921875,0.12920688092708588,0.29335808753967285,-0.0031118839979171753
1763701040854794800,1.024794677734375,0.08772335201501846,0.1794419288635254,-0.0484657809138298
1763701040864753700,1.034753662109375,0.06637595593929291,0.009153052233159542,-0.0792551040649414
1763701040874712800,1.044712890625,0.06956562399864197,-0.13611945509910583,-0.10166320949792862
1763701040884670700,1.054670654296875,0.087342269718647,-0.21637199819087982,-0.10640764981508255
1763701040894629600,1.064629638671875,0.1335582286119461,-0.18955981731414795,-0.0991462767124176
1763701040904588800,1.0745888671875,0.17536848783493042,-0.05434948951005936,-0.08851970732212067
1763701040914547700,1.084547607421875,0.17370055615901947,0.16929425299167633,-0.05002770945429802
1763701040924505600,1.094505615234375,0.1388738751411438,0.39675429463386536,0.009784345515072346
1763701040934464800,1.10446484375,0.08609775453805923,0.5536445379257202,0.05426659435033798
1763701040944423700,1.114423583984375,0.038568079471588135,0.6497684121131897,0.06457594037055969
1763701040954381800,1.1243818359375,0.03281085938215256,0.7323974967002869,0.05544528737664223
1763701040964340700,1.1343408203125,0.04631117358803749,0.8074486255645752,0.034938711673021317
1763701040974299600,1.144299560546875,0.07122424244880676,0.8750580549240112,-0.0006610946729779243
1763701040984258600,1.154258544921875,0.0970853939652443,0.9081976413726807,-0.05315878614783287
1763701040994216700,1.164216796875,0.0915854349732399,0.8636570572853088,-0.11068013310432434
1763701041004175600,1.174175537109375,0.07919613271951675,0.7499158382415771,-0.1621270775794983
1763701041014134500,1.184134521484375,0.07059678435325623,0.599068820476532,-0.19644670188426971
1763701041024092700,1.1940927734375,0.09157433360815048,0.43278491497039795,-0.21685495972633362
1763701041034051600,1.204051513671875,0.15590111911296844,0.26542866230010986,-0.24283063411712646
1763701041044010800,1.2140107421875,0.21597826480865479,0.10614507645368576,-0.28540629148483276
1763701041053968600,1.22396875,0.2574905455112457,-0.046867914497852325,-0.3383174538612366
1763701041063927600,1.233927490234375,0.2703586220741272,-0.20091040432453156,-0.39006954431533813
1763701041073886700,1.24388671875,0.265779584646225,-0.3442246913909912,-0.42403310537338257
1763701041083845400,1.253845458984375,0.24628344178199768,-0.4459090530872345,-0.4348815381526947
1763701041093803500,1.263803466796875,0.22114452719688416,-0.518531858921051,-0.422717809677124
1763701041103762400,1.273762451171875,0.1967981457710266,-0.5409838557243347,-0.3836197853088379
1763701041113721300,1.283721435546875,0.18097524344921112,-0.5588355660438538,-0.23523645102977753
1763701041123679500,1.293679443359375,0.1742422729730606,-0.5058853030204773,-0.1225527971982956
1763701041133638400,1.303638427734375,0.1571575552225113,-0.3835236728191376,-0.08697322756052017
1763701041143597300,1.313597412109375,0.13192087411880493,-0.29029279947280884,-0.07233381271362305
1763701041153555500,1.323555419921875,0.1044253408908844,-0.23399542272090912,-0.08637452870607376
1763701041163514400,1.333514404296875,0.0991799384355545,-0.22416511178016663,-0.11901315301656723
1763701041173473300,1.343473388671875,0.11438339203596115,-0.24702169001102448,-0.15264834463596344
1763701041183432400,1.353432373046875,0.1438601166009903,-0.2859363853931427,-0.16972827911376953
1763701041193390300,1.363390380859375,0.18074676394462585,-0.30883079767227173,-0.17242179811000824
1763701041203349200,1.373349365234375,0.2015356421470642,-0.31469959020614624,-0.1740412712097168
1763701041213308400,1.383308349609375,0.19463033974170685,-0.3017001748085022,-0.17059461772441864
1763701041223266300,1.393266357421875,0.16507622599601746,-0.30319613218307495,-0.15953733026981354
1763701041233225500,1.4032255859375,0.1164674162864685,-0.32368171215057373,-0.1459229737520218
1763701041243184400,1.413184326171875,0.06527211517095566,-0.36642327904701233,-0.1245630756020546
1763701041253142300,1.423142333984375,0.03346331790089607,-0.39746373891830444,-0.09257026016712189
1763701041263101400,1.433101318359375,0.028476454317569733,-0.3614845871925354,-0.04374421760439873
1763701041273060400,1.443060302734375,0.029202699661254883,-0.22907650470733643,0.030632274225354195
1763701041283019300,1.453019287109375,0.02582668513059616,-0.04607000574469566,0.11891642957925797
1763701041292977400,1.462977294921875,0.01798234134912491,0.1555882841348648,0.18911603093147278
1763701041302936300,1.472936279296875,-0.009797084145247936,0.34365910291671753,0.20762258768081665
1763701041312895200,1.482895263671875,-0.059398993849754333,0.4782390296459198,0.18574684858322144
1763701041322853400,1.492853271484375,-0.11525770276784897,0.5501680374145508,0.15039590001106262
1763701041332812300,1.502812255859375,-0.158990278840065,0.568301260471344,0.12931537628173828
1763701041342771200,1.512771240234375,-0.17488299310207367,0.5358434915542603,0.12188093364238739
1763701041352730400,1.52273046875,-0.15579798817634583,0.5125988721847534,0.11937250196933746
1763701041362688300,1.532688232421875,-0.11672088503837585,0.5575307011604309,0.11144959181547165
1763701041372647200,1.542647216796875,-0.07304663956165314,0.5314983129501343,0.14688241481781006
1763701041382606300,1.5526064453125,-0.321370393037796,1.0879215002059937,0.04652223736047745
1763701041392564200,1.562564208984375,-0.47790566086769104,1.604045033454895,0.0754910409450531
1763701041402523400,1.5725234375,-0.5059740543365479,2.038090467453003,0.23123815655708313
1763701041412482300,1.582482421875,-0.5821782946586609,2.5889058113098145,0.25052663683891296
1763701041422440200,1.592440185546875,-0.709343671798706,2.1175169944763184,0.5340023040771484
1763701041432399400,1.6023994140625,-0.8714889287948608,1.6962506771087646,0.5248287916183472
1763701041442358300,1.612358154296875,-0.9755554795265198,1.559657096862793,0.5940009355545044
1763701041452317200,1.622317138671875,-1.0676376819610596,1.7596240043640137,0.5673375725746155
1763701041462275300,1.632275390625,-1.1668460369110107,1.9009872674942017,0.49195268750190735
1763701041472234200,1.642234130859375,-1.2237513065338135,2.0425310134887695,0.4244074821472168
1763701041482193200,1.652193115234375,-1.2807222604751587,2.3294970989227295,0.43109655380249023
1763701041492151300,1.6621513671875,-1.3360539674758911,2.730576753616333,0.47790321707725525
1763701041502110200,1.672110107421875,-1.2670420408248901,0.329838365316391,0.4599187672138214
1763701041512069000,1.682069091796875,-1.079200267791748,1.2603076696395874,0.40200379490852356
1763701041522027300,1.69202734375,-0.9613916277885437,0.7061321139335632,0.47294798493385315
1763701041531986200,1.701986083984375,-0.8009023666381836,0.7738370895385742,0.3225819170475006
1763701041541945300,1.7119453125,-0.6609815359115601,1.3553860187530518,0.04347160831093788
1763701041551904300,1.721904296875,-0.5768581628799438,1.3266608715057373,-0.2434464395046234
1763701041561862100,1.731862060546875,-0.5390092730522156,0.4288099706172943,-0.7559466361999512
1763701041571821300,1.7418212890625,-0.43697771430015564,-0.5378288626670837,-1.3105818033218384
1763701041581780200,1.7517802734375,-0.3431394100189209,-0.5231550335884094,-1.6580079793930054
1763701041591738000,1.761738037109375,-0.3686719536781311,-0.31598398089408875,-1.8120715618133545
1763701041601697300,1.771697265625,-0.38314107060432434,-0.33893468976020813,-1.8142125606536865
1763701041611656200,1.78165625,-0.40335899591445923,-0.17285385727882385,-1.6752612590789795
1763701041621615400,1.791615478515625,-0.484789103269577,0.12437994033098221,-1.438348412513733
1763701041631573200,1.8015732421875,-0.6536380648612976,0.28579041361808777,-1.1451796293258667
1763701041641532200,1.8115322265625,-0.8001708388328552,0.16910943388938904,-0.9301852583885193
1763701041651491300,1.8214912109375,-0.5258194804191589,-0.4502853751182556,-1.0001814365386963
1763701041661449200,1.83144921875,-0.4376789331436157,0.08560334891080856,-1.2657451629638672
1763701041671408000,1.841408203125,-0.6605274677276611,1.4208738803863525,-1.2471141815185547
1763701041681367300,1.8513671875,-0.6482017636299133,2.139556407928467,-1.0606516599655151
1763701041691325200,1.8613251953125,-0.5157843232154846,2.2561683654785156,-0.9530253410339355
1763701041701284400,1.871284423828125,-0.6077510714530945,2.1160919666290283,-1.009314775466919
1763701041711243300,1.8812431640625,-0.7991071939468384,1.8323639631271362,-1.137373447418213
1763701041721202400,1.891202392578125,-0.926823079586029,1.6880766153335571,-1.2286807298660278
1763701041731160300,1.901160400390625,-0.9345353245735168,1.9167851209640503,-1.215517282485962
1763701041741119500,1.911119384765625,-0.8738783597946167,2.2159719467163086,-0.9943246841430664
1763701041751078400,1.921078369140625,-0.822372317314148,2.3941588401794434,-0.6922990679740906
1763701041761036300,1.931036376953125,-0.8598855137825012,2.320399761199951,-0.4595491886138916
1763701041770995500,1.940995361328125,-0.9674359560012817,2.313739776611328,-0.29038092494010925
1763701041780954400,1.950954345703125,-1.12367582321167,2.430323600769043,-0.12410487979650497
1763701041790912500,1.96091259765625,-1.3116886615753174,2.58953857421875,0.016398433595895767
1763701041800871400,1.970871337890625,-1.447657585144043,2.7178866863250732,0.13260908424854279
1763701041810830300,1.980830322265625,-1.5353708267211914,2.972588300704956,0.22426576912403107
1763701041820789200,1.990789306640625,-1.5815387964248657,3.708871603012085,0.4942496716976166
1763701041830747400,2.000747314453125,-1.4522262811660767,4.107841968536377,0.6347633600234985
1763701041840706300,2.010706298828125,-1.2930740118026733,4.549668312072754,0.7929141521453857
1763701041850665200,2.020665283203125,-1.7284749746322632,4.7816572189331055,1.0295729637145996
1763701041860623400,2.030623291015625,-1.5556179285049438,5.277324676513672,0.7928547263145447
1763701041870582300,2.040582275390625,-1.2388194799423218,5.8558478355407715,0.7481855154037476
1763701041880541400,2.05054150390625,-1.1407827138900757,5.610607624053955,0.7038382887840271
1763701041890499300,2.060499267578125,-1.2749601602554321,4.812502861022949,0.6571536064147949
1763701041900458200,2.070458251953125,-1.393384337425232,4.167717456817627,0.6715553998947144
1763701041910417400,2.08041748046875,-1.3726258277893066,3.4199509620666504,0.6741482615470886
1763701041920376300,2.090376220703125,-1.2649009227752686,2.106882095336914,0.5320562720298767
1763701041930334200,2.100334228515625,-1.0261011123657227,0.9605739712715149,0.24289801716804504
1763701041940293400,2.11029345703125,-0.5900407433509827,0.5805661678314209,-0.10860902070999146
1763701041950252300,2.120252197265625,-0.23057790100574493,0.3846355378627777,-0.41037073731422424
1763701041960210400,2.13021044921875,-0.037108588963747025,0.2985861599445343,-0.4524461627006531
1763701041970169300,2.14016943359375,0.0028185886330902576,0.14937429130077362,-0.31594744324684143
1763701041980128300,2.150128173828125,-0.06593626737594604,0.087694451212883,-0.1437000036239624
1763701041990086400,2.16008642578125,-0.15718254446983337,0.1879691183567047,-0.015492508187890053
1763701042000045300,2.17004541015625,-0.25556930899620056,0.3507780134677887,0.060341402888298035
1763701042010004200,2.180004150390625,-0.3432951867580414,0.583469808101654,0.10385265946388245
1763701042019963400,2.18996337890625,-0.37896978855133057,0.8639217019081116,0.1467973291873932
1763701042029921300,2.19992138671875,-0.38428840041160583,1.1923563480377197,0.24326767027378082
1763701042039880200,2.209880126953125,-0.36832407116889954,1.4844390153884888,0.3757742941379547
1763701042049839400,2.21983935546875,-0.31619614362716675,1.7844589948654175,0.5605452060699463
1763701042059797200,2.22979736328125,-0.1934894323348999,1.833632230758667,0.7774891257286072
1763701042069756200,2.239756103515625,-0.05594141408801079,1.6857167482376099,0.8767435550689697
1763701042079715300,2.24971533203125,0.035011932253837585,1.423392415046692,0.8052921295166016
1763701042089673700,2.259673828125,0.05942406505346298,1.398328185081482,0.6151653528213501
1763701042099631900,2.2696318359375,0.07781746238470078,1.2689787149429321,0.3570091426372528
1763701042109590800,2.2795908203125,-0.0029966961592435837,1.3753039836883545,0.17911824584007263
1763701042119549700,2.2895498046875,-0.017144178971648216,1.6057175397872925,0.11736178398132324
1763701042129507800,2.2995078125,0.06392697244882584,1.8635053634643555,0.19110578298568726
1763701042139466800,2.309466796875,0.14640425145626068,2.4324848651885986,0.3477727472782135
1763701042149425700,2.31942578125,0.17583243548870087,3.2708208560943604,0.4541205167770386
1763701042159383800,2.3293837890625,0.1784345805644989,3.8356995582580566,0.44445207715034485
1763701042169342700,2.3393427734375,0.31842124462127686,3.984705686569214,0.33383792638778687
1763701042179301600,2.349301513671875,0.37749794125556946,3.898191452026367,0.08569972962141037
1763701042189260800,2.3592607421875,0.26503053307533264,3.8647842407226562,-0.28943100571632385
1763701042199218700,2.36921875,0.15525473654270172,3.5720632076263428,-0.6361619234085083
1763701042209177900,2.379177734375,-0.051016665995121,2.5593624114990234,-0.8764054179191589
1763701042219136800,2.38913671875,-0.1677185297012329,1.3616180419921875,-0.9455514550209045
1763701042229094700,2.3990947265625,-0.10525942593812943,0.9767491817474365,-0.808488667011261
1763701042239053800,2.4090537109375,0.11729633808135986,1.3444117307662964,-0.5128469467163086
1763701042249012700,2.4190126953125,0.34615615010261536,1.4464489221572876,-0.18817810714244843
1763701042258970600,2.428970703125,0.5008915066719055,1.2813043594360352,0.012401157058775425
1763701042268929800,2.4389296875,0.6789946556091309,1.2159503698349,0.004778923466801643
1763701042278888700,2.448888671875,0.8361871838569641,1.4189050197601318,-0.17315617203712463
1763701042288847600,2.45884765625,0.9003802537918091,1.4858124256134033,-0.4736054837703705
1763701042298805800,2.4688056640625,0.8416858315467834,1.4161713123321533,-0.7642838954925537
1763701042308764700,2.4787646484375,0.7028132081031799,1.2810699939727783,-0.8957796096801758
1763701042318723600,2.4887236328125,0.5324920415878296,1.1543455123901367,-0.7992010712623596
1763701042328681700,2.498681640625,0.38053232431411743,1.217292070388794,-0.5262718200683594
1763701042338640600,2.508640625,0.2294517457485199,0.9364315867424011,-0.25358831882476807
1763701042348599600,2.518599609375,-0.022330956533551216,0.40171441435813904,-0.052545491605997086
1763701042358557700,2.5285576171875,-0.1980455219745636,-0.09375607967376709,0.04681744426488876
1763701042368516600,2.5385166015625,-0.27608704566955566,-0.38099586963653564,0.06572562456130981
1763701042378475800,2.548475830078125,-0.3205549120903015,-0.5144233703613281,0.009803498163819313
1763701042388434700,2.5584345703125,-0.2966253459453583,-0.7162558436393738,-0.09597672522068024
1763701042398392600,2.568392578125,-0.2047560065984726,-0.6602177619934082,-0.14078886806964874
1763701042408351700,2.578351806640625,-0.1811486780643463,-0.24762141704559326,-0.11208905279636383
1763701042418310700,2.588310546875,-0.10203055292367935,0.23539142310619354,-0.09765199571847916
1763701042428268500,2.5982685546875,-0.06844542920589447,0.4372422695159912,-0.14063914120197296
1763701042438227700,2.608227783203125,-0.06551200151443481,0.6161878108978271,-0.19490821659564972
1763701042448186600,2.6181865234375,-0.051789797842502594,0.6449350714683533,-0.26601487398147583
1763701042458145800,2.628145751953125,-0.030034171417355537,0.7165293097496033,-0.3508433699607849
1763701042468103700,2.638103759765625,-0.008941138163208961,0.9074209928512573,-0.4249141216278076
1763701042478062800,2.648062744140625,0.028820887207984924,1.037382960319519,-0.4592992663383484
1763701042488021800,2.658021728515625,0.016660895198583603,1.2278594970703125,-0.41963866353034973
1763701042497979600,2.667979736328125,0.0948781967163086,1.2739167213439941,-0.31778764724731445
1763701042507938800,2.677938720703125,0.19817155599594116,1.0438240766525269,-0.2866523563861847
1763701042517897700,2.687897705078125,0.28695550560951233,1.146528959274292,-0.3267041742801666
1763701042527855600,2.697855712890625,0.44847169518470764,1.2963074445724487,-0.33438658714294434
1763701042537814800,2.707814697265625,0.6539028882980347,1.1819790601730347,-0.10471987724304199
1763701042547774000,2.71777392578125,0.7957316637039185,1.1413078308105469,0.018677687272429466
1763701042557732900,2.72773291015625,0.8515839576721191,1.1618084907531738,0.09057560563087463
1763701042567690800,2.737690673828125,0.8255068063735962,1.07720947265625,0.13277845084667206
1763701042577650000,2.74764990234375,0.7084923982620239,0.8346850275993347,0.24868839979171753
1763701042587608800,2.75760888671875,0.563916802406311,0.6984307765960693,0.4747481346130371
1763701042597566700,2.767566650390625,0.5312501788139343,0.5330162644386292,0.6977463960647583
1763701042607526000,2.77752587890625,0.4337475895881653,0.2491547167301178,0.8378781676292419
1763701042617484800,2.78748486328125,0.08876223117113113,-0.05618787929415703,0.8767379522323608
1763701042627443000,2.79744287109375,-0.26342326402664185,-0.19914796948432922,0.6752557158470154
1763701042637401900,2.80740185546875,-0.3880000412464142,0.18808281421661377,0.315263032913208
1763701042647360800,2.81736083984375,-0.4462633430957794,0.5641512274742126,-0.10798171162605286
1763701042657319700,2.827319580078125,-0.5465614795684814,0.6427823901176453,-0.3545592725276947
1763701042667277800,2.83727783203125,-0.651795506477356,0.560529887676239,-0.35080209374427795
1763701042677236700,2.84723681640625,-0.8061515092849731,0.35923439264297485,-0.3011801838874817
1763701042687196000,2.85719580078125,-0.7451155781745911,0.15767648816108704,-0.41121986508369446
1763701042697153800,2.86715380859375,-0.52581387758255,-0.012688853777945042,-0.5691378116607666
1763701042707112700,2.87711279296875,-0.2636488080024719,-0.19004981219768524,-0.6321811676025391
1763701042717072000,2.88707177734375,-0.004780744202435017,-0.35012179613113403,-0.5977909564971924
1763701042727030800,2.89703076171875,0.19417336583137512,-0.28149959444999695,-0.5671542286872864
1763701042736988700,2.90698876953125,0.25578242540359497,-0.07389235496520996,-0.6389678120613098
1763701042746947800,2.91694775390625,0.19454596936702728,0.14994339644908905,-0.7921997308731079
1763701042756906800,2.92690673828125,0.05382741242647171,0.25799453258514404,-0.9323152303695679
1763701042766865000,2.936864990234375,-0.053483329713344574,0.38603028655052185,-0.9645482897758484
1763701042776823800,2.94682373046875,-0.04551213979721069,0.6529548168182373,-0.8776647448539734
1763701042786782700,2.95678271484375,-0.013523581437766552,0.721262514591217,-0.7071270942687988
1763701042796740900,2.966740966796875,-0.061351608484983444,0.5687878131866455,-0.5256276726722717
1763701042806699800,2.97669970703125,0.030405743047595024,0.6877280473709106,-0.3831150233745575
1763701042816658700,2.98665869140625,0.08343277871608734,0.9812331199645996,-0.4155159592628479
1763701042826617600,2.99661767578125,0.09266196191310883,1.096104383468628,-0.5600537657737732
1763701042836575700,3.00657568359375,0.0708593800663948,1.2565803527832031,-0.7248358130455017
1763701042846534700,3.01653466796875,0.030356429517269135,1.4142287969589233,-0.8422194123268127
1763701042856493800,3.026493896484375,0.004085974767804146,1.413343071937561,-0.858695924282074
1763701042866451700,3.03645166015625,-0.042133983224630356,1.3921868801116943,-0.7045236229896545
1763701042876410600,3.04641064453125,-0.028743617236614227,1.445115566253662,-0.4983619749546051
1763701042886369800,3.056369873046875,-0.07343173027038574,1.272063136100769,-0.27550357580184937
1763701042896328700,3.06632861328125,-0.24505861103534698,0.5803973078727722,-0.06392582505941391
1763701042906286600,3.07628662109375,-0.4657486379146576,-0.42462289333343506,0.0865158811211586
1763701042916245800,3.086245849609375,-0.5186260342597961,-1.1498295068740845,0.23588740825653076
1763701042926204700,3.09620458984375,-0.3496372699737549,-1.300696849822998,0.4770646393299103
1763701042936162800,3.106162841796875,-0.12331674993038177,-1.160416841506958,0.783258318901062
1763701042946121700,3.116121826171875,-0.016467260196805,-0.9206550121307373,0.9942669868469238
1763701042956080600,3.12608056640625,-0.03344089910387993,-0.7188859581947327,0.941796064376831
1763701042966038800,3.136038818359375,-0.07258403301239014,-0.6007683873176575,0.6685421466827393
1763701042975997700,3.145997802734375,-0.03824234381318092,-0.5967477560043335,0.3572770953178406
1763701042985956600,3.15595654296875,0.12063013017177582,-0.681440532207489,0.18842308223247528
1763701042995915800,3.165915771484375,0.3986220359802246,-0.8751817941665649,0.18923641741275787
1763701043005873700,3.175873779296875,0.7620403170585632,-1.0892802476882935,0.27065202593803406
1763701043015832600,3.18583251953125,1.149695634841919,-1.1816160678863525,0.2937878370285034
1763701043025791700,3.195791748046875,1.4918694496154785,-1.1993285417556763,0.22970101237297058
1763701043035749600,3.20574951171875,1.7621177434921265,-1.2388887405395508,0.07648508995771408
1763701043045708500,3.21570849609375,2.00051212310791,-1.255986213684082,-0.15352733433246613
1763701043055667700,3.225667724609375,2.238804578781128,-1.2838703393936157,-0.37925487756729126
1763701043065627000,3.235626953125,2.4906628131866455,-1.3470207452774048,-0.5376500487327576
1763701043075584800,3.245584716796875,2.7342145442962646,-1.3355200290679932,-0.5909183621406555
1763701043085544200,3.255544189453125,2.915328025817871,-1.3014103174209595,-0.5860130786895752
1763701043095503000,3.265503173828125,3.0133702754974365,-1.2890403270721436,-0.6000306606292725
1763701043105461000,3.2754609375,3.0600950717926025,-1.3091692924499512,-0.6751965284347534
1763701043115420200,3.285420166015625,3.0819833278656006,-1.280268907546997,-0.8058587908744812
1763701043125379000,3.295379150390625,3.0995171070098877,-1.3345369100570679,-0.9671204090118408
1763701043135338000,3.305337890625,3.0916354656219482,-1.385769248008728,-1.1331082582473755
1763701043145296100,3.315296142578125,3.040276527404785,-1.4199773073196411,-1.2850059270858765
1763701043155255000,3.325255126953125,2.916501045227051,-1.4630717039108276,-1.419097900390625
1763701043165214000,3.3352138671875,2.671302318572998,-1.4320727586746216,-1.491953730583191
1763701043175172000,3.345172119140625,2.217226266860962,-1.5215063095092773,-1.4405924081802368
1763701043185131000,3.355131103515625,1.4949973821640015,-1.7190099954605103,-1.336965799331665
1763701043195090200,3.365090087890625,0.6297783255577087,-2.200584888458252,-1.1250832080841064
1763701043205048000,3.375048095703125,-0.1438436061143875,-2.5045671463012695,-0.769968569278717
1763701043215007000,3.385007080078125,-0.6578763127326965,-2.4003257751464844,-0.3478192985057831
1763701043224966100,3.394966064453125,-0.9138481616973877,-1.885527491569519,0.004317165352404118
1763701043234925000,3.404925048828125,-0.994896411895752,-1.1272516250610352,0.14762437343597412
1763701043244883000,3.414883056640625,-1.1232937574386597,-0.46627262234687805,0.04162523150444031
1763701043254842000,3.424842041015625,-1.355643391609192,-0.14386020600795746,-0.2597541809082031
1763701043264801000,3.434801025390625,-1.5853888988494873,-0.03632523491978645,-0.6284821629524231
1763701043274759200,3.44475927734375,-1.7111916542053223,-0.0641496479511261,-0.9207834601402283
1763701043284718000,3.454718017578125,-1.7001316547393799,-0.13812053203582764,-1.0528621673583984
1763701043294677000,3.464677001953125,-1.6717324256896973,-0.2899976670742035,-1.029729962348938
1763701043304636000,3.474635986328125,-1.5694422721862793,-0.5892471671104431,-0.8713855743408203
1763701043314594000,3.484593994140625,-1.4319307804107666,-0.706165611743927,-0.7151714563369751
1763701043324553000,3.494552978515625,-1.3162046670913696,-0.7742567658424377,-0.6410013437271118
1763701043334511900,3.504511962890625,-1.2007911205291748,-0.7510960698127747,-0.6897081136703491
1763701043344470000,3.514469970703125,-1.1142776012420654,-0.7308688163757324,-0.8175281286239624
1763701043354429000,3.524428955078125,-1.0518680810928345,-0.7750370502471924,-0.9482013583183289
1763701043364388000,3.53438818359375,-0.9676551818847656,-0.8168758749961853,-1.017345666885376
1763701043374347000,3.544346923828125,-0.8292200565338135,-0.8907330632209778,-1.032678484916687
1763701043384305000,3.554304931640625,-0.595468282699585,-0.9338142275810242,-1.0207778215408325
1763701043394264000,3.56426416015625,-0.27413585782051086,-0.8561356663703918,-1.016794204711914
1763701043404223000,3.574222900390625,0.0543389730155468,-0.7225024700164795,-1.0424436330795288
1763701043414181000,3.58418115234375,0.33177855610847473,-0.6138527393341064,-1.088566780090332
1763701043424140000,3.59414013671875,0.5237712264060974,-0.5562242865562439,-1.1288716793060303
1763701043434099000,3.604098876953125,0.6025986671447754,-0.6268807053565979,-1.1495789289474487
1763701043444057000,3.61405712890625,0.587685227394104,-0.8091434240341187,-1.1467312574386597
1763701043454016000,3.62401611328125,0.5011931657791138,-1.0525717735290527,-1.1399213075637817
1763701043463975000,3.633974853515625,0.3385928273200989,-1.4493300914764404,-1.133098840713501
1763701043473933800,3.643933837890625,0.1717258095741272,-1.8816817998886108,-1.1445021629333496
1763701043483892000,3.65389208984375,0.060978520661592484,-2.210111141204834,-1.195177674293518
1763701043493851000,3.663850830078125,-0.029105862602591515,-2.406132698059082,-1.2795127630233765
1763701043503810000,3.67381005859375,-0.14662396907806396,-2.4779562950134277,-1.3729274272918701
1763701043513768000,3.683767822265625,-0.3039986789226532,-2.3778584003448486,-1.4393585920333862
1763701043523726800,3.693726806640625,-0.5136160850524902,-2.117690324783325,-1.4509209394454956
1763701043533686000,3.70368603515625,-0.7837615609169006,-1.752018690109253,-1.4047017097473145
1763701043543645000,3.71364501953125,-1.1067055463790894,-1.3455859422683716,-1.2962559461593628
1763701043553602800,3.723602783203125,-1.468428373336792,-0.9577762484550476,-1.1576906442642212
1763701043563562000,3.73356201171875,-1.8102480173110962,-0.6258670091629028,-1.029770851135254
1763701043573521000,3.74352099609375,-2.0733389854431152,-0.3237718641757965,-0.964686930179596
1763701043583479000,3.75347900390625,-2.2576191425323486,-0.08509910851716995,-0.9654965400695801
1763701043593438000,3.76343798828125,-2.3573665618896484,-0.003229792695492506,-1.0298335552215576
1763701043603396900,3.77339697265625,-2.3117990493774414,0.03838982433080673,-1.1231003999710083
1763701043613356000,3.78335595703125,-2.1008646488189697,0.11978128552436829,-1.1950024366378784
1763701043623314000,3.79331396484375,-1.785058856010437,0.2036128044128418,-1.1970895528793335
1763701043633272800,3.80327294921875,-1.4231189489364624,0.24545429646968842,-1.1120399236679077
1763701043643232000,3.81323193359375,-1.0864388942718506,0.18898142874240875,-0.9886013269424438
1763701043653190000,3.82318994140625,-0.8296717405319214,0.04552866145968437,-0.8664207458496094
1763701043663149000,3.833149169921875,-0.6025203466415405,-0.040321264415979385,-0.7753555774688721
1763701043673108200,3.843108154296875,-0.38696250319480896,-0.014502200298011303,-0.7220682501792908
1763701043683065900,3.85306591796875,-0.1868605762720108,0.032640546560287476,-0.7146492004394531
1763701043693025000,3.86302490234375,-0.009163042530417442,0.04855003207921982,-0.745124876499176
1763701043702984200,3.872984130859375,0.13442422449588776,-0.01877148635685444,-0.7905415892601013
1763701043712943000,3.882943115234375,0.2314527928829193,-0.21349866688251495,-0.8341339826583862
1763701043722901000,3.89290087890625,0.31033191084861755,-0.47760751843452454,-0.824964165687561
1763701043732860200,3.902860107421875,0.38969480991363525,-0.7319212555885315,-0.7389204502105713
1763701043742819000,3.912819091796875,0.45566076040267944,-0.9233159422874451,-0.5808916687965393
1763701043752777200,3.922777099609375,0.4701140522956848,-1.0666017532348633,-0.3771683871746063
1763701043762736000,3.932736083984375,0.4212929904460907,-1.1510212421417236,-0.18407881259918213
1763701043772695000,3.942695068359375,0.2699200212955475,-1.2734650373458862,-0.048545800149440765
1763701043782654000,3.952654052734375,0.03476637601852417,-1.4251112937927246,-0.004815629683434963
1763701043792612000,3.962612060546875,-0.15145711600780487,-1.4215441942214966,-0.055910468101501465
1763701043802571000,3.972571044921875,-0.19108468294143677,-1.133867621421814,-0.19435249269008636
1763701043812530000,3.982530029296875,-0.11634223908185959,-0.6974729895591736,-0.3262627422809601
1763701043822488000,3.992488037109375,0.02331632748246193,-0.29638364911079407,-0.39175865054130554
1763701043832447000,4.002447021484375,0.198711559176445,-0.006900937296450138,-0.38812410831451416
1763701043842406100,4.01240625,0.39709413051605225,0.11324011534452438,-0.34035524725914
1763701043852365000,4.022364990234375,0.6096639633178711,0.05941149964928627,-0.2819068431854248
1763701043862323000,4.032322998046875,0.8462125658988953,-0.06275728344917297,-0.23742885887622833
1763701043872282000,4.0422822265625,1.1006910800933838,-0.1200113296508789,-0.2502315044403076
1763701043882241000,4.052240966796875,1.3520950078964233,-0.11240427941083908,-0.3147122263908386
1763701043892200000,4.062199951171875,1.5561705827713013,-0.0824744924902916,-0.4046699106693268
1763701043902158000,4.072157958984375,1.7106086015701294,-0.06252394616603851,-0.47235095500946045
1763701043912117000,4.082116943359375,1.8150697946548462,-0.0540761724114418,-0.48123645782470703
1763701043922076000,4.092075927734375,1.880014181137085,-0.06425291299819946,-0.4118534028530121
1763701043932034000,4.102033935546875,1.9215214252471924,-0.06775231659412384,-0.28674420714378357
1763701043941993000,4.111992919921875,1.9518686532974243,-0.05722617357969284,-0.12832820415496826
1763701043951952000,4.121951904296875,1.9785658121109009,-0.019449785351753235,0.01889372058212757
1763701043961910000,4.131909912109375,1.9792190790176392,-0.014416411519050598,0.15479856729507446
1763701043971869000,4.141868896484375,1.938156008720398,-0.028764722868800163,0.2707560360431671
1763701043981828000,4.151828125,1.8923677206039429,-0.04046426713466644,0.2881924510002136
1763701043991787000,4.161787109375,1.8451586961746216,-0.12606728076934814,0.16814740002155304
1763701044001745000,4.171744873046875,1.7977403402328491,-0.32791730761528015,-0.05089333653450012
1763701044011704000,4.1817041015625,1.7524220943450928,-0.6555484533309937,-0.3067522943019867
1763701044021663000,4.1916630859375,1.7021408081054688,-1.0583685636520386,-0.5649228692054749
1763701044031620900,4.201620849609375,1.6525095701217651,-1.4403423070907593,-0.8210271000862122
1763701044041580000,4.211580078125,1.6409693956375122,-1.6168023347854614,-1.0253278017044067
1763701044051539000,4.2215390625,1.7034311294555664,-1.473728895187378,-1.1021740436553955
1763701044061497900,4.231497802734375,1.834302544593811,-1.119062900543213,-1.0006335973739624
1763701044071456000,4.2414560546875,1.9689924716949463,-0.7631279230117798,-0.7458842396736145
1763701044081415000,4.251414794921875,2.043977975845337,-0.5444123148918152,-0.4706273674964905
1763701044091373800,4.261373779296875,2.049473524093628,-0.40269628167152405,-0.3206413686275482
1763701044101333000,4.2713330078125,1.9859269857406616,-0.2955429255962372,-0.36354196071624756
1763701044111291000,4.281290771484375,1.8833234310150146,-0.16737084090709686,-0.5605131983757019
1763701044121249800,4.291249755859375,1.7894408702850342,0.002694903640076518,-0.8333159685134888
1763701044131209000,4.301208984375,1.7413790225982666,0.18080155551433563,-1.0978854894638062
1763701044141166800,4.311166748046875,1.7443010807037354,0.2799249291419983,-1.2883305549621582
1763701044151126000,4.3211259765625,1.7984713315963745,0.3075859248638153,-1.3829765319824219
1763701044161085000,4.3310849609375,1.8948357105255127,0.3039749264717102,-1.4060920476913452
1763701044171042800,4.341042724609375,2.014721393585205,0.2861460745334625,-1.390866994857788
1763701044181002000,4.351001953125,2.150179624557495,0.2797832489013672,-1.3753820657730103
1763701044190961000,4.3609609375,2.2821037769317627,0.28859513998031616,-1.3884093761444092
1763701044200919800,4.370919921875,2.420522689819336,0.31354308128356934,-1.4419687986373901
1763701044210878000,4.3808779296875,2.5699992179870605,0.3045991361141205,-1.5156984329223633
1763701044220836900,4.3908369140625,2.722759962081909,0.2291291356086731,-1.5712677240371704
1763701044230795800,4.400795654296875,2.8568949699401855,0.08152716606855392,-1.5602883100509644
1763701044240755000,4.4107548828125,2.932352066040039,-0.1344520002603531,-1.444128155708313
1763701044250712800,4.420712890625,2.934542417526245,-0.37749817967414856,-1.2072639465332031
1763701044260671700,4.430671630859375,2.8684487342834473,-0.5855515003204346,-0.8735102415084839
1763701044270631000,4.440630859375,2.734442949295044,-0.7033650279045105,-0.495653361082077
1763701044280588800,4.4505888671875,2.5235650539398193,-0.7538250088691711,-0.1295883059501648
1763701044290548000,4.4605478515625,2.22985577583313,-0.7783942222595215,0.20259591937065125
1763701044300507000,4.4705068359375,1.8555998802185059,-0.817966639995575,0.48961782455444336
1763701044310465800,4.4804658203125,1.4123705625534058,-0.857704222202301,0.6951664686203003
1763701044320424000,4.490423828125,0.9374766945838928,-0.8588440418243408,0.7756639719009399
1763701044330382800,4.5003828125,0.5184847712516785,-0.7152746915817261,0.770693838596344
1763701044340341800,4.510341796875,0.20410822331905365,-0.35673221945762634,0.7603653073310852
1763701044350300000,4.5202998046875,-0.023590464144945145,0.1310100257396698,0.7729379534721375
1763701044360258800,4.5302587890625,-0.19308309257030487,0.5735949277877808,0.7635806798934937
1763701044370217700,4.5402177734375,-0.29870307445526123,0.8806907534599304,0.6931584477424622
1763701044380177000,4.550177001953125,-0.3150671124458313,1.0181699991226196,0.5647946000099182
1763701044390134800,4.560134765625,-0.20362550020217896,1.0743645429611206,0.3688107132911682
1763701044400093700,4.57009375,0.04397018253803253,1.1038737297058105,0.09304945170879364
1763701044410052900,4.580052978515625,0.3868119716644287,1.1209547519683838,-0.2695392668247223
1763701044420010800,4.5900107421875,0.7860288619995117,1.0837141275405884,-0.7123960852622986
1763701044429969700,4.5999697265625,1.2064626216888428,0.9603889584541321,-1.1787914037704468
1763701044439928800,4.6099287109375,1.628009557723999,0.7404829859733582,-1.5790154933929443
1763701044449888000,4.619887939453125,2.0289063453674316,0.47212180495262146,-1.838254451751709
1763701044459846000,4.629845947265625,2.389383554458618,0.21059168875217438,-1.947526454925537
1763701044469804800,4.6398046875,2.665266990661621,-0.009084735065698624,-1.9294815063476562
1763701044479764000,4.649763916015625,2.8177804946899414,-0.19613425433635712,-1.8166396617889404
1763701044489721900,4.659721923828125,2.8225951194763184,-0.3282853960990906,-1.6543105840682983
1763701044499680800,4.6696806640625,2.6933982372283936,-0.37125256657600403,-1.4784423112869263
1763701044509640000,4.679639892578125,2.4552574157714844,-0.32226046919822693,-1.3169726133346558
1763701044519598800,4.689598876953125,2.1291615962982178,-0.21046335995197296,-1.1812115907669067
1763701044529557000,4.699556884765625,1.7772160768508911,-0.04723368585109711,-1.085712194442749
1763701044539516000,4.709515869140625,1.4392460584640503,0.15108419954776764,-1.0372767448425293
1763701044549475000,4.71947509765625,1.1412969827651978,0.316579669713974,-1.0342628955841064
1763701044559433000,4.729432861328125,0.9180110692977905,0.4442058205604553,-1.0491214990615845
1763701044569391900,4.739391845703125,0.80663001537323,0.549079179763794,-1.0455845594406128
1763701044579351000,4.74935107421875,0.8148576021194458,0.6142142415046692,-1.0192406177520752
1763701044589310000,4.75931005859375,0.9181613326072693,0.6290664672851562,-0.9996674656867981
1763701044599267800,4.769267822265625,1.0855995416641235,0.6029996871948242,-1.0110297203063965
1763701044609227000,4.77922705078125,1.2740422487258911,0.546010434627533,-1.073493480682373
1763701044619186000,4.78918603515625,1.475662112236023,0.48754873871803284,-1.195056438446045
1763701044629144800,4.799144775390625,1.6890500783920288,0.4795246422290802,-1.3567955493927002
1763701044639103000,4.80910302734375,1.9070361852645874,0.5596184134483337,-1.5367605686187744
1763701044649062000,4.819061767578125,2.07543683052063,0.5875701308250427,-1.6805438995361328
1763701044659020800,4.829020751953125,2.140631675720215,0.44798481464385986,-1.750767469406128
1763701044668979000,4.83897900390625,2.1280031204223633,0.10513722896575928,-1.7576521635055542
1763701044678937900,4.848937744140625,2.0935802459716797,-0.47251224517822266,-1.7782295942306519
1763701044688896800,4.858896728515625,2.1634531021118164,-0.9958857297897339,-1.852707028388977
1763701044698856000,4.86885595703125,2.405143976211548,-1.1139655113220215,-1.9485623836517334
1763701044708813800,4.878813720703125,2.682021141052246,-1.0185596942901611,-2.0513617992401123
1763701044718773000,4.88877294921875,2.8740570545196533,-0.8870649933815002,-2.143470048904419
1763701044728732000,4.89873193359375,2.9588160514831543,-0.7477371692657471,-2.224654197692871
1763701044738689800,4.908689697265625,2.94567608833313,-0.6471413373947144,-2.2320191860198975
1763701044748649000,4.91864892578125,2.8258726596832275,-0.5331615209579468,-2.14884352684021
1763701044758608000,4.92860791015625,2.618082284927368,-0.35664084553718567,-1.980582594871521
1763701044768566800,4.93856689453125,2.3518431186676025,-0.06734935194253922,-1.73172128200531
1763701044778525000,4.94852490234375,2.0751500129699707,0.316766619682312,-1.4294767379760742
1763701044788483800,4.95848388671875,1.8312801122665405,0.7139005661010742,-1.1155587434768677
1763701044798442800,4.96844287109375,1.6541701555252075,1.0612516403198242,-0.852401614189148
1763701044808401000,4.97840087890625,1.5684185028076172,1.3227440118789673,-0.6939376592636108
1763701044818359800,4.98835986328125,1.56538724899292,1.4892821311950684,-0.6728387475013733
1763701044828318700,4.998318603515625,1.6426786184310913,1.5085945129394531,-0.7716826796531677
1763701044838278000,5.00827783203125,1.8015395402908325,1.4343712329864502,-0.9568783640861511
1763701044848235800,5.01823583984375,2.0356359481811523,1.2957667112350464,-1.1793397665023804
1763701044858195000,5.02819482421875,2.311762809753418,1.1068058013916016,-1.3883322477340698
1763701044868153900,5.03815380859375,2.582277536392212,0.8747707605361938,-1.5386886596679688
1763701044878112800,5.04811279296875,2.8168163299560547,0.591799259185791,-1.6088848114013672
1763701044888071000,5.05807080078125,3.0199484825134277,0.27525144815444946,-1.6135563850402832
1763701044898029800,5.06802978515625,3.195439577102661,-0.04583550617098808,-1.5673657655715942
1763701044907988700,5.07798876953125,3.323729991912842,-0.36561113595962524,-1.4863492250442505
1763701044917947000,5.08794677734375,3.3697943687438965,-0.6112991571426392,-1.3601257801055908
1763701044927905800,5.09790576171875,3.289621353149414,-0.7856622338294983,-1.1939055919647217
1763701044937864700,5.10786474609375,3.075347661972046,-0.8502249717712402,-0.9965192079544067
1763701044947823900,5.117823974609375,2.7428324222564697,-0.7748758792877197,-0.7610613107681274
1763701044957781800,5.12778173828125,2.3355278968811035,-0.6264757513999939,-0.4864337742328644
1763701044967740700,5.13774072265625,1.930465817451477,-0.45185384154319763,-0.1723431944847107
1763701044977699800,5.147699951171875,1.5671513080596924,-0.29186657071113586,0.16039322316646576
1763701044987657700,5.15765771484375,1.2724453210830688,-0.15766511857509613,0.48216113448143005
1763701044997616600,5.16761669921875,1.0165033340454102,-0.0658758133649826,0.7553977370262146
1763701045007576000,5.177576171875,0.7624920606613159,-0.026076985523104668,0.945080578327179
1763701045017535000,5.187534912109375,0.49072498083114624,-0.014932988211512566,1.0391652584075928
1763701045027492900,5.197492919921875,0.21707986295223236,0.04931710287928581,1.0543491840362549
1763701045037452000,5.2074521484375,-0.020816583186388016,0.20477727055549622,1.023921251296997
1763701045047411000,5.217410888671875,-0.1831732988357544,0.4453938901424408,0.976606547832489
1763701045057369900,5.227369873046875,-0.26092323660850525,0.6794995665550232,0.9227648973464966
1763701045067328000,5.237327880859375,-0.2643493711948395,0.8122357726097107,0.8483321070671082
1763701045077287000,5.247286865234375,-0.20503360033035278,0.8563385605812073,0.7487930059432983
1763701045087245800,5.257245849609375,-0.09763169288635254,0.8214148283004761,0.6166776418685913
1763701045097204000,5.267203857421875,0.03486137092113495,0.7477957606315613,0.4527483880519867
1763701045107163000,5.277162841796875,0.18227963149547577,0.6689826250076294,0.2494650036096573
1763701045117122000,5.2871220703125,0.33266645669937134,0.6427057981491089,0.01255446020513773
1763701045127081000,5.2970810546875,0.45915886759757996,0.6640649437904358,-0.24931295216083527
1763701045137038800,5.307038818359375,0.5550395846366882,0.6926129460334778,-0.5162850022315979
1763701045146998000,5.316998046875,0.6258071660995483,0.6599732637405396,-0.7429839968681335
1763701045156957000,5.32695703125,0.6849485039710999,0.5994691848754883,-0.8939410448074341
1763701045166914800,5.336914794921875,0.7610244154930115,0.5778946280479431,-0.9773558378219604
1763701045176874000,5.3468740234375,0.869782030582428,0.5899674892425537,-1.0258980989456177
1763701045186833000,5.3568330078125,0.9854252934455872,0.625779926776886,-1.052929401397705
1763701045196791800,5.366791748046875,1.0753774642944336,0.6201201677322388,-1.0593329668045044
1763701045206750000,5.37675,1.1265875101089478,0.5425291657447815,-1.0430117845535278
1763701045216708900,5.386708984375,1.1475934982299805,0.4613632261753082,-1.0061209201812744
1763701045226667800,5.396667724609375,1.1706879138946533,0.4631776213645935,-0.9604799747467041
1763701045236627000,5.406626953125,1.1820411682128906,0.5342179536819458,-0.9283041954040527
1763701045246584800,5.416584716796875,1.1651402711868286,0.6087105870246887,-0.9275066256523132
1763701045256544000,5.4265439453125,1.139868974685669,0.6958982348442078,-0.9414125680923462
1763701045266503000,5.4365029296875,1.1268858909606934,0.7860838174819946,-0.9534276723861694
1763701045276460800,5.446460693359375,1.1396504640579224,0.8483788967132568,-0.9570364952087402
1763701045286420000,5.456419921875,1.1898040771484375,0.8425715565681458,-0.9619922637939453
1763701045296379000,5.46637890625,1.3057492971420288,0.7988339066505432,-0.9746809005737305
1763701045306337800,5.476337890625,1.463158130645752,0.7269651293754578,-0.9867392778396606
1763701045316296000,5.4862958984375,1.632421612739563,0.656941831111908,-0.996265709400177
1763701045326254800,5.4962548828125,1.7979648113250732,0.6306238770484924,-0.9996322393417358
1763701045336213800,5.5062138671875,1.9568263292312622,0.6673576235771179,-0.9972692728042603
1763701045346173000,5.5161728515625,2.084606647491455,0.7645135521888733,-0.9885280132293701
1763701045356130800,5.526130859375,2.174973964691162,0.8932979106903076,-0.9648138880729675
1763701045366089700,5.53608984375,2.2243030071258545,1.0345097780227661,-0.9145792126655579
1763701045376049000,5.546048828125,2.2333083152770996,1.1583577394485474,-0.8311780691146851
1763701045386006800,5.5560068359375,2.213019371032715,1.2695859670639038,-0.7228235006332397
1763701045395965700,5.565965576171875,2.1626362800598145,1.3758623600006104,-0.5923498868942261
1763701045405925000,5.575925048828125,2.0848641395568848,1.4612380266189575,-0.46719253063201904
1763701045415884000,5.585884033203125,1.9792722463607788,1.526757836341858,-0.3598644733428955
1763701045425842000,5.595842041015625,1.8522192239761353,1.569986343383789,-0.2743239998817444
1763701045435801000,5.605801025390625,1.7304917573928833,1.584040641784668,-0.20627465844154358
1763701045445760000,5.615760009765625,1.6268949508666992,1.5697981119155884,-0.15535767376422882
1763701045455718000,5.6257177734375,1.5564000606536865,1.5607247352600098,-0.13350696861743927
1763701045465677000,5.635677001953125,1.530788540840149,1.5597530603408813,-0.1436242163181305
1763701045475636000,5.645635986328125,1.5542621612548828,1.5273422002792358,-0.18956828117370605
1763701045485595000,5.655594970703125,1.63838791847229,1.4736379384994507,-0.26618650555610657
1763701045495553000,5.665552978515625,1.7774912118911743,1.3952453136444092,-0.35473766922950745
1763701045505512000,5.675511962890625,1.954121708869934,1.3671082258224487,-0.4400492012500763
1763701045515471000,5.68547119140625,2.1031594276428223,1.3165295124053955,-0.5225893259048462
1763701045525430000,5.695429931640625,2.1771762371063232,1.2211313247680664,-0.5886532068252563
1763701045535388000,5.705387939453125,2.1982412338256836,1.0497798919677734,-0.6348726153373718
1763701045545347000,5.71534716796875,2.1696441173553467,0.805627167224884,-0.6500398516654968
1763701045555306000,5.725305908203125,2.0386621952056885,0.46500328183174133,-0.6495497822761536
1763701045565264000,5.735263916015625,1.7471826076507568,0.0005916431546211243,-0.6508833765983582
1763701045575223000,5.74522314453125,1.3591430187225342,-0.6292057037353516,-0.633854329586029
1763701045585182000,5.755181884765625,0.9553709626197815,-1.3675110340118408,-0.6170703172683716
1763701045595140900,5.765140869140625,0.6250865459442139,-1.9778409004211426,-0.6125629544258118
1763701045605099000,5.77509912109375,0.3854984939098358,-2.169167995452881,-0.581692636013031
1763701045615058000,5.785057861328125,0.16865484416484833,-1.975721836090088,-0.4680853486061096
1763701045625016800,5.795016845703125,-0.08609483391046524,-1.5817217826843262,-0.2988738715648651
1763701045634976000,5.80497607421875,-0.4039468467235565,-1.1086077690124512,-0.17389437556266785
1763701045644934000,5.814933837890625,-0.8151030540466309,-0.6942645907402039,-0.1377568393945694
1763701045654892800,5.824892822265625,-1.3189184665679932,-0.3953130841255188,-0.14178407192230225
1763701045664852000,5.83485205078125,-1.8246055841445923,-0.2298213541507721,-0.15839208662509918
1763701045674809900,5.844809814453125,-2.1665849685668945,-0.08801522850990295,-0.16697892546653748
1763701045684769000,5.85476904296875,-2.236321210861206,0.14065659046173096,-0.17063158750534058
1763701045694728000,5.86472802734375,-2.085648775100708,0.3450930714607239,-0.20186619460582733
1763701045704686800,5.874686767578125,-1.8038767576217651,0.4207007884979248,-0.3009524345397949
1763701045714645000,5.88464501953125,-1.4417842626571655,0.3718709349632263,-0.49899545311927795
1763701045724604000,5.89460400390625,-1.0262962579727173,0.2102697789669037,-0.7452516555786133
1763701045734562800,5.904562744140625,-0.5745972394943237,-0.01967499405145645,-0.934675931930542
1763701045744521000,5.91452099609375,-0.10124003887176514,-0.23555059731006622,-1.0032283067703247
1763701045754479900,5.92447998046875,0.32988181710243225,-0.3749745488166809,-0.9727268218994141
1763701045764438800,5.934438720703125,0.6603001952171326,-0.45257341861724854,-0.9032144546508789
1763701045774398000,5.94439794921875,0.8547341227531433,-0.49379438161849976,-0.820574164390564
1763701045784355800,5.95435595703125,0.9142983555793762,-0.4886387586593628,-0.7038413882255554
1763701045794314800,5.964314697265625,0.8604023456573486,-0.4075644016265869,-0.5219416618347168
1763701045804274000,5.97427392578125,0.7360846400260925,-0.34826189279556274,-0.250698983669281
1763701045814232800,5.98423291015625,0.5913660526275635,-0.2785150408744812,0.12157286703586578
1763701045824191000,5.99419091796875,0.439226895570755,-0.19927695393562317,0.5740916132926941
1763701045834150000,6.00414990234375,0.24907156825065613,-0.0989929661154747,1.060070514678955
1763701045844108800,6.01410888671875,0.021191326901316643,0.00700958538800478,1.5012052059173584
1763701045854067000,6.02406689453125,-0.18298523128032684,0.15885290503501892,1.8377633094787598
1763701045864025900,6.03402587890625,-0.2963424026966095,0.34308746457099915,2.0412416458129883
1763701045873984800,6.04398486328125,-0.33347460627555847,0.5258199572563171,2.1070454120635986
1763701045883944000,6.05394384765625,-0.3478948175907135,0.5643271207809448,2.0356621742248535
1763701045893901800,6.06390185546875,-0.3792623281478882,0.3629668653011322,1.878849983215332
1763701045903860700,6.07386083984375,-0.35711976885795593,0.12891153991222382,1.679853081703186
1763701045913820000,6.08381982421875,-0.2131122648715973,0.0883430764079094,1.4339407682418823
1763701045923779000,6.093779052734375,0.019374819472432137,0.26193636655807495,1.1352174282073975
1763701045933736700,6.10373681640625,0.22499588131904602,0.566771388053894,0.7692748308181763
1763701045943696100,6.113696044921875,0.344207227230072,0.8519602417945862,0.3128781020641327
1763701045953655000,6.123655029296875,0.3874257802963257,1.0381370782852173,-0.20545721054077148
1763701045963613000,6.133613037109375,0.4007442593574524,1.070599913597107,-0.6509760618209839
1763701045973572000,6.143572021484375,0.4272187352180481,0.9322580099105835,-0.921059787273407
1763701045983531000,6.153531005859375,0.46886175870895386,0.6918380260467529,-1.0156002044677734
1763701045993490000,6.163489990234375,0.5254331827163696,0.44907620549201965,-1.0062085390090942
1763701046003448000,6.173447998046875,0.5627877712249756,0.2742002308368683,-0.9668399095535278
1763701046013407000,6.183406982421875,0.5553463697433472,0.18011529743671417,-0.9462316036224365
1763701046023366000,6.193365966796875,0.5053719282150269,0.16056610643863678,-0.9413501024246216
1763701046033324000,6.203323974609375,0.42490845918655396,0.18597905337810516,-0.9392038583755493
1763701046043283000,6.213282958984375,0.3460565209388733,0.24299518764019012,-0.9234772324562073
1763701046053241900,6.223241943359375,0.27809423208236694,0.30579066276550293,-0.8791441321372986
1763701046063201000,6.233200927734375,0.2155328392982483,0.3358266055583954,-0.788223147392273
1763701046073159000,6.243158935546875,0.17172010242938995,0.32248470187187195,-0.6567413210868835
1763701046083118000,6.2531181640625,0.13821199536323547,0.276871919631958,-0.5158146619796753
1763701046093076500,6.263076416015625,0.12182396650314331,0.23563073575496674,-0.3780387043952942
1763701046103035400,6.273035400390625,0.13360650837421417,0.21140404045581818,-0.2616305649280548
1763701046112993500,6.28299365234375,0.15222494304180145,0.19725918769836426,-0.17955754697322845
1763701046122952400,6.292952392578125,0.18125663697719574,0.19852228462696075,-0.14370235800743103
1763701046132911400,6.302911376953125,0.2042008340358734,0.2191295623779297,-0.15865254402160645
1763701046142870500,6.31287060546875,0.21335412561893463,0.22068430483341217,-0.21141202747821808
1763701046152828400,6.322828369140625,0.2538789212703705,0.24225883185863495,-0.2394322156906128
1763701046162787300,6.332787353515625,0.3228371739387512,0.2934386730194092,-0.208317831158638
1763701046172746500,6.34274658203125,0.3719205856323242,0.2910202741622925,-0.10944637656211853
1763701046182704400,6.352704345703125,0.36712369322776794,0.20617303252220154,0.011784974485635757
1763701046192663600,6.36266357421875,0.28469139337539673,0.03989537060260773,0.11295047402381897
1763701046202622500,6.37262255859375,0.13117054104804993,-0.2231370508670807,0.1794474720954895
1763701046212581400,6.382581298828125,-0.052042145282030106,-0.49373766779899597,0.21220062673091888
1763701046222539500,6.39253955078125,-0.2248612642288208,-0.7305209636688232,0.22854550182819366
1763701046232498400,6.40249853515625,-0.42442604899406433,-1.1250256299972534,0.2459532469511032
1763701046242457300,6.412457275390625,-0.6073575615882874,-1.650176763534546,0.22224833071231842
1763701046252415500,6.42241552734375,-0.6292604804039001,-1.8205593824386597,0.18829436600208282
1763701046262374400,6.43237451171875,-0.5375874638557434,-1.5832574367523193,0.17527934908866882
1763701046272333300,6.442333251953125,-0.5315895080566406,-1.181912899017334,0.16705870628356934
1763701046282292500,6.45229248046875,-0.7049895524978638,-0.7910857796669006,0.1808466762304306
1763701046292250400,6.46225048828125,-0.9884657263755798,-0.4346733093261719,0.2208407074213028
1763701046302209500,6.47220947265625,-1.2469292879104614,-0.1426219642162323,0.30644845962524414
1763701046312168700,6.482168701171875,-1.3530470132827759,0.1750558763742447,0.4415833652019501
1763701046322127600,6.492127685546875,-1.2680678367614746,0.49914202094078064,0.5791714191436768
1763701046332085500,6.50208544921875,-1.0405648946762085,0.7387687563896179,0.6663252115249634
1763701046342044700,6.512044677734375,-0.7258831262588501,0.889531135559082,0.6742602586746216
1763701046352003600,6.522003662109375,-0.3741317689418793,0.9547774791717529,0.6113340258598328
1763701046361961700,6.531961669921875,-0.0038778483867645264,0.9944602251052856,0.5061331987380981
1763701046371920600,6.541920654296875,0.3640381097793579,1.0374135971069336,0.38312819600105286
1763701046381879600,6.551879638671875,0.7003139853477478,1.0893133878707886,0.2398649901151657
1763701046391838500,6.56183837890625,0.9406176209449768,1.0632330179214478,0.0727124810218811
1763701046401796600,6.571796630859375,1.0825613737106323,0.9166191816329956,-0.09004724025726318
1763701046411755500,6.581755615234375,1.1776201725006104,0.7077900767326355,-0.20480632781982422
1763701046421714400,6.59171435546875,1.2787411212921143,0.5138877034187317,-0.23289521038532257
1763701046431673600,6.601673583984375,1.3866627216339111,0.35368844866752625,-0.14777712523937225
1763701046441631500,6.611631591796875,1.4705291986465454,0.1974567174911499,0.022908583283424377
1763701046451590700,6.621590576171875,1.4830700159072876,0.03488112613558769,0.20128445327281952
1763701046461549600,6.631549560546875,1.4009671211242676,-0.14959175884723663,0.29576969146728516
1763701046471507500,6.641507568359375,1.27069091796875,-0.27520057559013367,0.2622620463371277
1763701046481466600,6.651466552734375,1.1011463403701782,-0.3398573398590088,0.1527295559644699
1763701046491425500,6.661425537109375,0.849593460559845,-0.5271137952804565,0.05118456110358238
1763701046501384400,6.671384521484375,0.5660586357116699,-0.7362691164016724,-0.0217431653290987
1763701046511342600,6.681342529296875,0.28430208563804626,-0.9587767720222473,-0.07170859724283218
1763701046521301500,6.691301513671875,0.04370996356010437,-1.142906665802002,-0.10059750080108643
1763701046531260400,6.701260498046875,-0.053817376494407654,-1.1155014038085938,-0.1262272298336029
1763701046541218600,6.711218505859375,0.05112073943018913,-0.7160500884056091,-0.22407150268554688
1763701046551177500,6.721177490234375,0.2996003329753876,-0.06974644958972931,-0.44490718841552734
1763701046561136400,6.731136474609375,0.47742435336112976,0.41268599033355713,-0.7328640222549438
1763701046571095600,6.741095458984375,0.48876863718032837,0.5448256731033325,-0.9777006506919861
1763701046581053400,6.751053466796875,0.42338842153549194,0.4545041620731354,-1.1096800565719604
1763701046591012400,6.761012451171875,0.34112122654914856,0.2683012783527374,-1.1470625400543213
1763701046600971500,6.770971435546875,0.30160650610923767,0.02338055707514286,-1.0749690532684326
1763701046610930400,6.780930419921875,0.34328415989875793,-0.1437210738658905,-0.9961889982223511
1763701046620888600,6.790888671875,0.4367733597755432,-0.20660363137722015,-0.9845454096794128
1763701046630847500,6.800847412109375,0.5063694715499878,-0.22103983163833618,-1.047896146774292
1763701046640806400,6.810806396484375,0.5347646474838257,-0.21066255867481232,-1.1539719104766846
1763701046650764500,6.8207646484375,0.5237380862236023,-0.20958557724952698,-1.2511606216430664
1763701046660723500,6.830723388671875,0.4807480275630951,-0.21225382387638092,-1.2973800897598267
1763701046670682400,6.840682373046875,0.4327714443206787,-0.22992417216300964,-1.2793684005737305
1763701046680641500,6.8506416015625,0.41376200318336487,-0.22224140167236328,-1.1952145099639893
1763701046690599400,6.860599365234375,0.43051114678382874,-0.17144374549388885,-1.0679492950439453
1763701046700558300,6.870558349609375,0.4550655484199524,-0.09357909113168716,-0.9327402710914612
1763701046710517500,6.880517578125,0.4852524995803833,-0.0015588820679113269,-0.8375394344329834
1763701046720476400,6.890476318359375,0.5129765272140503,0.08138690888881683,-0.8086484670639038
1763701046730434300,6.900434326171875,0.5366339087486267,0.1267237514257431,-0.8470741510391235
1763701046740393500,6.9103935546875,0.5850497484207153,0.1772984117269516,-0.9100034236907959
1763701046750352400,6.920352294921875,0.6450179815292358,0.181827113032341,-0.9648842215538025
1763701046760310500,6.930310546875,0.657569944858551,0.09761983901262283,-1.0144745111465454
1763701046770269400,6.94026953125,0.5679697394371033,-0.11633452773094177,-1.0811662673950195
1763701046780228600,6.950228515625,0.39510926604270935,-0.425260066986084,-1.172886848449707
1763701046790187500,6.9601875,0.20284582674503326,-0.7456588745117188,-1.2683476209640503
1763701046800145400,6.9701455078125,0.017915906384587288,-1.0792979001998901,-1.3319016695022583
1763701046810104600,6.9801044921875,-0.1532164216041565,-1.396953821182251,-1.3564776182174683
1763701046820063500,6.9900634765625,-0.2952464818954468,-1.491148829460144,-1.362140417098999
1763701046830021400,7.000021484375,-0.4701160490512848,-1.367667317390442,-1.3976408243179321
1763701046839980500,7.00998046875,-0.7349037528038025,-1.201043725013733,-1.4820789098739624
1763701046849939700,7.019939697265625,-1.0286825895309448,-0.9961646199226379,-1.5692529678344727
1763701046859898600,7.029898681640625,-1.2840728759765625,-0.7531751394271851,-1.5489219427108765
1763701046869856500,7.0398564453125,-1.487960696220398,-0.5410895347595215,-1.3872050046920776
1763701046879815700,7.049815673828125,-1.6356180906295776,-0.3584853410720825,-1.1269869804382324
1763701046889774600,7.059774658203125,-1.7201756238937378,-0.19857022166252136,-0.8724401593208313
1763701046899733500,7.0697333984375,-1.75594162940979,-0.053162723779678345,-0.7050237655639648
1763701046909691600,7.079691650390625,-1.7622252702713013,0.08295810222625732,-0.6584714651107788
1763701046919650600,7.089650634765625,-1.7352203130722046,0.22729770839214325,-0.7093998193740845
1763701046929609500,7.099609375,-1.6902265548706055,0.3930661678314209,-0.8140631318092346
1763701046939567600,7.109567626953125,-1.6539456844329834,0.5246503353118896,-0.9113232493400574
1763701046949526500,7.119526611328125,-1.644938349723816,0.5897753238677979,-0.9277762174606323
1763701046959485400,7.1294853515625,-1.669662594795227,0.611810028553009,-0.846386730670929
1763701046969444600,7.139444580078125,-1.6973371505737305,0.5866506099700928,-0.6952595114707947
1763701046979402500,7.149402587890625,-1.677939534187317,0.5361570119857788,-0.5011226534843445
1763701046989361400,7.159361328125,-1.611083745956421,0.4727572798728943,-0.27451324462890625
1763701046999320600,7.169320556640625,-1.5466235876083374,0.3788355588912964,-0.04116334021091461
1763701047009278500,7.179278564453125,-1.5199823379516602,0.2725224494934082,0.12274916470050812
1763701047019237600,7.189237548828125,-1.5492924451828003,0.26647499203681946,0.12960122525691986
1763701047029196500,7.199196533203125,-1.6233232021331787,0.2761686444282532,-0.008346782997250557
1763701047039155500,7.209155517578125,-1.7722232341766357,0.2597108483314514,-0.23534518480300903
1763701047049113600,7.219113525390625,-2.019688844680786,0.1039808914065361,-0.43372005224227905
1763701047059072500,7.229072509765625,-2.3510382175445557,-0.28281405568122864,-0.516124427318573
1763701047069031400,7.239031494140625,-2.646435499191284,-0.7068185806274414,-0.507086992263794
1763701047078990300,7.248990234375,-2.8159897327423096,-0.9460191130638123,-0.4628955125808716
1763701047088949000,7.258948974609375,-2.892690420150757,-0.9106616377830505,-0.408176064491272
1763701047098908000,7.268907958984375,-2.9368317127227783,-0.6923525333404541,-0.3822828531265259
1763701047108866800,7.27886669921875,-2.9458529949188232,-0.2885110378265381,-0.45686760544776917
1763701047118825000,7.288824951171875,-2.90401029586792,0.26243945956230164,-0.6384283304214478
1763701047128784000,7.298783935546875,-2.8130576610565186,0.7560041546821594,-0.8836498260498047
1763701047138743000,7.308742919921875,-2.6604533195495605,1.049917221069336,-1.1110550165176392
1763701047148702200,7.3187021484375,-2.4242846965789795,1.1772911548614502,-1.2548872232437134
1763701047158659800,7.328659912109375,-2.0972206592559814,1.1802453994750977,-1.321494698524475
1763701047168619300,7.338619384765625,-1.702691674232483,1.0392524003982544,-1.3415091037750244
1763701047178578200,7.348578125,-1.2652264833450317,0.8078689575195312,-1.3429073095321655
1763701047188535800,7.358535888671875,-0.8472033739089966,0.5234862565994263,-1.3403719663619995
1763701047198495200,7.3684951171875,-0.5025336742401123,0.20581161975860596,-1.3463982343673706
1763701047208454100,7.3784541015625,-0.2302534133195877,-0.06819755584001541,-1.353745937347412
1763701047218413000,7.3884130859375,-0.01793021708726883,-0.2164434939622879,-1.3704419136047363
1763701047228371200,7.39837109375,0.12600457668304443,-0.24233289062976837,-1.3978687524795532
1763701047238330000,7.408330078125,0.21089476346969604,-0.2230476588010788,-1.4253926277160645
1763701047248289000,7.4182890625,0.2598457932472229,-0.18827930092811584,-1.4029176235198975
1763701047258247200,7.4282470703125,0.29632946848869324,-0.19951967895030975,-1.248144268989563
1763701047268206000,7.4382060546875,0.33443132042884827,-0.27922168374061584,-0.9691012501716614
1763701047278165000,7.4481650390625,0.3694925904273987,-0.42020219564437866,-0.6684943437576294
1763701047288124200,7.458124267578125,0.3838646113872528,-0.6212759613990784,-0.4472373425960541
1763701047298082000,7.46808203125,0.3457963466644287,-0.9582217335700989,-0.33939796686172485
1763701047308041200,7.478041259765625,0.267057865858078,-1.4869964122772217,-0.362623393535614
1763701047318000000,7.488000244140625,0.2944492697715759,-1.8910706043243408,-0.5245254635810852
1763701047327959000,7.497958984375,0.4700480103492737,-2.0028955936431885,-0.7436237335205078
1763701047337917200,7.507917236328125,0.7237177491188049,-1.9587277173995972,-0.8370959162712097
1763701047347876000,7.5178759765625,0.989181399345398,-1.8198997974395752,-0.744581937789917
1763701047357835000,7.5278349609375,1.244540810585022,-1.5552563667297363,-0.4952429533004761
1763701047367793200,7.537793212890625,1.4645453691482544,-1.2321821451187134,-0.17458480596542358
1763701047377752000,7.547751953125,1.6010326147079468,-0.9806303381919861,0.1067584827542305
1763701047387711000,7.5577109375,1.650641918182373,-0.8095642924308777,0.24492782354354858
1763701047397670100,7.567670166015625,1.6416079998016357,-0.6572312712669373,0.22227294743061066
1763701047407628000,7.5776279296875,1.6297835111618042,-0.5378652215003967,0.1278441846370697
1763701047417587000,7.5875869140625,1.6425344944000244,-0.4111171364784241,0.021875809878110886
1763701047427546000,7.597546142578125,1.6827332973480225,-0.3066256046295166,-0.07115452736616135
1763701047437504000,7.60750390625,1.748591423034668,-0.2518470585346222,-0.15404729545116425
1763701047447463000,7.617462890625,1.831982970237732,-0.2627321779727936,-0.24296358227729797
1763701047457422000,7.627422119140625,1.9395499229431152,-0.3299732804298401,-0.35534536838531494
1763701047467381000,7.637381103515625,2.074882984161377,-0.4297483265399933,-0.5106484293937683
1763701047477339100,7.647339111328125,2.238936185836792,-0.5607196688652039,-0.7188054919242859
1763701047487298000,7.657298095703125,2.4649758338928223,-0.6931482553482056,-0.9708145260810852
1763701047497257000,7.667257080078125,2.7742035388946533,-0.8260828852653503,-1.2420172691345215
1763701047507216000,7.6772158203125,3.1632211208343506,-0.9652157425880432,-1.4923062324523926
1763701047517174000,7.687174072265625,3.5741732120513916,-1.1430763006210327,-1.6949177980422974
1763701047527133000,7.6971328125,3.9530980587005615,-1.4018460512161255,-1.8257430791854858
1763701047537092000,7.707092041015625,4.253451347351074,-1.708756446838379,-1.8565731048583984
1763701047547050000,7.717050048828125,4.453134536743164,-2.0200233459472656,-1.7682991027832031
1763701047557009000,7.7270087890625,4.516363143920898,-2.324087142944336,-1.543232798576355
1763701047566968000,7.736968017578125,4.4453253746032715,-2.571352005004883,-1.2087419033050537
1763701047576927000,7.746927001953125,4.236411094665527,-2.7087759971618652,-0.799981415271759
1763701047586884900,7.756884765625,3.8852577209472656,-2.763158082962036,-0.30144327878952026
1763701047596844000,7.766843994140625,3.390775203704834,-2.761155366897583,0.3197919428348541
1763701047606803000,7.776802978515625,2.776381015777588,-2.726043462753296,1.0319761037826538
1763701047616761000,7.786760986328125,2.033259153366089,-2.6051416397094727,1.7513288259506226
1763701047626720000,7.796719970703125,1.1959834098815918,-2.370838165283203,2.367964267730713
1763701047636679000,7.806678955078125,0.38763946294784546,-1.8937581777572632,2.8009586334228516
1763701047646638000,7.81663818359375,-0.31357908248901367,-1.0982940196990967,3.0468945503234863
1763701047656596000,7.826595947265625,-0.8610228300094604,-0.06554055958986282,3.0909583568573
1763701047666555000,7.836554931640625,-1.240710735321045,1.00700843334198,2.91552472114563
1763701047676514000,7.84651416015625,-1.4689759016036987,1.7973188161849976,2.5317158699035645
1763701047686472000,7.856471923828125,-1.513403296470642,2.218419075012207,2.004120111465454
1763701047696431000,7.86643115234375,-1.311354398727417,2.339301586151123,1.3996896743774414
1763701047706390000,7.87639013671875,-0.8491930961608887,2.2866220474243164,0.7602074146270752
1763701047716349200,7.88634912109375,-0.17899499833583832,2.105247974395752,0.07270170003175735
1763701047726307000,7.89630712890625,0.5841827988624573,1.7211902141571045,-0.6684629321098328
1763701047736266200,7.906266357421875,1.416851282119751,1.2592936754226685,-1.4204659461975098
1763701047746225200,7.91622509765625,2.2301392555236816,0.7831910252571106,-2.0957274436950684
1763701047756183000,7.92618310546875,2.94648814201355,0.2612204849720001,-2.604318857192993
1763701047766142200,7.93614208984375,3.5028443336486816,-0.23866280913352966,-2.9058642387390137
1763701047776101000,7.94610107421875,3.8623569011688232,-0.6552621126174927,-3.0277702808380127
1763701047786060000,7.95606005859375,4.00576639175415,-0.953140377998352,-3.0247395038604736
1763701047796018200,7.96601806640625,3.930680751800537,-1.1142324209213257,-2.9507057666778564
1763701047805977000,7.97597705078125,3.6628119945526123,-1.1572152376174927,-2.829575777053833
1763701047815936000,7.98593603515625,3.2677698135375977,-1.1261292695999146,-2.675550937652588
1763701047825895200,7.995895263671875,2.8470358848571777,-1.0588064193725586,-2.4914984703063965
1763701047835853000,8.00585302734375,2.476480722427368,-0.9671505093574524,-2.301074504852295
1763701047845812000,8.01581201171875,2.204875946044922,-0.8751668334007263,-2.1362648010253906
1763701047855771100,8.025771240234375,2.0420002937316895,-0.7901818752288818,-2.0197112560272217
1763701047865729000,8.03572900390625,1.9748908281326294,-0.7169843912124634,-1.9612983465194702
1763701047875688200,8.045688232421876,1.9707142114639282,-0.6972705721855164,-1.9597967863082886
1763701047885647000,8.055647216796874,2.0108835697174072,-0.6905767321586609,-2.0103225708007812
1763701047895606000,8.06560595703125,2.092611312866211,-0.6891026496887207,-2.084801435470581
1763701047905564200,8.075564208984375,2.207275867462158,-0.6820842027664185,-2.14746356010437
1763701047915523000,8.085523193359375,2.339667320251465,-0.6797153353691101,-2.1690118312835693
1763701047925482000,8.09548193359375,2.4665703773498535,-0.6664525270462036,-2.1457419395446777
1763701047935440100,8.105440185546875,2.574355363845825,-0.6391255259513855,-2.0956504344940186
1763701047945399000,8.11539892578125,2.6570029258728027,-0.5789175629615784,-2.042208433151245
1763701047955358000,8.12535791015625,2.732569694519043,-0.4866670072078705,-2.003919839859009
1763701047965317000,8.135317138671875,2.8229801654815674,-0.38263142108917236,-1.970412015914917
1763701047975275000,8.14527490234375,2.9295966625213623,-0.26039740443229675,-1.930946707725525
1763701047985234000,8.15523388671875,3.0372262001037598,-0.14323829114437103,-1.8844859600067139
1763701047995193000,8.165193115234375,3.1204965114593506,-0.047252073884010315,-1.8246029615402222
1763701048005151000,8.17515087890625,3.149311065673828,-0.023602934554219246,-1.741136074066162
1763701048015110000,8.18510986328125,3.108962059020996,-0.11351551860570908,-1.625174880027771
1763701048025069000,8.195069091796874,3.028881311416626,-0.22011759877204895,-1.5110267400741577
1763701048035028000,8.205028076171875,2.9524619579315186,-0.2548428773880005,-1.438632607460022
1763701048044986000,8.214986083984375,2.896320104598999,-0.22212539613246918,-1.406961441040039
1763701048054945000,8.224945068359375,2.853308916091919,-0.15716980397701263,-1.370160698890686
1763701048064904000,8.234904052734375,2.804206132888794,-0.06958722323179245,-1.285868763923645
1763701048074862000,8.244862060546875,2.7412478923797607,0.01779239997267723,-1.1456626653671265
1763701048084821000,8.254821044921876,2.6674678325653076,0.08978589624166489,-0.955159068107605
1763701048094780400,8.264780517578124,2.581613063812256,0.15781530737876892,-0.748795211315155
1763701048104739300,8.2747392578125,2.479461193084717,0.23487120866775513,-0.545498251914978
1763701048114697500,8.284697509765625,2.3674285411834717,0.32642775774002075,-0.3669816553592682
1763701048124656400,8.294656494140625,2.2377350330352783,0.45471489429473877,-0.21822121739387512
1763701048134615300,8.304615234375,2.0836021900177,0.600175142288208,-0.10383284091949463
1763701048144573400,8.314573486328126,1.9303287267684937,0.7562577128410339,-0.02506532520055771
1763701048154532400,8.324532470703126,1.8066326379776,0.93925940990448,0.00988597609102726
1763701048164491500,8.334491455078124,1.7290557622909546,1.1106916666030884,-0.006920434534549713
1763701048174450400,8.344450439453125,1.7131266593933105,1.2489392757415771,-0.07493714988231659
1763701048184408300,8.354408203125,1.7638894319534302,1.325976014137268,-0.1958712935447693
1763701048194367500,8.364367431640625,1.8726565837860107,1.349957823753357,-0.3663869798183441
1763701048204326400,8.374326416015625,2.0297162532806396,1.3117643594741821,-0.5879004001617432
1763701048214284500,8.384284423828126,2.2224855422973633,1.2112220525741577,-0.8499579429626465
1763701048224243500,8.394243408203126,2.4542598724365234,1.064841389656067,-1.1428678035736084
1763701048234202400,8.404202392578124,2.708740711212158,0.92512446641922,-1.4353528022766113
1763701048244161300,8.414161376953125,2.9665520191192627,0.7894824743270874,-1.6836485862731934
1763701048254119400,8.424119384765625,3.1927871704101562,0.6218929290771484,-1.8640364408493042
1763701048264078300,8.434078369140625,3.3657431602478027,0.4335261881351471,-1.9872320890426636
1763701048274037200,8.444037353515625,3.473655939102173,0.23142452538013458,-2.0531680583953857
1763701048283995400,8.453995361328126,3.514146566390991,0.036254771053791046,-2.044314384460449
1763701048293954300,8.463954345703126,3.4740793704986572,-0.1588028520345688,-1.9526183605194092
1763701048303913500,8.47391357421875,3.3488683700561523,-0.3498348593711853,-1.765787959098816
1763701048313872400,8.483872314453125,3.1408798694610596,-0.5329282879829407,-1.4885704517364502
1763701048323830300,8.493830322265625,2.8660008907318115,-0.6812117695808411,-1.1449023485183716
1763701048333789400,8.50378955078125,2.542616128921509,-0.772439181804657,-0.767397940158844
1763701048343748400,8.513748291015625,2.1873199939727783,-0.7629681825637817,-0.403632789850235
1763701048353706200,8.523706298828126,1.8058847188949585,-0.6713467836380005,-0.0815213993191719
1763701048363665400,8.53366552734375,1.38931143283844,-0.5366808772087097,0.18307191133499146
1763701048373624300,8.543624267578124,0.95829838514328,-0.3888443112373352,0.38355717062950134
1763701048383583200,8.553583251953125,0.5659838318824768,-0.26187971234321594,0.5230708718299866
1763701048393541400,8.563541259765625,0.26806506514549255,-0.15325896441936493,0.5983127355575562
1763701048403500300,8.573500244140625,0.09099309891462326,-0.03962987661361694,0.6315564513206482
1763701048413459200,8.583459228515625,0.0008110629860311747,-0.0011347394902259111,0.6293848752975464
1763701048423417300,8.593417236328126,-0.03943942114710808,-0.06400584429502487,0.5911634564399719
1763701048433376300,8.603376220703124,-0.06168142706155777,-0.1781618893146515,0.5330888628959656
1763701048443335400,8.61333544921875,-0.11343064159154892,-0.2888742983341217,0.4827583432197571
1763701048453294600,8.623294677734375,-0.21600811183452606,-0.3656631112098694,0.4404695928096771
1763701048463252200,8.633252197265625,-0.33754414319992065,-0.3116843104362488,0.3679112195968628
1763701048473211600,8.643211669921875,-0.4452679455280304,-0.10146821290254593,0.2487880438566208
1763701048483170600,8.653170654296876,-0.5368947982788086,0.22638556361198425,0.08819117397069931
1763701048493128200,8.663128173828126,-0.6085604429244995,0.5967845916748047,-0.10195374488830566
1763701048503087600,8.673087646484374,-0.6799243688583374,0.8860462307929993,-0.2874966859817505
1763701048513046500,8.683046630859375,-0.7412838935852051,1.025770664215088,-0.44403010606765747
1763701048523005400,8.69300537109375,-0.7574561834335327,1.0600370168685913,-0.565180778503418
1763701048532963600,8.702963623046875,-0.7028903961181641,0.9979658722877502,-0.6715230345726013
1763701048542922500,8.712922607421875,-0.5804909467697144,0.8846361041069031,-0.7799667119979858
1763701048552881400,8.72288134765625,-0.42549237608909607,0.7347928881645203,-0.8959274888038635
1763701048562839600,8.732839599609376,-0.2719283699989319,0.5555791854858398,-1.0113822221755981
1763701048572798500,8.742798583984374,-0.12560422718524933,0.3615857660770416,-1.1146433353424072
1763701048582757400,8.75275732421875,0.03335506469011307,0.2099861204624176,-1.2105480432510376
1763701048592716500,8.762716552734375,0.2209332436323166,0.13637764751911163,-1.3061975240707397
1763701048602674400,8.77267431640625,0.43075013160705566,0.12059282511472702,-1.4066319465637207
1763701048612633300,8.78263330078125,0.6450719833374023,0.12001091986894608,-1.4845526218414307
1763701048622592500,8.792592529296876,0.8413333892822266,0.12933731079101562,-1.5092902183532715
1763701048632550400,8.80255029296875,0.9941885471343994,0.1451822966337204,-1.4747511148452759
1763701048642509600,8.812509521484374,1.0958548784255981,0.16479460895061493,-1.3860127925872803
1763701048652468500,8.822468505859375,1.1417914628982544,0.1695994883775711,-1.269528865814209
1763701048662427400,8.832427490234375,1.147346019744873,0.18901260197162628,-1.165009617805481
1763701048672385500,8.842385498046875,1.1412663459777832,0.23831969499588013,-1.0999213457107544
1763701048682344400,8.852344482421875,1.1316092014312744,0.28527361154556274,-1.060414433479309
1763701048692303400,8.862303466796876,1.1297798156738281,0.3354097306728363,-1.0127798318862915
1763701048702262500,8.872262451171874,1.1390396356582642,0.36940258741378784,-0.927251935005188
1763701048712220400,8.882220458984374,1.1461819410324097,0.3546479046344757,-0.8040949702262878
1763701048722179300,8.892179443359375,1.1664161682128906,0.3259353041648865,-0.653673529624939
1763701048732138500,8.902138427734375,1.2071090936660767,0.3231402635574341,-0.504027783870697
1763701048742096400,8.912096435546875,1.2455675601959229,0.3246699869632721,-0.3575150966644287
1763701048752055300,8.92205517578125,1.256869912147522,0.28424808382987976,-0.22761990129947662
1763701048762014500,8.932014404296876,1.2555670738220215,0.24762479960918427,-0.1188066154718399
1763701048771972400,8.941972412109376,1.257176399230957,0.25186240673065186,-0.0360904335975647
1763701048781931500,8.951931640625,1.2611080408096313,0.28664037585258484,0.02689039334654808
1763701048791890400,8.961890380859375,1.2661185264587402,0.35168060660362244,0.07486431300640106
1763701048801849300,8.971849365234375,1.274878740310669,0.41602152585983276,0.09862689673900604
1763701048811807500,8.981807373046875,1.2884446382522583,0.4520479440689087,0.10692516714334488
1763701048821766400,8.991766357421875,1.3061985969543457,0.45367273688316345,0.11694477498531342
1763701048831725300,9.001725341796876,1.3235172033309937,0.42173075675964355,0.1447705328464508
1763701048841683500,9.011683349609376,1.3395824432373047,0.37095093727111816,0.18583647906780243
1763701048851642400,9.021642333984374,1.3498027324676514,0.3345165252685547,0.22418229281902313
1763701048861601300,9.031601318359375,1.356162667274475,0.3187175691127777,0.24097910523414612
1763701048871560400,9.041560546875,1.3569592237472534,0.32995322346687317,0.2264086902141571
1763701048881518300,9.051518310546875,1.360227108001709,0.3866013288497925,0.17782677710056305
1763701048891477200,9.061477294921875,1.3569244146347046,0.4591121971607208,0.08872510492801666
1763701048901436400,9.0714365234375,1.342225432395935,0.4967584013938904,-0.02796156331896782
1763701048911395300,9.081395263671874,1.3244925737380981,0.5120527148246765,-0.13695552945137024
1763701048921353200,9.091353271484374,1.3194483518600464,0.4946800768375397,-0.20993013679981232
1763701048931312400,9.1013125,1.3337193727493286,0.4647488594055176,-0.23518356680870056
1763701048941271300,9.111271240234375,1.3710308074951172,0.43443647027015686,-0.23205727338790894
1763701048951229400,9.1212294921875,1.4124666452407837,0.4174492359161377,-0.23231548070907593
1763701048961188400,9.131188232421875,1.4523082971572876,0.4100094437599182,-0.2650185525417328
1763701048971147300,9.141147216796876,1.4846857786178589,0.43623197078704834,-0.32537245750427246
1763701048981105400,9.15110546875,1.517177939414978,0.4743841290473938,-0.39420798420906067
1763701048991064300,9.161064208984374,1.5637296438217163,0.47272127866744995,-0.44839197397232056
1763701049001023500,9.1710234375,1.6319372653961182,0.45295795798301697,-0.45600542426109314
1763701049010982400,9.180982421875,1.7119550704956055,0.4299994111061096,-0.4368663430213928
1763701049020940300,9.190940185546875,1.775036096572876,0.3440927565097809,-0.43417149782180786
1763701049030899500,9.2008994140625,1.8022713661193848,0.195090189576149,-0.4783446788787842
1763701049040858600,9.210858642578126,1.7593306303024292,0.0021002369467169046,-0.540732204914093
1763701049050816500,9.22081640625,1.5471850633621216,-0.3232634365558624,-0.5332694053649902
1763701049060775400,9.230775390625,1.1663562059402466,-0.8464416861534119,-0.46635913848876953
1763701049070734600,9.240734619140625,0.7432478666305542,-1.354121446609497,-0.4821929633617401
1763701049080693500,9.250693603515625,0.40448445081710815,-1.671982765197754,-0.6843316555023193
1763701049090651000,9.26065087890625,0.2659319341182709,-1.7085109949111938,-0.975935697555542
1763701049100609800,9.27060986328125,0.38407084345817566,-1.347983717918396,-1.193640947341919
1763701049110568700,9.280568603515626,0.6371254324913025,-0.8111516833305359,-1.223365306854248
1763701049120526800,9.29052685546875,0.7954042553901672,-0.46450501680374146,-1.0787473917007446
1763701049130485800,9.30048583984375,0.7498331069946289,-0.45582157373428345,-0.8520168662071228
1763701049140445000,9.31044482421875,0.539870023727417,-0.6042491793632507,-0.6319987177848816
1763701049150404000,9.320404052734375,0.24081988632678986,-0.6915988326072693,-0.4799557626247406
1763701049160361700,9.33036181640625,-0.05517129600048065,-0.5940746665000916,-0.4309690594673157
1763701049170321000,9.34032080078125,-0.2988121509552002,-0.33070647716522217,-0.459306001663208
1763701049180280000,9.350280029296876,-0.4892481565475464,-0.03838460519909859,-0.5026958584785461
1763701049190237700,9.36023779296875,-0.6456134915351868,0.18408623337745667,-0.5162806510925293
1763701049200196900,9.37019677734375,-0.7567874193191528,0.2565103769302368,-0.47703760862350464
1763701049210156000,9.380156005859375,-0.7814198136329651,0.21995876729488373,-0.37415915727615356
1763701049220115000,9.390114990234375,-0.7144471406936646,0.12755373120307922,-0.20429983735084534
1763701049230073000,9.400072998046875,-0.5968946814537048,0.021791335195302963,0.020572416484355927
1763701049240032000,9.410031982421875,-0.4663774371147156,-0.0449000783264637,0.25699877738952637
1763701049249991000,9.419990966796876,-0.3734177052974701,-0.05556465685367584,0.456055223941803
1763701049259949000,9.429948974609376,-0.34574878215789795,-0.028975656256079674,0.5826874375343323
1763701049269908000,9.439907958984374,-0.35996928811073303,0.02960140071809292,0.6399157047271729
1763701049279867000,9.449866943359375,-0.3554821312427521,0.14670485258102417,0.6650325059890747
1763701049289825800,9.45982568359375,-0.3087502717971802,0.236114040017128,0.7062474489212036
1763701049299784000,9.469783935546875,-0.2031087875366211,0.18607911467552185,0.7823914885520935
1763701049309742800,9.479742919921875,-0.016726115718483925,0.12849116325378418,0.8761999011039734
1763701049319702000,9.489701904296876,0.21273556351661682,0.06920146942138672,0.9651755690574646
1763701049329660000,9.499659912109376,0.40518486499786377,-0.0142744779586792,1.0349035263061523
1763701049339618800,9.509618896484374,0.5615284442901611,-0.020688969641923904,1.0694478750228882
1763701049349578000,9.519577880859375,0.6876945495605469,-0.0005674409912899137,1.0512443780899048
1763701049359537000,9.529536865234375,0.8079301714897156,-0.012628098949790001,1.0112354755401611
1763701049369495000,9.5394951171875,0.8612499237060547,-0.09376586228609085,1.0053757429122925
1763701049379454000,9.549453857421875,0.8359546661376953,-0.32252418994903564,1.0348840951919556
1763701049389412900,9.559412841796876,0.8396626114845276,-0.3106444180011749,0.9903310537338257
1763701049399371000,9.56937109375,0.8700404763221741,-0.0253647118806839,0.8529964089393616
1763701049409330000,9.579329833984374,0.8269465565681458,0.2455272376537323,0.7806457877159119
1763701049419288800,9.589288818359375,0.7376203536987305,0.49317696690559387,0.8486623764038086
1763701049429247700,9.599247802734375,0.6807933449745178,0.7755895256996155,0.9578392505645752
1763701049439206000,9.609205810546875,0.6803877353668213,1.0116147994995117,0.9892136454582214
1763701049449164800,9.619164794921875,0.7240132093429565,1.1674405336380005,0.9309213161468506
1763701049459124000,9.6291240234375,0.7864046692848206,1.2114427089691162,0.8082049489021301
1763701049469081900,9.639081787109374,0.8373306393623352,1.1650468111038208,0.6422232389450073
1763701049479040800,9.649040771484374,0.8523194789886475,1.0460468530654907,0.4430731236934662
1763701049489000000,9.659,0.7860744595527649,0.8380390405654907,0.2593519687652588
1763701049498958800,9.668958740234375,0.6458398699760437,0.581580638885498,0.1647176295518875
1763701049508916700,9.678916748046875,0.48004794120788574,0.37881502509117126,0.18312513828277588
1763701049518876000,9.6888759765625,0.31668776273727417,0.27894994616508484,0.26503226161003113
1763701049528834800,9.698834716796876,0.16602452099323273,0.3050571382045746,0.34952715039253235
1763701049538793000,9.70879296875,-0.006179468706250191,0.4068852365016937,0.40472275018692017
1763701049548752000,9.718751953125,-0.22029604017734528,0.4966513514518738,0.44254401326179504
1763701049558710800,9.728710693359375,-0.4248046875,0.5388187766075134,0.4731650650501251
1763701049568669700,9.738669677734375,-0.5552529692649841,0.5617043375968933,0.5071316957473755
1763701049578627800,9.7486279296875,-0.5792821645736694,0.5879774689674377,0.5346256494522095
1763701049588586800,9.758586669921876,-0.5130941271781921,0.6232660412788391,0.5232158899307251
1763701049598545700,9.768545654296876,-0.3750656545162201,0.6747726202011108,0.4407244622707367
1763701049608503800,9.77850390625,-0.189104825258255,0.7580222487449646,0.2862154245376587
1763701049618462700,9.788462646484374,-0.004176793619990349,0.8194107413291931,0.07079685479402542
1763701049628422000,9.798421875,0.18280959129333496,0.8604497909545898,-0.17652198672294617
1763701049638379800,9.8083798828125,0.3905830383300781,0.8481811881065369,-0.391044944524765
1763701049648338700,9.818338623046875,0.6155288219451904,0.7754430174827576,-0.5462060570716858
1763701049658297900,9.8282978515625,0.8635039925575256,0.6863669753074646,-0.6327763199806213
1763701049668256800,9.8382568359375,1.1054621934890747,0.5968067049980164,-0.6363089084625244
1763701049678215000,9.84821484375,1.2434196472167969,0.4700285494327545,-0.5686882734298706
1763701049688173800,9.858173828125,1.21928870677948,0.2481803297996521,-0.4643963575363159
1763701049698133000,9.868133056640625,1.029068946838379,-0.020656732842326164,-0.3322511315345764
1763701049708091000,9.8780908203125,0.6960551142692566,-0.3600742816925049,-0.14073805510997772
1763701049718049800,9.8880498046875,0.31843459606170654,-0.68209308385849,0.11826901137828827
1763701049728009000,9.898009033203126,-0.02642938867211342,-0.8654024004936218,0.3794814646244049
1763701049737967900,9.9079677734375,-0.3862552046775818,-1.0755507946014404,0.5472227931022644
1763701049747925800,9.91792578125,-0.7206518650054932,-1.2675234079360962,0.5638158917427063
1763701049757885000,9.927885009765625,-0.9083793759346008,-1.171520471572876,0.4837125539779663
1763701049767843800,9.93784375,-0.9400497078895569,-0.7901043891906738,0.45999017357826233
1763701049777802000,9.947802001953125,-0.9208073019981384,-0.3477482795715332,0.5739108324050903
1763701049787761000,9.957760986328125,-0.9114017486572266,0.020938098430633545,0.7443461418151855
1763701049797720000,9.967719970703126,-0.9214075207710266,0.26728555560112,0.8441161513328552
1763701049807679000,9.977678955078124,-0.9443221688270569,0.38853687047958374,0.8581528663635254
1763701049817636900,9.987636962890624,-0.9350628852844238,0.43692997097969055,0.8211474418640137
1763701049827596000,9.997595947265625,-0.8487418293952942,0.4973949193954468,0.7605690360069275
1763701049837555000,10.007554931640625,-0.6725223660469055,0.5890443921089172,0.6533914804458618
1763701049847513000,10.01751318359375,-0.4284553825855255,0.6900213360786438,0.4883400499820709
1763701049857472000,10.027471923828125,-0.1880885809659958,0.7174575328826904,0.2608754634857178
1763701049867431000,10.037430908203126,0.01831359602510929,0.6448869109153748,0.021564066410064697
1763701049877389000,10.04738916015625,0.20453086495399475,0.4889644384384155,-0.17268450558185577
1763701049887348000,10.057347900390624,0.38684898614883423,0.27298370003700256,-0.2805389165878296
1763701049897307000,10.067306884765625,0.584423303604126,0.09986650198698044,-0.3023337125778198
1763701049907265800,10.077265869140625,0.7762511372566223,-0.020892439410090446,-0.24585431814193726
1763701049917224000,10.087223876953125,0.9107186794281006,-0.11252196133136749,-0.13225612044334412
1763701049927182800,10.097182861328125,0.9483124017715454,-0.19565734267234802,0.019994255155324936
1763701049937142000,10.10714208984375,0.909502387046814,-0.25434914231300354,0.19367843866348267
1763701049947100000,10.117099853515626,0.8029026985168457,-0.30666619539260864,0.3576965034008026
1763701049957058800,10.127058837890624,0.6604925990104675,-0.3212755024433136,0.5118061900138855
1763701049967018000,10.13701806640625,0.4725247919559479,-0.34849485754966736,0.6373310685157776
1763701049976977000,10.146976806640625,0.21471723914146423,-0.4268389344215393,0.7091099619865417
1763701049986934800,10.156934814453125,-0.059699974954128265,-0.44224074482917786,0.7230252623558044
1763701049996894000,10.16689404296875,-0.31870198249816895,-0.45957764983177185,0.7388883829116821
1763701050006852900,10.176852783203126,-0.5045484304428101,-0.44002243876457214,0.7769941687583923
1763701050016811000,10.18681103515625,-0.548555850982666,-0.21704578399658203,0.7930442690849304
1763701050026770000,10.19677001953125,-0.44877737760543823,0.23080819845199585,0.7050495743751526
1763701050036728800,10.206728759765625,-0.27991777658462524,0.7596222162246704,0.5057769417762756
1763701050046687700,10.216687744140625,-0.13696891069412231,1.2073496580123901,0.26580360531806946
1763701050056646000,10.22664599609375,-0.08349955826997757,1.4441741704940796,0.06977685540914536
1763701050066604800,10.236604736328125,-0.11861202865839005,1.466208815574646,-0.061816319823265076
1763701050076563700,10.246563720703126,-0.1850600242614746,1.3857293128967285,-0.15661685168743134
1763701050086521900,10.25652197265625,-0.2508949339389801,1.280427098274231,-0.23604924976825714
1763701050096480800,10.266480712890624,-0.3185003399848938,1.1777129173278809,-0.31889405846595764
1763701050106440000,10.27643994140625,-0.40389806032180786,1.0625776052474976,-0.39996400475502014
1763701050116398800,10.28639892578125,-0.500639796257019,0.9360476136207581,-0.463776558637619
1763701050126356700,10.296356689453125,-0.5930702090263367,0.8151223063468933,-0.5066594481468201
1763701050136316000,10.30631591796875,-0.6561727523803711,0.6876828074455261,-0.5212711095809937
1763701050146274800,10.31627490234375,-0.6653051972389221,0.5280970931053162,-0.4756320118904114
1763701050156233000,10.32623291015625,-0.6359810829162598,0.3698265254497528,-0.34377172589302063
1763701050166191900,10.33619189453125,-0.5947529673576355,0.2496889978647232,-0.1643408238887787
1763701050176150800,10.34615087890625,-0.5433374643325806,0.21516217291355133,0.007010156754404306
1763701050186109000,10.35610888671875,-0.48858731985092163,0.24693357944488525,0.12579680979251862
1763701050196067800,10.36606787109375,-0.4457429349422455,0.3168250322341919,0.17926643788814545
1763701050206026800,10.37602685546875,-0.396640419960022,0.4043983519077301,0.1491229385137558
1763701050215985700,10.385985595703126,-0.30310940742492676,0.4974476099014282,0.06905313581228256
1763701050225943800,10.39594384765625,-0.13659201562404633,0.612011730670929,-0.02577180787920952
1763701050235902700,10.40590283203125,0.0813155546784401,0.7271188497543335,-0.13003642857074738
1763701050245862000,10.41586181640625,0.30953267216682434,0.8501465916633606,-0.2533470094203949
1763701050255819800,10.42581982421875,0.5186890959739685,0.9427348375320435,-0.4218510687351227
1763701050265778700,10.43577880859375,0.7113820910453796,0.9872676730155945,-0.60642009973526
1763701050275737900,10.44573779296875,0.8972790241241455,0.9740594625473022,-0.7505466341972351
1763701050285696800,10.45569677734375,1.0497812032699585,0.8890127539634705,-0.8259425163269043
1763701050295654700,10.465654541015626,1.1453068256378174,0.6691227555274963,-0.8521967530250549
1763701050305613800,10.47561376953125,1.1726253032684326,0.38070425391197205,-0.8641829490661621
1763701050315572700,10.48557275390625,1.1428745985031128,0.08458523452281952,-0.8761304020881653
1763701050325531000,10.49553076171875,1.0479949712753296,-0.23486679792404175,-0.8292903304100037
1763701050335489800,10.50548974609375,0.855470597743988,-0.6165726184844971,-0.6826897263526917
1763701050345448700,10.51544873046875,0.6057590246200562,-1.050666093826294,-0.4828171133995056
1763701050355407600,10.52540771484375,0.3842857778072357,-1.3455760478973389,-0.31141552329063416
1763701050365365800,10.53536572265625,0.22285056114196777,-1.353806495666504,-0.2035379260778427
1763701050375324700,10.54532470703125,0.13910000026226044,-1.0549825429916382,-0.12451688945293427
1763701050385283600,10.55528369140625,0.13938917219638824,-0.5143274664878845,-0.04227990284562111
1763701050395241700,10.56524169921875,0.14386168122291565,0.0027484262827783823,0.09683084487915039
1763701050405200600,10.57520068359375,0.07514575868844986,0.32054075598716736,0.2935115396976471
1763701050415159800,10.585159912109376,-0.03470643609762192,0.45976123213768005,0.5021939277648926
1763701050425117700,10.59511767578125,-0.13197621703147888,0.47339335083961487,0.6567764282226562
1763701050435076600,10.60507666015625,-0.16770891845226288,0.3948804438114166,0.7262290120124817
1763701050445035800,10.615035888671875,-0.09141793102025986,0.3096689283847809,0.7179306149482727
1763701050454994700,10.62499462890625,0.1030905619263649,0.2367156445980072,0.6334391832351685
1763701050464952800,10.634952880859375,0.37391355633735657,0.17145751416683197,0.523129940032959
1763701050474911700,10.644911865234375,0.6402650475502014,0.09994577616453171,0.44146543741226196
1763701050484871000,10.654870849609376,0.8325183391571045,0.03712749108672142,0.4300469160079956
1763701050494828800,10.664828857421876,0.9367120862007141,-0.004222342744469643,0.4839964509010315
1763701050504787700,10.67478759765625,0.963448703289032,-0.012701902538537979,0.5695099830627441
1763701050514747000,10.684746826171875,0.9327094554901123,-0.06596086174249649,0.6662591695785522
1763701050524704800,10.694704833984375,0.8803200125694275,-0.09893214702606201,0.7699896693229675
1763701050534663700,10.70466357421875,0.8103028535842896,-0.13816185295581818,0.8708337545394897
1763701050544622800,10.714622802734375,0.7369239330291748,-0.204319030046463,0.9577627778053284
1763701050554581800,10.724581787109376,0.6821840405464172,-0.2173280417919159,1.0126371383666992
1763701050564540000,10.734539794921876,0.6280121803283691,-0.22774262726306915,1.0167368650436401
1763701050574498800,10.744498779296874,0.5402176380157471,-0.3141725957393646,0.9799497723579407
1763701050584458000,10.7544580078125,0.38668662309646606,-0.5581628680229187,0.9155251979827881
1763701050594415900,10.764415771484375,0.18093106150627136,-0.9749411940574646,0.8348606824874878
1763701050604374800,10.774374755859375,0.019890788942575455,-1.3481858968734741,0.7706111073493958
1763701050614334000,10.784333984375,-0.061813924461603165,-1.5474982261657715,0.7545021772384644
1763701050624292900,10.79429296875,-0.09084872901439667,-1.4787120819091797,0.7433562874794006
1763701050634250800,10.804250732421876,-0.08394555002450943,-1.1217858791351318,0.6116222143173218
1763701050644210000,10.8142099609375,-0.05888713523745537,-0.7081363797187805,0.2757975161075592
1763701050654168800,10.8241689453125,0.00807725079357624,-0.34179380536079407,-0.19764834642410278
1763701050664127000,10.834126953125,0.11861518770456314,-0.1594362109899521,-0.5799161791801453
1763701050674086000,10.8440859375,0.2641020715236664,-0.19574521481990814,-0.6996316909790039
1763701050684044800,10.854044921875,0.4400995075702667,-0.3397860527038574,-0.6021008491516113
1763701050694003000,10.8640029296875,0.6178606748580933,-0.48819974064826965,-0.43465808033943176
1763701050703961900,10.8739619140625,0.7585054039955139,-0.5729066729545593,-0.3559471666812897
1763701050713920800,10.883920654296874,0.8664249777793884,-0.5659427642822266,-0.4234636127948761
1763701050723880000,10.8938798828125,0.9714733362197876,-0.5090101957321167,-0.6042941212654114
1763701050733837800,10.903837890625,1.106612205505371,-0.47984275221824646,-0.8235844373703003
1763701050743796700,10.913796630859375,1.2615768909454346,-0.5065097808837891,-1.0166970491409302
1763701050753756000,10.923755859375,1.3900730609893799,-0.6504722833633423,-1.1188510656356812
1763701050763713800,10.9337138671875,1.4582234621047974,-0.8415868282318115,-1.0614862442016602
1763701050773672700,10.943672607421876,1.447250247001648,-1.0205724239349365,-0.8411054611206055
1763701050783632000,10.9536318359375,1.348821759223938,-1.1124078035354614,-0.5004604458808899
1763701050793590800,10.9635908203125,1.1724618673324585,-1.053704023361206,-0.11739003658294678
1763701050803549000,10.973548828125,0.9305381178855896,-0.8643299341201782,0.22167812287807465
1763701050813507800,10.9835078125,0.6692005395889282,-0.5872315168380737,0.4655643105506897
1763701050823466800,10.993466796875,0.4548052251338959,-0.2588680684566498,0.6041427850723267
1763701050833425000,11.0034248046875,0.32678574323654175,0.03133261576294899,0.6692874431610107
1763701050843383800,11.0133837890625,0.30756381154060364,0.2745673954486847,0.6887257099151611
1763701050853342700,11.0233427734375,0.38574355840682983,0.4803634285926819,0.6580101847648621
1763701050863300900,11.03330078125,0.5052617192268372,0.5883221626281738,0.5931825637817383
1763701050873259800,11.043259765625,0.6261180639266968,0.5628924369812012,0.5166584849357605
1763701050883218700,11.05321875,0.7127099633216858,0.4441516697406769,0.4562915563583374
1763701050893177900,11.063177734375,0.7909773588180542,0.3076745271682739,0.4290887117385864
1763701050903135700,11.0731357421875,0.8916887640953064,0.20524215698242188,0.4420006275177002
1763701050913094700,11.0830947265625,0.9911035299301147,0.20157817006111145,0.4972556233406067
1763701050923053800,11.0930537109375,1.011542558670044,0.294166624546051,0.581736147403717
1763701050933011700,11.10301171875,0.9159755110740662,0.40399059653282166,0.6613801121711731
1763701050942971000,11.112970947265625,0.7460985779762268,0.45799529552459717,0.6980308294296265
1763701050952929800,11.1229296875,0.6196625828742981,0.4913388788700104,0.6823943257331848
1763701050962888700,11.132888671875,0.5644657015800476,0.6166146993637085,0.6278961300849915
1763701050972846800,11.142846923828126,0.479818731546402,0.8173720836639404,0.5658583641052246
1763701050982805800,11.1528056640625,0.26273566484451294,1.0373108386993408,0.51491779088974
1763701050992764700,11.1627646484375,-0.12736254930496216,1.167153000831604,0.3745545446872711
1763701051002722800,11.172722900390625,-0.6699235439300537,1.094679594039917,0.07515481114387512
1763701051012681700,11.182681640625,-1.220111608505249,1.0258251428604126,-0.3032092750072479
1763701051022640600,11.192640625,-1.6386630535125732,1.2282565832138062,-0.5594262480735779
1763701051032598800,11.202598876953125,-1.9085637331008911,1.6337225437164307,-0.6347900032997131
1763701051042557700,11.2125576171875,-2.041033983230591,2.178614377975464,-0.7009232640266418
1763701051052516600,11.2225166015625,-2.045466661453247,2.793739080429077,-0.9850801229476929
1763701051062475800,11.232475830078124,-1.9610788822174072,3.208418607711792,-1.4797182083129883
1763701051072433700,11.24243359375,-1.7870967388153076,3.31168532371521,-2.0045857429504395
1763701051082392600,11.252392578125,-1.5289828777313232,3.0730528831481934,-2.4333441257476807
1763701051092351700,11.262351806640625,-1.1981557607650757,2.639279842376709,-2.768805980682373
1763701051102309600,11.2723095703125,-0.8095861077308655,2.118277072906494,-3.0345335006713867
1763701051112268800,11.282268798828126,-0.37533241510391235,1.6450213193893433,-3.217329978942871
1763701051122227700,11.292227783203124,0.06376475840806961,1.2973655462265015,-3.300854206085205
1763701051132185600,11.302185546875,0.44625699520111084,1.085047721862793,-3.316281795501709
1763701051142144800,11.312144775390625,0.7348613739013672,0.9590863585472107,-3.3066327571868896
1763701051152103700,11.322103759765625,0.9258233308792114,0.9179506301879883,-3.2673869132995605
1763701051162062600,11.3320625,1.011629343032837,0.9299814701080322,-3.181823492050171
1763701051172020700,11.342020751953125,1.0166372060775757,0.9878354668617249,-3.036142349243164
1763701051181979600,11.351979736328126,0.9614250063896179,1.0645102262496948,-2.839230537414551
1763701051191938600,11.3619384765625,0.8757726550102234,1.1514848470687866,-2.6131742000579834
1763701051201896700,11.371896728515624,0.7880238890647888,1.2452998161315918,-2.378710985183716
1763701051211855600,11.381855712890625,0.70625901222229,1.2970598936080933,-2.1284632682800293
1763701051221814500,11.391814453125,0.6395686864852905,1.2861400842666626,-1.8628796339035034
1763701051231773700,11.401773681640625,0.6146391034126282,1.2413262128829956,-1.6205801963806152
1763701051241731600,11.411731689453125,0.6410081386566162,1.2315112352371216,-1.4313145875930786
1763701051251690800,11.421690673828126,0.6916643977165222,1.2324118614196777,-1.318187952041626
1763701051261649700,11.431649658203124,0.7504147291183472,1.2267649173736572,-1.2722406387329102
1763701051271607600,11.441607666015624,0.8080508708953857,1.2259089946746826,-1.2624609470367432
1763701051281566700,11.451566650390625,0.8522285223007202,1.1770905256271362,-1.2553331851959229
1763701051291525600,11.461525634765625,0.8918177485466003,1.0849270820617676,-1.2263473272323608
1763701051301483500,11.4714833984375,0.9320743083953857,0.9578714370727539,-1.1745606660842896
1763701051311442700,11.481442626953125,0.9624103307723999,0.8128218650817871,-1.1141769886016846
1763701051321401600,11.491401611328126,0.9848485589027405,0.6850707530975342,-1.0622071027755737
1763701051331360500,11.501360595703124,1.0158288478851318,0.6027260422706604,-1.0107814073562622
1763701051341318700,11.511318603515624,1.0506720542907715,0.5290246605873108,-0.9492015838623047
1763701051351277600,11.521277587890625,1.0776253938674927,0.4594820737838745,-0.8747404217720032
1763701051361236500,11.531236572265625,1.0638786554336548,0.3266957998275757,-0.7951636910438538
1763701051371194600,11.541194580078125,0.9968669414520264,0.13698898255825043,-0.7062830924987793
1763701051381153500,11.551153564453125,0.8421459794044495,-0.08966568857431412,-0.5848609209060669
1763701051391112400,11.561112548828126,0.5602839589118958,-0.416628897190094,-0.4205148220062256
1763701051401070600,11.571070556640626,0.16016103327274323,-0.8662868142127991,-0.25120022892951965
1763701051411029500,11.581029541015624,-0.2600460946559906,-1.248694658279419,-0.11021941900253296
1763701051420988700,11.59098876953125,-0.6286437511444092,-1.3278470039367676,0.018262913450598717
1763701051430947600,11.600947509765625,-0.9410861134529114,-1.0385901927947998,0.16430188715457916
1763701051440905500,11.610905517578125,-1.2316715717315674,-0.5080437064170837,0.2805403769016266
1763701051450864600,11.62086474609375,-1.5065667629241943,0.07517573982477188,0.25261205434799194
1763701051460823600,11.630823486328126,-1.7236384153366089,0.5515233278274536,0.025074489414691925
1763701051470781400,11.640781494140626,-1.8073465824127197,0.8322324752807617,-0.3181057870388031
1763701051480740600,11.65074072265625,-1.6931796073913574,0.9441646337509155,-0.6768081784248352
1763701051490699500,11.660699462890625,-1.3753325939178467,0.9212712645530701,-1.0138300657272339
1763701051500657700,11.67065771484375,-0.9103221297264099,0.8522794842720032,-1.3347344398498535
1763701051510616600,11.680616455078125,-0.4001803398132324,0.7366322875022888,-1.6526564359664917
1763701051520575500,11.690575439453125,0.07322613894939423,0.5699743032455444,-1.9704824686050415
1763701051530534700,11.70053466796875,0.4700363278388977,0.39669862389564514,-2.2844433784484863
1763701051540492500,11.710492431640626,0.7861517071723938,0.2544573247432709,-2.559875011444092
1763701051550451500,11.720451416015624,1.0106070041656494,0.12537126243114471,-2.773373603820801
1763701051560410600,11.73041064453125,1.1421375274658203,-0.006149234250187874,-2.9062201976776123
1763701051570368500,11.740368408203125,1.1864928007125854,-0.12824878096580505,-2.941516876220703
1763701051580327400,11.750327392578125,1.159099817276001,-0.23068355023860931,-2.881828546524048
1763701051590286800,11.760286865234375,1.0800819396972656,-0.3143949508666992,-2.7225208282470703
1763701051600244500,11.770244384765626,0.9649702310562134,-0.37646207213401794,-2.501429557800293
1763701051610203600,11.78020361328125,0.8373984098434448,-0.365217924118042,-2.264536142349243
1763701051620162800,11.790162841796874,0.7123861908912659,-0.2746584713459015,-2.053441286087036
1763701051630121700,11.800121826171875,0.5916163325309753,-0.14915993809700012,-1.894110918045044
1763701051640079600,11.81007958984375,0.47472676634788513,-0.017038412392139435,-1.7756656408309937
1763701051650038800,11.820038818359375,0.37650859355926514,0.10809899866580963,-1.6865596771240234
1763701051659997700,11.829997802734376,0.3173634707927704,0.19362379610538483,-1.623610496520996
1763701051669955800,11.839955810546876,0.30815744400024414,0.23989994823932648,-1.5791453123092651
1763701051679914800,11.849914794921874,0.3602355420589447,0.25592926144599915,-1.5374867916107178
1763701051689873700,11.859873779296874,0.4702877402305603,0.24361826479434967,-1.499295711517334
1763701051699831800,11.869831787109375,0.6222586631774902,0.19970642030239105,-1.4736285209655762
1763701051709790700,11.879790771484375,0.8017627000808716,0.12317222356796265,-1.4736559391021729
1763701051719749600,11.88974951171875,1.021623969078064,0.0645475760102272,-1.5026040077209473
1763701051729708500,11.89970849609375,1.279245138168335,0.10091011226177216,-1.540371060371399
1763701051739666700,11.909666748046876,1.5333126783370972,0.18981926143169403,-1.5759838819503784
1763701051749625600,11.91962548828125,1.7609261274337769,0.3056017756462097,-1.6042098999023438
1763701051759584800,11.929584716796874,1.9492958784103394,0.41761428117752075,-1.6190290451049805
1763701051769542700,11.939542724609375,2.0800275802612305,0.5192697644233704,-1.610106348991394
1763701051779501600,11.94950146484375,2.1658101081848145,0.6205668449401855,-1.5605168342590332
1763701051789460700,11.959460693359375,2.210237503051758,0.7114474773406982,-1.464242696762085
1763701051799419600,11.969419677734376,2.2222509384155273,0.7665362358093262,-1.3313063383102417
1763701051809377800,11.979377685546876,2.1877498626708984,0.7370627522468567,-1.1820111274719238
1763701051819336700,11.989336669921874,2.1309189796447754,0.6420953273773193,-1.0564966201782227
1763701051829295600,11.999295654296875,2.096606731414795,0.5795640349388123,-0.9793326258659363
1763701051839253800,12.009253662109375,2.0889601707458496,0.5801507234573364,-0.9625688195228577
1763701051849212700,12.019212646484375,2.087374210357666,0.655351459980011,-0.9869683980941772
1763701051859171600,12.029171630859375,2.0571014881134033,0.7992271780967712,-1.0297305583953857
1763701051869129700,12.039129638671875,1.9855968952178955,0.9729252457618713,-1.0564337968826294
1763701051879088600,12.049088623046876,1.8876844644546509,1.1466623544692993,-1.0385979413986206
1763701051889047600,12.059047607421874,1.7794564962387085,1.3020538091659546,-0.9851400256156921
1763701051899006700,12.0690068359375,1.6647869348526,1.4301267862319946,-0.9257367849349976
1763701051908964600,12.078964599609375,1.5544133186340332,1.504438042640686,-0.900155246257782
1763701051918923500,12.088923583984375,1.4578254222869873,1.5367107391357422,-0.9252095818519592
1763701051928882700,12.098882568359375,1.384289264678955,1.5295192003250122,-1.0064847469329834
1763701051938840600,12.108840576171875,1.3470520973205566,1.4995964765548706,-1.1231237649917603
1763701051948799500,12.118799560546876,1.3379523754119873,1.4618560075759888,-1.2535725831985474
1763701051958758700,12.128758544921874,1.3354783058166504,1.4294428825378418,-1.3796439170837402
1763701051968716500,12.138716552734374,1.3275707960128784,1.405351161956787,-1.4943265914916992
1763701051978675700,12.14867578125,1.3084003925323486,1.3954095840454102,-1.5925792455673218
1763701051988634600,12.158634521484375,1.2727665901184082,1.389082908630371,-1.6799980401992798
1763701051998592500,12.168592529296875,1.219031810760498,1.3658019304275513,-1.7532762289047241
1763701052008551700,12.1785517578125,1.146051049232483,1.312324047088623,-1.8179017305374146
1763701052018510600,12.188510498046876,1.0551866292953491,1.23598051071167,-1.8693872690200806
1763701052028469500,12.198469482421874,0.9609019756317139,1.1305880546569824,-1.9119434356689453
1763701052038427600,12.208427734375,0.8870288133621216,1.0170897245407104,-1.94179368019104
1763701052048386600,12.218386474609375,0.8449503779411316,0.940168559551239,-1.9704596996307373
1763701052058345500,12.228345458984375,0.8235251903533936,0.8737094402313232,-2.0067803859710693
1763701052068303600,12.2383037109375,0.8289497494697571,0.8276873230934143,-2.0532026290893555
1763701052078262500,12.248262451171875,0.8677379488945007,0.8417966961860657,-2.094933032989502
1763701052088221400,12.258221435546876,0.9213330149650574,0.8764820098876953,-2.130471706390381
1763701052098179600,12.2681796875,0.9765166640281677,0.8810210824012756,-2.1545639038085938
1763701052108138500,12.278138427734374,1.0237627029418945,0.8506836891174316,-2.1655290126800537
1763701052118097700,12.28809765625,1.0603337287902832,0.7880924940109253,-2.1595165729522705
1763701052128056600,12.298056640625,1.0868953466415405,0.7106043100357056,-2.121753454208374
1763701052138014500,12.308014404296875,1.1159634590148926,0.6625835299491882,-2.047183036804199
1763701052147973600,12.3179736328125,1.1295673847198486,0.6325358748435974,-1.9394811391830444
1763701052157932500,12.3279326171875,1.127745270729065,0.5999994874000549,-1.8124972581863403
1763701052167890400,12.337890380859376,1.1254770755767822,0.5778334736824036,-1.6888765096664429
1763701052177849600,12.347849609375,1.1260366439819336,0.5832415819168091,-1.5795520544052124
1763701052187808500,12.35780859375,1.143877625465393,0.6170080900192261,-1.4798539876937866
1763701052197766700,12.3677666015625,1.1768460273742676,0.6438418030738831,-1.3736129999160767
1763701052207725600,12.3777255859375,1.218677043914795,0.6667141318321228,-1.2589555978775024
1763701052217684500,12.3876845703125,1.2574928998947144,0.6845412850379944,-1.134281039237976
1763701052227643600,12.3976435546875,1.2801955938339233,0.6827995777130127,-0.9997746348381042
1763701052237601500,12.4076015625,1.2462527751922607,0.581895112991333,-0.8555596470832825
1763701052247560700,12.417560791015624,1.1325621604919434,0.3876127004623413,-0.6942266821861267
1763701052257519600,12.42751953125,0.9395613074302673,0.09167420119047165,-0.5350148677825928
1763701052267477500,12.4374775390625,0.7035133242607117,-0.28321152925491333,-0.41592732071876526
1763701052277436700,12.447436767578125,0.574299156665802,-0.46728119254112244,-0.37024635076522827
1763701052287395800,12.457395751953126,0.611954391002655,-0.2703667879104614,-0.3381917476654053
