time,seconds_elapsed,z,y,x
1763691410373266700,0.0532666015625,0.2003279265552759,0.3241041630234569,-0.06531133414842188
1763691410383223600,0.0632236328125,0.5452314973056316,0.12198431155011057,-0.021294351636990904
1763691410393181400,0.073181396484375,0.5445628042638302,0.09469912200048565,0.033293928445130586
1763691410403139600,0.0831396484375,0.644561055585742,-0.3131134709969163,-0.0062150020573288195
1763691410413097700,0.09309765625,0.7232032151460647,-0.34344825737550855,0.0452714395519346
1763691410423054600,0.1030546875,0.6549421643465757,-0.3445288922190666,0.11375975976865738
1763691410433012700,0.1130126953125,0.5239876337468624,-0.2622363203924149,0.12238295547887683
1763691410442971000,0.122970947265625,0.5248264226585626,-0.26548034381493923,0.11288758004400878
1763691410452928500,0.132928466796875,0.3911117796957493,-0.03528780567608773,-0.041774939205683766
1763691410462885600,0.1428857421875,0.391759429949522,-0.02897657670266926,-0.06625018590111285
1763691410472843500,0.152843505859375,0.22962124105691908,0.04705182016268372,0.05518248311560601
1763691410482801700,0.1628017578125,0.14971066899597643,0.011324965482205152,0.1053705920100212
1763691410492759800,0.172759765625,0.049364627149701114,-0.01254632397070527,0.18192140531428158
1763691410502716400,0.18271630859375,0.002146364378929138,-0.00872727713920176,0.19649178245849908
1763691410512674600,0.192674560546875,0.0037578912287950512,-0.015120631438121198,0.18267061624638736
1763691410522632700,0.2026328125,-0.07306172907948494,-0.02649805775992572,0.16224106474518776
1763691410532590600,0.212590576171875,-0.07126140165925025,-0.040852381000667806,0.15899441097415984
1763691410542547700,0.222547607421875,-0.03538052546083927,-0.013266235743090509,0.11271613246724009
1763691410552505900,0.232505859375,0.03320610403120518,-0.06540398086793721,0.1516357918396592
1763691410562463700,0.242463623046875,0.08925941516458988,-0.12935425579622387,0.123566904566437
1763691410572421600,0.252421630859375,0.1492722775787115,-0.16974734872207045,0.09232114082276821
1763691410582378800,0.262378662109375,0.15110416918098926,-0.18415055260583757,0.09043028557486832
1763691410592336600,0.272336669921875,0.18624504066705702,-0.08806238739974796,0.060253758497908705
1763691410602294800,0.282294677734375,0.18789806857109068,-0.09713080612681806,0.052178004069998854
1763691410612252700,0.292252685546875,0.23210955074131487,-0.1608398927103728,0.15050539957024156
1763691410622209500,0.30220947265625,0.24161738379895686,-0.223910754455626,0.20618797769509253
1763691410632167700,0.312167724609375,0.2433364626765251,-0.22450177915133535,0.1838489393107593
1763691410642125600,0.32212548828125,0.15501403610110281,-0.42419038488976657,0.2778413743466139
1763691410652083700,0.332083740234375,0.1571492945641279,-0.42159817643947894,0.2469131521195173
1763691410662040800,0.342040771484375,-0.0715431412100792,-0.4696365234214812,0.3169813254062086
1763691410671998700,0.351998779296875,-0.06903320421576499,-0.4658955833274871,0.28257037562988696
1763691410681956400,0.361956298828125,-0.36603695967197414,-0.44259734452217814,0.3259785785932094
1763691410691914000,0.3719140625,-0.5187742830127478,-0.38668497622944414,0.3578861672464758
1763691410701871000,0.38187109375,-0.5169640187203883,-0.3813987794548273,0.3324297274939716
1763691410711829200,0.391829345703125,-0.48423897620439527,-0.14296382508426903,0.4832737113688141
1763691410721787100,0.401787109375,-0.4822948563992977,-0.14393318157307802,0.4650680464621633
1763691410731745300,0.411745361328125,-0.3177846776783466,-0.16496983212195335,0.48975014084130525
1763691410741702100,0.4217021484375,-0.26273966680467126,-0.333993250483647,0.4215383360110223
1763691410751660000,0.431659912109375,-0.12017302434444427,-0.44906471390537916,0.418779173495993
1763691410761618200,0.4416181640625,-0.11427578299939632,-0.473657011109218,0.39275406701005994
1763691410771576000,0.451576171875,-0.23510464090406893,-0.6348382646031677,0.20571093476787208
1763691410781533200,0.461533203125,-0.28257717069685456,-0.9671553255029022,0.5686973477628082
1763691410791491300,0.4714912109375,-0.2662275089204311,-0.9895262933954596,0.4631520567730069
1763691410801449200,0.48144921875,-0.9941635978072881,-1.3538112948335705,0.10649550438672303
1763691410811407000,0.491406982421875,-1.9004490056753158,-1.412759742886573,-0.4769581715464592
1763691410821364200,0.5013642578125,-1.8770178612053394,-1.3841509035177528,-0.6340240256108344
1763691410831322000,0.511322021484375,-1.2422855411946774,0.7605052101887763,0.31312749952226876
1763691410841280300,0.5212802734375,-1.2170347800821064,0.8170005660012364,0.15652984749153256
1763691410851237400,0.5312373046875,0.22734335925281046,1.5147119047552347,0.7208886545933783
1763691410861195000,0.541195068359375,-0.2164794354110956,0.06374152754843235,-0.442338401325047
1763691410871153200,0.551153076171875,-0.370944020935893,-0.7224884910054504,-1.314314420095086
1763691410881111000,0.561111083984375,-0.6117997727125882,-0.63092693637833,-1.66861154987365
1763691410891068200,0.571068115234375,-0.5551765527367591,-0.5664460617046803,-1.867213967810571
1763691410901026300,0.5810263671875,-1.518614757412672,0.8762787574652582,-1.4924235005795954
1763691410910984200,0.590984130859375,-1.4725503408521412,0.9297652137853205,-1.6340166218325494
1763691410920942300,0.6009423828125,-1.854306263181567,1.7956927461713552,-1.1448103786095976
1763691410930899200,0.610899169921875,-1.4313871403366327,1.5724655900657176,-0.8155030209198594
1763691410940857000,0.620857177734375,-1.4154133261352777,1.603394104553759,-0.8620175193354487
1763691410950815200,0.630815185546875,-0.7208575288027524,0.25303777247965337,-0.6554916149228811
1763691410960773000,0.640773193359375,-0.7137883210688829,0.28997802153788504,-0.6791314337074756
1763691410970730200,0.650730224609375,-0.07023498122096061,-0.3197270804503932,-0.2588794842451811
1763691410980688100,0.660688232421875,-0.06342763929367065,-0.21505955867581067,0.3746466748461127
1763691410990646000,0.67064599609375,0.06067044954001903,-0.15299787397310136,0.7446282804906368
1763691411000604200,0.680604248046875,0.3819815477788448,-0.5104841551817954,0.6184539699047803
1763691411010561300,0.690561279296875,0.4044914857506752,-0.46405094184149054,0.5614087251245975
1763691411020519200,0.700519287109375,0.908261676377058,-1.7463032768413425,0.3040308776140213
1763691411030477300,0.710477294921875,0.9353075042128562,-1.7116922744482754,0.24042700497061012
1763691411040435200,0.720435302734375,0.5720838483959436,-1.2060164693962783,0.14652940861135721
1763691411050392000,0.73039208984375,0.4602466907203197,-0.450584032427147,0.3445607486620545
1763691411060350200,0.74035009765625,0.4833762218952179,-0.4574801486164331,0.29514176097661254
1763691411070308000,0.75030810546875,1.137629234933853,1.065237367939949,1.1404615357503294
1763691411080266200,0.760266357421875,1.1605816559761761,1.0385198952756822,1.0939552206411958
1763691411090223000,0.77022314453125,2.1837679346501826,0.30032913701925423,0.4881424133837223
1763691411100181000,0.780180908203125,2.3129811745405195,-0.4430183098806068,0.10658405945301055
1763691411110139100,0.79013916015625,2.0909359216958285,-0.9837697756953537,-0.1355269530817866
1763691411120097300,0.80009716796875,1.7829782260268925,-1.1302931929573417,-0.3385430958077311
1763691411130054100,0.81005419921875,1.895170773011446,-1.140813198732212,-0.536332736057043
1763691411140012300,0.82001220703125,1.0889274556070565,0.9333115080900489,-0.5398083032131195
1763691411149970200,0.82997021484375,1.2168506556868552,0.9235860867589711,-0.7417062555640935
1763691411159928000,0.839927978515625,-0.007106617134809493,1.4716832026287912,-0.5687473974496126
1763691411169885200,0.84988525390625,-0.028359833043813704,0.6138143274053931,-1.346703947046399
1763691411179843000,0.859843017578125,0.07336509594023227,0.6192649940267205,-1.487737388589978
1763691411189801200,0.86980126953125,0.24653262836933135,0.33779450593013316,-0.5542173523157835
1763691411199759400,0.87975927734375,0.3571650864303112,0.35737460099514573,-0.6974503497302532
1763691411209716000,0.889716064453125,1.122671904298663,0.41597668329589066,-0.9526274723261594
1763691411219674000,0.899674072265625,1.2550766337066888,0.43528475648649034,-1.1103484292984007
1763691411229632300,0.90963232421875,0.607398907405138,-0.009236742764990776,-0.6361877795159816
1763691411239590100,0.919590087890625,0.4166682457566261,0.35752343488130717,-0.380313906827569
1763691411249547300,0.92954736328125,0.5409340923726559,0.3638901934342459,-0.5110170930147171
1763691411259505200,0.939505126953125,-0.022330489751696585,0.49143133539389816,-0.8244809848845005
1763691411269463300,0.94946337890625,-0.5985463233858347,0.5745273690905421,-1.3695043923974037
1763691411279420200,0.959420166015625,-0.9242986189424991,1.0729760724332182,-1.4738760364979504
1763691411289378000,0.9693779296875,-0.9674135380476713,1.0708107841581105,-1.026861167794466
1763691411299336200,0.979336181640625,-0.963855553305149,1.0833606883253901,-1.0306517922490834
1763691411309294300,0.98929443359375,-0.5758534300625324,0.01508459201036021,-0.21675883687436578
1763691411319251200,0.999251220703125,-0.5924059209346771,0.026563834738824513,-0.201181913036108
1763691411329209000,1.009208984375,-0.08848609270453453,-0.28875240699937565,0.32560265795290466
1763691411339167200,1.019167236328125,-0.4665577735632658,-0.3121820353657007,-0.0002566051095724106
1763691411349125000,1.029125,-0.9896072496771812,-0.3220235573571175,-0.33577801500856874
1763691411359082200,1.039082275390625,-1.3221785775989294,-0.33636699387766417,-0.19819851331114768
1763691411369040100,1.0490400390625,-1.3413468039274214,-0.33357725356128065,-0.1796276683539152
1763691411378998300,1.058998291015625,-1.492870075303316,-0.6755974874276668,0.7274626261562108
1763691411388956200,1.0689560546875,-1.5295365489214658,-0.6720807845436036,0.7636129669457674
1763691411398913000,1.0789130859375,-1.5214496885776518,-1.0272736941181122,1.0362100108981132
1763691411408871200,1.08887109375,-1.5018506696164606,-1.0089454257450998,1.0055115057736634
1763691411418829300,1.098829345703125,-1.4860744238138197,-0.8820563179533928,0.8498708622068166
1763691411428787200,1.108787109375,-1.4237842641174792,-0.663136942044273,0.7623077295660973
1763691411438744300,1.118744384765625,-1.5006857174903154,-0.6683429862547665,0.8448661857873201
1763691411448702200,1.1287021484375,-1.2201660638451575,-0.5576982532341033,1.1006044493973255
1763691411458660000,1.13866015625,-0.4535597603023052,-0.8016833160124719,1.0397960526913403
1763691411468618200,1.1486181640625,-0.3703653442651033,-0.8680014891158789,0.7501765622675418
1763691411478575000,1.1585751953125,-0.3391816859722137,-0.6581606880016625,0.431161466011405
1763691411488533200,1.168533203125,-0.3958972604066133,-0.6672369977742433,0.49955461875796314
1763691411498491400,1.178491455078125,-0.40655484802126884,0.15293967751245946,-0.0005488660544157028
1763691411508449000,1.188448974609375,-0.4512631737977266,0.14939721913263201,0.05502864426076412
1763691411518406100,1.19840625,-1.0047335071384906,0.3409223921597004,-0.26046587665379045
1763691411528364300,1.2083642578125,-1.05820440056324,0.34355303292423484,-0.1920885059982538
1763691411538322200,1.218322265625,-0.9712959324389695,-0.14113195174830034,0.2460252633690834
1763691411548280300,1.2282802734375,-0.5292290415316819,-0.2716848975434899,0.4485071530878544
1763691411558237200,1.2382373046875,-0.6009446166992187,-0.2719839718216099,0.5469248572200537
1763691411568195000,1.248195068359375,0.13732348110973835,-0.12146631555799395,-0.1384983701080084
1763691411578153200,1.2581533203125,0.06840367414057254,-0.12896925680031998,-0.03850070330798626
1763691411588110300,1.2681103515625,0.3483031500607729,0.10908818776104598,-0.5077186359912157
1763691411598068200,1.278068115234375,0.4943500358521938,-0.13279650520458816,-0.41177053684294224
1763691411608026400,1.2880263671875,0.5345183801114559,-0.378921027697064,-0.508098575219512
1763691411617984300,1.297984375,0.41625674234628673,-0.17656638108715414,-0.7222896074324846
1763691411627941000,1.307941162109375,0.333936771056056,-0.23127218660172075,-0.5791068789005279
1763691411637899300,1.317899169921875,0.15471183828413484,0.978185253561288,-0.9840937469527125
1763691411647857200,1.327857177734375,0.07412848152816295,0.9364392116565257,-0.8322691545426845
1763691411657815300,1.337815185546875,0.004790741407871246,1.3733359333842992,-1.3819988400503993
1763691411667772400,1.3477724609375,0.13077391333580016,1.2353639252379536,-1.2464891303643584
1763691411677730000,1.35772998046875,0.33475334813594815,1.018714686217904,-0.9692384153872727
1763691411687688200,1.367688232421875,0.6484843665093183,0.519532992425561,-0.41372459352016444
1763691411697646000,1.37764599609375,0.588461567223072,0.5312234302192926,-0.2806108390599489
1763691411707603000,1.38760302734375,3.317200302416086,-0.7288485275566577,0.7363318690493702
1763691411717561000,1.39756103515625,3.274157864025235,-0.7428928350001573,0.8424728609099984
1763691411727519000,1.40751904296875,1.5917536433815955,-0.6108597153834998,0.4913885556980967
1763691411737477000,1.41747705078125,1.5758756907701492,-0.6444627828430384,0.5369511602163315
1763691411747434200,1.427434326171875,1.4783932216614484,0.49879656693227586,-0.4577677333861589
1763691411757392100,1.43739208984375,0.9608704000145196,1.2249713452350348,-0.5635463216751814
1763691411767350000,1.44735009765625,0.9603227030038833,1.2116084441844372,-0.559669480241835
1763691411777308000,1.457307861328125,-0.011876900276541709,1.7229526502616703,-1.086893903952837
1763691411787265000,1.46726513671875,-0.012424597287178039,1.737027206712961,-1.088055348947644
1763691411797223200,1.47722314453125,-0.18253741832077502,0.8134794792030006,-0.31388036371618505
1763691411807181000,1.48718115234375,-0.0009118541479110718,0.051936231203377245,0.44913872898966073
1763691411817138000,1.497137939453125,0.25037235266268254,-0.6779734958440065,0.8236509638011456
1763691411827096000,1.507095947265625,0.35208266859948634,-0.9901950595024973,0.7192977321401238
1763691411837054000,1.517053955078125,0.3494663486212492,-0.9904378552824258,0.7261813541740179
1763691411847012000,1.52701220703125,-0.1031529159605503,-0.5141761050349101,0.07537672802358865
1763691411856969200,1.53696923828125,-0.10906009417772293,-0.5187135658014566,0.09170008631497621
1763691411866927000,1.546927001953125,-0.6843138047814369,0.2567544183826074,-0.004957622407376766
1763691411876885200,1.55688525390625,-0.7916022131115198,0.37442802712675183,-0.15810615689754484
1763691411886843000,1.5668427734375,-0.7528507499128579,0.33038021108563986,-0.3825365513131022
1763691411896800000,1.576800048828125,-0.673809946423769,0.3808816967781633,-0.5568386407300829
1763691411906758100,1.586758056640625,-0.7010211939543485,0.39162035027239467,-0.4809238603070378
1763691411916716000,1.596716064453125,-0.5675006122589111,0.2274723924599588,-0.06415478452444076
1763691411926674200,1.606674072265625,-0.5981599544167518,0.2345149679152295,0.02761982833147049
1763691411936631000,1.616631103515625,0.39477264029085635,-0.8661439516156911,0.6539882246226072
1763691411946589000,1.6265888671875,0.36868718191981315,-0.879137873223424,0.7411819394290446
1763691411956547000,1.636547119140625,0.42354689935445783,-1.0094967760175466,0.3996773634672165
1763691411966504200,1.646504150390625,0.6143406893670559,-0.5293557366512716,0.810184748506546
1763691411976462000,1.656462158203125,0.5967541792720555,-0.5626106482602655,0.8807461852028965
1763691411986420200,1.666420166015625,-3.5823324173152447,-0.6287134250473231,1.778273993858695
1763691411996377900,1.6763779296875,-3.6302187886059283,-0.675598291145265,1.981556824696809
1763691412006335000,1.6863349609375,0.11589549315571784,-0.366219184371084,-1.490247617845237
1763691412016293000,1.696293212890625,-0.6639063920468091,0.2281408663060516,-0.7925760265797376
1763691412026251000,1.7062509765625,-0.7015916873186826,0.13835852324590087,-0.5090922624319791
1763691412036209200,1.716209228515625,-0.730127461451292,0.6432743767760694,0.39238187269680197
1763691412046166300,1.726166259765625,-0.7522036841809749,0.5672260331012309,0.6954840180933475
1763691412056124000,1.7361240234375,-3.510284249192476,-1.1315358864948153,4.400451173691451
1763691412066082000,1.74608203125,-6.28879969946742,-2.1252774594977497,2.1973583608463407
1763691412076040000,1.7560400390625,19.776264702844617,-0.8644852246232331,-2.463593176290393
1763691412085997000,1.7659970703125,-1.549665144714713,-1.288512893231958,-0.1400003173698671
1763691412095955200,1.775955078125,-1.5543120937377213,-1.2491110033005475,-0.02443274099426344
1763691412105913000,1.7859130859375,4.163668078181147,0.29868374443240464,-0.5338108894292265
1763691412115871000,1.79587109375,4.1615830886006355,0.31935514186546204,-0.5086613236688077
1763691412125828000,1.805828125,-0.04480477188825607,0.3163892047319561,0.03565726004298776
1763691412135786000,1.815785888671875,0.8728595236063003,0.006327595586329698,0.16816692939652128
1763691412145744100,1.825744140625,0.6050380234926939,0.050297597150877116,0.38414811469558624
1763691412155702000,1.835701904296875,0.05799567737281322,0.13400281225442887,0.49866008107103404
1763691412165659000,1.845658935546875,0.06139876381456852,0.11864201538488268,0.5342577198812738
1763691412175617000,1.855616943359375,-0.18025778295099734,0.3316846082150936,0.6155760033156722
1763691412185575000,1.865574951171875,-0.17829378940165042,0.3303120777528733,0.6513977697379887
1763691412195532000,1.875531982421875,-0.13991992734372616,-0.4273251027189195,0.9073583708617836
1763691412205490200,1.885490234375,-0.2408884850025177,-0.6618258594457059,0.9794390530146658
1763691412215448000,1.895447998046875,-0.49604164220094676,-0.9095539812099188,0.9945127765711397
1763691412225406200,1.90540625,-0.6386077001392841,-1.0500268662612884,0.5660711639776825
1763691412235363000,1.915363037109375,-0.6392524277836084,-1.0407895937733351,0.5738310573894531
1763691412245321000,1.925321044921875,-0.3071668375521898,-0.9664422818627207,1.0023642937891184
1763691412255279000,1.935279052734375,-0.3109107002556324,-0.9430195398949086,0.9877592837229371
1763691412265237000,1.945237060546875,-0.23009470378756522,-0.5756744202338159,0.4344559409795329
1763691412275194000,1.955194091796875,-0.06271335354447365,-0.3979594536334276,0.33555312021151185
1763691412285152000,1.965152099609375,-0.06816694277524948,-0.3628177053645253,0.3078015187265351
1763691412295110000,1.97510986328125,0.13726327535510063,0.06597988105975092,0.189238706057705
1763691412305068000,1.985068115234375,0.13215455403923987,0.0987304233431816,0.15478198091089723
1763691412315025200,1.995025146484375,-0.32398820849359034,0.8082463277898728,-0.9736055245555937
1763691412324983000,2.004983154296875,-0.6697007575392723,1.5653528354510664,-1.9439197524808347
1763691412334941200,2.014941162109375,-0.8864180933594703,1.9280735101819038,-1.9111102465517817
1763691412344898000,2.02489794921875,-0.9924187999665737,1.2657495650209485,-1.0053443325132132
1763691412354856000,2.03485595703125,-0.9945920523524284,1.313359311327338,-0.964850190365687
1763691412364814000,2.04481396484375,-0.9105348820060492,-0.7282838794112205,0.6239541016910225
1763691412374772000,2.05477197265625,-0.9134130677908658,-0.6619001667909323,0.6614287498869001
1763691412384729000,2.06472900390625,-0.2495236268788576,-0.8796415849618613,1.3041355559080838
1763691412394687200,2.074687255859375,0.023272154515981674,-0.7929245477564633,1.3214289282754064
1763691412404644900,2.084644775390625,-0.46495092288851736,-0.6668710870712995,1.1507391110714524
1763691412414603000,2.09460302734375,-0.5106313085675239,-0.8979892156224697,1.0783594459719956
1763691412424560000,2.10456005859375,-0.5060194308578968,-0.8456814476929605,1.16036947453022
1763691412434518000,2.11451806640625,0.7462421454280614,-1.1104201062951236,1.7181923039920628
1763691412444476200,2.12447607421875,0.7595879492133856,-1.1049816415682434,1.8507644989214835
1763691412454434000,2.13443408203125,-0.1582388433665037,-0.46724886109996583,2.0836998329624534
1763691412464391000,2.144390869140625,-0.26153379814624783,-0.3785851833388209,1.6703464108422397
1763691412474349000,2.15434912109375,-0.5277689058512449,-0.34950372148957104,1.640649776236713
1763691412484307000,2.164306884765625,-0.8381348317056894,-0.18706673231348395,1.807086246845126
1763691412494264000,2.17426416015625,-0.7768786912322044,-0.20932839461266994,2.088050575517863
1763691412504222200,2.18422216796875,-0.18314239847660063,-0.0998625326456502,1.6228271192982793
1763691412514179800,2.194179931640625,-0.09617664720714092,-0.1121856057871133,1.9306939218133687
1763691412524138000,2.204137939453125,0.46977439752221106,-0.18389935432374477,1.530914559276402
1763691412534095000,2.21409521484375,0.5505348644107579,-0.456005801747553,1.5581053485408425
1763691412544053000,2.224052978515625,0.3875713306099176,-0.6034496217900887,1.1961600420966745
1763691412554011100,2.23401123046875,0.06984218251109123,-0.7452086376618593,1.6032222551181912
1763691412563969000,2.243968994140625,0.22092764699161052,-0.7067063999839127,1.923466600908339
1763691412573926000,2.25392578125,1.7296937950849531,-0.7257859251156449,0.37147681263834237
1763691412583884000,2.263884033203125,1.8742647631049154,-0.6814744166370481,0.6309194837242365
1763691412593842000,2.273842041015625,0.3938584480553865,0.18940149540398268,-0.9422358421713113
1763691412603800000,2.283800048828125,-0.1568979501515627,0.6242150907147676,-1.2840987300515174
1763691412613757200,2.293757080078125,-0.10092822564840316,0.4849460284952074,-0.23920915361344813
1763691412623715000,2.303715087890625,0.9414648577988147,0.6735339790266007,0.6670861911267042
1763691412633673000,2.3136728515625,1.0308090286374092,0.7663137503370642,0.7879857761800289
1763691412643630000,2.323630126953125,1.3259230248242615,0.4593981110669672,1.1805325571149587
1763691412653588000,2.333587890625,1.3915116415441036,0.5513553139481693,1.2612597062557935
1763691412663546000,2.343546142578125,1.2499573909968138,0.2603324595324695,0.27308862686157226
1763691412673503700,2.353503662109375,1.0454530555397272,0.3299746624920517,0.13764555267095566
1763691412683460600,2.363460693359375,1.1030676246404647,0.3989868969850242,0.2024152542233467
1763691412693418800,2.373418701171875,0.8110556861221789,0.08423252691328525,0.24800562353134153
1763691412703377000,2.383376953125,0.8893418718516826,0.12410386098735034,0.33639117847085
1763691412713334800,2.393334716796875,-0.019823475366830826,-0.11770137353390454,1.7801450484275816
1763691412723291600,2.403291748046875,0.35876667640805243,-0.5457713763359934,1.6751982347875833
1763691412733249800,2.413249755859375,1.1039303789496422,-0.8789168508838862,0.23594226077198982
1763691412743207700,2.423207763671875,1.382521694880724,-0.919791443716362,-1.815644816353917
1763691412753164800,2.433164794921875,1.4648995338380335,-0.9358636037256568,-1.730126925805211
1763691412763122700,2.443122802734375,1.365866912677884,0.2703806100118905,-1.7381179245591163
1763691412773080600,2.45308056640625,1.4054606719195841,0.23120829105265436,-1.6954145088642834
1763691412783038700,2.463038818359375,0.9049053516864776,0.9998265920050442,-0.29360183805823326
1763691412792995600,2.47299560546875,0.9222001853585242,0.9604029286332428,-0.2735831323802471
1763691412802953700,2.48295361328125,1.1045207460582256,0.8587170164853334,-0.1258271045833826
1763691412812911900,2.492911865234375,0.996810312923789,0.8274713258069009,-0.4566518810987472
1763691412822869800,2.502869873046875,1.0141501547813414,0.7879261549472808,-0.4374637810260057
1763691412832826600,2.51282666015625,0.33204408917725087,0.3008824235204607,-0.2104097601085901
1763691412842784800,2.52278466796875,0.37153964874148365,0.2630556739512831,-0.17127718863785266
1763691412852742700,2.53274267578125,-0.26939211043119426,-0.031931152191944416,0.48046588740646834
1763691412862700800,2.54270068359375,-0.2342868947803974,0.10439181010574101,0.9657400518774986
1763691412872657700,2.55265771484375,-0.18193536077439784,0.11487681763246654,1.0123743772804736
1763691412882615800,2.56261572265625,-0.2905599861443043,-0.030157603180781006,0.3318862682670355
1763691412892573700,2.57257373046875,-0.21406477548480032,0.00427216089386493,0.396621483027935
1763691412902530600,2.582530517578125,-0.40513679791688917,-0.5671589592143893,-1.0228694678097963
1763691412912488700,2.59248876953125,-0.4560381331145763,-0.8198711530014872,-0.7169663665831089
1763691412922446800,2.60244677734375,0.30989772382080555,-0.30562326137199997,0.10120821163356304
1763691412932404700,2.61240478515625,0.5183890830874442,0.0648962870741263,0.568358690392971
1763691412942361600,2.622361572265625,0.6537193445533513,0.09892609204575419,0.66700085093081
1763691412952319700,2.63231982421875,0.4095288953959942,0.29103333927709607,-0.08310907584130764
1763691412962277600,2.642277587890625,0.533649196061492,0.3136266812160611,0.0016547814697027206
1763691412972235800,2.65223583984375,0.4898533089548349,-0.34531164009459314,0.2829769836694002
1763691412982192600,2.662192626953125,0.589867926889658,-0.33706016377359627,0.34800855102837086
1763691412992150800,2.67215087890625,0.340384047499299,-0.31772819825075566,0.4606295525580644
1763691413002108700,2.682108642578125,0.38387422965764995,-0.21307452233843505,0.3452116137862205
1763691413012065500,2.6920654296875,0.47370822983980176,-0.21721301038265228,0.40043198122680185
1763691413022023700,2.702023681640625,0.13133213174045086,-0.1844141719780862,-0.13275427349805832
1763691413031981800,2.71198193359375,0.2372323005825281,-0.19079181725122032,-0.0709194563537836
1763691413041939700,2.721939697265625,0.4443792595028877,-0.025780411009863016,0.005864508119225502
1763691413051896600,2.731896484375,0.8367232113420963,-0.3409056602206081,0.5637105723261833
1763691413061854700,2.741854736328125,0.9959902287125587,-0.46324864901527757,0.8161199837744235
1763691413071812600,2.7518125,0.6404179644316434,-0.2895931869387626,0.36066461898386476
1763691413081770800,2.761770751953125,0.7267524320602416,-0.2732906522396952,0.40310383078455925
1763691413091727600,2.7717275390625,0.056959904584288595,0.0885480520248413,-0.03137479695081711
1763691413101685800,2.781685791015625,0.16714695696532725,0.09894523513764142,0.020503274324536323
1763691413111644000,2.791643798828125,0.0848079887136817,-0.023645371742546557,0.33146482798457144
1763691413121600500,2.8016005859375,0.21156769797205924,-0.01626563675478101,0.38741409422159195
1763691413131558700,2.81155859375,-0.11478899321854114,-0.0935477600082755,0.5554302352368832
1763691413141516800,2.821516845703125,-0.261322785744071,-0.1206816314537078,0.3368430138915777
1763691413151474700,2.831474609375,-0.11239362251460551,-0.12382767439447342,0.3953898954063654
1763691413161431800,2.841431884765625,-0.5227566306471825,-0.6093086134839802,0.2276642617702484
1763691413171389700,2.8513896484375,-0.4028852195978164,-0.6127089234467595,0.2707452786058187
1763691413181347600,2.86134765625,-0.6629635582387446,-0.5652451614823192,0.826755359557271
1763691413191305700,2.8713056640625,-0.6361249434128403,0.029767946276068685,0.5213917720347643
1763691413201262600,2.8812626953125,-0.5654939486116171,0.024621815559267995,0.5447276394367218
1763691413211220700,2.891220703125,-0.4439458365216851,0.06255882056988775,-0.21847207053303716
1763691413221179000,2.901178955078125,-0.39395372512340543,0.04354856128208339,-0.201553084436059
1763691413231136800,2.91113671875,0.09020166445076465,-0.1639365435514599,0.0655558834940195
1763691413241093600,2.92109375,-0.06659574793577194,-0.4635027699068188,0.16152268734276293
1763691413251051800,2.9310517578125,0.06763152072429657,-0.7265822631251067,0.523732782202959
1763691413261009700,2.941009765625,0.06402268257737159,-0.7178538900073618,0.5220645567297936
1763691413270966800,2.950966796875,-0.03590074994266033,-0.8325916644953191,0.5878612632423639
1763691413280924700,2.960924560546875,-0.31009821482896804,-0.9148717421665787,0.005929974570870399
1763691413290882600,2.970882568359375,-0.3129433751270175,-0.8861597346842288,0.00293839153945446
1763691413300840700,2.9808408203125,-1.0226634238436818,-0.530919990293309,-0.784507286414504
1763691413310797600,2.990797607421875,-0.03693856855779886,-1.5564800854265688,-0.3586713993400335
1763691413320755700,3.000755615234375,-0.013927987587451934,-1.5494469719193875,-0.3524386424303055
1763691413330713900,3.0107138671875,-0.20413345631808041,-1.8013285601012408,0.11567279031574726
1763691413340671700,3.020671630859375,-0.21784897019863128,-1.7905597671970723,0.11074877791702746
1763691413350628600,3.030628662109375,-0.7561229034513235,-1.0776911913216114,-0.19940672005712984
1763691413360586800,3.040586669921875,-0.4760194293916225,-0.774376645283401,-0.3813724759697914
1763691413370544600,3.050544677734375,-0.26328561024963854,-0.7660927279975265,-0.184180509352684
1763691413380501800,3.060501708984375,-0.23103753759562967,-0.8353891862593591,0.423669648951292
1763691413390459600,3.070459716796875,-0.251829857994616,-0.8389400836739689,0.41756373329162594
1763691413400417800,3.080417724609375,-0.43284167418330904,-0.8831176635745912,0.9117430887520312
1763691413410375700,3.090375732421875,-0.4379968649893999,-0.8706089682005346,0.9091133247703314
1763691413420332500,3.10033251953125,-0.026560674667358397,-1.2197009305514395,1.6671300791442394
1763691413430290700,3.110290771484375,0.3863628316029906,-1.342181501185894,1.8046043669015168
1763691413440248800,3.120248779296875,0.40074908435195683,-1.3006953523263334,1.8052701373338698
1763691413450206700,3.130206787109375,-0.10938187347799538,-1.9595050057560204,1.464680922651291
1763691413460163600,3.14016357421875,-0.08127338484674691,-1.8974466089889406,1.466899767744541
1763691413470121700,3.150121826171875,-0.08521423142701387,-2.9583699131220578,2.1939976522415874
1763691413480079600,3.16007958984375,0.12195464706420897,-3.2468922559589144,2.639382289394736
1763691413490036700,3.17003662109375,0.7824462622314691,-3.1603374235779045,2.8864105923265218
1763691413499995000,3.179994873046875,1.0669055934131144,-2.7969185374498364,2.909355414584279
1763691413509952800,3.189952880859375,1.123772559016943,-2.685136324831843,2.9085873528212307
1763691413519910700,3.19991064453125,0.9010440000832081,-2.1654547177158294,2.8738544776141643
1763691413529867800,3.20986767578125,0.9521534250736235,-2.0479740011952816,2.8671353984922168
1763691413539825700,3.21982568359375,1.032023080602288,-1.751241463895887,3.180121735978126
1763691413549783800,3.22978369140625,1.2004793666005134,-1.784589606746286,3.150686967179179
1763691413559741700,3.23974169921875,1.2140782683640718,-1.671248620378971,3.1302140879929063
1763691413569698600,3.249698486328125,0.34696444880291816,-1.9768194209113716,2.762998732191324
1763691413579656700,3.25965673828125,0.3412776353381574,-1.865656509235501,2.735222836515307
1763691413589614600,3.269614501953125,-0.6384383349217474,-2.315927457125485,2.1868904505848885
1763691413599571700,3.27957177734375,-0.9680924602225423,-2.060864608559012,1.826756577476859
1763691413609529900,3.28952978515625,-1.3770692746937274,-1.8183719032302497,1.5169319188922643
1763691413619487700,3.29948779296875,-1.4632973593384027,-1.7895695871159434,1.0969681387215853
1763691413629446000,3.30944580078125,-1.5083876701697707,-1.6597233100190758,1.044636478459835
1763691413639402800,3.31940283203125,-2.161174117787182,-2.4169535901904107,0.06577917085587978
1763691413649360600,3.329360595703125,-2.2023139374271032,-2.2807743106797336,0.0074526540935039515
1763691413659318800,3.33931884765625,-2.7577257602244614,-2.276765367299318,-1.174873800700903
1763691413669276700,3.349276611328125,-2.442749417965114,-1.6625404132664203,-1.6883154905140398
1763691413679234600,3.359234619140625,-2.4650559423193332,-1.5297998760327696,-1.7475006699323654
1763691413689192200,3.369192138671875,-2.557776603853702,-1.345918641887605,-1.8767121562570332
1763691413699150300,3.379150390625,-2.5691192511230705,-1.2159575062394141,-1.936159786003828
1763691413709107500,3.389107421875,-1.6398256003722547,-1.0588596496015787,-2.2040350621312856
1763691413719065300,3.3990654296875,-1.8787568138271569,-1.2286319866344333,-2.4657535691946744
1763691413729023500,3.4090234375,-2.0265195636257527,-1.2989780270144342,-2.766238152503967
1763691413738981400,3.4189814453125,-2.026324917836487,-1.1747153952687979,-2.8285739049077034
1763691413748938200,3.428938232421875,-2.084039732441306,-0.8327347262278199,-3.28149595182836
1763691413758896400,3.438896484375,-2.150384135964513,-0.4254387044504285,-3.5967958269536493
1763691413768854300,3.448854248046875,-2.160199135275185,-0.30112638834416866,-3.9524896717876192
1763691413778812400,3.4588125,-2.2212059771627186,-0.020258651913702488,-4.209778087449074
1763691413788769500,3.46876953125,-2.282965098722279,0.11902297752648591,-4.54699636439383
1763691413798727400,3.4787275390625,-2.2245316144540905,0.22817688746750353,-4.595428679129481
1763691413808685300,3.488685302734375,-2.143415758256614,0.3249211054295301,-4.856247607004642
1763691413818642400,3.498642333984375,-2.0543279002666472,0.42177170637547967,-4.891812841382622
1763691413828600300,3.508600341796875,-2.0460984165817497,0.9774386729776858,-4.803840543419122
1763691413838558500,3.518558349609375,-1.7393799073189495,1.3736176729351282,-4.622565107858181
1763691413848516400,3.528516357421875,-1.422348678356409,1.7159195367544888,-4.431005009648204
1763691413858473200,3.53847314453125,-1.312272100612521,2.1929098570048806,-4.155329288902879
1763691413868431400,3.548431396484375,-1.169872485282272,2.259630692625046,-4.169953442060947
1763691413878389200,3.55838916015625,-0.38210312833189963,2.1657629068821667,-4.089610323801637
1763691413888346400,3.568346435546875,-0.24521876929178832,2.2177374242693184,-4.100685260045529
1763691413898304500,3.578304443359375,-3.4310108059912916,2.959264816135168,-3.998798418498039
1763691413908262400,3.588262451171875,-3.2425714701503514,3.0036265204310415,-4.002991778534651
1763691413918220300,3.59822021484375,0.5433212067048996,2.8183237290501593,-5.087254164940118
1763691413928177400,3.608177490234375,0.2456493427287787,1.9628233365237713,-4.628090593281388
1763691413938135300,3.61813525390625,0.5320405187558382,2.4295336703002453,-4.409458948272467
1763691413948093400,3.628093505859375,0.5427215237786993,2.8842648124694823,-4.343998926368355
1763691413958051300,3.63805126953125,0.6974620401680469,2.836610496369004,-4.303227355518937
1763691413968008200,3.64800830078125,0.8405886545985937,2.718679113471508,-3.128372259518504
1763691413977966300,3.65796630859375,0.970929437214136,2.657598329564929,-3.0847727717667817
1763691413987924200,3.66792431640625,0.328653277695179,2.8482150094449517,-2.2526520857840775
1763691413997881300,3.67788134765625,0.44938861209750175,2.783762118756771,-2.211884022065997
1763691414007839500,3.687839599609375,0.11525602620840072,3.165489399513602,-2.0131945103675126
1763691414017797400,3.69779736328125,-0.2798187753668055,3.4054549244523047,-1.954818893766403
1763691414027755500,3.707755615234375,-0.14863682921938598,3.3167671716958282,-1.9070681315541267
1763691414037712400,3.71771240234375,0.11917356497831642,3.079352500283718,-1.3361322841495276
1763691414047670300,3.727670166015625,0.2481741119660437,2.975003652536869,-1.2852747880935669
1763691414057628400,3.73762841796875,0.44433834297060965,2.9835446863889694,-0.642050534069538
1763691414067586300,3.74758642578125,0.059223757863044735,2.998474544495344,-0.44065293245613574
1763691414077543400,3.75754345703125,-0.16038330804929135,3.1359935481771823,0.012559037321805954
1763691414087501300,3.767501220703125,1.771297578974813,3.13032836202234,0.6358966876149177
1763691414097459200,3.777459228515625,1.8694307670772075,3.020940643325448,0.677870035469532
1763691414107416300,3.787416259765625,-0.24577742608785627,3.132414812907576,0.5506996995836496
1763691414117374500,3.79737451171875,-0.14761296606436372,3.027372722199559,0.5850590653032064
1763691414127332400,3.807332275390625,0.8300725212812423,2.2920304487094283,0.3808499134004116
1763691414137290500,3.81729052734375,1.7308254294633865,1.5966513522952794,1.2011392918139696
1763691414147247400,3.827247314453125,2.091598184996843,1.1905945169240235,1.8788094207972288
1763691414157205200,3.837205322265625,2.823431281322241,0.6776356421917676,2.7876509428888556
1763691414167163400,3.847163330078125,2.789011709848046,0.6159016550734638,2.8221780663907525
1763691414177120500,3.85712060546875,2.5818016225636002,0.4523486309468746,3.576531037560105
1763691414187078400,3.867078369140625,2.5155904900312422,0.44467531984001396,3.5929520110070703
1763691414197036500,3.87703662109375,0.6677544457770883,-1.8395529306858778,0.731537328249216
1763691414206994200,3.886994140625,0.30166122587323185,-2.2525983097702262,0.3548486261814833
1763691414216951300,3.896951416015625,0.54271206183061,-2.749540992464125,0.7599316480845213
1763691414226909400,3.906909423828125,1.1606804401755333,-2.83560190384835,1.198227203759551
1763691414236867300,3.916867431640625,1.125012914466858,-2.7678783209264277,1.1739964333444832
1763691414246825500,3.926825439453125,0.4508275588594377,-6.815599468025565,1.7475263888955115
1763691414256782300,3.9367822265625,5.78735707500577,0.09466244325190783,4.754280685958266
1763691414266740200,3.946740234375,1.022742480429262,1.0131488687843084,4.055876981025934
1763691414276698400,3.956698486328125,1.267014324259758,-1.5238023891836403,1.942694740730524
1763691414286655500,3.966655517578125,1.069200426352024,-1.3313780753597617,1.857861325314641
1763691414296613400,3.97661328125,1.1712287221968174,-5.234771123284101,-0.5978828910410404
1763691414306571500,3.986571533203125,0.9724772511780262,-4.986250535967946,-0.7370330030560494
1763691414316529400,3.996529296875,-2.653476865720749,-3.5975153733998533,-3.468937508803606
1763691414326486300,4.006486328125,-2.768826999953389,-3.389568204012513,-3.60742477299571
1763691414336444400,4.0164443359375,-2.555556005194783,-3.5323470279186964,-4.014453083747625
1763691414346402300,4.02640234375,-2.096979878035188,-3.316302476793527,-2.0377479368656872
1763691414356360400,4.0363603515625,-2.125580534097552,-3.1495056484401225,-2.165698609474301
1763691414366317600,4.046317626953125,0.44048400563001633,-0.9540145427703857,1.0213584787249566
1763691414376275200,4.056275146484375,0.3994406321018934,-0.7798667671322822,0.8741402110666036
1763691414386233300,4.0662333984375,1.1724871978253126,1.2493810524135827,2.435356092843413
1763691414396190500,4.0761904296875,3.9617824007898568,2.2036691514283415,4.034055609840155
1763691414406148400,4.0861484375,3.214063753068447,3.952750953072309,3.3789240604013204
1763691414416106500,4.0961064453125,3.1146371641546486,4.133926435390115,3.1846225545287132
1763691414426064400,4.106064453125,0.21510580897033213,5.205095531466603,1.8708090696930884
1763691414436021200,4.116021240234375,-2.105233911639452,2.7792122003674504,-0.7977274179935455
1763691414445979400,4.1259794921875,-2.0588012462884184,2.912143583998084,-0.9507014726996421
1763691414455937300,4.135937255859375,0.13220840311832724,-2.3638252265930175,-1.6187626463383435
1763691414465894400,4.145894287109375,0.16764789222478865,-2.286083230742812,-1.7139911990404129
1763691414475852500,4.1558525390625,-0.17217220124881713,0.6984183179795742,1.0761878010213375
1763691414485810200,4.16581005859375,-0.15178396813869474,0.7809224136650562,0.9675970779210329
1763691414495768300,4.175768310546875,0.3886620119234547,2.369548280414939,-0.050281741994619364
1763691414505725400,4.185725341796875,0.6129635557949543,2.7537060031890865,-0.051937107986211775
1763691414515683300,4.195683349609375,0.5140373906839638,2.9244647209107875,-0.6031564475297928
1763691414525641500,4.205641357421875,0.4674269576132297,3.020767040324211,-0.7561854472935199
1763691414535599400,4.215599365234375,0.3275450972575694,2.980588759192824,-0.548735121512413
1763691414545556200,4.22555615234375,0.13566343894302843,2.5965181301802396,-0.355457113468647
1763691414555514400,4.235514404296875,0.7661287491589784,2.2637381279438733,-0.5034399357587099
1763691414565472300,4.24547216796875,0.8790028486669063,1.2238263399183749,-0.3574921264275908
1763691414575429400,4.255429443359375,0.7121444993846118,0.3346773602902889,0.46786125737726686
1763691414585387500,4.265387451171875,0.5981617079824209,0.4037298537284136,0.2916013118907809
1763691414595345400,4.275345458984375,0.8257008820682764,-2.0886615470230576,1.296802436541021
1763691414605303300,4.28530322265625,0.7510514454059303,-2.0536574536591767,1.1913353984192012
1763691414615260400,4.295260498046875,-0.46963075126782056,-3.2031688495665787,0.8423302375689148
1763691414625218300,4.30521826171875,-0.3772153562903404,-4.431000917994976,0.6514934851974249
1763691414635176400,4.315176513671875,-0.6548987635962664,-4.787092822235822,0.2897644518524408
1763691414645133600,4.325133544921875,-0.5948252570360899,-4.791594809830189,0.3224325034841895
1763691414655091200,4.33509130859375,-0.27096871209815143,-5.157612480279803,-0.2936021303191781
1763691414665049300,4.34504931640625,-0.15032565908916293,-2.771296604937315,0.05852203933447599
1763691414675007200,4.35500732421875,0.3937416898079216,-0.6839286048561334,-0.17012217338383198
1763691414684963800,4.3649638671875,0.9535305586457252,1.2683715840876102,-0.08052344326227903
1763691414694922000,4.374921875,-0.3961673095196485,2.7353099302768706,0.5056219559729099
1763691414704879900,4.3848798828125,-0.3628635903328657,2.7650755384653807,0.44463148069828745
1763691414714838000,4.394838134765625,1.1782897466242312,4.33776266232729,-0.3402586675539613
1763691414724795100,4.404795166015625,0.13306991531848908,4.191276800596714,-0.6487973779812455
1763691414734753000,4.4147529296875,0.05116963074505329,4.226890550291538,-0.7629153400704264
1763691414744711000,4.4247109375,0.3589109802495688,3.060644877204299,-0.9450979536041617
1763691414754668000,4.43466796875,0.21406536000669002,3.075751260921359,-1.03933077326715
1763691414764626000,4.4446259765625,2.027272281689197,0.8704074542790651,-0.4861895257502794
1763691414774584000,4.454583984375,2.179234236743301,0.1900327425122261,-0.22478461468070743
1763691414784542200,4.464542236328125,2.0377927989207207,0.19514614000320432,-0.31862346659004687
1763691414794498800,4.474498779296875,1.9193936523810027,0.06991057157218455,0.7102490410268306
1763691414804457000,4.48445703125,1.9064871167957782,0.08216858012080192,0.66342912992388
1763691414814415000,4.4944150390625,2.3843553889244795,-0.02912906385064125,0.5816665002554655
1763691414824372000,4.5043720703125,2.135250133588165,-0.15778817698955536,-0.10899199737757444
1763691414834330000,4.514330078125,1.7936894435249269,-0.29867373449504375,-0.12496931871026754
1763691414844288000,4.5242880859375,1.564400941553712,-0.4512923998922109,-0.05292465771883726
1763691414854246100,4.53424609375,1.3450648015372455,-0.4773363572090864,0.052718321491777895
1763691414864203000,4.544203125,1.3169687339961529,-0.4197486761152744,0.16743249590843914
1763691414874161000,4.554160888671875,1.3131361700959503,-0.4257096303462982,0.18409926081001757
1763691414884119000,4.564119140625,1.2074256786070763,-0.2490706224143505,0.2854863361418247
1763691414894076200,4.574076171875,1.262975716393441,-0.25213702424764634,0.34823680682629343
1763691414904034000,4.584033935546875,1.3294393623821437,-0.34968028363287446,0.42744624488055705
1763691414913992000,4.593991943359375,1.3294336632937191,-0.3551999238371849,0.44425680216699837
1763691414923950000,4.6039501953125,1.301623280826211,-0.689746351224184,0.5795557917118073
1763691414933907000,4.613906982421875,1.334071406096965,-0.6872919438093901,0.5886240643084049
1763691414943865000,4.623864990234375,0.9740558986715971,-0.1346545541614294,0.5925064586997032
1763691414953823000,4.633822998046875,0.5932073004454373,0.3584580488502979,0.49889177093505854
1763691414963781000,4.643781005859375,0.5879049562536179,0.36780221577882766,0.46792117087095975
1763691414973738000,4.653738037109375,-0.9744646256029605,1.650401647183299,0.1880319240838289
1763691414983696000,4.66369580078125,-0.8461749302983284,1.9794173284500836,0.297218567250669
1763691414993654000,4.673654052734375,-0.7864737641818821,2.022690068465471,0.18458032232522964
1763691415003611100,4.683611083984375,0.06208265442550182,2.731937238973379,0.6452738800302148
1763691415013569000,4.693569091796875,0.15817206174060702,2.778780238690972,0.5218073670983314
1763691415023527000,4.70352685546875,1.9371224935561417,2.3369880730718373,0.5519008920669556
1763691415033485000,4.713485107421875,1.990737179365754,2.367421789780259,0.45455198621004816
1763691415043442000,4.72344189453125,-0.909438318940997,0.29783319201767444,0.6332054027043282
1763691415053400000,4.733400146484375,-2.8514906701147553,-0.7663087819010019,0.8913944204673171
1763691415063358000,4.74335791015625,-2.8185224664926527,-0.7478554258435964,0.823257434438914
1763691415073314800,4.753314697265625,-3.1042776827037333,0.904516644629836,0.34375688493326306
1763691415083273000,4.76327294921875,-3.092691289806366,0.9157616767436265,0.2948994766533375
1763691415093230800,4.77323095703125,-2.168172744502872,1.1638286750733853,0.42521921648085115
1763691415103189000,4.78318896484375,-0.05710062822923064,2.5685072567045686,0.9772229844003916
1763691415113146000,4.79314599609375,-0.04729527352973818,2.582216633105278,0.9093678840532898
1763691415123104000,4.80310400390625,0.201709736302495,6.015042379564046,0.8154943992219865
1763691415133062100,4.813062255859375,0.2360516394305974,6.027034430652856,0.7656516331665217
1763691415143019000,4.82301904296875,-0.476180757433176,6.769909729996323,0.520624733185023
1763691415152977000,4.832976806640625,-0.4366138131331652,6.775332339566946,0.5090663973383606
1763691415162935000,4.84293505859375,-0.3214765179336071,6.426923975566029,0.7430863117456435
1763691415172893000,4.852892822265625,-0.665560515929386,2.7328514312088488,2.0079365898393093
1763691415182850000,4.86285009765625,-1.0560030911266802,-0.35165772118568417,3.2912720804333686
1763691415192808000,4.872807861328125,-1.0568963136393577,-0.3436509403407573,3.2402453652903436
1763691415202765800,4.882765869140625,-1.0643242716830223,-3.8825276622891423,2.443502136028558
1763691415212724000,4.892723876953125,-1.0853799922585488,-3.8614509719908234,2.2780530690222975
1763691415222681000,4.90268115234375,1.6284516811817884,-20.254791731142998,-2.7289479940295216
1763691415232639000,4.912638916015625,1.5806196704268454,-20.22938139555454,-3.0998382389515635
1763691415242597000,4.92259716796875,-3.3082939423829316,-6.710544517835975,-6.5868047409206625
1763691415252554000,4.932553955078125,-3.2919694150477645,-3.691653208255768,-6.074967563694715
1763691415262511900,4.942511962890625,-1.5410650741517542,-0.366432680991292,-3.5849040213689207
1763691415272470000,4.952469970703125,0.869329595914483,-0.17016835061311722,1.0809268122419715
1763691415282428000,4.962427978515625,0.885088890582323,-2.963167668792605,2.1121325851120054
1763691415292385000,4.972385009765625,0.505772762620449,-2.7103748109847308,2.4582673050925132
1763691415302343200,4.98234326171875,1.3371183725774287,-1.0607307041704654,3.282231280365586
1763691415312300800,4.99230078125,0.7232172436714172,-1.4452671971291302,2.2012691045492887
1763691415322258000,5.0022578125,0.47511225141882896,-2.288160621538758,1.0171233984384684
1763691415332216000,5.012216064453125,0.8037374720633029,-1.9515829805850982,-0.19609235307844355
1763691415342174000,5.022174072265625,0.61106912035048,-0.9441098193496466,-0.9735665807846933
1763691415352132000,5.032132080078125,0.1311187995170243,0.015510872864723205,-1.1474149350848049
1763691415362089000,5.0420888671875,-0.21635668581426143,0.6229816764622926,-0.7691809763364493
1763691415372046800,5.052046875,-0.247999193790555,0.8490706517398356,-0.06443402159092948
1763691415382005000,5.0620048828125,-0.014416657020384445,0.8328782263517379,0.5955231031071394
1763691415391962000,5.071962158203125,0.28548750518560406,0.8019611100405454,1.0106843053016812
1763691415401920000,5.081919921875,0.49662382600307464,0.8121955038070678,0.9980332788474857
1763691415411878100,5.091878173828125,0.2179956851929426,0.9841700270593166,0.5373278845742344
1763691415421836000,5.1018359375,-0.46069092735648154,3.1521839277386663,0.033952465419098736
1763691415431793000,5.11179296875,-0.17933365384340286,3.182071701002121,-0.6290319894772023
1763691415441751000,5.1217509765625,0.07000585320678074,3.021563159137964,-1.1026897312387824
1763691415451709000,5.131708984375,0.4901099140644073,3.8443560448050498,-0.49502819084208455
1763691415461666000,5.141666015625,0.7963502844214438,0.1858458122164011,-0.3333993762437254
1763691415471624200,5.151624267578125,-0.4184112900316715,-1.5720090784698724,-0.2643302969969809
1763691415481581800,5.161581787109375,-0.5760007295787334,-1.9499591787755488,-0.6896889219485223
1763691415491540000,5.1715400390625,-0.1411584926953539,-1.8631126699715852,-1.2382941334709525
1763691415501497000,5.1814970703125,0.4438274708390236,-1.580380016452074,-1.5005087534882127
1763691415511455000,5.191455078125,0.8077624897956848,-0.9689239426106214,-1.5661019002526997
1763691415521413000,5.2014130859375,0.8954197304606437,-0.17494155636429787,-1.463043822968751
1763691415531370000,5.211369873046875,0.784270555049181,0.37388884221613405,-1.1589064162403344
1763691415541328000,5.221327880859375,0.6462041466176509,0.6409300056070089,-0.8215984882507473
1763691415551286000,5.2312861328125,0.5692390168914571,0.7517869200736284,-0.5784374552063644
1763691415561244000,5.241243896484375,0.5576549620816483,0.7334218268215655,-0.4363140264689922
1763691415571201000,5.251200927734375,0.590447772604227,0.5967120936959982,-0.2947733295230195
1763691415581159200,5.2611591796875,0.7357389446575194,0.3751987557709217,-0.13966886605895124
1763691415591116800,5.27111669921875,0.9282618234850466,0.17189502827525138,-0.05190418296414427
1763691415601075000,5.281074951171875,1.0792121172785758,0.1137275014668703,-0.010256459467858076
1763691415611032000,5.291031982421875,1.1453238810896873,0.12965104678571224,-0.026636187588982282
1763691415620990000,5.300989990234375,1.1682510946255176,0.1277086805462837,-0.08365943973306567
1763691415630948000,5.310947998046875,1.0776362462639808,0.08627192378640175,-0.12291748248068615
1763691415640905000,5.320905029296875,0.8619780641078948,-0.04012275155186653,-0.13201054245866833
1763691415650862800,5.33086279296875,0.6188240453261882,-0.18899872328937053,-0.08748230422316118
1763691415660821000,5.340821044921875,0.399324385311082,-0.19004267938435077,-0.04950650157211348
1763691415670779000,5.35077880859375,0.2984919481873512,-0.08249591237902641,0.02390670782616362
1763691415680735700,5.36073583984375,0.3022084114272147,0.0768015001296997,0.05743243116659578
1763691415690694000,5.37069384765625,0.4036955130673945,0.22666882099211214,0.05266028942791745
1763691415700651800,5.38065185546875,0.5200689989984035,0.2869680991321802,-0.039430093112587924
1763691415710609000,5.39060888671875,0.5954616552434862,0.2812263406097889,-0.2557680011611432
1763691415720567000,5.400567138671875,0.642550957872346,0.19980127233266828,-0.5960477115031332
1763691415730525000,5.41052490234375,0.6944215034283697,0.0666845952630043,-1.0086588638886809
1763691415740483000,5.420483154296875,0.7088847669363021,-0.07171966682076454,-1.375148828025162
1763691415750440000,5.43043994140625,0.8469432112570852,-0.24957681837081908,-1.6987337164148688
1763691415760397800,5.440397705078125,1.0282922235108911,-0.4001683618545532,-1.9776213849440216
1763691415770356000,5.45035595703125,1.1732302712775766,-0.5096691855370998,-2.244962846455723
1763691415780313000,5.46031298828125,1.2812287275731562,-0.5710708719611167,-2.5707249327540396
1763691415790271000,5.47027099609375,1.476675457958132,-0.5959457854986191,-3.044206075839698
1763691415800228900,5.480228759765625,1.70730558379665,-0.6007622458696364,-3.522172255384922
1763691415810186800,5.490186767578125,1.979544315830618,-0.7293167295902967,-3.936171866454184
1763691415820143900,5.500143798828125,2.350613716711849,-1.0823135904252528,-4.1964165015727275
1763691415830102000,5.51010205078125,2.748569224822521,-1.5543904196709393,-4.166811052381992
1763691415840060000,5.520059814453125,3.109371206450462,-2.050717308554053,-4.001778895613551
1763691415850016800,5.530016845703125,3.2967291767954823,-2.5243606564640997,-3.702667061962187
1763691415859975000,5.539974853515625,3.353609001880884,-3.1006752742975947,-3.2936388095647096
1763691415869932800,5.549932861328125,3.494035709702968,-3.731582483062148,-2.8548510864585634
1763691415879891000,5.559890869140625,3.5928456280231473,-4.235258565664291,-2.372691985268146
1763691415889848000,5.56984814453125,3.6131752993464468,-4.467656870219111,-1.9589944258853793
1763691415899806000,5.579805908203125,3.7294998315691945,-4.532943873643875,-1.6780542087405919
1763691415909764000,5.58976416015625,4.008627738595009,-4.457558670052886,-1.6039038076415657
1763691415919721000,5.599720947265625,4.055320516186953,-4.173844604280591,-1.7590224731609225
1763691415929678800,5.609678955078125,3.3359424122869967,-3.7552708171635865,-1.9664057250551878
1763691415939637000,5.619636962890625,2.409724223458767,-3.3533927287817,-2.684718976202607
1763691415949595000,5.629594970703125,1.2648317195236682,-3.0551047787338494,-3.2317282968357204
1763691415959552000,5.639552001953125,0.6076145959824323,-2.8489012381434438,-2.821580392758548
1763691415969510000,5.649510009765625,0.7467828281760215,-2.4683529380381106,-1.3216497314192355
1763691415979467800,5.6594677734375,1.0535392582964151,-1.9776228462487457,0.6030544849926606
1763691415989425000,5.6694248046875,0.5218095590554177,-1.3233254095464944,2.433695904546231
1763691415999383000,5.679383056640625,-1.105402935720235,-0.7904413526386022,3.9847617098391055
1763691416009341000,5.6893408203125,-3.498799563103914,-1.2865250804156063,4.997125565725565
1763691416019299000,5.699299072265625,-5.428182402318716,-1.1363292582511901,4.84389636721462
1763691416029256000,5.709255859375,-5.2724160865455865,-0.5829647233724594,3.1721666853204367
1763691416039213800,5.7192138671875,-3.5248008503228423,-0.006602759265899658,0.720425567126274
1763691416049172000,5.729171875,-1.6006652641117571,0.4307178138971329,-1.465898189486563
1763691416059129900,5.7391298828125,-0.8494351011380553,0.5758651205003261,-2.481867084127664
1763691416069087000,5.7490869140625,-1.1324211448967456,0.5665910961985587,-2.3406125471793113
1763691416079044900,5.759044921875,-1.6371783007338643,0.3233610165059566,-1.7488593910649417
1763691416089002800,5.769002685546875,-2.636021580789983,-0.02219429615139961,-1.1290271185442804
1763691416098960000,5.7789599609375,-3.744014386872947,-0.49460021122097964,-0.0014678805954754352
1763691416108918000,5.78891796875,-4.1397324913203715,-0.6015285540670157,0.978893621026352
1763691416118876000,5.7988759765625,-4.106086534567177,-0.29158056136369703,1.6592001629278064
1763691416128833000,5.8088330078125,-3.8158477432012554,0.31433833661675453,1.90557423973456
1763691416138791000,5.818791015625,-3.3824013811230658,1.1426812576264143,1.6458198723509907
1763691416148748800,5.828748779296875,-2.7956971789613365,1.816827304136753,1.2838836259961128
1763691416158707000,5.83870703125,-2.1436440140545368,2.3982220017135143,0.8872003297783434
1763691416168664000,5.8486640625,-1.7711676689848304,2.845743650895357,0.5835236724294722
1763691416178622000,5.8586220703125,-1.758262302443385,3.067090400081873,0.46377501097694035
1763691416188580000,5.868580078125,-1.9800772536635398,2.860551343926787,0.5005472830571234
1763691416198537700,5.878537841796875,-2.2011060229420663,2.314462937530875,0.6607308307506143
1763691416208494800,5.888494873046875,-2.486974636399746,1.8518945258647201,0.697337975396961
1763691416218453000,5.898452880859375,-2.792749142810702,1.5881564956724643,0.6619667292211204
1763691416228411000,5.908410888671875,-3.010029665471613,1.4961100801378489,0.7323354928895831
1763691416238368000,5.918367919921875,-3.1797724841490385,1.5182336491405963,0.9909067879684269
1763691416248326000,5.928325927734375,-3.0915596554279325,1.647685958483815,1.2820210469946265
1763691416258283800,5.93828369140625,-2.6691525737583635,1.8300076882272958,1.5186273246333002
1763691416268242000,5.948241943359375,-2.012927383863926,2.1404700601935387,1.7656556275650859
1763691416278199000,5.958198974609375,-1.4398267596408725,2.5748259383320806,1.9826934275113044
1763691416288157000,5.968156982421875,-0.9009528146684169,3.138180536827445,2.0037802008122205
1763691416298115000,5.978114990234375,-0.2323120875760913,3.484685113033652,1.981029732082784
1763691416308072000,5.988072021484375,0.0745709645986557,3.641860126560926,1.9805670830070972
1763691416318029800,5.99802978515625,0.4324085434630513,3.974916607651114,1.821954145631194
1763691416327988000,6.007988037109375,1.382499190787971,3.996803445288539,1.3211340369820594
1763691416337945900,6.01794580078125,2.0022654123350976,3.329077202692628,0.5760413538500666
1763691416347903000,6.027903076171875,2.8413135594934222,1.9192577510416506,-0.49358219328485425
1763691416357861000,6.037861083984375,4.594615609180927,0.7401110953271388,-2.035815361367911
1763691416367818800,6.04781884765625,5.601081639200449,-0.003083352968096733,-3.6388065842092034
1763691416377775900,6.05777587890625,5.4382694965690375,-0.637059886175394,-4.9749248398333785
1763691416387734000,6.067734130859375,4.947576229658723,-1.176645486548543,-5.937596736311912
1763691416397692000,6.07769189453125,4.440410843636095,-1.710141537874937,-6.326215530148148
1763691416407650000,6.087650146484375,3.960015683378279,-2.4449030888676644,-5.697302710071206
1763691416417607000,6.09760693359375,3.587902618663013,-3.2472517369210716,-3.9387221354588866
1763691416427564800,6.107564697265625,3.2453178462490437,-3.8622804085522886,-1.532564956831932
1763691416437523000,6.11752294921875,3.239787392389774,-4.166642125555873,0.6613575112815946
1763691416447480000,6.12747998046875,3.8303167057976126,-3.9795337460577485,2.1419325339615343
1763691416457438000,6.13743798828125,4.465568373507261,-3.117639268580079,2.8115532120019195
1763691416467396000,6.14739599609375,4.50602196444869,-1.6877561030656099,2.921955368438363
1763691416477354000,6.15735400390625,3.579435234569013,-0.1653758556395769,2.8600977549403903
1763691416487310800,6.167310791015625,2.122958953422308,0.8079518748879432,2.9117154217138883
1763691416497269000,6.17726904296875,0.4557800667002797,0.7973451406776905,3.3581203418254852
1763691416507227000,6.187226806640625,-1.1618345786467195,0.08064297798871993,4.054863420069218
1763691416517184000,6.19718408203125,-2.630547825554013,-0.8390227204561232,4.866659695425629
1763691416527142100,6.20714208984375,-4.30274600174278,-1.995530258861184,5.563160197085142
1763691416537099800,6.217099853515625,-5.494854138100147,-3.3498458499550816,5.712780849710106
1763691416547058000,6.227057861328125,-4.539599824401736,-4.953815416309237,5.257810053566098
1763691416557015000,6.23701513671875,-1.312676882021129,-6.271581438162922,4.676353981190919
1763691416566973000,6.246972900390625,1.2960910734012723,-5.914260284388065,3.70030296317935
1763691416576931000,6.25693115234375,-1.082455336983502,-3.3933155738472935,2.487338209015131
1763691416586888000,6.266887939453125,-4.325662766949832,0.26664076589643954,1.5126779147095977
1763691416596845800,6.276845703125,-6.053878013914823,3.406166872113943,0.876409690368548
1763691416606804000,6.286803955078125,-7.181771452254057,5.447244245663285,0.4009293362896889
1763691416616761900,6.296761962890625,-7.081548744526505,6.1487944319278,-0.18115820238944141
1763691416626719000,6.306718994140625,-5.726719943213462,5.527472213110327,-1.1547305187951773
1763691416636677000,6.316677001953125,-4.430061883579194,3.487999352148175,-2.191911785878241
1763691416646635000,6.326635009765625,-3.745709208092093,0.6280272694140673,-2.8622224920094013
1763691416656592000,6.336591796875,-3.1432723070085045,-1.8593448418706655,-3.181746706831455
1763691416666550000,6.346550048828125,-2.401699906957149,-3.2478654849052426,-3.474938210523128
1763691416676508000,6.3565078125,-1.572203724259138,-3.7872073396503922,-3.389562651054561
1763691416686466800,6.366466796875,-0.9098010147735476,-3.680749536925554,-2.3311982376240192
1763691416696423700,6.376423583984375,-0.5776753847926854,-2.9028274741202593,-0.4261638038545847
1763691416706381800,6.3863818359375,-0.39290699254944916,-1.8236808232933281,1.4498337743923067
1763691416716339700,6.396339599609375,-0.036431203557550904,-0.4686223048776388,2.636930220067501
1763691416726296600,6.406296630859375,-0.020448475397378204,0.9599211364656686,3.1995793006420135
1763691416736254700,6.416254638671875,-0.32742870433628557,2.0939187368988987,3.3842262584626672
1763691416746212600,6.426212646484375,-0.8580411630503832,2.675496974349022,3.4756656480148433
1763691416756170800,6.436170654296875,-1.2831792771190405,2.7902491426885128,3.426679791049659
1763691416766127900,6.4461279296875,-1.2783230692595242,2.4700334384709595,2.9835864797040816
1763691416776085800,6.456085693359375,-0.977951298674941,1.7984429216623306,2.121013372312486
1763691416786044000,6.4660439453125,-0.7853618574172258,1.232427579525113,0.7882948421292006
1763691416796000800,6.476000732421875,-0.7386608965188265,0.5619061532527208,-0.43168512455932795
1763691416805958700,6.485958740234375,-0.6806530903168022,-0.06312251886725426,-1.3792505642555652
1763691416815916800,6.495916748046875,-0.5613982037305831,-0.49057811609804625,-2.1510864390149713
1763691416825874700,6.505874755859375,-0.15994688939340412,-0.886222863048315,-2.5125208733275533
1763691416835831800,6.515831787109375,0.27184761382453143,-1.0552256770133972,-2.4084194244705137
1763691416845789700,6.525789794921875,0.5860842436324805,-0.9021680356770754,-2.0567804079852996
1763691416855747600,6.53574755859375,0.6145201375871896,-0.5002531224161386,-1.5763843709446488
1763691416865704700,6.54570458984375,0.4888736502677202,-0.09717910224795341,-1.0767917582638562
1763691416875662800,6.555662841796875,0.31116851094160225,0.26230945869386196,-0.64509618537575
1763691416885620700,6.565620849609375,0.09855857390761374,0.5991518880635499,-0.29187351642828435
1763691416895579000,6.575578857421875,0.010304518126975745,0.8618488847702741,-0.06916128757484256
1763691416905535700,6.58553564453125,0.11392682343125343,1.0135773233294487,0.062313613637164235
1763691416915493600,6.59549365234375,0.31173546064198016,1.0997580617010594,0.04341777450926602
1763691416925451800,6.60545166015625,0.5083873290330171,1.124772091448307,-0.140466071718093
1763691416935409000,6.615408935546875,0.7752671643823384,0.9840379251122474,-0.3905039865283295
1763691416945366800,6.62536669921875,0.9987257911562919,0.6430442212820052,-0.6393558150928467
1763691416955325000,6.635324951171875,1.0116472320497036,0.27176059312820433,-0.8110019101083278
1763691416965282600,6.645282470703125,0.8804220678150654,0.02327741521298885,-0.9638448857806622
1763691416975239700,6.65523974609375,0.8623661866426467,-0.12136778708696365,-1.1423827130712567
1763691416985197800,6.66519775390625,0.8505927467405796,-0.16837036128044128,-1.3322230017513037
1763691416995155700,6.67515576171875,0.6170856041610241,-0.15983049647212028,-1.5057633130155503
1763691417005112800,6.68511279296875,0.3728536904821172,-0.10541501567363738,-1.7410813044093547
1763691417015070700,6.69507080078125,0.2644949860394001,-0.027093174108862875,-1.988064014633745
1763691417025028600,6.705028564453125,0.43880752378515897,0.04566518810987472,-2.210448290174454
1763691417034986800,6.71498681640625,0.9227040432274342,0.08200140686035155,-2.3845491579309104
1763691417044944000,6.72494384765625,1.391484753537178,0.037189620709419245,-2.4700071349859236
1763691417054901800,6.73490185546875,1.6277204442977904,-0.19558862307369707,-2.4031331546306607
1763691417064860000,6.74485986328125,1.6986323018670082,-0.5467722970068455,-2.168004694459587
1763691417074816800,6.754816650390625,1.7864404953099786,-1.009251861345768,-1.8888273953340946
1763691417084774700,6.764774658203125,1.9499732073009013,-1.3823755644083022,-1.7133429642647504
1763691417094732800,6.77473291015625,1.917470283102989,-1.476398248451948,-1.7069412805289028
1763691417104690700,6.784690673828125,1.9317139125108718,-1.4600146844059227,-1.9693897093020378
1763691417114647800,6.794647705078125,2.3019185132563114,-1.5179606774181127,-2.468134034590423
1763691417124605700,6.804605712890625,2.735119376140833,-1.729199874088168,-2.9585721576958894
1763691417134563600,6.8145634765625,2.9807237837493417,-2.2154151188015936,-3.337102103716135
1763691417144520700,6.824520751953125,2.9238883823275565,-2.727269247162342,-3.5918683074235913
1763691417154478800,6.834478759765625,2.866107224488258,-3.110005997222662,-3.819984989136457
1763691417164436700,6.844436767578125,2.722789471399784,-3.3648014270246027,-3.9519168403357265
1763691417174393600,6.8543935546875,2.425727263754606,-3.671853698286414,-3.9091058726131913
1763691417184351700,6.864351806640625,2.007335847467184,-4.041013758414984,-3.667910805879533
1763691417194309600,6.8743095703125,1.3188345278680325,-4.281448654431104,-3.233931067577004
1763691417204267800,6.884267822265625,0.5712848069727421,-4.31112950694561,-2.2136378799960017
1763691417214225000,6.894224853515625,0.5148936421871185,-4.266718702811002,-0.4376203232945874
1763691417224182800,6.904182861328125,0.9814023159116506,-3.9955654279261825,1.5908834364183246
1763691417234141000,6.914140869140625,1.092008981944248,-3.490654835093021,3.6488553922757503
1763691417244097800,6.924097900390625,0.45916751718148585,-2.7343443001151084,5.748144424036145
1763691417254055700,6.9340556640625,-0.5256242950379848,-1.7237451158136128,7.291289227071404
1763691417264013800,6.944013916015625,-1.7112950918242333,-1.038778400081396,8.18896287393868
1763691417273971700,6.9539716796875,-3.052725190120935,-0.8263573001503944,8.43874193688333
1763691417283928800,6.9639287109375,-4.095574785163999,-0.7907166624486446,7.627558824989199
1763691417293886700,6.97388671875,-4.055185783891379,-0.7899632137328386,5.579875769564509
1763691417303844600,6.9838447265625,-3.5260862139582634,-0.631923692330718,2.932707064077258
1763691417313801700,6.9938017578125,-2.985001607199013,-0.6198375332176685,0.5635919143825769
1763691417323759900,7.003759765625,-2.3968615270152687,-0.8851175321549176,-1.3639623942308128
1763691417333717800,7.0137177734375,-1.7704831938520074,-1.3463356982558965,-2.4284940981194376
1763691417343676000,7.023676025390625,-1.4664537775427102,-1.4854349568665026,-2.9007977218583223
1763691417353632800,7.0336328125,-1.8465514112710952,-1.2568284458100796,-3.114212801262736
1763691417363590700,7.043590576171875,-2.3373042994141575,-0.8790566246807575,-2.955260841190815
1763691417373548800,7.053548828125,-2.5617840859293937,-0.39781741481423377,-2.4755662304177877
1763691417383506000,7.063505859375,-2.6739778019577263,0.05980243453383446,-1.6833000004395842
1763691417393463800,7.0734638671875,-2.935825488358736,0.381507500526309,-0.5678303556699306
1763691417403422000,7.083421875,-3.2757828348785636,0.8558435068756342,0.5522710040209815
1763691417413379600,7.093379638671875,-3.5047120020180937,1.5392244147211311,1.5253918503321706
1763691417423336700,7.103336669921875,-3.5530034469783303,2.286362632206082,2.274684030980617
1763691417433294800,7.113294921875,-3.4996731310680507,3.022977702111006,2.644338158236444
1763691417443252700,7.123252685546875,-3.412844742442667,3.552485560584068,2.7809377089858054
1763691417453209900,7.1332099609375,-3.4105656915947793,3.723473410886526,2.784676603253186
1763691417463167700,7.143167724609375,-3.3622765847221014,3.6228830388903615,2.69150176821053
1763691417473125600,7.153125732421875,-3.243679723653197,3.376281436938047,2.4407459691882134
1763691417483083800,7.163083740234375,-3.0899644951909777,3.15877908822,2.0458185767270622
1763691417493041000,7.173041015625,-3.1242703771576283,3.0207658712804317,1.650248502448201
1763691417502998800,7.182998779296875,-3.2498674723774195,2.951588874679804,1.2443553332060575
1763691417512957000,7.19295703125,-3.279200534367561,2.868910006949305,0.9749602271001785
1763691417522913800,7.202913818359375,-3.2005741568982597,2.851355645558238,0.8276343343488871
1763691417532871700,7.21287158203125,-2.950200635191798,2.90314311594069,0.834357066732645
1763691417542829800,7.222829833984375,-2.495269586536288,2.9443647686451673,0.8643473505225032
1763691417552787700,7.23278759765625,-1.9371032043337821,2.875322796601057,0.8661625101856887
1763691417562744800,7.242744873046875,-1.335527303993702,2.641765385138988,0.8547920981265604
1763691417572703000,7.252702880859375,-0.6116577338933944,2.3300959754705426,0.8012638484913855
1763691417582660600,7.26266064453125,0.2691471957594156,1.9603870492875575,0.6620172903645783
1763691417592617700,7.27261767578125,1.2874410262167453,1.6162755056977272,0.5077849792256951
1763691417602576000,7.282575927734375,2.513595516821742,1.235997254705429,0.3198693749979138
1763691417612533800,7.29253369140625,3.7645167844146488,0.6212719499349594,0.10860608506621793
1763691417622492000,7.302491943359375,4.817433599963784,-0.2995592851579189,-0.1300102902858518
1763691417632448800,7.31244873046875,5.607732329261303,-1.467382582825422,-0.557798279542476
1763691417642406700,7.32240673828125,6.107795482063293,-2.6166046403974295,-1.2621338587418198
1763691417652364800,7.33236474609375,6.155637429690361,-3.496389579352736,-2.024913589733839
1763691417662322000,7.342322021484375,5.806619409358501,-4.12190574272871,-2.513328390318155
1763691417672279800,7.35227978515625,5.460632719546556,-4.535660731387138,-2.5105560029953717
1763691417682237700,7.36223779296875,5.2480070369541645,-4.596314814314246,-1.9483818464562295
1763691417692194600,7.372194580078125,4.810320260827243,-4.163845772835612,-1.033363535425812
1763691417702152400,7.38215234375,4.125517503485083,-3.3195138400554653,-0.061534811284393066
1763691417712110600,7.392110595703125,3.5568472629249093,-2.042065800064802,0.7785991583492606
1763691417722068500,7.402068359375,3.1270565007448194,-0.2565647775620222,1.3175211071819066
1763691417732025600,7.412025634765625,2.4704268217027185,1.8863988530129192,1.6249325671449302
1763691417741983500,7.4219833984375,1.4713894803792238,3.7303111479520794,1.7720310078158974
1763691417751941400,7.43194140625,0.20596739374697207,4.73926081148088,2.122257088763267
1763691417761898500,7.4418984375,-0.6745365071326493,4.533052594715357,2.820720853319764
1763691417771856600,7.451856689453125,-0.9809750304102897,3.055114715605974,3.458848076465726
1763691417781814500,7.461814453125,-0.9724149995967746,1.256357321166992,3.7661288957864043
1763691417791772700,7.471772705078125,-0.4939584061861038,-0.683780136296153,3.843511995196342
1763691417801729500,7.4817294921875,0.43990766704678536,-2.9291175151526927,3.503253327642381
1763691417811687400,7.4916875,1.4564233819156884,-5.6941667501330375,2.50977566627264
1763691417821645600,7.5016455078125,1.483888604207337,-8.56494430451989,0.9738999043922871
1763691417831602700,7.511602783203125,0.899283420151472,-10.324874247914552,-0.5311387110779061
1763691417841560600,7.521560546875,0.7058049210995435,-9.666991938462854,-1.2173434807050973
1763691417851518700,7.531518798828125,-0.9901309812903404,-5.853815460297465,-1.3025773666806517
1763691417861476400,7.541476318359375,-3.9637937406122683,-0.6605073972582817,-0.6071725878359749
1763691417871433500,7.55143359375,-4.87401444210261,3.710066232302785,0.7636629435673356
1763691417881391600,7.5613916015625,-3.9159143835842607,6.702734136345982,2.408925766557455
1763691417891349500,7.571349609375,-3.6244986573934552,8.094445099854468,4.098280244730413
1763691417901306600,7.581306640625,-3.953602309204638,7.453449627795815,5.162372826549411
1763691417911264500,7.591264404296875,-4.2276229562193155,6.049044017887115,4.753052897728979
1763691417921222400,7.601222412109375,-4.724727259215713,4.027023226985335,2.9360929071232675
1763691417931180500,7.6111806640625,-5.000386028826236,1.1117267319142818,0.8178240842785686
1763691417941137700,7.6211376953125,-4.685371400383114,-2.0236790795028208,-0.9891709771517664
1763691417951095600,7.631095458984375,-3.4592902672752737,-4.50975179862678,-2.3696014719069
1763691417961053700,7.6410537109375,-2.044673059953749,-5.694642550951242,-3.2077851111903786
1763691417971010600,7.651010498046875,-1.3620087759450077,-5.343386980825662,-3.4596734213739633
1763691417980968400,7.660968505859375,-0.9264791778519749,-4.008908893623948,-2.705241539749503
1763691417990926600,7.670926513671875,-0.5100982246041298,-2.267728074362874,-1.3517824193544685
1763691418000883500,7.680883544921875,-0.41105186717957254,-0.6881763254284858,-0.2068127950625494
1763691418010841600,7.690841552734375,-0.4942204181231558,0.705035690292716,0.8486554950676858
1763691418020799700,7.7007998046875,-0.795567755741626,1.8451941514432428,2.0510250593289734
1763691418030757400,7.71075732421875,-1.1910334928631783,2.6179467026561496,3.0209429814130067
1763691418040714500,7.720714599609375,-1.453682558774948,2.7552468028903006,3.565249765089154
1763691418050672600,7.730672607421875,-1.5674004156306385,2.195982688578963,3.775540282732248
1763691418060630500,7.740630615234375,-1.423311093647778,1.354136142873764,3.2628210619747637
1763691418070587600,7.750587646484375,-1.2008664662219584,0.41991292676627634,2.0137188265025614
1763691418080545500,7.760545654296875,-1.1422802756100892,-0.48002223529219623,0.5257059819720685
1763691418090503400,7.77050341796875,-1.2067267365574836,-1.043935052192211,-0.8827830247927456
1763691418100461600,7.780461669921875,-1.0681954870931805,-1.2096721423596144,-2.033329389771074
1763691418110418400,7.79041845703125,-0.686939477109909,-1.0327888042777775,-2.7595345632120964
1763691418120376600,7.80037646484375,-0.1960511260189116,-0.6557300998538732,-2.9470366182029246
1763691418130334700,7.810334716796875,0.027560791620612143,-0.25012802251279354,-2.635506909266114
1763691418140291300,7.820291259765625,-0.11507058663889765,0.17065993352234363,-2.08402731135115
1763691418150249500,7.83024951171875,-0.32189562012851236,0.5140443318814039,-1.4543945064365862
1763691418160207600,7.84020751953125,-0.24930501569211483,0.709468704304099,-0.9238635885260998
1763691418170165500,7.85016552734375,0.056712651824951166,0.8220937974870205,-0.4514333792654797
1763691418180122600,7.86012255859375,0.5121798531837761,0.8312842351585626,-0.0628352263584733
1763691418190080500,7.87008056640625,0.8902350212991237,0.7737883240014314,0.15787033884767443
1763691418200038400,7.880038330078125,0.9934913245689123,0.7067050848096609,0.17104414706695825
1763691418209995500,7.88999560546875,0.9064320497971028,0.6783645409882069,-0.05752071680482477
1763691418219953700,7.89995361328125,0.7498316212873906,0.5806698904335499,-0.3659479662142694
1763691418229911600,7.90991162109375,0.7125077066738158,0.44946459994316096,-0.6241005974896252
1763691418239869700,7.91986962890625,0.7498551482934505,0.4002671460539102,-0.8965259381368755
1763691418249826300,7.929826416015625,0.8340963699698448,0.36518823388814925,-1.1145096406310797
1763691418259784400,7.939784423828125,0.9089104956746101,0.3658569269299507,-1.2463403695434332
1763691418269742600,7.94974267578125,0.8593125712256878,0.4185977525144815,-1.2738891784653066
1763691418279699500,7.959699462890625,0.6896925752103328,0.5249462496459484,-1.2571855886846781
1763691418289657600,7.96965771484375,0.5548825382262468,0.6792489226073026,-1.1921776944622398
1763691418299615700,7.97961572265625,0.5545674443950876,0.8038438550472259,-1.1157771763488649
1763691418309572400,7.989572265625,0.6648164926290512,0.8526309745699167,-1.0211945203348993
1763691418319530500,7.999530517578125,0.7172592120498419,0.7210381460666656,-0.9179203891474753
1763691418329488600,8.009488525390625,0.6755430538266897,0.5153267729073763,-0.8217948145404458
1763691418339446500,8.019446533203125,0.6702069534957409,0.25166414603888987,-0.7656205073758959
1763691418349403600,8.029403564453125,0.8040379163146019,0.07683949405252934,-0.7859733403790742
1763691418359361500,8.039361572265625,1.129628299307823,0.09247779268920421,-0.8751859207272529
1763691418369319400,8.0493193359375,1.3512766617894172,0.16699848840534687,-0.8869241431854665
1763691418379276500,8.059276611328125,1.33239777379632,0.25011925468444823,-0.8525940766256302
1763691418389234400,8.069234375,1.2338088047504425,0.1653805318146944,-0.854920181485638
1763691418399192600,8.079192626953125,1.029858669110015,0.027763620716333388,-0.9198188431799411
1763691418409150700,8.089150634765625,0.7350643333315849,-0.028102643412351608,-0.9483796786885708
1763691418419107300,8.099107421875,0.7514321152865886,-0.15534019931554793,-1.0492927067678421
1763691418429065500,8.1090654296875,0.9813853647768497,-0.38454701435267924,-1.249010319405049
1763691418439023600,8.119023681640625,0.876830765324831,-0.4854676412165165,-1.4685779300898312
1763691418448980500,8.12898046875,0.7328080788373946,-0.4634206445813179,-1.8990186806112526
1763691418458938600,8.138938720703125,0.725986635319516,-0.4683563474178314,-2.3562229348957535
1763691418468896500,8.148896484375,0.9417711472690105,-0.592433977985382,-2.657946996872127
1763691418478853400,8.158853271484375,1.5651380236566066,-0.8606757493376731,-2.8189152652025222
1763691418488811500,8.1688115234375,2.384469370692968,-1.178116728144884,-2.8999793912127614
1763691418498769400,8.178769287109375,2.753093424248695,-1.3829016341090201,-2.9536563286036253
1763691418508727600,8.1887275390625,2.6253368129074572,-1.7616829245418308,-3.1079712765246628
1763691418518684700,8.1986845703125,2.5801263828277587,-2.3389777855843303,-3.408850412109494
1763691418528642300,8.208642333984375,2.627797650063038,-2.815458402746916,-3.6276045144543048
1763691418538600400,8.218600341796876,2.485845340108871,-2.9310078589439392,-3.6500770430251954
1763691418548557600,8.2285576171875,2.355124033743143,-2.862002711778879,-3.6754429549500345
1763691418558515500,8.238515380859376,2.090904942035675,-2.633013338884711,-3.6129017431020736
1763691418568473600,8.2484736328125,1.737988160699606,-2.4207523979514836,-3.3214047683686014
1763691418578431500,8.258431396484376,1.7507962043464182,-2.4759008691996334,-2.981124473504722
1763691418588388400,8.268388427734376,2.0263100125283002,-2.8062293866306542,-2.621035024060309
1763691418598346500,8.278346435546876,2.157909270772338,-3.2871798426836727,-2.0162810782060028
1763691418608304400,8.288304443359374,2.175102397635579,-3.8020191243350503,-1.3970292359218
1763691418618261500,8.298261474609374,1.8278508024543523,-4.002463955268263,-0.5467837682489305
1763691418628219600,8.3082197265625,1.208164075884223,-3.968501479911804,0.9099038906261324
1763691418638177500,8.318177490234374,0.6492042782817036,-3.410691071540117,2.7388921726778146
1763691418648134400,8.328134521484374,0.01974675686880946,-2.422691257059574,4.381614663535356
1763691418658092500,8.338092529296874,-1.0080616286478936,-1.1013912158608437,5.2219642486810685
1763691418668050400,8.348050537109375,-1.981048729044199,-0.077964698690176,5.235970562201738
1763691418678008600,8.358008544921875,-2.3138918596446514,0.14218202705681324,4.427870511014759
1763691418687965200,8.367965087890624,-2.0409794661328196,-0.33894787721633907,2.7472271625638007
1763691418697923000,8.377923095703125,-1.6986694190070033,-1.0119681345671414,0.8173347663916647
1763691418707881200,8.387881103515625,-1.4281182016685605,-1.6788269466787575,-0.9663194592006504
1763691418717838300,8.39783837890625,-1.2869094035580753,-2.2195868515282866,-2.3753481988653538
1763691418727796000,8.4077958984375,-1.708011247847974,-2.3792823234438893,-3.2683503467902537
1763691418737754000,8.417754150390625,-2.3438266869202256,-2.267368008878827,-3.5796132214844225
1763691418747712300,8.427712158203125,-2.9773592757523057,-2.019424929189682,-3.435437974783778
1763691418757669000,8.437669189453125,-3.27513693819046,-1.7060697583913802,-2.8006752596348523
1763691418767627300,8.447627197265625,-3.304218071246147,-1.2763964851111174,-2.0309657293796537
1763691418777585200,8.457585205078125,-3.3945728804320097,-0.6604448534160852,-1.1650174464665353
1763691418787542000,8.4675419921875,-3.2956267685115335,0.09365151264369487,-0.48005332455020394
1763691418797500200,8.477500244140625,-3.0208985577493905,0.8811217405170202,-0.19326061851754783
1763691418807458000,8.4874580078125,-2.780446126076579,1.3676263235658406,0.11194129390353336
1763691418817415200,8.497415283203125,-2.703947116024792,1.6806857262879609,0.5382913958441465
1763691418827373300,8.507373291015625,-2.826953610229492,2.157776584303379,0.8339315347969531
1763691418837331200,8.517331298828125,-2.9823227433785795,2.671579508644342,1.055005896782875
1763691418847289000,8.5272890625,-2.984816898281872,2.972517096418142,1.1997863428350537
1763691418857246200,8.53724609375,-2.8029607402235266,2.9607851575702426,1.2290569340482353
1763691418867204000,8.5472041015625,-2.632351660105586,2.6496967626601458,1.1350824730604887
1763691418877162200,8.557162353515626,-2.7712574419707057,2.2063398319423198,0.9032577306099235
1763691418887119400,8.567119384765626,-3.269232682582736,1.75111009260118,0.6265408302485942
1763691418897077000,8.577076904296876,-3.9368846908986566,1.3354793731987475,0.4228467151958495
1763691418907035100,8.58703515625,-4.371996940362453,1.0222504591286181,0.37673652326483276
1763691418916993000,8.596992919921876,-4.467261733421683,0.8742506857037544,0.6347400649257003
1763691418926950100,8.6069501953125,-4.198492723324895,0.9104290835440159,1.1498892893090844
1763691418936908300,8.616908203125,-3.701242289856076,1.1179735173493623,1.8570719285026192
1763691418946866200,8.6268662109375,-3.178432467716932,1.5581757834285497,2.487586046296358
1763691418956823000,8.636822998046876,-2.6278087559789416,2.1689228322178122,3.045800359293818
1763691418966781200,8.64678125,-1.9982889099195598,2.651618670633435,3.5319065906748173
1763691418976739000,8.656739013671874,-1.2762503546386956,2.769614350938797,3.8505776957988735
1763691418986696200,8.6666962890625,-0.5427461102306842,2.5855425626575945,3.9755665959924458
1763691418996654300,8.676654296875,0.149551094520092,2.2888182086646554,3.853861247514188
1763691419006612200,8.6866123046875,0.7283394089907408,1.8965420613646506,3.5796500463634726
1763691419016570000,8.696570068359375,1.2662614600658415,1.4351456160873173,3.1950124311178922
1763691419026527200,8.70652734375,1.839725949165225,0.9487626135915517,2.6750273110106586
1763691419036485000,8.716485107421875,2.3690374082833525,0.5444499915391207,2.0621958571627736
1763691419046443300,8.726443359375,2.9256191516429184,0.17710428735613823,1.3315825118906794
1763691419056400400,8.736400390625,3.7268852651566267,-0.2851695252776146,0.5595621839424595
1763691419066358000,8.74635791015625,4.623262734733522,-0.8987859920233487,-0.34769594141524285
1763691419076316200,8.756316162109375,5.258949286729097,-1.6525094331175088,-1.386366972132027
1763691419086274000,8.766274169921875,5.245324666002393,-2.3012521583020686,-2.567335582576692
1763691419096231200,8.776231201171875,4.4783813855901355,-2.67949159694314,-3.6620068425327537
1763691419106189300,8.786189208984375,3.399342579051852,-2.7549989656090736,-4.373198425106704
1763691419116147200,8.796147216796875,2.7814187705010176,-2.513088151821494,-4.553237012349069
1763691419126104000,8.80610400390625,2.486265611347556,-2.062489579412341,-4.051914799396694
1763691419136062200,8.816062255859375,2.1960846876487135,-1.4467641576886177,-3.155746588656306
1763691419146020000,8.82602001953125,1.9799848992049693,-0.6396066480487584,-2.2519112042889
1763691419155977200,8.835977294921875,1.860447834676504,0.37500294093787667,-1.3276280751764773
1763691419165935400,8.845935302734375,1.5595026481181382,1.4880524458885191,-0.305374437710084
1763691419175893200,8.855893310546875,0.9367731928512454,2.113549320042133,0.8521221482649445
1763691419185851100,8.86585107421875,0.14267360996603964,1.8343197062075136,2.1131851629048586
1763691419195808300,8.875808349609375,-0.5945251050457357,0.6548188302278518,3.3720305014953014
1763691419205766100,8.88576611328125,-0.15315759457945824,-1.1723346376121044,4.357424809652566
1763691419215724300,8.895724365234376,0.8965291530072689,-3.4638708730638026,5.104326880294084
1763691419225681400,8.905681396484376,0.9912503407090901,-6.099769996517896,5.6197974455863235
1763691419235639000,8.91563916015625,0.4300149263247847,-8.835727577048539,5.969299450042843
1763691419245597200,8.92559716796875,1.5710311733484268,-10.771562368881701,6.225268599799275
1763691419255554300,8.93555419921875,3.6188320099338886,-10.13821185861826,5.798691538968682
1763691419265512200,8.94551220703125,2.2782325172424316,-5.367013355606794,3.8679166608735915
1763691419275470300,8.95547021484375,-3.3968624526739117,0.22854221364855765,2.5361516320228574
1763691419285428200,8.96542822265625,-6.886085209137201,4.344723733511567,1.8851324863389134
1763691419295385000,8.975385009765626,-7.121624149805307,7.061034364286065,1.6052197125457226
1763691419305343200,8.98534326171875,-6.748025814968347,8.437256082239747,1.6113042931564152
1763691419315301000,8.995301025390624,-6.093817810115218,8.530038995355367,1.1861674942620097
1763691419325258200,9.00525830078125,-5.252758030873537,6.876855608499049,-0.05709852760368958
1763691419335216400,9.01521630859375,-4.725083233046531,3.682823420590162,-1.800515197891742
1763691419345174000,9.025174072265624,-4.1728211064517495,-0.052848962134122844,-3.6193785379007455
1763691419355132200,9.035132080078125,-3.2155785415455695,-3.7582787668079134,-4.949376557078957
1763691419365089300,9.04508935546875,-1.890217242257297,-6.524991551086306,-5.115104879418015
1763691419375047200,9.055047119140625,-1.1209937419533729,-6.959483038303255,-4.889842125831544
1763691419385005300,9.06500537109375,-1.1243857224792242,-5.440652592313289,-4.2682133252829315
1763691419394962200,9.074962158203125,-1.1058978796303272,-3.5806717906266448,-2.5666519842267035
1763691419404920000,9.084920166015625,-0.7741030890390277,-1.5766805774122477,-0.7877564974687993
1763691419414878200,9.094878173828125,-0.3863534792527556,0.12631167322993278,0.9126254976097494
1763691419424836000,9.104836181640625,-0.3163794870555401,1.4072878873467445,2.800587873612344
1763691419434793200,9.114793212890625,-0.34053193153738975,2.0910598403364418,4.654439963285625
1763691419444751400,9.12475146484375,-0.4676601818472147,2.454821840813756,5.78179768731296
1763691419454709200,9.134709228515625,-0.9535770281359552,2.5283617087990042,5.918173658439517
1763691419464666000,9.144666015625,-1.391204767552018,2.1070085200965405,5.313493946865201
1763691419474624300,9.154624267578125,-1.5374834162726998,1.1669850932776926,4.044367745018005
1763691419484582100,9.16458203125,-1.5914052683353423,-0.0304687880218029,2.3264468053132292
1763691419494539300,9.174539306640625,-1.73454883390069,-1.0614712934046984,0.4644412563333288
1763691419504497400,9.184497314453125,-1.8477073033079503,-1.6754694529443979,-1.3955376821897922
1763691419514455000,9.194455078125,-1.796459346629679,-1.8121955526828766,-2.935400248683989
1763691419524413200,9.2044130859375,-1.4491706343084574,-1.6223001728147268,-3.9406723927438256
1763691419534370300,9.214370361328125,-0.9706886141955852,-1.1568851395457982,-4.160580925820768
1763691419544328200,9.224328125,-0.7026257065415382,-0.4648410327732563,-3.6130151403486725
1763691419554286300,9.234286376953126,-0.7137596794962883,0.44246553483605383,-2.546101948150992
1763691419564243200,9.2442431640625,-0.7903599579654633,1.2285346637398005,-1.333280547980219
1763691419574201000,9.254201171875,-0.7950105602502823,1.626219976606965,-0.027739728384092447
1763691419584159200,9.2641591796875,-0.5663076030820607,1.7739795115351675,1.0271033790525048
1763691419594116000,9.2741162109375,-0.3051420537263155,1.7115689403295515,1.7705816857904195
1763691419604074200,9.28407421875,-0.18601707713007926,1.4821505283683538,2.1142253196075558
1763691419614032400,9.294032470703126,-0.13085633092224597,1.2002473114103078,1.9536881361708043
1763691419623990300,9.303990234375,-0.13886143126673994,0.8462678692787885,1.2568117869362234
1763691419633947100,9.313947021484376,-0.16450199541449545,0.4090262065708637,0.2596277818618342
1763691419643905300,9.3239052734375,-0.2085854672908783,-0.05218611431121826,-0.7199515929389745
1763691419653863200,9.33386328125,-0.3526578381389379,-0.4870996263325214,-1.4948466360732913
1763691419663820300,9.3438203125,-0.38013672362975776,-0.7694102550476789,-1.97268217497617
1763691419673778200,9.353778076171874,-0.08267411849014461,-0.781845958250761,-2.1294009691685436
1763691419683736000,9.363736083984374,0.4207937647214159,-0.4995715698927641,-1.9302501235686242
1763691419693693200,9.373693115234374,0.8536626557052135,0.020925883650779725,-1.4979919483616948
1763691419703651000,9.383651123046874,1.0705939265370368,0.48579438895285126,-0.9353865607984363
1763691419713609200,9.393609130859375,1.0465092865943908,0.7448334476739168,-0.48070090173874047
1763691419723567400,9.4035673828125,0.8922136278957128,0.8352946398437022,-0.2449506564075127
1763691419733524200,9.413524169921875,0.6694535047799348,0.874424873226881,-0.2000130336535163
1763691419743482400,9.423482421875,0.4576385540485382,0.8668389481425285,-0.34092494944296775
1763691419753440300,9.433440185546875,0.41419922529458997,0.7792156097471714,-0.6299553879324347
1763691419763397000,9.443397216796875,0.5122235461950302,0.6026385611355304,-0.9242623055201024
1763691419773355300,9.453355224609375,0.5565910957098007,0.3151028912484646,-1.0661868506845087
1763691419783313200,9.463313232421875,0.4966682496666908,0.12842705794870854,-1.120447944638878
1763691419793270300,9.473270263671875,0.4174468654463067,0.08286006951630115,-1.0985358994949608
1763691419803228400,9.483228515625,0.34883097332715984,0.09041326137483119,-0.8989112989034503
1763691419813186000,9.49318603515625,0.35539625012688336,0.18813246184885501,-0.6265135038502514
1763691419823144200,9.503144287109375,0.5409469518542289,0.3110731973409653,-0.3451591894792393
1763691419833101300,9.513101318359375,0.6568073736965656,0.31065117253661156,-0.037801779524702574
1763691419843059200,9.52305908203125,0.738485028495267,0.11445289313197135,0.14533954123966394
1763691419853017300,9.533017333984375,0.8875837030727416,-0.21528058101534842,0.15350604269094764
1763691419862974200,9.54297412109375,0.9880524945158511,-0.5029582897216082,-0.030021957569755613
1763691419872932000,9.55293212890625,0.9613877018868923,-0.683339991313219,-0.3079471742749214
1763691419882890200,9.56289013671875,0.9809422971844672,-0.6845376766651868,-0.645043870666623
1763691419892847400,9.572847412109375,1.2059061408896,-0.6424222899913787,-1.0905264883015304
1763691419902805200,9.58280517578125,1.6553987248182296,-0.6537596765637398,-1.684211416196078
1763691419912763400,9.592763427734376,2.1400082879006863,-0.7886755120098591,-2.324465860629082
1763691419922721300,9.60272119140625,2.57617033867836,-1.043024951609969,-2.9733579311564564
1763691419932678100,9.61267822265625,2.808647553688288,-1.5036691172152756,-3.467892675925791
1763691419942636300,9.62263623046875,2.783442969805002,-2.1274434053599833,-3.698006084413826
1763691419952594200,9.63259423828125,2.6406325817167757,-2.779388725978136,-3.7141958794534204
1763691419962551300,9.64255126953125,2.494018125170469,-3.27756153498888,-3.609179507708549
1763691419972509400,9.652509521484374,2.5656243947446344,-3.4657378359794615,-3.4297231042683123
1763691419982467000,9.662467041015624,2.9050106633782384,-3.3388141683310266,-3.1662463553607463
1763691419992425200,9.67242529296875,3.3192344385921952,-3.1208488782763477,-2.8175626815497874
1763691420002382300,9.68238232421875,3.5409868459701537,-3.1083032849580046,-2.45010986373052
1763691420012340200,9.69234033203125,3.5205496226191517,-3.2590111482977866,-2.1179539847418662
1763691420022298400,9.70229833984375,3.2879005581736562,-3.4957454362303015,-1.9095232696212827
1763691420032255200,9.712255126953124,2.8156068713068962,-3.6958138350665566,-1.9823475366830825
1763691420042213000,9.722213134765624,2.0359517010986803,-3.687933895471692,-2.0794161642938853
1763691420052171300,9.732171142578125,1.603684904193878,-3.401563762232661,-1.6794417175762355
1763691420062128400,9.74212841796875,1.5084066671311855,-2.638005740344524,-0.9190335380211472
1763691420072086300,9.752086181640625,1.834806028419733,-1.8021072893887757,0.14411789049021898
1763691420082044400,9.76204443359375,2.065111744609475,-1.270755264353752,1.4501505852565169
1763691420092002000,9.772001953125,1.81675833055377,-1.0874930388897657,2.7338161845877766
1763691420101959200,9.781959228515625,1.1111378991756589,-0.9363029449909925,3.367070541000366
1763691420111917300,9.791917236328125,-0.5880341355912387,-0.7657330278396606,3.3735844529390335
1763691420121875200,9.801875244140625,-2.995332154816389,-0.7759843727409839,2.645238614207506
1763691420131832300,9.811832275390625,-4.665656061565875,-0.9356617244780063,1.1472335871685295
1763691420141790500,9.82179052734375,-4.748629820589721,-0.9641828855633735,-0.7344486125860363
1763691420151748000,9.831748046875,-3.7951761265724895,-1.0345078831553458,-2.3119310809656977
1763691420161705200,9.841705322265625,-2.2672703937232495,-1.3375906662642956,-2.949107286997139
1763691420171663400,9.851663330078125,-0.5743956324696541,-1.6749819616883992,-2.965180762180686
1763691420181621200,9.861621337890625,0.2882359271109104,-1.751082035550475,-2.703562792882323
1763691420191579400,9.871579345703125,0.037517537489533424,-1.7197972549706697,-2.1192273656785487
1763691420201536300,9.881536376953125,-0.42204029418379063,-1.7584107710033654,-1.5487952300123868
1763691420211494100,9.891494140625,-1.161589079453051,-1.7196593078047036,-0.880083702706173
1763691420221452300,9.901452392578125,-1.9751658084854482,-1.2413286788612603,-0.34462709189653395
1763691420231409400,9.911409423828125,-2.7301854268699883,-0.3610182547271251,-0.14995182080809025
1763691420241367300,9.9213671875,-3.0255104354590174,0.517421699360013,-0.11282087148334831
1763691420251325400,9.931325439453126,-2.8419077259942886,1.3092185582607985,-0.041329442194197326
1763691420261282300,9.9412822265625,-2.7404274194210765,2.0942197656720873,0.10185354206608607
1763691420271240200,9.951240234375,-2.6158918159529567,2.58903800355792,0.3015582769554108
1763691420281198300,9.9611982421875,-2.6937130145192145,2.827384402862191,0.4568360785592347
1763691420291156200,9.97115625,-2.9157360555320975,2.826554966300726,0.5038304694462568
1763691420301113300,9.98111328125,-3.202482036346197,2.6166940722465513,0.4765614638464525
1763691420311071200,9.9910712890625,-3.528979597312212,2.2568787635684013,0.42467305384017523
1763691420321029000,10.001029052734374,-3.7726971682608124,1.9036252976238726,0.4388766434986144
1763691420330986200,10.010986328125,-4.054738624645769,1.633176371616125,0.536668909208849
1763691420340944400,10.0209443359375,-4.326564976486563,1.4886217702090738,0.7503568142052739
1763691420350902300,10.03090234375,-4.35974945320785,1.542350437787175,1.086412915502861
1763691420360859100,10.040859130859374,-4.188108107432723,1.7336644522815943,1.3978651022240518
1763691420370817300,10.0508173828125,-3.8929654696732756,1.999079475775361,1.7403014060780404
1763691420380775200,10.060775146484374,-3.432736899131536,2.3168904569387436,2.03915955722928
1763691420390733300,10.0707333984375,-2.9005978153720497,2.646527484974265,2.2124558306045827
1763691420400690400,10.0806904296875,-2.4244956761330365,2.9496266346961257,2.3723213983900844
1763691420410648300,10.0906484375,-1.9285420044764876,3.162817549955845,2.5327853704601524
1763691420420606500,10.1006064453125,-1.3919541246145963,3.1044881105840205,2.584339324347675
1763691420430563300,10.110563232421875,-0.7271633509486913,2.825146268546581,2.4038614689052102
1763691420440521200,10.120521240234375,0.11308160477876662,2.378708322948217,2.0255847669936715
1763691420450479400,10.130479248046875,0.9192045106738805,1.8140432263761759,1.592465737173706
1763691420460436200,10.140436279296875,1.7515590054124592,1.0937696349412203,1.1773401908144354
1763691420470394400,10.150394287109375,2.590124629750848,0.20622224529087543,0.8191310021586715
1763691420480352300,10.160352294921875,3.6176126972720026,-0.6746393829852342,0.33638562551289797
1763691420490310100,10.17031005859375,4.598653194133937,-1.438742179274559,-0.2876968335318379
1763691420500267300,10.180267333984375,5.249604535278678,-2.0351123276650904,-0.9781601191200315
1763691420510225400,10.190225341796875,5.429656566524505,-2.377410684353113,-1.7139678181648252
1763691420520183300,10.200183349609375,5.1093578601986165,-2.4402736755013463,-2.537995506323874
1763691420530140200,10.21014013671875,4.447365777340531,-2.245512150901556,-3.2563480665683744
1763691420540098300,10.220098388671875,3.767392632111907,-1.871266750332713,-3.5684754491373893
1763691420550056200,10.23005615234375,3.306526348188519,-1.441895674869418,-3.4009304327651857
1763691420560013300,10.240013427734375,3.0940152318865057,-1.062839074626565,-2.856786146174371
1763691420569971200,10.24997119140625,2.8683538343712685,-0.885900206965208,-2.2663697916217145
1763691420579929300,10.259929443359376,2.3370225598633287,-0.8488309977650642,-1.7337845715299247
1763691420589887500,10.269887451171876,1.772042990514636,-0.7458657133311033,-1.1298260869022458
1763691420599844000,10.279843994140625,1.310261929833889,-0.9310404944181442,-0.19132002411009744
1763691420609802200,10.28980224609375,0.7262535426273942,-1.7879577680051326,1.0155554915346205
1763691420619760400,10.299760498046876,0.5264782815188169,-3.0790508869886395,1.889365447733551
1763691420629717200,10.30971728515625,-0.21135259391665456,-4.320438018038868,2.507679570776224
1763691420639675400,10.31967529296875,-2.3954852702260014,-4.867056001266837,2.980218464575708
1763691420649633300,10.32963330078125,-3.5639492038846012,-4.5173985139876605,3.3718700502365824
1763691420659590100,10.339590087890626,-2.1951222723573447,-3.425655416437983,4.201310411094129
1763691420669548300,10.34954833984375,-0.3805430394083261,-1.1987409985005855,5.384872837424278
1763691420679506200,10.359506103515624,-1.2519640546441078,1.360536657565832,6.342085299453139
1763691420689463600,10.369463623046874,-2.41102361561954,2.44970376714766,6.754014826250076
1763691420699420700,10.379420654296876,-2.9883515021488067,2.6118542309999464,6.338643050044775
1763691420709378800,10.38937890625,-4.51822093628645,3.1850644530773162,5.351701804706454
1763691420719336700,10.399336669921874,-6.045857789066433,3.7263387371897694,3.660275196434557
1763691420729293600,10.40929345703125,-6.343959276631474,3.4830414374798533,0.9666134006459265
1763691420739251700,10.419251708984374,-5.548049721714854,2.089576908302307,-2.10662653504163
1763691420749209600,10.429209716796874,-4.333037095110118,-0.36373394342660903,-4.640270860418677
1763691420759166700,10.439166748046874,-2.872618506078422,-2.865754757788777,-6.097201607334614
1763691420769124900,10.449124755859375,-1.5182485544487834,-4.225634997272492,-6.623796208709478
1763691420779082500,10.45908251953125,-0.8718544382169843,-4.0102696605831385,-6.577258913940191
1763691420789039600,10.46903955078125,-0.517803976675868,-3.447242978867888,-5.558378808027506
1763691420798997800,10.478997802734375,-0.1629933444172144,-2.621961783516407,-3.3279376772686837
1763691420808955600,10.48895556640625,-0.23001316298395394,-1.4787754989773034,-0.9923054027199745
1763691420818913800,10.498913818359375,-0.40114071401804685,-0.1933960814654827,0.8219422601871192
1763691420828870700,10.50887060546875,-0.6204106569305062,1.1241741255551576,2.30965203011781
1763691420838828500,10.51882861328125,-0.8722609731912613,2.1571692660599946,3.576060789699852
1763691420848786700,10.52878662109375,-1.1688370047546923,2.682895267906785,4.561898457710445
1763691420858743600,10.53874365234375,-1.5083756874710321,2.758541168260574,4.914617378386855
1763691420868701700,10.54870166015625,-1.673521387616545,2.439209261140227,4.419054751874506
1763691420878659800,10.558659912109375,-1.5727841544955967,1.7710592401742935,3.2575007437348362
1763691420888616400,10.568616455078125,-1.195544394416362,0.9279068725675343,1.7390620735414326
1763691420898574600,10.57857470703125,-0.8240040150225162,0.16944821964502332,0.17389591976888477
1763691420908532700,10.58853271484375,-0.6054140171982347,-0.2954354832261801,-1.2833465965099633
1763691420918490600,10.59849072265625,-0.4884679920762777,-0.4021329399257898,-2.4032423140935597
1763691420928447700,10.60844775390625,-0.3678384561359882,-0.25466274333298206,-2.9476445209681987
1763691420938405600,10.618405517578125,-0.2214385191231966,0.0299111541390419,-3.0192963832497597
1763691420948363500,10.628363525390625,-0.13820318655371666,0.3651157531738281,-2.7134359521210194
1763691420958320600,10.638320556640625,-0.15160028213486074,0.7560363942116498,-2.2425686447955666
1763691420968278500,10.648278564453125,-0.047627281963080165,1.1195026266127823,-1.6989235398985445
1763691420978236700,10.658236572265626,0.17221899953261016,1.3043641039669513,-1.1377904168449342
1763691420988193800,10.66819384765625,0.2770195365697145,1.328322487181425,-0.6004821502866223
1763691420998151400,10.6781513671875,0.37804062813334166,1.2473574376314878,-0.28876508381785826
1763691421008109600,10.688109619140626,0.462778839546442,1.0835258888244628,-0.2732482378700748
1763691421018067700,10.698067626953126,0.5684580225815996,0.8676619549632072,-0.4499419351313263
1763691421028024600,10.708024658203126,0.5676794759571552,0.6435755516797304,-0.7156156826265155
1763691421037982700,10.717982666015626,0.5615297211557626,0.4724649517804384,-0.9687744511373341
1763691421047940600,10.727940673828124,0.5847053930273279,0.3169190007597208,-1.1266324784927069
1763691421057897500,10.7378974609375,0.6469155097573995,0.17454700408875942,-1.1475604810353368
1763691421067855600,10.747855712890624,0.7592892585277556,0.07662848165035248,-1.104518846362084
1763691421077813500,10.7578134765625,0.8317728954583405,-0.0017769465446472166,-1.0392518628120422
1763691421087770600,10.7677705078125,0.8335153552114963,-0.03751987557709217,-1.020418421395868
1763691421097728800,10.777728759765624,0.8094646175384521,0.028373277047276494,-0.9902927477233111
1763691421107686700,10.787686767578125,0.8418108898699284,0.06682429599463939,-0.9785675308771431
1763691421117643500,10.7976435546875,0.9307435572981834,0.047997430449724196,-1.066851671268791
1763691421127601700,10.8076015625,1.1412298897743225,0.001609188762307167,-1.309627723583579
1763691421137559600,10.8175595703125,1.3832102616667747,0.015365326914191246,-1.735839165972173
1763691421147517700,10.827517578125,1.5735574769556522,0.06369359675347805,-2.2223517861969766
1763691421157474800,10.837474853515625,1.6474071415424345,0.16242343557476996,-2.7027763186797498
1763691421167432400,10.847432373046875,1.6594237425506113,0.2519797878593206,-3.019359219352901
1763691421177390600,10.857390625,1.529482188385725,0.25374270587861536,-3.2174571948990223
1763691421187347700,10.86734765625,1.2141197694182395,0.06683306382298469,-3.2216806578129527
1763691421197305600,10.8773056640625,0.915479352670908,-0.40693303368389605,-3.040636692920327
1763691421207263700,10.887263671875,0.9979390977580099,-1.2014601943314074,-2.7680834881097076
1763691421217220600,10.897220703125,1.5293980172336101,-2.266601700681448,-2.537364807204902
1763691421227178500,10.907178466796875,2.211483770702034,-3.3625305594831705,-2.3965100832290944
1763691421237136600,10.91713671875,2.5828677904903885,-4.138348343485593,-2.505139823165536
1763691421247094500,10.927094482421875,2.6648598450005054,-4.37921929283142,-2.8348937555789946
1763691421257051600,10.9370517578125,2.4582781187474727,-4.330997405976057,-3.034554742658138
1763691421267009800,10.947009765625,2.161301251298189,-4.30555199907422,-2.8341590115636586
1763691421276967700,10.9569677734375,1.970337949937582,-4.298436614111066,-2.4286080798879266
1763691421286924500,10.966924560546875,1.792285568076372,-4.198142594712972,-2.078706700850278
1763691421296882700,10.976882568359375,1.765422111070156,-4.106118391010165,-1.567583224851638
1763691421306840600,10.986840576171875,2.0159563762962818,-3.9855987451851367,-0.9797175776951015
1763691421316797700,10.996797607421875,2.3369302054047583,-3.8218636424899097,-0.15054792353771626
1763691421326755800,11.006755859375,2.328887184202671,-3.6074113289922476,1.2252524271987377
1763691421336713500,11.01671337890625,1.9562517030484974,-3.2662884458243844,2.920722027251124
1763691421346670600,11.026670654296876,0.9619944356083869,-2.6124709015935657,4.344244425562024
1763691421356628700,11.036628662109376,-0.5059207927890121,-1.5436808096081018,5.034499895352125
1763691421366586600,11.046586669921876,-2.0683273456551134,-0.5428448944300412,5.011553904050588
1763691421376544800,11.056544677734376,-3.2294919160857796,-0.16928572255969046,4.3400078109055755
1763691421386501600,11.066501708984376,-3.860064193807542,-0.5174275445789098,3.216507054567337
1763691421396459500,11.07645947265625,-3.8541438638478516,-1.0655980179458855,1.9917437260597943
1763691421406417700,11.086417724609374,-3.0402766274362802,-1.4433727616846561,0.5863086269728839
1763691421416374800,11.096374755859374,-1.904172994634509,-1.811720920908451,-0.46322135914955287
1763691421426332700,11.106332763671874,-0.9223878168851136,-2.05989897839725,-1.1880225475441664
1763691421436290800,11.116290771484374,-0.592191693662107,-2.427452772372961,-1.2448331798508763
1763691421446247700,11.12624755859375,-0.9124050597921013,-2.675878667142987,-1.1358404518209397
1763691421456205600,11.13620556640625,-1.8643536099433897,-2.4095348383665085,-1.3060088024340568
1763691421466163700,11.146163818359375,-3.0234856516331434,-1.6787930444091557,-1.4369333762869239
1763691421476120800,11.156120849609374,-3.655909110179543,-0.6872720700651407,-1.424670399302244
1763691421486078700,11.16607861328125,-3.729791800253093,0.27434008822739125,-1.1358861906588076
1763691421496036600,11.17603662109375,-3.389271266892552,0.8785697179466485,-0.34282603382393717
1763691421505994500,11.185994384765625,-3.120628805784881,1.4739707290440798,0.40008766130115836
1763691421515951600,11.19595166015625,-3.037781303489208,2.100143895024061,1.1318325313538313
1763691421525909800,11.20590966796875,-3.1925054167330265,2.6294091769129038,1.7969811785466967
1763691421535867600,11.21586767578125,-3.2572061447024345,2.8933921217769383,2.181875837293267
1763691421545824500,11.225824462890625,-3.2958950640588998,3.0208067878127096,2.336625815630704
1763691421555782700,11.23578271484375,-3.242568255279958,2.9789316396355625,2.242882386919856
1763691421565740500,11.245740478515625,-3.1782191172271963,2.7149866886943577,1.9748855302393435
1763691421575697700,11.25569775390625,-3.2159254552870986,2.369257188513875,1.662012443869561
1763691421585655800,11.26565576171875,-3.400487365172803,2.094370572319627,1.3831887804873286
1763691421595613700,11.27561376953125,-3.7091228139728307,2.0362422084778546,1.185791208295524
1763691421605571800,11.28557177734375,-3.9659669929981227,2.1942104182094333,1.0929359605960547
1763691421615528700,11.29552880859375,-4.1210391890272495,2.529187053707242,1.0590115522276609
1763691421625486600,11.305486572265625,-4.115996810945869,2.910465421652794,1.1138196125403046
1763691421635444700,11.31544482421875,-3.89721874320358,3.2494103762596844,1.3668401416242122
1763691421645401600,11.325401611328125,-3.479025479836762,3.5199937423020597,1.7329305850490926
1763691421655359700,11.33535986328125,-2.8662632918328046,3.5779397353142497,2.1094566439010203
1763691421665317600,11.345317626953126,-2.06610952347517,3.3703093767911194,2.309146126422286
1763691421675274500,11.3552744140625,-1.1418708180263637,2.9487995362222192,2.2771078971266747
1763691421685233000,11.36523291015625,-0.03033727059662342,2.3039134864658117,2.0531929048873483
1763691421695190800,11.375190673828126,1.143323354922235,1.6663818911254404,1.6134005347833036
1763691421705148000,11.38514794921875,2.249241692818701,0.9719529350429773,1.015741442560777
1763691421715106000,11.39510595703125,3.2668557243183254,0.232749017688632,0.30185046483501793
1763691421725064000,11.40506396484375,4.2165123641401525,-0.463942622628808,-0.46514133089408277
1763691421735021800,11.415021728515624,5.041542215079069,-1.195759936863184,-1.1367801438238472
1763691421744979000,11.42497900390625,5.601006820398569,-1.9418343245089054,-1.734851031717658
1763691421754936800,11.434936767578124,5.98027151043415,-2.533228438052535,-2.3423121907040474
1763691421764895000,11.44489501953125,5.740242272609472,-2.8591835627049207,-2.7854166079655287
1763691421774852000,11.45485205078125,5.0408232531547545,-2.9168086531996726,-2.854760777826607
1763691421784809700,11.464809814453124,4.562632909464836,-2.73587048676908,-2.5103929213881493
1763691421794768000,11.474767822265624,4.53562887494415,-2.4630957481622695,-1.8883302594669162
1763691421804725000,11.48472509765625,4.3630327126622195,-2.113327201724052,-1.0524427682965993
1763691421814683000,11.494682861328124,4.0107071752175685,-1.5823241362571716,-0.20093875192999838
1763691421824641000,11.50464111328125,3.6065456520736214,-1.1230699637055397,0.5234959412397816
1763691421834598000,11.514597900390624,3.0856124374613163,-0.7450152339816093,1.1755594448775053
1763691421844555800,11.5245556640625,2.488708620585501,-0.4192202683269977,1.9204186115145683
1763691421854514000,11.534513916015625,1.2166343825876713,-0.5443786798685789,2.9025501184836027
1763691421864471800,11.544471923828125,0.09196312116533517,-1.192837327414751,3.7460438468739388
1763691421874429000,11.554428955078125,-0.1525949922606349,-2.0696143167257306,4.331630150921643
1763691421884387000,11.564386962890625,-0.39300270800888537,-2.8988725990146396,4.72208346670866
1763691421894345000,11.574344970703125,-1.6174968641862273,-3.3224995778679847,4.686147060930729
1763691421904301800,11.5843017578125,-2.475267831993103,-3.338482159897685,4.117658022156357
1763691421914260000,11.594260009765625,-1.1719114437639713,-3.1203374216228723,3.550911443135142
1763691421924217900,11.6042177734375,0.02798281642496586,-2.109752850368619,3.1920141260847448
1763691421934175000,11.614175048828125,-2.1097873371601104,0.16658113977611064,2.3981582888275383
1763691421944133000,11.624133056640625,-5.088945771288872,2.425650691387057,1.3593084309451282
1763691421954090800,11.6340908203125,-5.819459017187357,3.4824908178597687,0.6617636078644543
1763691421964049000,11.644048828125,-5.748439607590437,3.8685640188664197,0.3584087663484737
1763691421974006000,11.654006103515625,-5.310834956789017,3.56660001065433,-0.028376948575396087
1763691421983964000,11.6639638671875,-4.767454932568967,2.3677719183921813,-0.7264689389437436
1763691421993922000,11.673922119140625,-4.441031605882943,0.5786801779210567,-1.5508619532838464
1763691422003879000,11.68387890625,-3.7734061933130025,-1.5520938331663607,-1.9707007919006048
1763691422013836800,11.6938369140625,-2.6319173603415487,-3.3247470645338293,-1.9849813923180102
1763691422023795000,11.703794921875,-1.9073741287633776,-3.7725627282261844,-2.1111999804370103
1763691422033752000,11.713751953125,-1.690060872876644,-3.0902339597821236,-2.2031454198151827
1763691422043710000,11.7237099609375,-1.6741221299886702,-1.9212994860023258,-1.7301427078962326
1763691422053668000,11.733668212890626,-1.2943597195640206,-0.8429290802448988,-0.6329927828669548
1763691422063625000,11.743625,-0.836949421313405,-0.011568272718787192,0.5944458292644471
1763691422073582800,11.753582763671876,-0.5747600818678736,0.6748398739933967,1.6756567922100423
1763691422083541000,11.763541015625,-0.4474368935078382,1.329963824647665,2.3889207971438764
1763691422093498000,11.773498046875,-0.6640270958170295,1.8661293874442577,2.707568521392345
1763691422103456000,11.7834560546875,-1.2332365578204392,2.0747961032778024,2.584969146683812
1763691422113414100,11.7934140625,-1.7880502685941755,1.8717980807304382,2.357766072684526
1763691422123371800,11.803371826171874,-1.9166326632350683,1.278008596482873,2.013981276831031
1763691422133329000,11.813328857421874,-1.5681677467413246,0.44940264062285423,1.3951973443195222
1763691422143287000,11.823287109375,-1.2740977066494523,-0.24591361968815326,0.34164171941019594
1763691422153245000,11.833244873046874,-1.12206224796772,-0.8220470357358455,-0.8689183847650885
1763691422163202000,11.8432021484375,-0.8717232130527496,-1.1850105793118477,-1.9575069638065992
1763691422173160000,11.853159912109374,-0.7420479086086154,-1.114445343223214,-2.7944384110718965
1763691422183117800,11.863117919921875,-0.7371988611422479,-0.7159557282358407,-3.2747534918308254
1763691422193075000,11.873074951171875,-0.9066204850412904,-0.10348433987200259,-3.3663241065472365
1763691422203033000,11.883033203125,-1.0189854659833013,0.5378507394045591,-3.0394770014911887
1763691422212991000,11.892990966796875,-0.7776889847017824,1.0462713861852884,-2.3705396295398473
1763691422222947800,11.90294775390625,-0.2740232773631811,1.358410751453042,-1.4952502484381198
1763691422232906000,11.912906005859375,0.13366313197128474,1.3762883534491062,-0.5061543823491782
1763691422242863900,11.92286376953125,0.34131869800090786,1.1610784995824097,0.3761735556198284
1763691422252822000,11.932822021484375,0.3386537896405905,0.8567232123196125,0.9964902141239493
1763691422262779000,11.94277880859375,0.31125549510531125,0.5987491524815559,1.2570894348338246
1763691422272737000,11.952737060546875,0.3472602899443358,0.4472796571195125,1.1971647621598094
1763691422282695200,11.962695068359375,0.3831500070363283,0.3957096288800239,0.8925416908062994
1763691422292651800,11.97265185546875,0.4440168193986639,0.4176221854805946,0.34954577053301034
1763691422302610000,11.98260986328125,0.5250257080903277,0.4238093496829271,-0.2871665260474197
1763691422312568000,11.992568115234375,0.643701223886013,0.4006652054607868,-0.8206032666683196
1763691422322525000,12.00252490234375,0.8193348541676998,0.31284722127616404,-1.1073865107528864
1763691422332483000,12.012483154296875,1.0558850177049637,0.2381640284746885,-1.182439486714825
1763691422342441000,12.02244091796875,1.2475123359322546,0.20016075329482555,-1.0948333917152135
1763691422352397800,12.032397705078125,1.3343991767466068,0.1719119794100523,-0.94591942605488
1763691422362356000,12.04235595703125,1.1763608243882655,0.16978607329726217,-0.8158551953583956
1763691422372313900,12.05231396484375,0.9403776470839976,0.10582301195263862,-0.8118052623804658
1763691422382271000,12.06227099609375,0.8285188620984554,0.06740063457787036,-0.9444216617777943
1763691422392228900,12.072228759765625,0.8887994355380534,0.12661737817823887,-1.1790921490482986
1763691422402186800,12.082186767578126,1.119333699786663,0.21804186242222784,-1.4423431263759732
1763691422412145000,12.092144775390626,1.4027882378399372,0.21445991228222847,-1.6892923727221787
1763691422422102000,12.10210205078125,1.6518740578234195,0.10306816028654575,-1.8934630923107265
1763691422432060000,12.112059814453126,1.716150422900915,-0.06485796435773372,-1.9687246695220468
1763691422442018000,12.12201806640625,1.5657272217214107,-0.11176467696130275,-1.9599118329912424
1763691422451975000,12.131974853515626,1.402784730708599,-0.05567512547075748,-1.890870153208077
1763691422461932800,12.141932861328126,1.3161726151823996,0.03569499823749065,-1.8008929451629518
1763691422471891000,12.151890869140624,1.2312345703482628,0.06751520086824894,-1.7453998982608316
1763691422481848000,12.16184814453125,1.1328723957955837,0.10611527289748192,-1.785095218180865
1763691422491806000,12.171805908203124,1.083965449285507,0.034656887361407276,-1.938871383050084
1763691422501763800,12.181763916015624,1.1305472407836465,-0.15137947899103163,-2.1747280113652345
1763691422511721000,12.191720947265624,1.3370493989944456,-0.4914315180569887,-2.389626607325673
1763691422521678800,12.201678955078124,1.5786626911401749,-1.0174293225824833,-2.606778242909908
1763691422531637000,12.211636962890625,1.9342659350812434,-1.7394325142890215,-2.7492577916085716
1763691422541595000,12.221594970703125,2.418713001078367,-2.6637866628110407,-2.9122531818524
1763691422551551700,12.2315517578125,2.810155620163679,-3.3774650937646626,-3.0458991434931755
1763691422561510000,12.241510009765625,2.8650960016191003,-3.7028392036586997,-3.1495588399320837
1763691422571467800,12.2514677734375,2.7124247292518615,-3.8459371765166517,-3.1775013243466614
1763691422581425000,12.2614248046875,2.538528298026323,-4.0895670691818,-2.985214373166859
1763691422591383000,12.271383056640625,2.099752265357971,-4.353201054477691,-2.654051158477366
1763691422601341000,12.2813408203125,1.5812293267577886,-4.504663535577058,-2.330263733252883
1763691422611297800,12.2912978515625,1.4918980154007673,-4.679962234815955,-1.7214289478257296
1763691422621256000,12.301255859375,1.7843974451750515,-4.717267006337642,-0.8181003439366817
1763691422631213800,12.3112138671875,2.2020207996994254,-4.566296108147502,0.3409328039558604
1763691422641171000,12.3211708984375,2.3086019365429875,-4.052552805039286,1.8532095539860427
1763691422651129000,12.331129150390625,1.974445531386882,-3.4220687901228666,3.559537232661247
1763691422661087000,12.3410869140625,0.9720509885899722,-2.488400869810581,4.880788466282189
1763691422671043800,12.3510439453125,-0.33916707292497156,-1.3201923722177744,5.430787616381049
1763691422681002000,12.361001953125,-1.764310642696917,-0.5404360797226428,5.332189879506826
1763691422690960100,12.370960205078125,-3.1561338344082235,-0.30762393366992474,4.709474160504341
1763691422700918000,12.38091796875,-3.7960207607030867,-0.44450317814350127,3.686309801401198
1763691422710875100,12.390875244140625,-3.6004376905873414,-0.6952712521255016,2.2528774189725516
1763691422720833000,12.4008330078125,-3.1600112603634596,-0.9564046527773141,0.8403453473620116
1763691422730791200,12.410791259765626,-2.6089044412836433,-1.1794926926732063,-0.4274054744787514
1763691422740748300,12.420748291015625,-2.1531369418039916,-1.412223590183258,-1.4158034944966436
1763691422750706000,12.430705810546876,-2.051639391835034,-1.5749942317605017,-1.9165926234856248
1763691422760664000,12.4406640625,-2.2276216894239185,-1.6109984420776366,-2.0565672036260367
1763691422770621200,12.45062109375,-2.338519520422816,-1.5074474667102098,-2.0144313586860894
1763691422780579000,12.4605791015625,-2.3754443527162072,-1.2302706937521695,-1.8686584675304592
1763691422790537200,12.470537109375,-2.4567770665347575,-0.6368780998677015,-1.536096491958946
1763691422800494000,12.480494140625,-2.3110832319647074,0.08556348325610161,-1.233914018690586
1763691422810452000,12.490451904296876,-2.2762930736124516,0.8206827616453171,-0.969048591903597
1763691422820410000,12.50041015625,-2.5005405126765368,1.5271119521230458,-0.654331631232798
1763691422830367000,12.510366943359376,-2.959452447661757,2.190052129486203,-0.3388718163054436
1763691422840325000,12.5203251953125,-3.3716599146172404,2.6477649178147313,0.03587459258809685
1763691422850283300,12.530283203125,-3.630499359112978,2.92300516975224,0.5163899451594799
1763691422860241200,12.5402412109375,-3.7691719167441127,3.100714437264204,0.9798602741014212
1763691422870198000,12.550197998046874,-3.760696933865547,3.1248055069476366,1.3215601534396408
1763691422880156200,12.56015625,-3.630079087874293,2.9418811351358887,1.5178618932187555
