time,seconds_elapsed,z,y,x
1763701325320907300,0.2079072265625,9.953843116760254,2.316551446914673,-1.3100703954696655
1763701325331033600,0.21803369140625,10.231709480285645,2.1945173740386963,-1.5041881799697876
1763701325341160000,0.228159912109375,10.394721031188965,2.261516571044922,-1.1784651279449463
1763701325351824400,0.238824462890625,10.217352867126465,2.072483539581299,-0.44297128915786743
1763701325361950700,0.24895068359375,10.028319358825684,1.7464613914489746,-0.24915266036987305
1763701325372077000,0.2590771484375,9.937093734741211,1.8448662757873535,-0.4860421121120453
1763701325382083000,0.2690830078125,9.862915992736816,2.1107685565948486,-0.7232306599617004
1763701325392209400,0.27920947265625,9.582656860351562,2.2830519676208496,-0.9149555563926697
1763701325402335700,0.289335693359375,8.96949577331543,2.4747767448425293,-1.0202397108078003
1763701325421868300,0.308868408203125,8.545368194580078,2.5250260829925537,-0.9747761487960815
1763701325431994600,0.31899462890625,9.036494255065918,2.400599241256714,-0.9652048349380493
1763701325442556200,0.32955615234375,9.388538360595703,2.558525562286377,-1.1665010452270508
1763701325452682200,0.33968212890625,9.522835731506348,2.649751901626587,-1.4395818710327148
1763701325462808600,0.34980859375,9.671191215515137,2.7263224124908447,-1.6049858331680298
1763701325482960400,0.36996044921875,9.855737686157227,2.4939193725585938,-1.4970096349716187
1763701325493086700,0.380086669921875,9.95862865447998,2.347957134246826,-1.6600207090377808
1763701325503042000,0.3900419921875,10.03549861907959,2.462812662124634,-1.9091733694076538
1763701325513168400,0.40016845703125,10.16710376739502,2.572882652282715,-1.9019949436187744
1763701325523294700,0.410294677734375,10.584053039550781,2.4819552898406982,-2.452942371368408
1763701325542850800,0.429850830078125,10.411470413208008,2.326122760772705,-1.6456637382507324
1763701325552977200,0.43997705078125,10.171889305114746,2.611466884613037,-2.102992057800293
1763701325562958000,0.4499580078125,9.867701530456543,3.164807081222534,-2.536691188812256
1763701325573084400,0.46008447265625,9.810274124145508,3.6197423934936523,-3.0637102127075195
1763701325583210800,0.470210693359375,9.74806022644043,3.88803768157959,-2.989532709121704
1763701325593183500,0.48018359375,9.369396209716797,3.9840497970581055,-2.436192512512207
1763701325603309800,0.490309814453125,8.856734275817871,3.9335012435913086,-2.1005992889404297
1763701325613436200,0.500436279296875,8.442476272583008,3.8473596572875977,-1.9474585056304932
1763701325623432000,0.510431884765625,8.260322570800781,3.804288864135742,-1.8251254558563232
1763701325633558300,0.520558349609375,8.219644546508789,3.7731821537017822,-1.7916259765625
1763701325643684600,0.5306845703125,8.107182502746582,3.8760735988616943,-2.095813512802124
1763701325653653800,0.54065380859375,8.097610473632812,4.2332024574279785,-2.6539394855499268
1763701325663780000,0.550780029296875,8.075776100158691,4.546961307525635,-3.200101137161255
1763701325673906400,0.560906494140625,7.793124198913574,4.685744762420654,-3.6529428958892822
1763701325683894500,0.57089453125,7.568199157714844,4.645066738128662,-3.4468610286712646
1763701325694020900,0.581020751953125,7.692625522613525,4.278666019439697,-2.919841766357422
1763701325704147200,0.591147216796875,7.8795647621154785,3.7205400466918945,-2.7188446521759033
1763701325714144000,0.60114404296875,7.321439266204834,3.3107693195343018,-2.146361827850342
1763701325724270300,0.611270263671875,6.926024913787842,3.279662609100342,-2.0982062816619873
1763701325734396700,0.621396728515625,6.61705207824707,3.468994617462158,-2.040778636932373
1763701325744382000,0.6313818359375,6.355935096740723,3.617349624633789,-2.1511476039886475
1763701325754508300,0.64150830078125,6.375077724456787,3.859323740005493,-2.2157537937164307
1763701325764634600,0.651634521484375,6.5883378982543945,4.029513359069824,-2.2205393314361572
1763701325774616000,0.661615966796875,6.731907367706299,3.9984066486358643,-2.426621198654175
1763701325784742400,0.671742431640625,7.031608581542969,3.873680830001831,-2.6132614612579346
1763701325794868700,0.68186865234375,7.441080093383789,3.835395574569702,-2.7499513626098633
1763701325804873000,0.691873046875,7.790731430053711,3.7348971366882324,-3.0852456092834473
1763701325814999300,0.701999267578125,7.977670669555664,3.6221351623535156,-3.516551971435547
1763701325825125600,0.712125732421875,8.155038833618164,3.552743434906006,-3.820739507675171
1763701325835117300,0.722117431640625,8.250751495361328,3.576671600341797,-4.091427803039551
1763701325845243600,0.73224365234375,8.392227172851562,3.6798620223999023,-4.251746654510498
1763701325855370000,0.742369873046875,8.531010627746582,3.895216226577759,-4.42193603515625
1763701325865329200,0.7523291015625,8.60040283203125,4.144368648529053,-4.709373950958252
1763701325875455500,0.76245556640625,8.79212760925293,4.477270126342773,-5.5381879806518555
1763701325885581800,0.772581787109375,9.09392261505127,4.858327388763428,-6.52044153213501
1763701325895580200,0.782580078125,9.367003440856934,5.0811591148376465,-6.920341968536377
1763701325905706500,0.79270654296875,9.429216384887695,4.891826629638672,-6.805486679077148
1763701325915832800,0.802832763671875,9.405288696289062,4.551746845245361,-6.776772975921631
1763701325925804500,0.812804443359375,9.276076316833496,4.182653903961182,-6.64486837387085
1763701325935930600,0.8229306640625,8.863912582397461,3.7205400466918945,-6.139384746551514
1763701325946057000,0.833056884765625,8.497511863708496,3.61017107963562,-5.971887111663818
1763701325956070400,0.8430703125,8.231609344482422,3.648456335067749,-6.093921184539795
1763701325966196700,0.85319677734375,7.989634990692139,3.7755749225616455,-6.386144638061523
1763701325976323000,0.863322998046875,4.633700847625732,3.904787540435791,-7.763513088226318
1763701325986284300,0.8732841796875,-0.6317051649093628,5.344668388366699,-5.6533427238464355
1763701325996410600,0.88341064453125,4.746163845062256,5.818746566772461,-4.304687976837158
1763701326026654500,0.913654541015625,5.064708232879639,3.4040892124176025,-8.752944946289062
1763701326036780800,0.92378076171875,4.271786689758301,3.9335012435913086,-8.932705879211426
1763701326046763500,0.933763427734375,4.626522541046143,4.922933578491211,-8.580363273620605
1763701326056889900,0.943889892578125,5.242076396942139,5.543272972106934,-8.72901725769043
1763701326067016200,0.95401611328125,4.2693939208984375,6.616453647613525,-8.60459041595459
1763701326076991200,0.9639912109375,3.5341989994049072,6.116054534912109,-7.986344814300537
1763701326087117300,0.974117431640625,3.2273194789886475,4.1970109939575195,-7.495217800140381
1763701326097243600,0.98424365234375,3.548556089401245,3.73250412940979,-7.490432262420654
1763701326107251000,0.9942509765625,3.986741542816162,4.0319061279296875,-6.944270610809326
1763701326117377000,1.004376953125,-0.5886343717575073,4.18983268737793,-6.922735214233398
1763701326127503400,1.01450341796875,1.953141450881958,4.302594184875488,-6.438786506652832
1763701326137466400,1.02446630859375,4.624129772186279,5.766104221343994,-5.334498882293701
1763701326147592400,1.034592529296875,5.7858452796936035,5.452345371246338,-5.157430171966553
1763701326157718800,1.04471875,5.886343479156494,4.074976921081543,-4.769194602966309
1763701326167699000,1.054698974609375,5.649155139923096,3.842574119567871,-4.7596235275268555
1763701326177825000,1.064824951171875,5.491229057312012,3.7516467571258545,-5.483152866363525
1763701326187951600,1.07495166015625,5.5127644538879395,3.5742788314819336,-5.995815277099609
1763701326197904100,1.084904052734375,5.634798049926758,3.1767711639404297,-6.343073844909668
1763701326208030500,1.095030517578125,5.735595703125,2.9419753551483154,-6.848557472229004
1763701326218156800,1.10515673828125,5.855237007141113,3.804288864135742,-7.428218841552734
1763701326228187400,1.1151875,6.530910491943359,2.256730794906616,-6.426822662353516
1763701326238313700,1.125313720703125,6.684051036834717,2.4771697521209717,-6.357430458068848
1763701326248440000,1.135440185546875,6.2291154861450195,3.6269209384918213,-6.50608491897583
1763701326258420500,1.14542041015625,4.992923736572266,4.424628257751465,-6.156134605407715
1763701326268546800,1.155546875,3.330509901046753,4.755136966705322,-5.621936798095703
1763701326278673200,1.165673095703125,1.6007983684539795,4.707280158996582,-5.356034278869629
1763701326288669200,1.175669189453125,0.3888336718082428,4.5828537940979,-4.295116424560547
1763701326298795500,1.18579541015625,2.988037347793579,4.3672003746032715,-3.202493906021118
1763701326308921600,1.195921630859375,1.028315544128418,4.048655986785889,-3.502195119857788
1763701326318928600,1.2059287109375,1.5337992906570435,4.177868366241455,-3.7271203994750977
1763701326329054700,1.2160546875,1.5146567821502686,3.6942191123962402,-3.657728433609009
1763701326339181300,1.226181396484375,1.4979069232940674,2.089233160018921,-4.091427803039551
1763701326349162200,1.236162353515625,1.9914265871047974,0.6804589629173279,-5.070989608764648
1763701326359252200,1.246252197265625,2.2549362182617188,0.2709871530532837,-6.824629306793213
1763701326369342200,1.25634228515625,2.3793630599975586,0.7067800164222717,-7.674978733062744
1763701326379367700,1.26636767578125,2.24775767326355,1.8161523342132568,-8.178069114685059
1763701326389457700,1.276457763671875,2.506481647491455,1.9669002294540405,-8.942276954650879
1763701326399547600,1.286547607421875,2.6596224308013916,1.8496519327163696,-9.296713829040527
1763701326409601800,1.296601806640625,2.4032912254333496,1.710569143295288,-8.86062240600586
1763701326419691800,1.30669189453125,1.8858433961868286,1.4685949087142944,-8.39611530303955
1763701326429781800,1.31678173828125,1.277468204498291,1.1237293481826782,-7.849953651428223
1763701326439982300,1.326982421875,0.6140581369400024,0.7812566161155701,-7.222136974334717
1763701326450072300,1.337072265625,0.15882360935211182,0.5751747488975525,-6.616154670715332
1763701326460162300,1.347162353515625,0.020039889961481094,0.5105685591697693,-6.180361747741699
1763701326470092500,1.357092529296875,0.2883351147174835,0.589531660079956,-6.45822811126709
1763701326480182500,1.3671826171875,0.7719843983650208,0.8530412912368774,-7.576872825622559
1763701326490272500,1.3772724609375,1.0091729164123535,1.2242279052734375,-8.9279203414917
1763701326500333000,1.3873330078125,1.1315059661865234,1.6148561239242554,-10.262218475341797
1763701326510423300,1.39742333984375,1.332503080368042,1.765604019165039,-11.337791442871094
1763701326520513300,1.40751318359375,1.8909281492233276,1.7922241687774658,-12.135499000549316
1763701326530569700,1.41756982421875,2.599801778793335,1.8783657550811768,-12.528221130371094
1763701326540659700,1.42765966796875,3.090928554534912,1.94297194480896,-12.399008750915527
1763701326550749700,1.437749755859375,3.4549367427825928,1.8664016723632812,-11.996416091918945
1763701326560820700,1.44782080078125,3.579662561416626,2.0605194568634033,-11.46939754486084
1763701326570910700,1.45791064453125,3.5988051891326904,2.285444736480713,-10.992627143859863
1763701326581000700,1.468000732421875,3.565305709838867,2.572882652282715,-10.652546882629395
1763701326591090700,1.478090576171875,3.5581271648406982,2.7071797847747803,-10.645368576049805
1763701326601116000,1.488115966796875,3.5820555686950684,2.386242389678955,-11.114960670471191
1763701326611206000,1.498205810546875,3.3568310737609863,1.825723648071289,-11.608479499816895
1763701326621295900,1.5082958984375,3.1483564376831055,1.5044872760772705,-12.11635684967041
1763701326631358500,1.5183583984375,3.0789644718170166,1.3226326704025269,-12.418150901794434
1763701326641448700,1.52844873046875,3.0693931579589844,1.0663015842437744,-12.705589294433594
1763701326651538400,1.538538330078125,3.1962127685546875,0.7238288521766663,-12.923635482788086
1763701326661576000,1.548575927734375,3.1818559169769287,0.5488536953926086,-12.952348709106445
1763701326671666000,1.558666015625,3.0478577613830566,0.5416752099990845,-12.688838958740234
1763701326681755600,1.568755615234375,2.8369903564453125,0.8530412912368774,-12.719945907592773
1763701326692444700,1.579444580078125,2.5399811267852783,1.1045867204666138,-13.079168319702148
1763701326702534700,1.58953466796875,2.381755828857422,1.3824533224105835,-13.735699653625488
1763701326712624600,1.599624755859375,2.367398977279663,1.5020943880081177,-14.301003456115723
1763701326722669000,1.6096689453125,2.606980323791504,1.516451358795166,-14.724832534790039
1763701326732759000,1.619759033203125,2.856132984161377,1.4829518795013428,-14.906986236572266
1763701326742849000,1.62984912109375,3.200998544692993,1.6004992723464966,-14.777474403381348
1763701326762418200,1.649418212890625,3.6538400650024414,2.00518536567688,-13.689936637878418
1763701326772508200,1.659508056640625,3.8240296840667725,2.0605194568634033,-13.088739395141602
1763701326782598000,1.669597900390625,4.0010986328125,2.0027925968170166,-12.54736328125
1763701326793197800,1.68019775390625,4.133002758026123,1.8640087842941284,-12.121142387390137
1763701326803287800,1.690287841796875,4.286143779754639,1.8376877307891846,-11.77597713470459
1763701326813377800,1.700377685546875,4.24785852432251,1.8161523342132568,-11.48375415802002
1763701326832945200,1.719945068359375,4.2693939208984375,1.6244274377822876,-11.098210334777832
1763701326843035100,1.73003515625,4.164109706878662,1.5358930826187134,-11.062317848205566
1763701326853127700,1.740127685546875,3.986741542816162,1.3657035827636719,-10.930414199829102
1763701326863217700,1.7502177734375,3.797708749771118,1.0615159273147583,-10.626226425170898
1763701326873307600,1.7603076171875,3.7471601963043213,0.7286145091056824,-10.37946605682373
1763701326883347200,1.77034716796875,3.7663028240203857,0.37866419553756714,-10.240682601928711
1763701326893437200,1.780437255859375,3.682554006576538,0.17527425289154053,-10.228718757629395
1763701326903527200,1.790527099609375,3.423830032348633,0.06011966988444328,-10.432108879089355
1763701326913586400,1.80058642578125,3.059821844100952,-0.10019944608211517,-11.095817565917969
1763701326923676400,1.810676513671875,2.841775894165039,-0.009272187948226929,-11.282458305358887
1763701326933766400,1.820766357421875,2.762812852859497,-0.5745765566825867,-11.826227188110352
1763701326943823400,1.8308232421875,3.2344980239868164,-1.1207382678985596,-12.094522476196289
1763701326953913300,1.840913330078125,3.1148569583892822,-1.0393823385238647,-11.699407577514648
1763701326964003300,1.85100341796875,2.4873390197753906,-0.9723833203315735,-11.589337348937988
1763701326974056400,1.861056396484375,2.2118654251098633,-1.0034899711608887,-11.75444221496582
1763701326984146400,1.871146484375,2.017747640609741,-0.8189435601234436,-11.567802429199219
1763701326994236400,1.881236328125,1.6226328611373901,-0.7256234884262085,-11.253744125366211
1763701327004294400,1.89129443359375,1.4763715267181396,-0.9125627279281616,-11.071889877319336
1763701327014384400,1.90138427734375,1.2296117544174194,-0.9074779748916626,-10.99741268157959
1763701327024474400,1.911474365234375,1.1338988542556763,-0.7208378314971924,-10.683653831481934
1763701327034528300,1.9215283203125,0.908674418926239,-0.857228696346283,-10.353145599365234
1763701327044618500,1.931618408203125,0.7600203156471252,-1.0082756280899048,-10.170991897583008
1763701327054708200,1.941708251953125,0.6786643266677856,-1.084846019744873,-9.78544807434082
1763701327064774400,1.9517744140625,0.5877370834350586,-1.3818551301956177,-9.9771728515625
1763701327074864600,1.96186474609375,0.26171496510505676,-1.4682958126068115,-10.123135566711426
1763701327084954400,1.971954345703125,-0.09272187948226929,-1.3938192129135132,-9.747162818908691
1763701327095005400,1.98200537109375,-0.3035893738269806,-1.317248821258545,-9.474081993103027
1763701327105095400,1.992095458984375,-0.3969094455242157,-1.1518449783325195,-9.565009117126465
1763701327115185400,2.002185302734375,-0.45194438099861145,-0.9484550952911377,-9.723235130310059
1763701327125254700,2.012254638671875,-0.08075776696205139,-0.7399803996086121,-9.780662536621094
1763701327135344600,2.0223447265625,1.0666006803512573,-0.2153540402650833,-9.33739185333252
1763701327145434600,2.0324345703125,2.3961126804351807,0.357128769159317,-9.00688362121582
1763701327155498200,2.042498291015625,3.0478577613830566,0.3188436031341553,-9.34457015991211
1763701327165588200,2.052588134765625,3.2491540908813477,0.357128769159317,-9.749555587768555
1763701327175678200,2.06267822265625,3.6610186100006104,0.4145565330982208,-9.581759452819824
1763701327185726700,2.072726806640625,3.4692938327789307,0.07926224917173386,-10.068099975585938
1763701327195816700,2.082816650390625,2.5495524406433105,0.10797612369060516,-10.942378044128418
1763701327205906700,2.09290673828125,2.017747640609741,0.12233305722475052,-10.971092224121094
1763701327215971300,2.102971435546875,1.6704893112182617,-0.03798605874180794,-11.258529663085938
1763701327226061300,2.113061279296875,1.344467282295227,0.009870393201708794,-11.01416301727295
1763701327236151300,2.1231513671875,1.052243709564209,0.17288143932819366,-10.614262580871582
1763701327246210300,2.133210205078125,0.1707877218723297,0.17288143932819366,-11.64437198638916
1763701327256300300,2.14330029296875,-1.0052846670150757,0.39062830805778503,-11.862418174743652
1763701327266390300,2.153390380859375,-1.8795621395111084,0.44835513830184937,-12.06341552734375
1763701327276445400,2.163445556640625,-1.9061822891235352,0.22791635990142822,-12.221640586853027
1763701327286535400,2.173535400390625,-1.4605190753936768,0.4217349886894226,-11.893525123596191
1763701327296625400,2.18362548828125,-0.9693922996520996,0.7692924737930298,-11.32822036743164
1763701327306657300,2.1936572265625,0.6978068947792053,1.2026925086975098,-9.967601776123047
1763701327316747300,2.203747314453125,2.3865413665771484,1.638784408569336,-9.301499366760254
1763701327326837200,2.213837158203125,2.02492618560791,1.6363916397094727,-9.428618431091309
1763701327336918500,2.22391845703125,1.0546365976333618,1.6459628343582153,-9.332606315612793
1763701327347008300,2.23400830078125,1.9962122440338135,1.8999011516571045,-7.310970306396484
1763701327357098500,2.244098388671875,2.6811578273773193,1.5957136154174805,-8.05095100402832
1763701327367157000,2.254156982421875,1.3639088869094849,1.521536111831665,-9.897911071777344
1763701327377238300,2.26423828125,0.25692933797836304,1.4446666240692139,-10.4823579788208
1763701327387319800,2.27431982421875,0.020039889961481094,1.545464277267456,-10.214062690734863
1763701327397379300,2.28437939453125,0.6834499835968018,1.1213364601135254,-8.793622970581055
1763701327407460600,2.294460693359375,0.7265207767486572,1.145264744758606,-9.109774589538574
1763701327417542000,2.3045419921875,0.09421738982200623,1.3369896411895752,-9.744770050048828
1763701327427620900,2.314620849609375,-0.18843477964401245,1.3178470134735107,-8.80798053741455
1763701327437702400,2.324702392578125,0.13968102633953094,1.1907284259796143,-7.310970306396484
1763701327447783700,2.33478369140625,1.3061820268630981,1.1548360586166382,-6.534798622131348
1763701327457865700,2.34486572265625,2.422433853149414,1.0256235599517822,-6.096313953399658
1763701327467947000,2.354947021484375,2.769991397857666,0.7067800164222717,-6.242575168609619
1763701327478028300,2.3650283203125,2.5734808444976807,0.3355933725833893,-6.738487720489502
1763701327488090600,2.375090576171875,2.4248266220092773,0.38344982266426086,-6.831807613372803
1763701327498172200,2.385172119140625,1.2846466302871704,0.4049852192401886,-9.541081428527832
1763701327508253400,2.39525341796875,1.3277174234390259,0.5608177781105042,-8.930313110351562
1763701327518342400,2.40534228515625,1.6298112869262695,-0.3807578980922699,-7.325327396392822
1763701327528423700,2.415423583984375,1.1482558250427246,-0.4405784606933594,-7.107281684875488
1763701327538505200,2.425505126953125,1.2272188663482666,-1.3363914489746094,-6.733702182769775
1763701327548560400,2.435560302734375,0.7217351198196411,-1.8299111127853394,-7.301399230957031
1763701327558641700,2.4456416015625,0.4247260093688965,-2.016850471496582,-6.992425918579102
1763701327568723000,2.455722900390625,0.5156532526016235,-2.553440809249878,-7.21735143661499
1763701327578805800,2.4658056640625,0.4773681163787842,-2.5749762058258057,-7.6390862464904785
1763701327588887300,2.47588720703125,0.8727820515632629,-2.4813570976257324,-8.391329765319824
1763701327598968600,2.485968505859375,1.1003992557525635,-2.2947168350219727,-9.289535522460938
1763701327609007900,2.4960078125,1.2343974113464355,-2.2178475856781006,-9.821340560913086
1763701327619089200,2.506089111328125,1.1051849126815796,-1.9399809837341309,-10.1183500289917
1763701327629170400,2.51617041015625,0.5446662306785583,-2.414358139038086,-10.161420822143555
1763701327639273700,2.526273681640625,-0.028115665540099144,-2.816950559616089,-11.203495025634766
1763701327649355000,2.53635498046875,0.12771691381931305,-2.9796624183654785,-11.8528470993042
1763701327659436300,2.546436279296875,-0.07597211748361588,-2.8552355766296387,-11.388041496276855
1763701327669494500,2.55649462890625,-0.2147558331489563,-2.3712873458862305,-12.324532508850098
1763701327679575800,2.566575927734375,-0.3681955933570862,-2.1723837852478027,-13.20389461517334
1763701327689657300,2.5766572265625,-0.29401808977127075,-2.196312189102173,-10.494621276855469
1763701327699839500,2.586839599609375,-0.01136590726673603,-2.881556749343872,-7.682157039642334
1763701327709920800,2.596920654296875,-0.7058826684951782,-3.339184045791626,-7.334898948669434
1763701327720002300,2.607002197265625,-1.7359927892684937,-3.6888351440429688,-8.029415130615234
1763701327730007600,2.617007568359375,-3.1731820106506348,-3.712763547897339,-8.73619556427002
1763701327740088800,2.6270888671875,-4.31096887588501,-3.76779842376709,-8.932705879211426
1763701327750170000,2.637170166015625,-4.133900165557861,-3.739084482192993,-9.02841854095459
1763701327760245000,2.647244873046875,-3.3194432258605957,-4.055236339569092,-8.834300994873047
1763701327770326500,2.657326416015625,-2.397010087966919,-3.5569307804107666,-8.525327682495117
1763701327780407800,2.66740771484375,-1.7790635824203491,-3.082852840423584,-8.23549747467041
1763701327790501000,2.677501220703125,-1.2903295755386353,-2.5582265853881836,-8.194819450378418
1763701327800582400,2.68758251953125,-0.8234301209449768,-2.282752752304077,-8.666803359985352
1763701327810663700,2.69766357421875,-0.9598209857940674,-3.2934212684631348,-8.650053977966309
1763701327820680400,2.707680419921875,-1.2137593030929565,-4.457828521728516,-7.835597038269043
1763701327830761700,2.71776171875,-1.7072789669036865,-4.764409065246582,-7.588837146759033
1763701327840843300,2.72784326171875,-2.583949327468872,-4.876871585845947,-7.897810459136963
1763701327850904000,2.737904052734375,-3.4271202087402344,-5.3919267654418945,-7.701299667358398
1763701327860985300,2.7479853515625,-3.34576416015625,-5.401497840881348,-7.3037919998168945
1763701327871066600,2.758066650390625,-2.833101987838745,-5.015954494476318,-7.265506744384766
1763701327881168400,2.76816845703125,-2.3300111293792725,-5.197809219360352,-8.398508071899414
1763701327891249700,2.778249755859375,-2.3371894359588623,-5.650650501251221,-9.157930374145508
1763701327901331200,2.788331298828125,-2.0760726928710938,-7.229315280914307,-7.672585964202881
1763701327911401700,2.798401611328125,-2.0042879581451416,-7.610073089599609,-7.607979774475098
1763701327921483000,2.80848291015625,-1.939681887626648,-8.347960472106934,-7.097710132598877
1763701327931564300,2.818564208984375,-1.8436698913574219,-7.464111328125,-6.474977970123291
1763701327941682000,2.828681884765625,-1.8293129205703735,-7.701299667358398,-6.1704912185668945
1763701327951763200,2.83876318359375,-1.7072789669036865,-7.734799385070801,-4.9393839836120605
1763701327961844500,2.848844482421875,-1.5418751239776611,-7.442575931549072,-4.175176620483398
1763701327971933200,2.85893310546875,-1.1826525926589966,-6.982555389404297,-3.8087754249572754
1763701327982014500,2.869014404296875,-1.0339984893798828,-6.211169242858887,-3.82791805267334
1763701327992095700,2.879095703125,-1.1754741668701172,-5.918945789337158,-3.202493906021118
1763701328002177000,2.889177001953125,-0.8377870321273804,-5.720042705535889,-3.130709409713745
1763701328012228000,2.89922802734375,-0.4016951024532318,-6.331109523773193,-3.9834516048431396
1763701328022309400,2.909309326171875,-0.11665010452270508,-7.049554824829102,-4.572983264923096
1763701328032391000,2.919390869140625,-0.025722842663526535,-7.667799949645996,-5.535795211791992
1763701328043049200,2.93004931640625,-0.3897309899330139,-7.588537693023682,-6.105885028839111
1763701328053130500,2.940130615234375,-0.8928219676017761,-7.346563816070557,-6.249753475189209
1763701328063212000,2.9502119140625,-0.5718846321105957,-7.744370460510254,-6.333502292633057
1763701328082768600,2.9697685546875,-0.5356931686401367,-7.696514129638672,-4.60648250579834
1763701328092850000,2.979849853515625,-0.25304099917411804,-7.406683444976807,-4.158426761627197
1763701328102917400,2.98991748046875,-0.01375873014330864,-7.720442295074463,-4.004986763000488
1763701328112999000,2.9999990234375,-0.06161518394947052,-8.003094673156738,-4.144069671630859
1763701328123080200,3.010080078125,-0.16450655460357666,-9.064311027526855,-4.323830604553223
1763701328133187000,3.02018701171875,0.1899302899837494,-10.956734657287598,-4.699802875518799
1763701328143268400,3.030268310546875,0.6690930128097534,-11.75444221496582,-4.992026329040527
1763701328153349600,3.040349609375,1.2678968906402588,-13.045370101928711,-5.574080467224121
1763701328163409000,3.050408935546875,1.490728497505188,-11.926725387573242,-5.509474277496338
1763701328173490200,3.060490234375,1.8547366857528687,-9.569794654846191,-5.2746782302856445
1763701328183571500,3.070571533203125,1.7566308975219727,-8.594719886779785,-4.565804481506348
1763701328193663200,3.080663330078125,0.6236293911933899,-8.465507507324219,-5.265107154846191
1763701328203744500,3.09074462890625,-0.6699903607368469,-10.348060607910156,-5.859125137329102
1763701328223874300,3.110874267578125,-7.528119087219238,-19.11805534362793,-3.1737802028656006
1763701328233955800,3.120955810546875,-3.688236951828003,-14.846866607666016,-1.4850455522537231
1763701328244037000,3.131037109375,-1.5179468393325806,-8.970691680908203,-2.919841766357422
1763701328254095400,3.141095458984375,-0.8234301209449768,-6.802794933319092,-4.338187217712402
1763701328274258200,3.161258056640625,-1.1132607460021973,-9.44028377532959,-1.0010972023010254
1763701328284373800,3.171373779296875,-0.6795616149902344,-9.689435958862305,-1.3606188297271729
1763701328294455000,3.181455078125,-0.5718846321105957,-9.253344535827637,-2.905484914779663
1763701328304536300,3.191536376953125,-0.06640082597732544,-7.586144924163818,-3.806382656097412
1763701328314575000,3.2015751953125,0.017647067084908485,-7.080661296844482,-3.7872400283813477
1763701328324656400,3.211656494140625,-0.3155534863471985,-9.081061363220215,-4.773980140686035
1763701328334737700,3.221737548828125,-0.3969094455242157,-10.063015937805176,-4.53200626373291
1763701328344833500,3.23183349609375,-0.4016951024532318,-9.049954414367676,-3.0541388988494873
1763701328354914800,3.241914794921875,-0.1094716340303421,-9.2557373046875,-2.9823544025421143
1763701328364996400,3.251996337890625,0.08703892678022385,-10.24038314819336,-2.8289146423339844
1763701328375081500,3.26208154296875,-0.09511470049619675,-10.24038314819336,-2.819343328475952
1763701328385161000,3.272160888671875,-0.6293123364448547,-9.905089378356934,-2.848057270050049
1763701328395240700,3.28224072265625,-0.7776673436164856,-9.835697174072266,-2.591726064682007
1763701328405317400,3.2923173828125,-0.6604190468788147,-9.670293807983398,-2.2061824798583984
1763701328415396900,3.30239697265625,-0.5213362574577332,-9.574581146240234,-1.973779559135437
1763701328425476600,3.3124765625,-0.48065826296806335,-9.71097183227539,-1.8804595470428467
1763701328435541000,3.322541015625,-0.550349235534668,-9.591330528259277,-1.669592022895813
1763701328445620500,3.332620361328125,-0.19800607860088348,-9.996016502380371,-2.5749762058258057
1763701328455700200,3.3427001953125,-0.6364908218383789,-9.560223579406738,-1.6600207090377808
1763701328465805800,3.352805908203125,-0.5718846321105957,-9.706186294555664,-1.693520188331604
1763701328475885600,3.362885498046875,-0.01375873014330864,-9.471389770507812,-2.249253273010254
1763701328485965300,3.37296533203125,-0.48783671855926514,-9.648757934570312,-1.8299111127853394
1763701328496030200,3.3830302734375,-0.18843477964401245,-9.59372329711914,-1.8972092866897583
1763701328506110000,3.39310986328125,-0.2626122832298279,-9.660722732543945,-2.1005992889404297
1763701328516189400,3.403189453125,-0.34666016697883606,-9.71815013885498,-2.289931297302246
1763701328526278700,3.413278564453125,-0.2147558331489563,-9.598508834838867,-2.529512643814087
1763701328536358400,3.4233583984375,-0.6843472719192505,-9.406784057617188,-2.6108686923980713
1763701328546438100,3.433438232421875,-0.18125630915164948,-9.727721214294434,-3.315255880355835
1763701328556534000,3.443533935546875,-0.22911277413368225,-9.411569595336914,-2.9991040229797363
1763701328576693500,3.463693603515625,-0.12622138857841492,-9.332606315612793,-2.833700180053711
1763701328586759400,3.473759521484375,-0.4902295470237732,-9.26291561126709,-2.7188446521759033
1763701328596839200,3.483839111328125,-0.2267199456691742,-9.215059280395508,-2.8241288661956787
1763701328606918700,3.493918701171875,-0.4064807593822479,-8.865407943725586,-2.7738797664642334
1763701328616993500,3.50399365234375,-0.3083750307559967,-8.568398475646973,-2.9823544025421143
1763701328627073300,3.5140732421875,-0.22432711720466614,-8.38863754272461,-3.0230321884155273
1763701328637153000,3.524153076171875,-0.18843477964401245,-8.618648529052734,-2.8624141216278076
1763701328647200300,3.5342001953125,-0.20039889216423035,-9.92423152923584,-2.7523441314697266
1763701328657280000,3.544280029296875,-0.25064817070961,-10.590034484863281,-2.848057270050049
1763701328667359700,3.55435986328125,-0.052043892443180084,-10.249955177307129,-3.192922830581665
1763701328677465000,3.564465087890625,0.043968115001916885,-9.500103950500488,-3.130709409713745
1763701328687544800,3.574544921875,0.07507480680942535,-10.51346492767334,-3.3104701042175293
1763701328697624300,3.584624267578125,-0.39451664686203003,-7.904689788818359,-3.3343982696533203
1763701328707682300,3.594682373046875,-0.5623133182525635,-2.7137598991394043,-2.3330020904541016
1763701328717761800,3.60476171875,-0.030508488416671753,-4.266103744506836,-2.2205393314361572
1763701328727841500,3.614841552734375,-0.03529413416981697,-8.233104705810547,-3.147459030151367
1763701328737919500,3.62491943359375,-0.32991042733192444,-9.054739952087402,-3.3104701042175293
1763701328758078700,3.64507861328125,0.22103698551654816,-10.223633766174316,-3.3918261528015137
1763701328768181800,3.655181640625,0.13489536941051483,-11.493325233459473,-3.485445261001587
1763701328778261500,3.665261474609375,0.0894317477941513,-12.286247253417969,-3.3894333839416504
1763701328788341200,3.67534130859375,-0.018544375896453857,-12.8659086227417,-3.67447829246521
1763701328798406000,3.685406005859375,-0.18364913761615753,-12.621541023254395,-3.9020955562591553
1763701328808485400,3.6954853515625,-0.20039889216423035,-11.567502975463867,-4.23021125793457
1763701328818565000,3.705565185546875,0.0008973084622994065,-9.40917682647705,-4.405186653137207
1763701328828658000,3.715657958984375,0.008075776509940624,-6.764509677886963,-4.065106391906738
1763701328838737700,3.725737548828125,-0.0975075215101242,-6.536892414093018,-3.6098721027374268
1763701328848817200,3.735817138671875,-0.2964109182357788,-8.05812931060791,-3.3104701042175293
1763701328858871300,3.745871337890625,-0.3681955933570862,-9.543474197387695,-3.044567823410034
1763701328868951000,3.755950927734375,-0.3801597058773041,-9.768399238586426,-3.1881370544433594
1763701328879030800,3.76603076171875,-0.26500511169433594,-9.217452049255371,-3.5356945991516113
1763701328889109200,3.776109130859375,-0.1621137410402298,-8.738588333129883,-3.799204111099243
1763701328899189000,3.78618896484375,-0.15493527054786682,-8.180163383483887,-3.7342989444732666
1763701328909268500,3.7962685546875,-0.17168502509593964,-7.931309700012207,-3.516551971435547
1763701328919345200,3.80634521484375,-0.3562314808368683,-8.216354370117188,-3.403790235519409
1763701328929425000,3.8164248046875,-0.3801597058773041,-8.934800148010254,-3.4085757732391357
1763701328939504400,3.82650439453125,-0.25064817070961,-8.963513374328613,-3.772883176803589
1763701328949544400,3.83654443359375,-0.25304099917411804,-8.774480819702148,-3.7633118629455566
1763701328959624200,3.846624267578125,-0.19561325013637543,-8.997013092041016,-3.5668013095855713
1763701328969704000,3.856703857421875,-0.19322042167186737,-9.72532844543457,-3.55005145072937
1763701328979917300,3.866917236328125,-0.3107678294181824,-10.405787467956543,-3.5835509300231934
1763701328989997000,3.8769970703125,-0.27726832032203674,-10.37946605682373,-3.707977771759033
1763701329000076800,3.887076904296875,0.06311069428920746,-9.993623733520508,-4.182354927062988
1763701329010077200,3.8970771484375,-0.09511470049619675,-8.781659126281738,-3.681656837463379
1763701329020157000,3.907156982421875,0.08464609831571579,-8.137092590332031,-3.1881370544433594
1763701329030236400,3.917236328125,0.07746763527393341,-8.554041862487793,-2.919841766357422
1763701329040302800,3.927302734375,0.046360939741134644,-9.13131046295166,-2.5103700160980225
1763701329050382600,3.937382568359375,0.23300109803676605,-9.401998519897461,-2.3090739250183105
1763701329060462300,3.94746240234375,0.3577269911766052,-9.23180866241455,-2.306680917739868
1763701329070550500,3.957550537109375,0.5324030518531799,-8.494221687316895,-2.402693033218384
1763701329080630000,3.967630126953125,0.9756734371185303,-6.687939167022705,-2.203789710998535
1763701329090709800,3.977709716796875,0.9326026439666748,-9.445069313049316,-3.0086753368377686
1763701329100797700,3.987797607421875,0.6116653084754944,-10.302597045898438,-2.6539394855499268
1763701329110877200,3.997877197265625,0.7695915699005127,-10.170991897583008,-2.6276183128356934
1763701329120957000,4.00795703125,0.6786643266677856,-9.61525821685791,-2.7451658248901367
1763701329131036400,4.018036376953125,0.5422734022140503,-8.709575653076172,-2.5821547508239746
1763701329141082600,4.02808251953125,0.908674418926239,-8.702396392822266,-2.948854923248291
1763701329151162400,4.038162353515625,1.174576759338379,-9.557830810546875,-3.379862070083618
1763701329161241900,4.048241943359375,0.8105686902999878,-9.766006469726562,-3.3607194423675537
1763701329171315700,4.058315673828125,0.6068796515464783,-9.996016502380371,-3.2961132526397705
1763701329181395200,4.068395263671875,0.6068796515464783,-10.10877799987793,-3.1402807235717773
1763701329191475000,4.078474853515625,0.5805585980415344,-9.962516784667969,-3.1977083683013916
1763701329201578000,4.088577880859375,0.7121638655662537,-9.401998519897461,-3.0852456092834473
1763701329211657500,4.098657470703125,0.8895317912101746,-8.855836868286133,-2.706880569458008
1763701329221737200,4.1087373046875,1.028315544128418,-8.951549530029297,-2.507977247238159
1763701329232401700,4.119401611328125,0.9589236974716187,-9.787542343139648,-2.567797899246216
1763701329242481400,4.1294814453125,0.7743772268295288,-10.973484992980957,-3.066103219985962
1763701329252561200,4.13956103515625,0.36729827523231506,-11.251351356506348,-3.3296127319335938
1763701329262628600,4.149628662109375,0.31465616822242737,-10.51107120513916,-3.1354949474334717
1763701329272708000,4.1597080078125,0.4582255482673645,-10.223633766174316,-2.826521635055542
1763701329282787800,4.169787841796875,0.659521758556366,-10.302597045898438,-2.8456642627716064
1763701329292877300,4.179877197265625,0.5638088583946228,-10.015159606933594,-2.771486759185791
1763701329302956800,4.189956787109375,0.3409772217273712,-9.871589660644531,-2.4720849990844727
1763701329313036500,4.20003662109375,0.22103698551654816,-9.60807991027832,-1.7629120349884033
1763701329323109600,4.210109619140625,0.18753747642040253,-9.679864883422852,-1.3965110778808594
1763701329333189000,4.220189208984375,0.3170489966869354,-9.40917682647705,-1.329512119293213
1763701329343268900,4.230268798828125,0.4749752879142761,-9.040383338928223,-1.2813565731048584
1763701329352776700,4.239776611328125,0.5590232014656067,-9.03799057006836,-1.4922239780426025
1763701329362856400,4.2498564453125,0.6092724800109863,-9.181559562683105,-2.2540390491485596
1763701329372936200,4.259936279296875,0.5228317379951477,-9.02841854095459,-2.273181438446045
1763701329382986500,4.269986572265625,0.3696911036968231,-8.85344409942627,-2.0431714057922363
1763701329393065500,4.2800654296875,0.043968115001916885,-8.65214729309082,-1.449153184890747
1763701329403144700,4.290144775390625,0.046360939741134644,-8.22114086151123,-0.9077770709991455
1763701329413248500,4.30024853515625,0.12771691381931305,-8.321639060974121,-0.7929216027259827
1763701329423327700,4.31032763671875,-0.04486542567610741,-7.722835063934326,-0.6035895347595215
1763701329433407000,4.320406982421875,-0.24107688665390015,-6.846164703369141,-0.2225325107574463
1763701329443490800,4.33049072265625,-0.2315055876970291,-6.350252151489258,0.5030909776687622
1763701329453569800,4.34056982421875,-0.01136590726673603,-6.086742401123047,0.6134598851203918
1763701329463649000,4.35064892578125,0.6547361016273499,-6.115456581115723,0.4504488706588745
1763701329473717000,4.360717041015625,0.7265207767486572,-10.937592506408691,-0.8288139700889587
1763701329483796200,4.370796142578125,0.6236293911933899,-13.58435344696045,-1.7150555849075317
1763701329493875500,4.38087548828125,1.1051849126815796,-11.986845016479492,-0.735194742679596
1763701329503956500,4.39095654296875,1.430907964706421,-12.580862998962402,-1.013061285018921
1763701329514035700,4.40103564453125,1.68484628200531,-2.967698335647583,-0.5389832854270935
1763701329524115000,4.411114990234375,1.672882080078125,1.7775681018829346,0.7570292353630066
1763701329534202400,4.421202392578125,-0.9000003933906555,-2.033600091934204,2.582453727722168
1763701329544281600,4.431281494140625,-0.1788634955883026,-5.885446548461914,2.620738983154297
1763701329554360800,4.44136083984375,2.2453649044036865,-13.160524368286133,-1.5089738368988037
1763701329564446700,4.45144677734375,3.1818559169769287,-23.300708770751953,-4.541577339172363
1763701329574526000,4.46152587890625,0.5709872841835022,-28.65195655822754,-10.959127426147461
1763701329584605200,4.471605224609375,-1.9660029411315918,-17.51067543029785,-6.209075450897217
1763701329594669800,4.481669921875,-0.030508488416671753,-8.692825317382812,-0.15553347766399384
1763701329604748800,4.491748779296875,0.6475576162338257,-8.414958953857422,3.408874988555908
1763701329614828000,4.501828125,-0.06161518394947052,-11.61535930633545,4.814957141876221
1763701329624915500,4.51191552734375,-0.2147558331489563,-11.572288513183594,2.9703903198242188
1763701329634994700,4.52199462890625,0.05114658549427986,-10.71236801147461,0.5991029739379883
1763701329645073700,4.53207373046875,0.49651068449020386,-10.82961654663086,-0.5365904569625854
1763701329655148800,4.542148681640625,0.8105686902999878,-11.229815483093262,-0.4046861231327057
1763701329665227800,4.552227783203125,0.99481600522995,-11.833405494689941,0.27308088541030884
1763701329675307000,4.56230712890625,1.2320045232772827,-12.446565628051758,0.9343972206115723
1763701329685392600,4.572392578125,1.3181462287902832,-12.707682609558105,1.0636097192764282
1763701329695471900,4.582471923828125,1.064207911491394,-12.353245735168457,1.0085747241973877
1763701329705550800,4.59255078125,0.626022219657898,-11.735299110412598,1.1979068517684937
1763701329715632000,4.602632080078125,0.2353939265012741,-11.227422714233398,1.4997016191482544
1763701329725711400,4.61271142578125,0.09900303930044174,-11.081161499023438,1.6289139986038208
1763701329735790300,4.622790283203125,0.06071787327528,-10.832009315490723,1.3127623796463013
1763701329745860000,4.632860107421875,0.06550352275371552,-10.338489532470703,0.8506484627723694
1763701329755939300,4.642939208984375,-0.0687936544418335,-9.234201431274414,0.5174478888511658
1763701329766018300,4.653018310546875,-0.3442673683166504,-7.27956485748291,-0.016749758273363113
1763701329776102000,4.663101806640625,-0.39451664686203003,-6.132206439971924,-0.9604191780090332
1763701329786181000,4.67318115234375,-0.5790630578994751,-7.27956485748291,-1.511366605758667
1763701329796260400,4.68326025390625,-0.8377870321273804,-9.059525489807129,-1.0923235416412354
1763701329806340400,4.69334033203125,-0.7250252366065979,-10.269097328186035,-0.831206738948822
1763701329816419300,4.70341943359375,-0.6867401003837585,-10.156635284423828,-1.322333574295044
1763701329826498600,4.71349853515625,-0.9382855892181396,-9.648757934570312,-1.4539388418197632
1763701329836556000,4.72355615234375,-1.0148558616638184,-9.44028377532959,-1.073180913925171
1763701329846635000,4.733635009765625,-0.885643482208252,-9.598508834838867,-0.6993024349212646
1763701329856714200,4.74371435546875,-0.794417142868042,-9.91705322265625,-0.5051847100257874
1763701329866797800,4.7537978515625,-0.6963114142417908,-9.976874351501465,-0.26111677289009094
1763701329876877000,4.763876953125,-0.43998026847839355,-9.991230964660645,0.21804596483707428
1763701329886956300,4.773956298828125,-0.07357929646968842,-10.103992462158203,0.654137909412384
1763701329897046800,4.784046875,0.1660020649433136,-10.202098846435547,1.0277173519134521
1763701329907125800,4.794125732421875,0.3074777126312256,-10.137492179870605,1.291226863861084
1763701329917205000,4.804205078125,0.3194418251514435,-10.005587577819824,1.454237937927246
1763701329937377500,4.82437744140625,0.008075776509940624,-9.866804122924805,1.3654043674468994
1763701329947456800,4.834456787109375,-0.1740778535604477,-10.017552375793457,1.0660024881362915
1763701329957498600,4.84449853515625,-0.361017107963562,-10.113563537597656,0.6708876490592957
1763701329967577900,4.854577880859375,-0.5380859971046448,-10.055837631225586,0.28983065485954285
1763701329977657000,4.864656982421875,-0.6460621356964111,-9.955338478088379,-0.0023928226437419653
1763701329987745500,4.87474560546875,-0.672383189201355,-9.833304405212402,-0.16510476171970367
1763701329997824800,4.88482470703125,-0.6484549641609192,-9.699007034301758,-0.22971096634864807
1763701330007904000,4.894904052734375,-0.6101697683334351,-9.598508834838867,-0.12681959569454193
1763701330018007300,4.90500732421875,-0.550349235534668,-9.574581146240234,-0.004785645287483931
1763701330028086500,4.91508642578125,-0.4615156650543213,-9.612865447998047,0.033798620104789734
1763701330038165800,4.925165771484375,-0.3514458239078522,-9.667901039123535,0.02632104977965355
1763701330048226600,4.9352265625,-0.21236300468444824,-9.761220932006836,0.031106693670153618
1763701330058305800,4.945305908203125,-0.0975075215101242,-9.890732765197754,0.05054837837815285
1763701330068384800,4.955384765625,0.022432712838053703,-9.89551830291748,0.1295115202665329
1763701330078472400,4.965472412109375,0.07986045628786087,-9.7636137008667,0.1295115202665329
1763701330088551700,4.9755517578125,0.125324085354805,-9.675079345703125,0.09601201117038727
1763701330098631000,4.985630859375,0.15882360935211182,-9.660722732543945,0.1055833026766777
1763701330108694000,4.995694091796875,0.22103698551654816,-9.687043190002441,0.14865410327911377
1763701330118773000,5.00577294921875,0.2593221664428711,-9.691828727722168,0.1941177397966385
1763701330128852200,5.015852294921875,0.3361915946006775,-9.706186294555664,0.20847466588020325
1763701330138914300,5.025914306640625,0.4342973232269287,-9.754042625427246,0.22522443532943726
1763701330148993300,5.0359931640625,0.534795880317688,-9.850054740905762,0.25633111596107483
1763701330159072500,5.046072509765625,0.6499504446983337,-9.89551830291748,0.21804596483707428
1763701330169210400,5.05621044921875,0.7384848594665527,-9.876375198364258,0.26590242981910706
1763701330179289600,5.06628955078125,0.8177471160888672,-9.842875480651855,0.36670008301734924
1763701330189368600,5.07636865234375,0.8847461938858032,-9.71097183227539,0.5150550603866577
1763701330199409000,5.086408935546875,0.8321040868759155,-9.088239669799805,0.7331010103225708
1763701330209488100,5.096488037109375,0.8967102766036987,-9.042776107788086,1.1066805124282837
1763701330219567000,5.106567138671875,0.8799605369567871,-9.380462646484375,1.212263822555542
1763701330229640400,5.116640380859375,0.7289136052131653,-9.799506187438965,0.9487541913986206
1763701330239719700,5.1267197265625,0.486939400434494,-9.919445991516113,0.5174478888511658
1763701330249799000,5.136798828125,0.2907279431819916,-9.945767402648926,0.1055833026766777
1763701330259933700,5.14693359375,0.06789634376764297,-9.960124015808105,-0.19621145725250244
1763701330270012700,5.1570126953125,-0.12861421704292297,-9.936196327209473,-0.2994019389152527
1763701330280092000,5.167091796875,-0.2748754918575287,-9.871589660644531,-0.5126622319221497
1763701330290184400,5.177184326171875,-0.2988037168979645,-9.818947792053223,-0.5988038778305054
1763701330300263700,5.187263671875,-0.27726832032203674,-9.737292289733887,-0.368793785572052
1763701330310342700,5.1973427734375,-0.20518454909324646,-9.63918685913086,-0.19381862878799438
1763701330320396800,5.207396728515625,-0.1094716340303421,-9.675079345703125,-0.23210379481315613
1763701330330475800,5.217475830078125,-0.09511470049619675,-9.873982429504395,-0.4214358925819397
1763701330340555000,5.227554931640625,0.06071787327528,-10.024730682373047,-0.6969096064567566
1763701330350595300,5.23759521484375,0.30987054109573364,-10.046265602111816,-0.9317052960395813
1763701330360674600,5.247674560546875,0.5614160299301147,-10.000802040100098,-0.9580263495445251
1763701330370753800,5.25775390625,0.6714858412742615,-9.988838195800781,-0.7905287742614746
1763701330380811800,5.267811767578125,0.5853442549705505,-10.123135566711426,-0.5724828243255615
1763701330390890800,5.277890869140625,0.6643074154853821,-10.084850311279297,-0.44775694608688354
1763701330400970000,5.287969970703125,0.7911269664764404,-10.082457542419434,-0.4405784606933594
1763701330411104300,5.298104248046875,0.7887341380119324,-10.130313873291016,-0.44775694608688354
1763701330421183500,5.30818359375,1.033101201057434,-10.182955741882324,-0.5509474277496338
1763701330431263200,5.31826318359375,1.3830515146255493,-10.288240432739258,-0.6370890140533447
1763701330441342700,5.3283427734375,1.7015960216522217,-10.61396312713623,-0.7833502888679504
1763701330451408000,5.338407958984375,1.8909281492233276,-10.808080673217773,-1.0154540538787842
1763701330461487000,5.348487060546875,2.0273189544677734,-10.942378044128418,-1.1904292106628418
1763701330471566600,5.358566650390625,2.2381865978240967,-10.987841606140137,-1.3486546277999878
1763701330481645300,5.368645263671875,2.5351955890655518,-10.640583038330078,-1.2885349988937378
1763701330491724800,5.378724853515625,2.896811008453369,-10.092028617858887,-1.0154540538787842
1763701330501804500,5.388804443359375,3.1387851238250732,-9.715757369995117,-0.6658028960227966
1763701330512511500,5.399511474609375,3.2970104217529297,-9.203095436096191,-0.3616153299808502
1763701330522591000,5.409591064453125,3.4118659496307373,-8.73619556427002,-0.02632104977965355
1763701330532670500,5.41967041015625,3.541377544403076,-8.54447078704834,0.37148571014404297
1763701330542713000,5.429713134765625,3.555734395980835,-8.941978454589844,0.9559326171875
1763701330552792600,5.43979248046875,3.2129626274108887,-10.245169639587402,1.7129619121551514
1763701330562872000,5.4498720703125,2.5423741340637207,-12.415459632873535,2.429013967514038
1763701330572905200,5.4599052734375,2.015354871749878,-14.954842567443848,2.7981069087982178
1763701330582984700,5.469984619140625,1.4380863904953003,-16.5451717376709,2.8124639987945557
1763701330593064200,5.480064208984375,0.5518447160720825,-16.473386764526367,2.062613010406494
1763701330603162600,5.49016259765625,-0.5285146832466125,-15.098411560058594,0.7977072596549988
1763701330613242000,5.5002421875,-1.3719847202301025,-13.493426322937012,-0.40707895159721375
1763701330623321600,5.510321533203125,-1.9492532014846802,-12.137593269348145,-1.109073281288147
1763701330642940400,5.5299404296875,-1.8843477964401245,-10.906485557556152,-1.3100703954696655
1763701330653020000,5.54002001953125,-0.9909276962280273,-11.064412117004395,-1.4970096349716187
1763701330663106300,5.550106201171875,0.5566303730010986,-11.450254440307617,-1.2957134246826172
1763701330673185800,5.560185791015625,2.0751755237579346,-12.2766752243042,-0.7280163168907166
1763701330683265300,5.570265380859375,2.4945175647735596,-12.46570873260498,-0.617946445941925
1763701330693300000,5.580300048828125,2.5160529613494873,-11.500503540039062,-0.0023928226437419653
1763701330703379500,5.59037939453125,1.8738791942596436,-10.147063255310059,1.0612168312072754
1763701330713459000,5.600458984375,1.0498509407043457,-8.577970504760742,2.0506489276885986
1763701330723615000,5.610614990234375,0.5662016868591309,-7.399505138397217,2.83878493309021
1763701330733694500,5.620694580078125,0.4534398913383484,-6.695117950439453,3.1788649559020996
1763701330743774000,5.63077392578125,0.6978068947792053,-6.282954216003418,2.9991040229797363
1763701330753729000,5.64072900390625,1.1147562265396118,-6.20638370513916,2.692523717880249
1763701330763808500,5.65080859375,1.5409778356552124,-6.45314359664917,2.419442892074585
1763701330773888000,5.660887939453125,1.7733806371688843,-6.870092868804932,2.146361827850342
1763701330784010200,5.67101025390625,1.7614165544509888,-7.2676005363464355,1.7129619121551514
1763701330794089700,5.68108984375,1.5337992906570435,-7.394719123840332,1.0827522277832031
1763701330804169200,5.691169189453125,1.3902299404144287,-7.502396106719971,1.1042876243591309
1763701330814331400,5.701331298828125,1.1051849126815796,-7.820940971374512,1.394417405128479
1763701330824411000,5.711410888671875,0.9110672473907471,-7.9983086585998535,1.0995019674301147
1763701330834490400,5.721490478515625,0.9397810697555542,-7.940881252288818,0.6326025128364563
1763701330844511500,5.731511474609375,1.119541883468628,-7.739584922790527,0.3978067636489868
1763701330854591000,5.741591064453125,1.2056834697723389,-8.161020278930664,0.9343972206115723
1763701330864670500,5.75167041015625,1.648953914642334,-8.211568832397461,1.1309077739715576
1763701330874747000,5.761746826171875,2.1230318546295166,-8.05812931060791,0.804885745048523
1763701330884826400,5.771826416015625,2.520838737487793,-8.726325035095215,0.7331010103225708
1763701330894905900,5.78190576171875,3.0478577613830566,-8.68325424194336,0.08644071966409683
1763701330904975600,5.7919755859375,3.495614767074585,-8.515756607055664,-0.2826521694660187
1763701330915055000,5.80205517578125,3.735196113586426,-8.331210136413574,-0.3640081584453583
1763701330925134600,5.812134521484375,3.8144583702087402,-8.23549747467041,-0.24915266036987305
1763701330935172000,5.822172119140625,3.8383865356445312,-8.18255615234375,-0.08374879509210587
1763701330945251600,5.83225146484375,3.8096728324890137,-8.240283012390137,-0.0526420995593071
1763701330955331000,5.8423310546875,3.8455650806427,-8.422137260437012,-0.04307080805301666
1763701330965466600,5.852466552734375,3.9580278396606445,-8.68325424194336,0.07208377867937088
1763701330975546000,5.862546142578125,4.046861171722412,-8.812766075134277,0.08404789865016937
1763701330985625600,5.87262548828125,4.223930358886719,-8.788837432861328,0.06011966988444328
1763701330995698200,5.8826982421875,4.468297004699707,-8.762516975402832,0.02632104977965355
1763701331005777700,5.892777587890625,4.674378871917725,-8.870193481445312,-0.09571290761232376
1763701331015857200,5.902857177734375,4.8828535079956055,-8.96829891204834,-0.4621138870716095
1763701331025938000,5.91293798828125,4.973781108856201,-9.119346618652344,-0.9221340417861938
1763701331036017400,5.923017333984375,5.112564563751221,-9.241379737854004,-1.1521440744400024
1763701331046097000,5.933096923828125,5.368896007537842,-9.2919282913208,-1.2861422300338745
1763701331056143600,5.9431435546875,5.48883581161499,-9.334999084472656,-1.3654043674468994
1763701331066223400,5.953223388671875,5.421836853027344,-9.375677108764648,-1.3076776266098022
1763701331076302800,5.963302734375,5.220541000366211,-9.442676544189453,-1.1186445951461792
1763701331086413600,5.97341357421875,5.052743911743164,-9.41635513305664,-0.7785646915435791
1763701331096493000,5.9834931640625,5.035994529724121,-9.275178909301758,-0.2994019389152527
1763701331106572500,5.993572509765625,5.179862976074219,-9.04516887664795,0.13190434873104095
1763701331116656400,6.003656494140625,5.232504844665527,-8.707182884216309,0.23240290582180023
1763701331126736100,6.013736083984375,4.8589253425598145,-8.233104705810547,-0.02632104977965355
1763701331136815600,6.023815673828125,4.358227252960205,-7.730013370513916,-0.17228323221206665
1763701331146890200,6.03389013671875,4.039383888244629,-7.258029460906982,-0.09092725813388824
1763701331156969700,6.0439697265625,3.986741542816162,-6.963412761688232,0.10319047421216965
1763701331167049200,6.05404931640625,3.8144583702087402,-7.0902323722839355,0.5724828243255615
1763701331177133000,6.064133056640625,3.4118659496307373,-7.706085205078125,1.353440284729004
1763701331197292000,6.0842919921875,3.2946176528930664,-9.653543472290039,2.5609183311462402
1763701331207368700,6.09436865234375,3.3113675117492676,-10.005587577819824,2.613560438156128
1763701331217448200,6.1044482421875,3.0382864475250244,-10.04148006439209,2.2830519676208496
1763701331227527700,6.114527587890625,2.7747769355773926,-10.21884822845459,1.8780666589736938
1763701331247729700,6.134729736328125,4.475475788116455,-14.281561851501465,2.1032910346984863
1763701331267851800,6.154851806640625,5.277968406677246,-19.37917137145996,0.11515458673238754
1763701331277931300,6.16493115234375,3.7256247997283936,-18.193527221679688,-1.1665010452270508
1763701331288010800,6.1750107421875,1.2439687252044678,-14.983556747436523,-0.804885745048523
1763701331298047000,6.185046875,-0.6317051649093628,-11.10030460357666,0.7618148922920227
1763701331308126500,6.19512646484375,-1.1371889114379883,-7.763513088226318,2.038684844970703
1763701331318206000,6.2052060546875,-1.2281162738800049,-5.267499923706055,2.9536404609680176
1763701331328325400,6.215325439453125,-1.3214362859725952,-3.6864423751831055,3.430410385131836
1763701331338404900,6.22540478515625,-1.4294124841690063,-3.3293135166168213,2.872284412384033
1763701331348484400,6.235484375,-1.4988043308258057,-4.175176620483398,0.8482556343078613
1763701331358555000,6.245554931640625,-1.2065808773040771,-6.8171515464782715,-1.1593226194381714
1763701331368634400,6.25563427734375,-0.5407779216766357,-9.560223579406738,-2.2947168350219727
1763701331378713900,6.2657138671875,-0.31316065788269043,-11.356635093688965,-2.8456642627716064
1763701331388808000,6.275807861328125,-0.607776939868927,-11.850154876708984,-2.84087872505188
1763701331398887400,6.285887451171875,-1.292722463607788,-11.335100173950195,-2.505584478378296
1763701331408967000,6.295966796875,-1.9301105737686157,-11.062019348144531,-1.5616158246994019
1763701331418966000,6.305966064453125,-2.0760726928710938,-10.796116828918457,-0.4094717800617218
1763701331429044700,6.316044677734375,-1.5897315740585327,-10.099206924438477,0.6565307378768921
1763701331439123500,6.32612353515625,-0.8306085467338562,-9.29910659790039,1.3558331727981567
1763701331459330300,6.346330322265625,0.09661021083593369,-8.86780071258545,0.8961120843887329
1763701331469409300,6.3564091796875,0.09900303930044174,-9.093025207519531,0.3116651475429535
1763701331479480000,6.36647998046875,0.22103698551654816,-9.502496719360352,0.23240290582180023
1763701331489559000,6.37655908203125,0.2955136001110077,-10.245169639587402,0.6852445602416992
1763701331499637800,6.3866376953125,0.3242274820804596,-11.12183952331543,1.0755738019943237
1763701331509735200,6.396735107421875,0.41515472531318665,-11.847762107849121,1.2074781656265259
1763701331519814000,6.40681396484375,0.6403791308403015,-10.788938522338867,0.4265206456184387
1763701331529892900,6.416892822265625,0.8560323119163513,-10.281061172485352,0.3332005441188812
1763701331539990800,6.42699072265625,0.8727820515632629,-10.415358543395996,0.32602208852767944
1763701331550069800,6.43706982421875,0.46779683232307434,-10.173384666442871,-0.3568296730518341
1763701331560148500,6.4471484375,0.1540379524230957,-9.603294372558594,-0.8814560174942017
1763701331570224000,6.45722412109375,0.16121642291545868,-9.12413215637207,-0.9125627279281616
1763701331580302800,6.467302734375,-0.0568295381963253,-9.076275825500488,-0.6418746709823608
1763701331590381800,6.4773818359375,-0.25304099917411804,-9.1624174118042,-0.6323033571243286
1763701331600459800,6.487459716796875,-0.12143574655056,-9.294321060180664,-0.8599206209182739
1763701331610538800,6.497538818359375,-0.05922235921025276,-9.483354568481445,-0.9915258884429932
1763701331620617500,6.507617431640625,0.03200400248169899,-9.687043190002441,-0.8335995674133301
1763701331630707000,6.51770703125,0.22103698551654816,-9.708579063415527,-0.7471588850021362
1763701331640785700,6.52778564453125,0.41994038224220276,-9.581759452819824,-0.5653043389320374
1763701331650864400,6.537864501953125,0.6499504446983337,-9.449854850769043,-0.37836506962776184
1763701331660962300,6.54796240234375,0.8871390223503113,-9.366106033325195,-0.3113660514354706
1763701331671041000,6.558041015625,1.0426725149154663,-9.397212982177734,-0.3233301639556885
1763701331681119700,6.56811962890625,1.093220829963684,-9.53360366821289,-0.4453641176223755
1763701331691154200,6.578154296875,1.1458629369735718,-9.708579063415527,-0.5724828243255615
1763701331701233200,6.588233154296875,1.1937193870544434,-9.945767402648926,-0.6945167779922485
1763701331711312000,6.598311767578125,1.2248260974884033,-10.055837631225586,-0.8359923958778381
1763701331721420000,6.608419921875,1.2128620147705078,-10.079765319824219,-0.9556335210800171
1763701331731499000,6.6184990234375,1.1985050439834595,-10.031908988952637,-0.9436694383621216
1763701331741577700,6.62857763671875,1.0666006803512573,-9.809077262878418,-0.7734799385070801
1763701331752234500,6.639234375,0.783948540687561,-9.497711181640625,-0.3807578980922699
1763701331762313200,6.649313232421875,0.7719843983650208,-9.296713829040527,0.004785645287483931
1763701331772392000,6.659391845703125,0.9589236974716187,-9.193523406982422,0.26111677289009094
1763701331781903600,6.668903564453125,1.1147562265396118,-9.200701713562012,0.2922234535217285
1763701331791982300,6.678982421875,1.2248260974884033,-9.313464164733887,0.007178467698395252
1763701331802061000,6.68906103515625,1.2296117544174194,-9.382855415344238,-0.5700899958610535
1763701331812140000,6.69914013671875,1.059422254562378,-9.282357215881348,-1.1569297313690186
1763701331822771000,6.70977099609375,0.8344969153404236,-9.26291561126709,-1.456331729888916
1763701331832849700,6.719849609375,0.3433700501918793,-9.267701148986816,-1.3028919696807861
1763701331842928600,6.7299287109375,-0.06640082597732544,-8.908478736877441,-1.017846941947937
1763701331862523100,6.749523193359375,-0.42801615595817566,-7.964809417724609,-0.9675976634025574
1763701331872601900,6.759601806640625,-1.0196415185928345,-8.17537784576416,-0.8024929165840149
1763701331882669800,6.769669921875,-1.0028917789459229,-8.494221687316895,-0.5557330846786499
1763701331892748800,6.779748779296875,-0.48783671855926514,-8.776873588562012,-0.23210379481315613
1763701331902827500,6.78982763671875,-0.4256233274936676,-9.171988487243652,-0.16749759018421173
1763701331912903700,6.799903564453125,-1.2305090427398682,-9.44028377532959,-0.5051847100257874
1763701331922982400,6.809982421875,-1.352842092514038,-9.648757934570312,-0.8910273313522339
1763701331933061000,6.82006103515625,-0.6604190468788147,-9.746864318847656,-1.0707881450653076
1763701331943135500,6.830135498046875,0.017647067084908485,-9.979267120361328,-0.9699904918670654
1763701331963293200,6.850293212890625,1.960319995880127,-10.51346492767334,-0.9053842425346375
1763701331973366500,6.860366455078125,3.4669008255004883,-11.059626579284668,-1.211964726448059
1763701331983445200,6.8704453125,5.380859851837158,-11.644073486328125,-1.6360924243927002
1763701331993524200,6.880524169921875,7.441080093383789,-12.417852401733398,-2.0192432403564453
1763701332003611600,6.890611572265625,9.783952713012695,-13.524532318115234,-1.425225019454956
1763701332013690600,6.900690673828125,12.387642860412598,-14.784652709960938,0.4983053207397461
1763701332023769300,6.910769287109375,14.174781799316406,-15.896119117736816,2.8746774196624756
1763701332033860600,6.920860595703125,16.09352684020996,-15.881762504577637,5.720640659332275
1763701332043939300,6.930939208984375,13.444073677062988,-15.462419509887695,8.437092781066895
1763701332054018000,6.94101806640625,5.603691577911377,-14.386846542358398,9.649057388305664
1763701332064083700,6.951083740234375,-2.9985058307647705,-11.481361389160156,9.754640579223633
1763701332074162700,6.96116259765625,-11.531012535095215,-6.774080753326416,10.087542533874512
1763701332084241400,6.971241455078125,-18.528223037719727,-3.403790235519409,6.14207649230957
1763701332094328800,6.981328857421875,-16.729419708251953,0.11515458673238754,-1.7988044023513794
1763701332104407600,6.991407470703125,-4.074079513549805,2.1873390674591064,-11.577373504638672
1763701332114486500,7.001486572265625,6.109175205230713,-0.7806583642959595,-15.632908821105957
1763701332124564200,7.011564208984375,1.1482558250427246,-4.450650215148926,-10.27178955078125
1763701332134643000,7.021642822265625,-7.372585773468018,-6.062814235687256,-4.65433931350708
1763701332144722000,7.031721923828125,-6.117250919342041,-4.788337230682373,-5.284249782562256
1763701332154819800,7.04181982421875,-3.1779675483703613,-1.6118651628494263,-4.187140464782715
1763701332164898600,7.051898681640625,-2.840280532836914,-1.9160526990890503,-0.8503493666648865
1763701332174977300,7.061977294921875,-0.3849453330039978,-5.348855972290039,-2.079063892364502
1763701332185062000,7.072061767578125,0.9349954724311829,-4.196712017059326,-1.9857436418533325
1763701332195140600,7.082140625,-0.12622138857841492,-4.0528435707092285,-2.009671926498413
1763701332205219600,7.092219482421875,-0.7585247755050659,-4.824229717254639,-1.444367527961731
1763701332215278300,7.1022783203125,1.6417754888534546,-5.269892692565918,2.3069801330566406
1763701332225357300,7.112357421875,4.815555572509766,-6.237490653991699,8.362615585327148
1763701332235436000,7.12243603515625,5.0958147048950195,-7.15513801574707,11.012068748474121
1763701332245496000,7.13249609375,3.3017961978912354,-5.629115104675293,8.571090698242188
1763701332255574800,7.14257470703125,2.7269206047058105,-3.090031385421753,3.935894250869751
1763701332265653800,7.15265380859375,4.2550368309021,-1.6238292455673218,-0.953240692615509
1763701332275726300,7.162726318359375,6.078068733215332,-1.695613980293274,-5.993422508239746
1763701332285805000,7.17280517578125,5.043172836303711,-2.4526431560516357,-8.731410026550293
1763701332295884000,7.182884033203125,3.145963668823242,-3.746263027191162,-8.501399993896484
1763701332306018000,7.19301806640625,3.409473180770874,-5.7032928466796875,-6.000600814819336
1763701332316096800,7.2030966796875,4.4012980461120605,-8.774480819702148,-2.608475685119629
1763701332326175700,7.21317578125,5.004887580871582,-12.463315963745117,-0.41904306411743164
1763701332336243200,7.2232431640625,4.959424018859863,-15.455241203308105,0.17736798524856567
1763701332346322000,7.233322021484375,5.091029167175293,-17.28066635131836,-1.0010972023010254
1763701332356400600,7.243400634765625,5.740381717681885,-18.303598403930664,-2.7212376594543457
1763701332366462700,7.253462646484375,7.3884382247924805,-19.44138526916504,-4.417150497436523
1763701332376541400,7.26354150390625,10.47368335723877,-17.153846740722656,-2.9150562286376953
1763701332386620400,7.273620361328125,13.166207313537598,-11.356635093688965,0.7522436380386353
1763701332396696800,7.28369677734375,12.835699081420898,-9.862018585205078,4.570590496063232
1763701332406775600,7.293775634765625,6.811169624328613,-8.697610855102539,9.189037322998047
1763701332416854500,7.3038544921875,-0.974177896976471,-10.618748664855957,10.010672569274902
1763701332426940000,7.31393994140625,-1.3863415718078613,-20.133808135986328,10.427621841430664
1763701332437019400,7.324019287109375,25.436004638671875,-42.105003356933594,5.658128261566162
1763701332447099000,7.334098876953125,38.94169235229492,-54.64788055419922,-24.124736785888672
1763701332457198600,7.344198486328125,0.8727820515632629,-33.84079360961914,-28.743183135986328
1763701332467278000,7.354278076171875,-11.533405303955078,-11.085947036743164,-4.282853603363037
1763701332477357600,7.364357666015625,-6.2898335456848145,0.26620152592658997,3.9095730781555176
1763701332487403000,7.374403076171875,-8.71645450592041,3.7372899055480957,0.5030909776687622
1763701332497482500,7.384482421875,-11.593225479125977,6.616453647613525,-1.8756738901138306
1763701332507562000,7.39456201171875,-4.804488658905029,6.082255840301514,-6.501298904418945
1763701332517651200,7.404651123046875,3.3592238426208496,-3.4157543182373047,-8.345866203308105
1763701332527730700,7.414730712890625,0.010468599386513233,-14.899508476257324,-5.955137252807617
1763701332537810400,7.424810546875,-3.975674867630005,-24.016761779785156,-3.044567823410034
1763701332547895300,7.434895263671875,-2.6964120864868164,-27.38974380493164,0.16061821579933167
1763701332557975000,7.44497509765625,0.6499504446983337,-21.618852615356445,0.9224331378936768
1763701332568054500,7.455054443359375,0.9756734371185303,-14.03240966796875,1.5212370157241821
1763701332578130000,7.4651298828125,1.0860424041748047,-9.866804122924805,3.57906436920166
1763701332588209400,7.47520947265625,1.9938194751739502,-7.741977691650391,5.4643096923828125
1763701332598289200,7.4852890625,2.5016961097717285,-7.4138617515563965,5.727818965911865
1763701332608349700,7.495349609375,2.458625316619873,-7.844869136810303,4.355236530303955
1763701332618429200,7.50542919921875,2.480160713195801,-8.38145923614502,2.8914270401000977
1763701332628508700,7.5155087890625,3.4597225189208984,-9.222237586975098,1.667498230934143
1763701332638600000,7.525599853515625,4.346263408660889,-10.3049898147583,0.7713862061500549
1763701332648679400,7.535679443359375,4.382155418395996,-10.860722541809082,0.8626125454902649
1763701332658759200,7.54575927734375,4.204787731170654,-10.127921104431152,0.8841479420661926
1763701332668827400,7.555827392578125,5.222933769226074,-9.227023124694824,0.5967101454734802
1763701332678907000,7.565906982421875,6.180960178375244,-8.716753959655762,0.5991029739379883
1763701332688986400,7.575986328125,6.55483865737915,-8.467900276184082,0.41934216022491455
1763701332699093500,7.586093505859375,7.500900745391846,-8.34317398071289,-0.5102694034576416
1763701332709173000,7.596173095703125,8.849555015563965,-8.776873588562012,-1.38933265209198
1763701332719252500,7.60625244140625,9.39571762084961,-9.864411354064941,-1.4682958126068115
1763701332729320400,7.616320556640625,9.635298728942871,-11.375778198242188,-0.6083751320838928
1763701332739400000,7.62639990234375,6.9475603103637695,-12.839587211608887,0.8288139700889587
1763701332749479700,7.636479736328125,1.3567304611206055,-13.011870384216309,1.4925230741500854
1763701332759508700,7.6465087890625,-3.9661035537719727,-11.323136329650879,0.9080761671066284
1763701332769588200,7.656588134765625,-7.41326379776001,-8.084450721740723,0.007178467698395252
1763701332779668000,7.66666796875,-8.40748119354248,-3.9451663494110107,-0.7734799385070801
1763701332789841700,7.676841552734375,-7.216753005981445,0.11276176571846008,-1.0274182558059692
1763701332799921200,7.686921142578125,-3.9110686779022217,2.7478578090667725,-1.0707881450653076
1763701332810001000,7.6970009765625,0.4414757788181305,2.9563324451446533,-1.669592022895813
1763701332820047000,7.707047119140625,2.1592233180999756,0.6732804775238037,-2.4170498847961426
1763701332830126600,7.717126708984375,-0.6293123364448547,-2.2947168350219727,-1.815554141998291
1763701332840206000,7.7272060546875,-2.723032236099243,-3.5401811599731445,-0.9795617461204529
1763701332850277600,7.737277587890625,-2.42093825340271,-3.466003656387329,-1.329512119293213
1763701332860357000,7.747357177734375,-0.8306085467338562,-3.9571304321289062,-2.1272194385528564
1763701332870436600,7.7574365234375,0.966102123260498,-5.801697731018066,-2.1149561405181885
1763701332880536600,7.76753662109375,1.4404792785644531,-8.426922798156738,-1.7389838695526123
1763701332890616000,7.777615966796875,-0.1501496136188507,-10.290633201599121,-1.3175479173660278
1763701332900695600,7.787695556640625,-0.9861420392990112,-9.63200855255127,0.08644071966409683
1763701332910713300,7.79771337890625,0.3409772217273712,-7.641180038452148,2.148754835128784
1763701332920793000,7.80779296875,2.5471596717834473,-6.776473522186279,4.187439441680908
1763701332930872600,7.81787255859375,4.597808837890625,-6.422036647796631,5.035396099090576
1763701332941002200,7.828002197265625,4.84187650680542,-6.563213348388672,5.186442852020264
1763701332951082000,7.83808203125,5.270790100097656,-4.833800792694092,4.657031059265137
1763701332961161500,7.848161376953125,6.061318874359131,-2.6419754028320312,2.7116663455963135
1763701332971210500,7.85821044921875,6.274579048156738,-1.5855441093444824,0.49351966381073
1763701332981290000,7.8682900390625,6.070889949798584,-0.7423732280731201,-1.9283159971237183
1763701332991369700,7.87836962890625,5.4266228675842285,-0.9628120064735413,-5.0566325187683105
1763701333001461000,7.8884609375,4.839483737945557,-2.383251428604126,-7.447361469268799
1763701333011540500,7.89854052734375,4.650450706481934,-6.45314359664917,-8.012665748596191
1763701333021620000,7.908619873046875,4.561617374420166,-12.456137657165527,-7.646264553070068
1763701333031681000,7.918680908203125,3.299403429031372,-16.607685089111328,-6.843771934509277
1763701333041760500,7.928760498046875,1.8475581407546997,-20.9674072265625,-5.435296535491943
1763701333051840000,7.938840087890625,2.015354871749878,-23.24776840209961,-3.82791805267334
1763701333062522000,7.949522216796875,3.026322364807129,-23.413171768188477,-1.1473584175109863
1763701333072601600,7.9596015625,7.2110700607299805,-21.10140609741211,1.6217355728149414
1763701333082681000,7.96968115234375,16.43360710144043,-15.718750953674316,3.928715705871582
1763701333092780300,7.9797802734375,24.6741886138916,-12.794123649597168,8.609375953674316
1763701333102859800,7.98985986328125,17.482858657836914,-12.058629989624023,13.05553913116455
1763701333112939300,7.999939208984375,0.03439682722091675,-13.514961242675781,15.68824291229248
1763701333123000600,8.01000048828125,-8.764310836791992,-16.365711212158203,14.873785972595215
1763701333133080000,8.020080078125,11.812767028808594,-25.487749099731445,11.191829681396484
1763701333143159600,8.03015966796875,33.66432189941406,-38.98386764526367,-13.50568962097168
1763701333162692600,8.049692626953124,-14.913566589355469,-15.591931343078613,-15.961024284362793
1763701333172772400,8.0597724609375,-11.818449974060059,-4.661218643188477,-8.616554260253906
1763701333182907400,8.069907470703125,-9.437292098999023,0.6972087025642395,-9.268000602722168
1763701333192987000,8.07998681640625,-8.09850788116455,5.60817813873291,-8.963812828063965
1763701333203066400,8.09006640625,-2.334796667098999,6.891927242279053,-8.055736541748047
1763701333213135000,8.100135009765625,0.4630111753940582,-1.731805443763733,-7.315756320953369
1763701333223214600,8.110214599609375,-2.0330018997192383,-10.412965774536133,-5.37069034576416
1763701333233294000,8.120294189453125,-2.986541748046875,-17.992231369018555,-2.227717876434326
1763701333243378400,8.13037841796875,1.1721839904785156,-25.015764236450195,1.6914265155792236
1763701333253458000,8.1404580078125,6.926024913787842,-27.58356285095215,4.098905086517334
1763701333263537400,8.150537353515626,7.706982612609863,-23.34856605529785,4.232903480529785
1763701333273581000,8.1605810546875,4.535296440124512,-15.49621868133545,4.779065132141113
1763701333283660500,8.17066064453125,5.48883581161499,-9.459425926208496,5.804389476776123
1763701333293740300,8.180740234375,9.10110092163086,-6.788437843322754,6.156433582305908
1763701333303849200,8.19084912109375,11.111071586608887,-6.474678993225098,5.224728107452393
1763701333313929000,8.200928955078124,10.73719310760498,-7.09501838684082,3.66520619392395
1763701333324008400,8.211008544921874,9.041280746459961,-7.710870742797852,2.536990165710449
1763701333334071600,8.221071533203125,7.8194451332092285,-8.110771179199219,2.115255117416382
1763701333344151000,8.231151123046875,6.355935096740723,-8.108378410339355,2.326122760772705
1763701333354230800,8.241230712890625,4.133002758026123,-7.490432262420654,2.7044878005981445
1763701333364282000,8.2512822265625,0.9589236974716187,-6.249454498291016,2.8579275608062744
1763701333374361600,8.261361572265624,-1.7240287065505981,-4.3187456130981445,2.644667148590088
1763701333384441300,8.27144140625,-2.4379870891571045,-2.1053848266601562,2.038684844970703
1763701333394523400,8.2815234375,-2.5336999893188477,-0.27038896083831787,0.8793623447418213
1763701333404603000,8.291602783203125,-4.42612361907959,0.7166503667831421,-0.4453641176223755
1763701333414682600,8.3016826171875,-5.123033046722412,1.0734800100326538,-0.5772684812545776
1763701333424772600,8.311772705078125,-4.830809593200684,0.776470959186554,-0.768694281578064
1763701333434852000,8.32185205078125,-3.8321053981781006,-0.5769693851470947,-1.815554141998291
1763701333444931600,8.331931640625,-3.142075300216675,-2.742473840713501,-2.4098715782165527
1763701333455023900,8.34202392578125,-3.448655605316162,-4.805087089538574,-2.632404088973999
1763701333465103000,8.35210302734375,-1.817348837852478,-6.393322944641113,-3.571586847305298
1763701333475182600,8.3621826171875,2.5734808444976807,-7.6869425773620605,-3.5285160541534424
1763701333485257700,8.3722578125,5.158327579498291,-9.200701713562012,-1.2861422300338745
1763701333495337000,8.3823369140625,3.9173498153686523,-11.102697372436523,0.8865407705307007
1763701333505416400,8.39241650390625,3.0933215618133545,-11.852547645568848,2.4939193725585938
1763701333515491000,8.402490966796876,3.1962127685546875,-10.082457542419434,4.680959224700928
1763701333525570300,8.4125703125,3.788137435913086,-8.326424598693848,3.152543783187866
1763701333535649800,8.42264990234375,3.8886358737945557,-7.234101295471191,0.6230311989784241
1763701333545730600,8.43273046875,3.385545015335083,-5.3679986000061035,1.5643078088760376
1763701333555810000,8.44281005859375,3.292224884033203,-2.7400810718536377,3.5285160541534424
1763701333565889300,8.45288916015625,3.6921253204345703,-1.084846019744873,4.417449474334717
1763701333575965700,8.462965576171875,4.1282172203063965,-0.4980062246322632,3.66520619392395
1763701333586045200,8.473045166015625,4.619344234466553,-0.9197412133216858,1.3992030620574951
1763701333596124400,8.48312451171875,4.6648077964782715,-2.7400810718536377,-1.4898312091827393
1763701333606210000,8.4932099609375,4.051646709442139,-6.326323986053467,-4.045963764190674
1763701333616289300,8.503289306640625,3.6610186100006104,-10.827223777770996,-5.9407806396484375
1763701333626368500,8.513368408203124,3.570091485977173,-13.778470993041992,-5.859125137329102
1763701333636474600,8.523474609375,2.966202735900879,-17.187345504760742,-4.225425720214844
1763701333646553900,8.533553955078125,2.8298118114471436,-21.300308227539062,-2.5127627849578857
1763701333656633000,8.543633056640624,3.28983211517334,-23.384456634521484,-0.20338992774486542
1763701333666681600,8.553681640625,5.61326265335083,-21.89672088623047,1.6289139986038208
1763701333676760800,8.5637607421875,10.883454322814941,-16.47099494934082,2.0003998279571533
1763701333686840000,8.573840087890625,16.43360710144043,-12.15673542022705,3.0687949657440186
1763701333696912600,8.58391259765625,20.273788452148438,-13.28255844116211,5.912066459655762
1763701333706991900,8.593991943359375,18.5201473236084,-17.357236862182617,8.525627136230469
1763701333717071400,8.6040712890625,11.000702857971191,-15.572789192199707,8.01057243347168
1763701333727150300,8.614150390625,-7.278966426849365,-13.040584564208984,5.996114253997803
1763701333737229800,8.624229736328125,-16.872989654541016,-14.444573402404785,4.649852752685547
1763701333747309000,8.63430908203125,1.775773525238037,-24.119951248168945,2.340479612350464
1763701333757418200,8.644418212890624,34.0023078918457,-41.37937927246094,-20.61297035217285
1763701333767497500,8.65449755859375,20.570796966552734,-34.7557487487793,-30.903902053833008
1763701333777576700,8.66457666015625,-4.723132610321045,-16.181163787841797,-6.968198776245117
1763701333787644700,8.674644775390625,-13.188640594482422,-4.996811866760254,0.26590242981910706
1763701333797724000,8.684723876953125,-16.26461410522461,-0.8309076428413391,-2.4457638263702393
1763701333807803100,8.69480322265625,-12.048460006713867,4.673780918121338,-3.5285160541534424
1763701333817871000,8.70487109375,-2.7876384258270264,7.984251022338867,-6.228218078613281
1763701333827950300,8.714950439453125,-0.21236300468444824,0.2877369225025177,-7.557730197906494
1763701333838029800,8.72502978515625,-5.211866855621338,-9.001798629760742,-4.280460834503174
1763701333848112000,8.735112060546875,-6.107679843902588,-16.23619842529297,0.004785645287483931
1763701333858191400,8.74519140625,-2.0880367755889893,-21.415464401245117,4.342973232269287
1763701333868270600,8.7552705078125,3.282653570175171,-21.480070114135742,6.201897144317627
1763701333878361900,8.76536181640625,4.746163845062256,-15.064911842346191,5.401797294616699
1763701333888441300,8.77544140625,2.2860429286956787,-8.927620887756348,4.872385025024414
1763701333898520600,8.7855205078125,1.8714864253997803,-6.089135646820068,4.59930419921875
1763701333908586800,8.795586669921875,2.1445672512054443,-4.819443702697754,4.163511276245117
1763701333918666200,8.805666259765625,1.9722840785980225,-3.7103705406188965,3.7776687145233154
1763701333928745500,8.815745361328124,2.2046868801116943,-2.991626501083374,3.0855448246002197
1763701333938860300,8.8258603515625,1.9914265871047974,-2.819343328475952,1.8852450847625732
1763701333948939500,8.835939453125,1.9124635457992554,-3.3293135166168213,0.3930211067199707
1763701333959019000,8.84601904296875,2.746062994003296,-4.692624092102051,-1.4300106763839722
1763701333969065700,8.856065673828125,3.6370904445648193,-6.529714107513428,-3.253042459487915
1763701333979145000,8.86614501953125,3.2970104217529297,-8.240283012390137,-4.563411712646484
1763701333989224400,8.876224365234375,1.8885352611541748,-9.112167358398438,-5.0327043533325195
1763701333999308800,8.886308837890626,1.2296117544174194,-8.989834785461426,-4.958526611328125
1763701334009388300,8.89638818359375,1.2798609733581543,-8.139485359191895,-4.536791801452637
1763701334019467500,8.906467529296876,1.1291131973266602,-7.372884750366211,-3.7848472595214844
1763701334029519400,8.916519287109375,1.0450652837753296,-7.428218841552734,-2.74755859375
1763701334039598800,8.926598876953125,0.7073782086372375,-8.070093154907227,-1.8442680835723877
1763701334049678000,8.936677978515625,0.1899302899837494,-8.549256324768066,-1.5089738368988037
1763701334059825700,8.94682568359375,0.6379863619804382,-8.494221687316895,-1.3821542263031006
1763701334069905000,8.95690478515625,1.0067801475524902,-8.017451286315918,-1.475474238395691
1763701334079984000,8.966984130859375,1.3037892580032349,-7.511967658996582,-1.815554141998291
1763701334089994200,8.976994140625,3.2057840824127197,-7.222136974334717,-1.858924150466919
1763701334100073700,8.98707373046875,5.2013983726501465,-7.179066181182861,-1.3845469951629639
1763701334110153000,8.997153076171875,5.277968406677246,-7.16231632232666,-0.8168498277664185
1763701334120252000,9.007251953125,5.658726215362549,-6.934699058532715,-0.6825526356697083
1763701334130331400,9.017331298828125,6.684051036834717,-7.073482990264893,-0.9556335210800171
1763701334140410600,9.02741064453125,7.208677291870117,-9.164810180664062,-1.5329020023345947
1763701334150497800,9.037497802734375,9.014959335327148,-13.60618782043457,-1.7748762369155884
1763701334160577000,9.047576904296875,9.192327499389648,-18.672391891479492,-1.5930216312408447
1763701334170656500,9.057656494140625,7.6854472160339355,-22.49582290649414,-2.1415762901306152
1763701334180722000,9.067721923828126,5.548656463623047,-25.854148864746094,-2.9368906021118164
1763701334190801400,9.077801513671876,1.186540961265564,-29.088048934936523,-3.681656837463379
1763701334200880600,9.087880615234376,-4.006781578063965,-29.169404983520508,-4.194318771362305
1763701334210966800,9.097966796875,-5.956932067871094,-26.810081481933594,-1.9785652160644531
1763701334221046000,9.1080458984375,-3.448655605316162,-24.4815673828125,1.6890336275100708
1763701334231125500,9.11812548828125,1.0546365976333618,-22.045373916625977,3.6532418727874756
1763701334241197300,9.128197265625,5.079065322875977,-19.65943145751953,2.675773859024048
1763701334251276800,9.13827685546875,6.200102806091309,-18.449859619140625,-0.5150550603866577
1763701334261356000,9.14835595703125,6.535696029663086,-17.644973754882812,-4.127319812774658
1763701334271443000,9.15844287109375,5.098207950592041,-17.053049087524414,-6.738487720489502
1763701334281522200,9.168522216796875,2.0991036891937256,-16.674684524536133,-7.287042140960693
1763701334291601400,9.178601318359375,-0.19800607860088348,-15.520146369934082,-5.67966365814209
1763701334301662700,9.188662841796875,-1.5801602602005005,-13.543675422668457,-1.9905292987823486
1763701334311742200,9.1987421875,-2.746960401535034,-11.337492942810059,2.3045873641967773
1763701334321821400,9.208821533203125,-3.8847475051879883,-9.260522842407227,4.8436713218688965
1763701334332471000,9.219470947265625,-4.138685703277588,-7.21735143661499,5.868995666503906
1763701334342550500,9.229550537109375,-3.750450372695923,-5.519045352935791,5.988935947418213
1763701334352629800,9.239629638671875,-3.5422747135162354,-4.4243292808532715,5.282155990600586
1763701334362724000,9.24972412109375,-3.3816566467285156,-3.154637575149536,4.625924587249756
1763701334372803600,9.259803466796875,-3.360121250152588,-1.6980067491531372,4.510769844055176
1763701334382882800,9.2698828125,-3.789034605026245,-0.4549354016780853,4.304687976837158
1763701334392964400,9.27996435546875,-4.210470676422119,0.06969095766544342,3.727419376373291
1763701334403043600,9.290043701171875,-4.289433479309082,0.22791635990142822,3.313162088394165
1763701334413122800,9.300122802734375,-3.779463291168213,0.3690928816795349,4.201796531677246
1763701334423207000,9.31020703125,-2.885744094848633,0.357128769159317,5.282155990600586
1763701334433286400,9.320286376953124,-2.0569300651550293,-0.47168517112731934,5.227120876312256
1763701334443365600,9.33036572265625,-0.42323049902915955,-1.5448660850524902,4.266402721405029
1763701334452887000,9.339886962890626,2.8824539184570312,-2.2636101245880127,3.0424740314483643
1763701334462966300,9.34996630859375,6.298507213592529,-2.960519790649414,1.8756738901138306
1763701334473045500,9.36004541015625,9.28564739227295,-4.337888240814209,0.8120641708374023
1763701334483096800,9.370096923828125,11.726625442504883,-7.119245529174805,0.6469594240188599
1763701334493176000,9.380176025390625,10.097711563110352,-11.280064582824707,2.179861545562744
1763701334503255300,9.39025537109375,6.81595516204834,-14.962020874023438,4.010071754455566
1763701334513346300,9.40034619140625,5.385645389556885,-17.71915054321289,5.207978248596191
1763701334523425300,9.41042529296875,4.267001152038574,-18.349061965942383,5.782854080200195
1763701334533504500,9.42050439453125,3.6993038654327393,-15.527325630187988,6.683452606201172
1763701334543577600,9.43057763671875,4.183252334594727,-10.491929054260254,7.148258686065674
1763701334553656800,9.44065673828125,4.583152770996094,-5.720042705535889,8.20229721069336
1763701334563736000,9.450736083984374,6.406184196472168,-4.34745979309082,10.025328636169434
1763701334573815300,9.460815185546876,6.389434814453125,-11.526824951171875,9.943673133850098
1763701334583894300,9.470894287109376,0.1133599728345871,-24.354448318481445,6.374479293823242
1763701334593973500,9.480973388671876,-12.56112289428711,-37.81706619262695,-0.064606212079525
1763701334604056600,9.491056640625,-22.289142608642578,-41.09642791748047,-5.049454212188721
1763701334614135800,9.5011357421875,-19.79073715209961,-21.065513610839844,-7.904988765716553
1763701334624215000,9.511215087890625,-15.210575103759766,-5.236393451690674,-5.914459228515625
1763701334634306000,9.52130615234375,-9.214759826660156,3.500101327896118,-3.2338998317718506
1763701334644385300,9.53138525390625,1.1410772800445557,4.820042133331299,-5.5381879806518555
1763701334654464500,9.541464599609375,8.164609909057617,-0.2967100143432617,-10.805987358093262
1763701334664530000,9.551530029296876,6.75374174118042,-6.2327046394348145,-12.135499000549316
1763701334674609200,9.561609130859376,2.8274190425872803,-11.5914306640625,-9.356534957885742
1763701334684688400,9.5716884765625,1.4691931009292603,-17.093727111816406,-5.015954494476318
1763701334694764300,9.581764404296875,4.4012980461120605,-19.726428985595703,1.1787642240524292
1763701334704843500,9.591843505859375,7.429116249084473,-18.346668243408203,7.117151737213135
1763701334714922800,9.6019228515625,6.379863262176514,-14.652748107910156,9.898209571838379
1763701334725013800,9.612013671875,4.305285930633545,-10.525428771972656,9.213264465332031
1763701334735093000,9.622093017578125,3.6466617584228516,-7.650751113891602,7.165008068084717
1763701334745172200,9.632172119140625,2.108675003051758,-6.32153844833374,4.690530776977539
1763701334755242500,9.642242431640625,0.247358039021492,-5.9045891761779785,2.1583259105682373
1763701334765321500,9.652321533203125,-0.49262237548828125,-5.7032928466796875,0.22761724889278412
1763701334775400700,9.662400634765625,-0.4615156650543213,-5.914160251617432,-1.5906288623809814
1763701334785486000,9.672486083984374,0.046360939741134644,-6.632904529571533,-2.9512476921081543
1763701334795565300,9.6825654296875,0.6906284093856812,-7.3776702880859375,-3.2554352283477783
1763701334805644500,9.69264453125,0.906281590461731,-8.015058517456055,-3.168994426727295
1763701334815715000,9.702715087890626,0.8105686902999878,-8.635397911071777,-2.939283609390259
1763701334825794300,9.712794189453126,0.906281590461731,-9.040383338928223,-2.5247271060943604
1763701334835873300,9.722873291015626,1.0091729164123535,-9.27009391784668,-1.8346967697143555
1763701334845952500,9.732952392578126,0.9254241585731506,-9.60090160369873,-0.8120641708374023
1763701334856031700,9.74303173828125,0.5494518876075745,-10.022337913513184,0.1941177397966385
1763701334866111000,9.753111083984376,0.07986045628786087,-10.448858261108398,0.8745766878128052
1763701334876194000,9.763194091796874,-0.09032905846834183,-10.760224342346191,1.1979068517684937
1763701334886273300,9.773273193359374,0.22103698551654816,-10.843973159790039,1.2888340950012207
1763701334896352500,9.7833525390625,0.997208833694458,-10.616355895996094,1.1787642240524292
1763701334906429000,9.793428955078125,1.8212370872497559,-10.123135566711426,0.8192426562309265
1763701334916508200,9.803508056640625,2.1062822341918945,-9.758828163146973,0.15104693174362183
1763701334926587100,9.813587158203125,1.7829519510269165,-9.787542343139648,-0.7280163168907166
1763701334936692700,9.823692626953125,1.241575837135315,-10.024730682373047,-1.35822594165802
1763701334946771700,9.833771728515625,0.9278169870376587,-10.230812072753906,-1.7102699279785156
1763701334956851000,9.843850830078125,0.9852447509765625,-10.652546882629395,-2.0527427196502686
1763701334966908200,9.853908203125,1.2702897787094116,-11.126625061035156,-2.306680917739868
1763701334976987400,9.8639873046875,1.3420743942260742,-11.40927791595459,-2.2779672145843506
1763701334987066600,9.874066650390626,0.8536394834518433,-11.524432182312012,-1.7078771591186523
1763701334997143800,9.884143798828125,0.8823533654212952,-11.217851638793945,-0.9819545745849609
1763701335007223000,9.89422314453125,0.6140581369400024,-11.045269012451172,0.007178467698395252
1763701335017302300,9.90430224609375,0.5228317379951477,-11.677572250366211,1.1404790878295898
1763701335027384300,9.91438427734375,1.4572290182113647,-12.755538940429688,1.4422738552093506
1763701335037463600,9.924463623046876,2.2669003009796143,-13.816756248474121,0.5724828243255615
1763701335047542800,9.934542724609376,2.927917718887329,-14.528322219848633,-1.200000524520874
1763701335057618700,9.94461865234375,3.2105698585510254,-14.830116271972656,-3.3511481285095215
1763701335067697700,9.95469775390625,3.0622148513793945,-15.064911842346191,-4.881956577301025
1763701335077777000,9.96477685546875,2.9688947200775146,-15.670894622802734,-5.013561725616455
1763701335087873300,9.974873291015625,3.5198421478271484,-15.807584762573242,-3.8422749042510986
1763701335097952300,9.9849521484375,3.90777850151062,-14.834901809692383,-2.203789710998535
1763701335108031500,9.995031494140624,2.8776683807373047,-12.94247817993164,-0.8288139700889587
1763701335118117400,10.005117431640626,0.5805585980415344,-11.042876243591309,-0.3161516785621643
1763701335128196400,10.0151962890625,-1.1443674564361572,-9.612865447998047,-0.15074782073497772
1763701335138275600,10.025275634765626,-1.5418751239776611,-8.5731840133667,0.618245542049408
1763701335148345600,10.035345703125,-1.7216359376907349,-8.285746574401855,0.1869392693042755
1763701335158424800,10.0454248046875,-2.248655080795288,-9.155238151550293,-1.8948163986206055
1763701335168504000,10.055504150390625,-2.552842617034912,-11.272886276245117,-4.036392688751221
1763701335178594600,10.065594482421876,-2.746960401535034,-13.864912033081055,-5.195715427398682
1763701335188673800,10.075673828125,-2.6485555171966553,-15.953546524047852,-5.0638108253479
1763701335198752800,10.085752685546876,-2.435594320297241,-17.045869827270508,-4.069892406463623
1763701335208852500,10.0958525390625,-2.193620204925537,-16.760826110839844,-2.812164783477783
1763701335218931700,10.105931640625,-1.817348837852478,-15.115161895751953,-1.5520446300506592
1763701335229011000,10.116010986328124,-1.7096717357635498,-13.23709487915039,-1.0058828592300415
1763701335239052000,10.126052001953125,-1.5466607809066772,-11.835798263549805,-0.8479565382003784
1763701335249131300,10.13613134765625,-1.6689938306808472,-11.102697372436523,-0.7280163168907166
1763701335259210500,10.14621044921875,-1.9516459703445435,-10.68843936920166,-0.5605186820030212
1763701335269300500,10.156300537109376,-1.8966110944747925,-10.374680519104004,-0.43100717663764954
1763701335279379500,10.16637939453125,-1.323829174041748,-10.08724308013916,-0.5051847100257874
1763701335289458700,10.176458740234375,-1.2544373273849487,-10.017552375793457,-0.8120641708374023
1763701335299498800,10.186498779296874,-1.2281162738800049,-10.170991897583008,-0.7929216027259827
1763701335309578000,10.196577880859374,-1.3695918321609497,-10.3890380859375,-0.20817556977272034
1763701335319657000,10.206656982421874,-1.6040884256362915,-10.18774127960205,0.4911268353462219
1763701335329805300,10.216805419921876,-1.7790635824203491,-9.545866966247559,1.1572288274765015
1763701335339884300,10.22688427734375,-1.9923239946365356,-8.723932266235352,1.8421742916107178
1763701335349963500,10.236963623046876,-2.0904297828674316,-7.883154392242432,2.381157636642456
1763701335360013800,10.247013916015625,-1.939681887626648,-6.927520751953125,2.7885355949401855
1763701335370093000,10.257093017578125,-1.5179468393325806,-6.007480144500732,3.001796007156372
1763701335380172300,10.26717236328125,-1.043569803237915,-5.18823766708374,3.0281169414520264
1763701335390235000,10.27723486328125,-0.7728816866874695,-4.53200626373291,3.1310083866119385
1763701335400314000,10.287314208984375,-0.6197410821914673,-4.11505651473999,3.3658041954040527
1763701335410393300,10.297393310546875,-0.4088735580444336,-3.6720855236053467,3.6771702766418457
1763701335420469500,10.307469482421874,0.15164513885974884,-3.233600616455078,3.833002805709839
1763701335430548700,10.317548828125,1.0211371183395386,-2.7568306922912598,3.562314748764038
1763701335440628000,10.3276279296875,1.7494524717330933,-2.517249345779419,3.463909864425659
1763701335450714600,10.337714599609376,2.2669003009796143,-2.8289146423339844,3.799204111099243
1763701335460793900,10.3477939453125,2.8441689014434814,-3.403790235519409,4.235296249389648
1763701335470873000,10.357873046875,3.323331594467163,-4.397708892822266,4.393521308898926
1763701335480967000,10.367966796875,3.665804386138916,-6.129813194274902,3.895216226577759
1763701335491046000,10.3780458984375,4.137788772583008,-8.654540061950684,2.9512476921081543
1763701335501125000,10.388125,4.952245712280273,-11.835798263549805,2.3213369846343994
1763701335511204400,10.398204345703125,6.559624195098877,-15.41217041015625,1.918744683265686
1763701335521276200,10.408276123046875,9.158528327941895,-18.50010871887207,0.8001000881195068
1763701335531355400,10.41835546875,11.968599319458008,-19.95404624938965,-1.4778671264648438
1763701335541435000,10.428434814453125,12.696915626525879,-18.89522361755371,-4.232604026794434
1763701335551516000,10.438515869140625,11.213963508605957,-15.706787109375,-5.727519989013672
1763701335561595400,10.448595458984375,9.57787036895752,-11.89322566986084,-5.406582832336426
1763701335571674600,10.458674560546875,7.867600917816162,-8.66889762878418,-4.512863636016846
1763701335581707000,10.46870703125,4.7365922927856445,-6.896413803100586,-2.754737138748169
1763701335591786500,10.478786376953124,0.07986045628786087,-7.191030025482178,-1.3486546277999878
1763701335601865700,10.48886572265625,-6.493522644042969,-7.887939929962158,-0.22971096634864807
1763701335612557600,10.4995576171875,-11.190932273864746,-10.460822105407715,1.4111671447753906
1763701335622637000,10.509636962890625,-8.783453941345215,-15.139089584350586,3.157329559326172
1763701335632716300,10.51971630859375,-4.090829372406006,-19.429420471191406,3.8162529468536377
1763701335642819300,10.5298193359375,4.231108665466309,-21.022441864013672,2.4457638263702393
1763701335652898600,10.539898681640626,8.686843872070312,-16.919050216674805,0.8288139700889587
1763701335662977800,10.549977783203126,4.283750534057617,-10.582856178283691,2.0865414142608643
1763701335673028400,10.5600283203125,-1.2185449600219727,-5.406283855438232,4.558626174926758
1763701335683107800,10.57010791015625,-4.993820667266846,-1.2430713176727295,7.629814147949219
1763701335693187000,10.58018701171875,-5.769992828369141,0.7956135272979736,8.528019905090332
1763701335702708000,10.5897080078125,-3.1468608379364014,-0.2967100143432617,5.892923831939697
1763701335712787200,10.599787109375,0.010468599386513233,-3.5090744495391846,2.5226333141326904
1763701335722866700,10.60986669921875,1.3253246545791626,-8.23549747467041,0.3355933725833893
1763701335732945700,10.619945556640625,0.9397810697555542,-13.481461524963379,-0.9771689176559448
1763701335743025000,10.63002490234375,0.5662016868591309,-17.20648765563965,-2.412264347076416
1763701335753104400,10.6401044921875,1.119541883468628,-17.872291564941406,-3.7537405490875244
1763701335763196200,10.650196044921875,1.6369898319244385,-15.709179878234863,-4.201497554779053
1763701335773275400,10.660275390625,1.7446668148040771,-12.719647407531738,-3.964308977127075
1763701335783355000,10.67035498046875,2.0679969787597656,-10.578070640563965,-3.4133615493774414
1763701335793415000,10.680414794921875,2.336292266845703,-9.179166793823242,-2.6805596351623535
1763701335803494100,10.690494140625,1.430907964706421,-8.25703239440918,-1.7126628160476685
1763701335813573600,10.70057373046875,0.21385852992534637,-8.031807899475098,-0.4980062246322632
1763701335823641600,10.7106416015625,-0.3275175988674164,-8.105985641479492,0.6230311989784241
1763701335833721000,10.72072119140625,-0.08075776696205139,-8.273782730102539,1.2409776449203491
1763701335843800300,10.73080029296875,0.4989035129547119,-8.582756042480469,1.3749756813049316
1763701335853877200,10.740877197265625,0.9278169870376587,-8.776873588562012,1.2218350172042847
1763701335863956700,10.750956787109375,1.1338988542556763,-8.74337387084961,0.6972087025642395
1763701335874036000,10.761035888671875,1.2008978128433228,-8.810373306274414,0.08165507018566132
1763701335884115500,10.771115478515625,1.186540961265564,-9.136096000671387,-0.19381862878799438
1763701335894195000,10.78119482421875,1.088435173034668,-9.535996437072754,-0.33529427647590637
1763701335904274200,10.791274169921875,0.9206385016441345,-9.850054740905762,-0.4812564551830292
1763701335914358300,10.801358154296874,1.088435173034668,-9.931410789489746,-0.6394818425178528
1763701335924437800,10.811437744140624,1.7518452405929565,-9.742077827453613,-0.7833502888679504
1763701335934517000,10.82151708984375,2.8680970668792725,-9.277571678161621,-1.0202397108078003
1763701335944600300,10.831600341796875,3.955634832382202,-8.781659126281738,-1.3797613382339478
1763701335954679800,10.8416796875,4.013062477111816,-8.8438720703125,-1.858924150466919
1763701335964759000,10.851759033203125,3.1244282722473145,-9.320642471313477,-2.335394859313965
1763701335974826500,10.861826416015624,2.2836501598358154,-9.976874351501465,-2.460120677947998
1763701335984906000,10.871906005859374,2.1735801696777344,-10.640583038330078,-2.4003002643585205
1763701335994985200,10.881985107421874,2.755634307861328,-11.169995307922363,-1.9618154764175415
1763701336005077000,10.892076904296875,2.6261229515075684,-11.572288513183594,-1.418046474456787
1763701336015156200,10.90215625,2.1445672512054443,-11.658430099487305,-0.9436694383621216
1763701336025235700,10.912235595703125,1.4165509939193726,-12.123235702514648,-0.8862416744232178
1763701336035314200,10.922314208984375,0.7217351198196411,-13.912768363952637,-1.6121642589569092
1763701336045393700,10.9323935546875,0.5566303730010986,-16.466209411621094,-2.956033229827881
1763701336055473000,10.942472900390625,1.1147562265396118,-18.404096603393555,-3.768097400665283
1763701336065546800,10.952546630859375,2.4008984565734863,-18.710676193237305,-2.812164783477783
1763701336075626200,10.962626220703125,4.899603366851807,-17.460426330566406,0.5030909776687622
1763701336085705500,10.97270556640625,6.703193664550781,-15.702001571655273,4.793421745300293
1763701336095782400,10.982782470703125,6.085247039794922,-14.267205238342285,7.1386871337890625
1763701336105862000,10.99286181640625,3.323331594467163,-12.808480262756348,7.119544506072998
1763701336115941000,11.002941162109375,0.08464609831571579,-11.196316719055176,6.348158359527588
1763701336126021600,11.013021728515625,-1.805384635925293,-10.007980346679688,6.010471343994141
1763701336136101000,11.02310107421875,-3.0391838550567627,-10.245169639587402,4.637888431549072
1763701336146180400,11.033180419921875,-4.203291893005371,-11.349456787109375,1.7560327053070068
1763701336156264700,11.0432646484375,-4.23439884185791,-13.016655921936035,-1.2885349988937378
1763701336166344200,11.05334423828125,-3.479762315750122,-14.662320137023926,-3.058924674987793
1763701336176423400,11.06342333984375,-2.631805896759033,-16.13091468811035,-4.297509670257568
1763701336186499800,11.073499755859375,-1.379163146018982,-16.619647979736328,-4.800301551818848
1763701336196579300,11.083579345703125,-0.36340993642807007,-15.594324111938477,-5.464010715484619
1763701336206658600,11.093658447265625,0.5300102233886719,-13.594223976135254,-5.605186939239502
1763701336216741000,11.1037412109375,1.0761719942092896,-11.177173614501953,-4.232604026794434
1763701336226820400,11.1138203125,0.8368897438049316,-8.695218086242676,-2.287538528442383
1763701336236899800,11.12389990234375,0.43190449476242065,-6.472286224365234,-0.6227321028709412
1763701336246971000,11.133970947265626,-0.35383865237236023,-4.742873668670654,0.388235479593277
1763701336257050400,11.14405029296875,-1.007677435874939,-3.3511481285095215,1.5140584707260132
1763701336277213700,11.164213623046875,-0.5934200286865234,-1.3746765851974487,2.4577279090881348
1763701336287293000,11.17429296875,-0.19800607860088348,-1.8370895385742188,2.1104695796966553
1763701336297372400,11.184372314453125,-0.20039889216423035,-2.4287149906158447,2.311765670776367
1763701336307449000,11.194448974609376,-0.09990034252405167,-2.6539394855499268,2.2806591987609863
1763701336317528600,11.204528564453126,-0.13100704550743103,-2.7137598991394043,2.163111686706543
1763701336327608000,11.214608154296876,-0.36340993642807007,-2.4574289321899414,2.060220241546631
1763701336337713000,11.224712890625,-0.6029912829399109,-2.136491537094116,1.8684953451156616
1763701336347792400,11.23479248046875,-0.8377870321273804,-1.7916259765625,1.6408780813217163
1763701336357871600,11.24487158203125,-0.9550353288650513,-1.4321043491363525,1.765604019165039
1763701336367948500,11.254948486328125,-1.1850453615188599,-1.0872387886047363,2.2040886878967285
1763701336378028000,11.265028076171875,-1.5203397274017334,-0.7758727669715881,2.4987051486968994
1763701336388107300,11.275107177734375,-1.446162223815918,-0.6418746709823608,2.278266191482544
1763701336398189800,11.28518994140625,-1.012463092803955,-0.7663014531135559,1.6962121725082397
1763701336408269300,11.295269287109376,-0.12382857501506805,-1.3722838163375854,1.461416482925415
1763701336418348500,11.3053486328125,0.8153542876243591,-2.6826531887054443,1.6408780813217163
1763701336428417300,11.315417236328125,1.3277174234390259,-4.095914363861084,1.9621145725250244
1763701336438496800,11.325496826171875,1.9698911905288696,-5.504688262939453,2.1535403728485107
1763701336448576000,11.335575927734375,2.6668007373809814,-6.798008918762207,2.1272194385528564
1763701336458630700,11.345630615234375,3.1746773719787598,-7.9504523277282715,1.8182461261749268
1763701336468710100,11.355710205078125,3.6442689895629883,-9.382855415344238,1.3701900243759155
1763701336478789400,11.365789306640625,4.434797763824463,-11.244173049926758,0.9248259663581848
1763701336488920800,11.3759208984375,5.7547383308410645,-13.100704193115234,-0.02871387079358101
1763701336499000000,11.386,6.777669906616211,-14.360525131225586,-1.38933265209198
1763701336509079600,11.39607958984375,6.514160633087158,-13.833505630493164,-2.249253273010254
1763701336519134000,11.406134033203125,5.601298809051514,-11.2609224319458,-2.4649064540863037
1763701336529213400,11.41621337890625,5.119743347167969,-8.16819953918457,-2.344966173171997
1763701336539292700,11.426292724609375,4.597808837890625,-6.177670001983643,-1.4515460729599
1763701336549352200,11.436352294921875,4.180859565734863,-4.992026329040527,0.0768694281578064
1763701336559431200,11.44643115234375,5.323431968688965,-4.584648132324219,1.4925230741500854
1763701336569510400,11.456510498046875,7.71176815032959,-5.911767482757568,2.2998015880584717
1763701336579569000,11.46656884765625,8.49990463256836,-9.565009117126465,3.0041887760162354
1763701336589648100,11.476648193359376,4.693521499633789,-13.569995880126953,1.9645073413848877
1763701336609780500,11.496780517578125,0.3577269911766052,-25.660032272338867,2.6638097763061523
1763701336619859700,11.506859619140625,28.796722412109375,-39.95146560668945,-2.6539394855499268
1763701336629939000,11.51693896484375,36.01198196411133,-51.480979919433594,-26.719154357910156
1763701336640074500,11.527074462890624,0.4295116662979126,-30.24019432067871,-15.4722900390625
1763701336650153700,11.53715380859375,-12.810275077819824,-8.798408508300781,5.935994625091553
1763701336660233000,11.54723291015625,-9.097212791442871,-1.906481385231018,3.274876832962036
1763701336670291000,11.557291015625,-13.598411560058594,1.4374881982803345,-1.32711923122406
1763701336680370000,11.567369873046875,-10.927422523498535,7.131508827209473,-3.324826955795288
1763701336690449200,11.57744921875,0.21146570146083832,8.736495018005371,-8.81515884399414
1763701336700549000,11.587549072265626,4.264608383178711,-0.28953152894973755,-9.227322578430176
1763701336710628400,11.59762841796875,0.20907287299633026,-9.684650421142578,-4.917848587036133
1763701336720707600,11.60770751953125,-1.6259230375289917,-18.473787307739258,-1.0226325988769531
1763701336730822700,11.61782275390625,1.68484628200531,-26.778676986694336,2.793321371078491
1763701336740901600,11.627901611328125,8.116753578186035,-28.999515533447266,3.7848472595214844
1763701336750980900,11.63798095703125,9.26171875,-22.493131637573242,1.2026925086975098
1763701336761060000,11.64806005859375,6.600302219390869,-15.08166217803955,0.3044866919517517
1763701336771092700,11.6580927734375,7.733303546905518,-10.506285667419434,2.045863389968872
1763701336781172000,11.668171875,9.83420181274414,-8.108378410339355,4.077070713043213
1763701336791251200,11.678251220703125,10.607980728149414,-7.768298625946045,4.805386066436768
1763701336801364500,11.688364501953124,9.292825698852539,-8.101200103759766,4.470091819763184
1763701336811443700,11.698443603515624,8.09521770477295,-7.856832981109619,4.038785457611084
1763701336821522700,11.708522705078124,6.832705020904541,-7.0423760414123535,4.1419758796691895
1763701336831595300,11.71859521484375,3.8024942874908447,-5.942873954772949,3.8473596572875977
1763701336841674200,11.72867431640625,-0.20757736265659332,-4.740480899810791,2.8100709915161133
1763701336851753500,11.73875341796875,-2.583949327468872,-3.2575290203094482,2.0243279933929443
1763701336862382300,11.74938232421875,-3.1875388622283936,-1.2023934125900269,2.1200408935546875
1763701336872461600,11.759461669921874,-3.36969256401062,1.1715857982635498,2.1969103813171387
1763701336882540800,11.769540771484374,-2.9769704341888428,3.2365918159484863,1.4638092517852783
1763701336892609500,11.779609619140626,-2.5695924758911133,4.491926193237305,0.3930211067199707
1763701336902688500,11.7896884765625,-2.006680965423584,3.104687452316284,-0.8670991063117981
1763701336912767700,11.799767822265625,-2.155035972595215,-0.612861692905426,-1.6241283416748047
1763701336932934400,11.819934326171875,-0.5910272002220154,-7.648358345031738,-3.6720855236053467
1763701336943013600,11.830013671875,1.5290136337280273,-11.124232292175293,-4.850849628448486
1763701336953104100,11.840104248046876,1.9722840785980225,-13.622937202453613,-3.2937204837799072
1763701336963183400,11.850183349609376,1.8188443183898926,-14.923436164855957,0.24197418987751007
1763701336973262600,11.8602626953125,1.6226328611373901,-14.901901245117188,3.751347780227661
1763701336982775600,11.869775634765626,2.079961061477661,-12.460923194885254,2.814856767654419
1763701336992854800,11.879854736328125,2.92073917388916,-10.046265602111816,-1.4587244987487793
1763701337002934000,11.88993408203125,2.9928228855133057,-8.784051895141602,-1.4730814695358276
1763701337013011200,11.90001123046875,4.386941432952881,-6.661618232727051,0.43130627274513245
1763701337023090400,11.91009033203125,5.788238048553467,-4.359423637390137,2.6709883213043213
1763701337033169700,11.920169677734375,5.944070339202881,-2.337787628173828,3.789632797241211
1763701337053338000,11.940338134765625,5.36650276184082,-0.7160521745681763,-0.8001000881195068
1763701337063417300,11.950417236328125,5.119743347167969,-1.084846019744873,-3.7872400283813477
1763701337073487000,11.960487060546875,5.0551371574401855,-2.7472596168518066,-4.66151762008667
1763701337083566300,11.97056640625,4.564010143280029,-6.211169242858887,-3.868596076965332
1763701337093645600,11.9806455078125,3.0311081409454346,-11.196316719055176,-3.7489547729492188
1763701337103713500,11.990713623046876,1.8595223426818848,-15.764513969421387,-4.225425720214844
1763701337113792800,12.000792724609376,2.458625316619873,-19.49402618408203,-3.4830524921417236
1763701337123872000,12.0108720703125,4.015455722808838,-22.184158325195312,-0.5772684812545776
1763701337133950000,12.020949951171875,6.3631134033203125,-22.89333152770996,3.8210387229919434
1763701337144029200,12.031029296875,9.66640567779541,-19.803298950195312,5.85703182220459
1763701337154108400,12.0411083984375,11.83430290222168,-13.380963325500488,4.156332969665527
1763701337164189700,12.051189697265626,11.261819839477539,-8.592327117919922,3.0424740314483643
1763701337174269000,12.06126904296875,10.17428207397461,-5.9045891761779785,2.8674988746643066
1763701337184348200,12.07134814453125,9.946664810180664,-4.349852561950684,2.6733810901641846
1763701337194427100,12.08142724609375,10.296614646911621,-3.8347973823547363,3.1932218074798584
1763701337204506400,12.09150634765625,6.44686222076416,-4.1991047859191895,4.465306282043457
1763701337214585600,12.101585693359375,3.285046339035034,-5.715256690979004,6.518348217010498
1763701337224675800,12.11167578125,-1.2472587823867798,-8.398209571838379,6.503692150115967
1763701337234755000,12.121755126953126,-8.84805965423584,-10.422536849975586,1.5858432054519653
1763701337244834300,12.131834228515626,-12.326326370239258,-12.291032791137695,-3.034996509552002
1763701337254901000,12.14190087890625,0.18514464795589447,-23.966510772705078,-4.8436713218688965
1763701337264980200,12.151980224609375,23.28485679626465,-58.44469451904297,-24.87937355041504
1763701337275059500,12.1620595703125,38.790645599365234,-60.12864303588867,-44.11497497558594
1763701337285156400,12.17215625,16.21586036682129,-25.027729034423828,-8.391329765319824
1763701337295235600,12.182235595703125,-14.714662551879883,-7.229315280914307,13.582558631896973
1763701337305314800,12.192314697265624,-24.026033401489258,-0.9173483848571777,9.931709289550781
1763701337315380000,12.2023798828125,-16.89691734313965,4.530211448669434,6.57338285446167
1763701337325459200,12.212459228515625,-7.501798152923584,8.56181812286377,3.91914439201355
1763701337335538400,12.222538330078125,-2.2127628326416016,12.145369529724121,-1.91395902633667
1763701337345612800,12.23261279296875,0.7001997232437134,4.573282241821289,-3.9260237216949463
1763701337355692000,12.242692138671876,-2.270190477371216,-6.781259536743164,-2.1221346855163574
1763701337365771300,12.252771240234376,-4.483551502227783,-15.522539138793945,-1.3052847385406494
1763701337375852500,12.2628525390625,-2.3706889152526855,-24.62513542175293,0.8288139700889587
1763701337385931800,12.272931884765624,3.153141975402832,-28.465316772460938,3.3777682781219482
1763701337396011000,12.283010986328126,7.275676250457764,-22.196121215820312,2.1945173740386963
1763701337406090200,12.29309033203125,5.929414749145508,-12.98076343536377,0.9583254456520081
1763701337416169500,12.30316943359375,4.3534417152404785,-7.202994346618652,2.1511476039886475
1763701337426248700,12.313248779296876,5.409873008728027,-4.278067588806152,3.1453654766082764
1763701337436332000,12.32333203125,5.242076396942139,-3.2192437648773193,2.872284412384033
1763701337446411300,12.333411376953125,4.125824451446533,-2.6539394855499268,1.4877375364303589
1763701337456490500,12.343490478515625,4.147359848022461,-2.189133644104004,0.06251249462366104
1763701337466575000,12.3535751953125,4.559224605560303,-2.584547519683838,-0.89581298828125
1763701337476654300,12.363654296875,4.700700283050537,-3.7438700199127197,-0.8694919347763062
1763701337486733600,12.373733642578125,4.724628448486328,-4.565505504608154,-0.016749758273363113
1763701337496806100,12.38380615234375,4.878067970275879,-4.646861553192139,0.6349952816963196
1763701337506885400,12.393885498046876,4.444368839263916,-4.587040901184082,0.4911268353462219
1763701337516964600,12.403964599609376,3.8001015186309814,-4.960919380187988,0.16779668629169464
1763701337527040500,12.41404052734375,4.430012226104736,-5.985944747924805,-0.035892341285943985
1763701337537119700,12.42411962890625,5.151148796081543,-7.468896865844727,-0.33768710494041443
1763701337547199000,12.434198974609375,5.653940677642822,-8.805587768554688,-0.9388837814331055
1763701337557280800,12.44428076171875,7.0770721435546875,-9.737292289733887,-1.4300106763839722
1763701337567360000,12.454360107421875,8.073383331298828,-10.48953628540039,-1.2885349988937378
1763701337577439500,12.464439453125,6.897311210632324,-11.474183082580566,-1.42043936252594
1763701337587539200,12.474539306640626,5.146363258361816,-12.288640022277832,-1.7126628160476685
1763701337597618700,12.48461865234375,3.3257243633270264,-12.633505821228027,-1.8924236297607422
1763701337607698000,12.494697998046876,-0.3969094455242157,-12.645469665527344,-2.5654048919677734
1763701337617775600,12.504775634765625,-2.375474691390991,-12.52582836151123,-3.806382656097412
1763701337627855000,12.514855224609375,0.5638088583946228,-13.141382217407227,-4.702195644378662
1763701337637934300,12.524934326171875,4.190430641174316,-15.247065544128418,-4.500899314880371
1763701337648019700,12.535019775390625,3.883850336074829,-17.769399642944336,-4.83888578414917
1763701337658099000,12.545098876953125,7.982456207275391,-20.20319938659668,-3.324826955795288
1763701337668178400,12.555178466796875,10.270294189453125,-21.384057998657227,0.7977072596549988
1763701337678241000,12.565240966796875,12.196216583251953,-19.587646484375,5.420939922332764
1763701337688320300,12.5753203125,9.046066284179688,-16.77757453918457,1.4422738552093506
1763701337698399700,12.585399658203125,3.6370904445648193,-13.965410232543945,-1.7700905799865723
1763701337708496000,12.595495849609375,2.305185556411743,-10.139884948730469,-1.1545369625091553
1763701337718575400,12.605575439453125,2.3386850357055664,-6.148955821990967,0.6589235067367554
1763701337728654600,12.615654541015624,3.6466617584228516,-3.147459030151367,2.192124605178833
1763701337738753300,12.625753173828125,4.691128730773926,-1.3651052713394165,3.6675989627838135
1763701337748832800,12.635832763671875,4.0441694259643555,-0.016450656577944756,4.879563808441162
1763701337758912000,12.645912109375,2.927917718887329,0.7812566161155701,4.316651821136475
1763701337768936700,12.655936767578124,1.7662022113800049,0.6086742877960205,2.678166627883911
1763701337779016000,12.666015869140624,0.5709872841835022,-0.07866404205560684,1.3247264623641968
1763701337789095200,12.67609521484375,-0.25304099917411804,-0.5817549824714661,0.8602197170257568
1763701337799239400,12.686239501953125,-0.3514458239078522,-0.7782655358314514,0.9391828775405884
1763701337809318700,12.696318603515625,0.22821545600891113,-1.0010972023010254,0.7354938387870789
1763701337819398000,12.70639794921875,0.628415048122406,-1.195214867591858,0.3930211067199707
1763701337829402400,12.71640234375,0.37926238775253296,-1.2957134246826172,0.37148571014404297
1763701337839481600,12.726481689453125,-0.06640082597732544,-1.23589289188385,0.9152546525001526
1763701337849561000,12.73656103515625,-0.27008986473083496,-1.1542378664016724,1.334297776222229
1763701337859678700,12.7466787109375,0.05353940650820732,-1.26699960231781,0.9990034699440002
1763701337869758000,12.756758056640624,0.594915509223938,-1.9040886163711548,0.40737804770469666
1763701337879837200,12.766837158203124,1.1267203092575073,-3.279064416885376,0.02153540402650833
1763701337889982000,12.77698193359375,1.8690935373306274,-5.566901683807373,-0.007178467698395252
1763701337900061200,12.787061279296875,2.295614242553711,-8.448458671569824,-0.1698904037475586
1763701337910140400,12.797140380859375,2.6668007373809814,-11.40688419342041,-0.9077770709991455
1763701337920131600,12.807131591796875,3.780958890914917,-15.117554664611816,-2.1077775955200195
1763701337930210800,12.8172109375,4.607379913330078,-19.125232696533203,-3.377469062805176
1763701337940290000,12.8272900390625,4.738985061645508,-22.538894653320312,-3.308077335357666
1763701337950365200,12.837365234375,6.914061069488525,-22.800010681152344,-1.4108680486679077
1763701337960444400,12.8474443359375,11.903993606567383,-17.91087532043457,0.8096713423728943
1763701337970523600,12.857523681640625,15.089737892150879,-12.223734855651855,2.6733810901641846
1763701337980630000,12.867630126953125,14.526825904846191,-9.466604232788086,5.018646240234375
1763701337990709200,12.877709228515625,12.450155258178711,-10.678868293762207,7.886145114898682
1763701338000788500,12.88778857421875,8.751449584960938,-14.765510559082031,10.25503921508789
1763701338010856200,12.897856201171875,-0.9023932218551636,-17.053049087524414,10.228718757629395
1763701338020935400,12.907935302734375,-8.565407752990723,-19.213768005371094,8.992825508117676
1763701338031014700,12.9180146484375,-2.449951171875,-26.544179916381836,7.7231340408325195
1763701338051137500,12.938137451171874,24.269203186035156,-40.59842300415039,-26.2758846282959
1763701338061216800,12.948216796875,-0.25064817070961,-19.803298950195312,-10.103992462158203
1763701338071335000,12.9583349609375,-14.52772331237793,-6.716653347015381,0.620638370513916
1763701338081414100,12.9684140625,-17.718551635742188,-1.8418751955032349,-4.132105827331543
1763701338091493400,12.978493408203125,-18.602401733398438,2.513062000274658,-6.103492259979248
1763701338101584100,12.988584228515625,-8.457730293273926,7.165008068084717,-7.076174736022949
1763701338111663400,12.998663330078125,3.129213809967041,3.5503506660461426,-9.033205032348633
1763701338121742600,13.00874267578125,1.1362916231155396,-5.847161293029785,-7.3660054206848145
1763701338132420000,13.019420166015625,-4.220041751861572,-14.128122329711914,-3.882952928543091
1763701338142499300,13.029499267578124,-3.53031063079834,-22.550857543945312,0.7522436380386353
1763701338152578600,13.03957861328125,1.5146567821502686,-27.751358032226562,5.315655708312988
1763701338162608400,13.0496083984375,4.9139604568481445,-23.86362075805664,6.345765590667725
1763701338172687600,13.0596875,2.688336133956909,-15.242280006408691,4.918148040771484
1763701338182766800,13.069766845703125,1.2678968906402588,-9.054739952087402,3.864109516143799
1763701338192844000,13.079843994140624,2.8944180011749268,-5.487639427185059,3.229114055633545
1763701338202923300,13.08992333984375,3.955634832382202,-3.6888351440429688,3.0209386348724365
1763701338213002800,13.100002685546874,3.378366470336914,-3.370290756225586,3.0759735107421875
1763701338223086600,13.110086669921875,2.6141586303710938,-3.6792638301849365,2.8411777019500732
1763701338233165800,13.120165771484375,2.250150680541992,-4.0217366218566895,2.1774685382843018
1763701338243245300,13.130245361328125,2.0919251441955566,-4.515256404876709,1.1620144844055176
1763701338252779800,13.13977978515625,2.2549362182617188,-5.078167915344238,-0.0023928226437419653
1763701338262859000,13.14985888671875,2.856132984161377,-5.542973518371582,-1.2526426315307617
1763701338272938500,13.1599384765625,3.5437703132629395,-5.8734822273254395,-2.4409782886505127
1763701338283019500,13.17001953125,3.735196113586426,-5.863911151885986,-3.3367912769317627
1763701338293098800,13.1800986328125,3.4669008255004883,-5.7032928466796875,-4.000201225280762
1763701338303178200,13.19017822265625,3.1483564376831055,-5.353641510009766,-4.371686935424805
1763701338313255200,13.200255126953126,3.002394199371338,-4.91037130355835,-4.395615100860596
1763701338323334400,13.21033447265625,3.306581735610962,-4.67078971862793,-4.206283092498779
1763701338333413600,13.22041357421875,3.5533416271209717,-4.781158924102783,-4.0435709953308105
