time,seconds_elapsed,z,y,x
1763694516258049000,0.046049072265625,9.637559507751464,2.5279776779174803,0.5066729263305664
1763694516267999000,0.0559990234375,9.683947164916992,2.492363928222656,0.45444940261840816
1763694516277949000,0.065948974609375,9.553762449645996,2.5975591636657716,0.48497547378540035
1763694516287899600,0.075899658203125,9.380631742095947,2.697367445373535,0.5256769020080566
1763694516297849600,0.085849609375,9.35324806060791,2.7639561790466307,0.5767033248901366
1763694516307799800,0.0957998046875,9.46083749771118,2.7795184898376464,0.5445312400817871
1763694516317749800,0.105749755859375,9.577854103851317,2.8055554328918455,0.49634793167114255
1763694516327700700,0.11570068359375,9.597007717132568,2.790741310119629,0.5397428367614746
1763694516337650700,0.125650634765625,9.50647696685791,2.711433380126953,0.6117185241699218
1763694516347600600,0.1356005859375,9.349207845306395,2.7136779441833494,0.6283282981872558
1763694516357550600,0.145550537109375,9.233388339996337,2.784905443572998,0.6114192489624023
1763694516367501800,0.155501708984375,9.114875357818603,2.8903999542236325,0.5461772537231445
1763694516377451800,0.16545166015625,9.15482859802246,3.0205846694946286,0.45325230178833004
1763694516387401700,0.175401611328125,9.306411490631103,3.105429190826416,0.3725976333618164
1763694516397351700,0.1853515625,9.47370633163452,3.1114146949768067,0.30780455093383785
1763694516407302700,0.195302734375,9.654318919372558,3.026719811248779,0.2663549346923828
1763694516417252900,0.2052529296875,9.742605105590819,2.9273604423522945,0.2305915473937988
1763694516427202800,0.215202880859375,9.747094233703613,2.8075007217407224,0.24361001892089842
1763694516437153800,0.22515380859375,9.701604402160644,2.740014162445068,0.2690484115600586
1763694516447103700,0.235103759765625,9.677812023162842,2.7364228599548337,0.3119944038391113
1763694516457053700,0.2450537109375,9.724349317932129,2.682104409790039,0.3113958534240722
1763694516467004000,0.25500390625,9.762506906890868,2.657114929962158,0.2650081962585449
1763694516476954600,0.26495458984375,9.739761991119384,2.6713305023193357,0.23732523956298826
1763694516486904600,0.274904541015625,9.661800799560547,2.7262475028991697,0.20290859069824219
1763694516496854800,0.284854736328125,9.59610989151001,2.790591672515869,0.20874445724487303
1763694516506804700,0.2948046875,9.515006310272216,2.8185739044189453,0.22954408416748046
1763694516516755700,0.304755615234375,9.364919793701171,2.8681039512634277,0.13257891693115234
1763694516526705700,0.31470556640625,8.794351610565185,2.8721441665649414,0.18614917907714842
1763694516536655600,0.324655517578125,8.174103742980957,2.992153524780273,0.31663316955566406
1763694516546605800,0.334605712890625,7.620145333862304,3.183390382385254,0.3268085266113281
1763694516556556800,0.344556884765625,8.342296409606933,2.958485063934326,0.5428852264404297
1763694516566506800,0.3545068359375,9.132382957458496,3.05170929107666,0.5259761772155761
1763694516576456700,0.364456787109375,9.769240599060058,3.101987525939941,0.5367500846862793
1763694516586406700,0.37440673828125,9.793182615661621,2.9296050064086914,0.4236240562438965
1763694516596358000,0.38435791015625,9.398737892150878,2.8962358207702636,0.31438860549926756
1763694516606307800,0.394307861328125,9.383774131774901,2.990956423950195,0.35658640975952144
1763694516616257800,0.4042578125,9.93967782974243,3.0769980461120605,0.07347206344604491
1763694516626208800,0.414208740234375,9.812186591339112,3.095702746582031,0.13257891693115234
1763694516636158700,0.42415869140625,9.572167874908446,3.112911071014404,0.3354875076293945
1763694516646108700,0.434108642578125,9.578901567077637,3.023577421569824,0.414346524810791
1763694516656059000,0.444058837890625,9.756521402740479,2.89848038482666,0.3929483474731445
1763694516666009600,0.454009521484375,9.911545960235594,2.779817765045166,0.3275567146301269
1763694516675959800,0.463959716796875,9.822361948394775,2.797026089477539,0.2937386161804199
1763694516685909800,0.47390966796875,9.61406640396118,2.8757354690551757,0.31184476623535157
1763694516695859700,0.483859619140625,9.40352629547119,2.9849709197998044,0.3416226493835449
1763694516705810700,0.493810791015625,9.312845907592774,3.0068180099487303,0.35942952423095703
1763694516715760600,0.5037607421875,9.32751039276123,2.9650691184997555,0.4215291297912597
1763694516725710600,0.513710693359375,9.253290141296386,2.9062615402221676,0.5472247169494628
1763694516735660800,0.523660888671875,9.082553635406494,2.882618798828125,0.6866869636535644
1763694516745611800,0.53361181640625,8.866028022766113,2.918980736541748,0.8322843521118164
1763694516755561700,0.543561767578125,8.726865051269531,2.934692684936523,0.8776245460510254
1763694516765511700,0.55351171875,8.763077351379394,2.9713538978576657,0.8429086219787597
1763694516775462700,0.563462646484375,8.962544277191162,2.9343934097290036,0.7981669784545898
1763694516785412900,0.573412841796875,9.254187966918945,2.844161934661865,0.6935702934265137
1763694516795362800,0.58336279296875,9.47430488204956,2.768146031951904,0.6661866119384765
1763694516805312500,0.5933125,9.619154082489013,2.7205612739562985,0.6817489227294922
1763694516815263700,0.603263671875,9.676614922332764,2.6912323036193846,0.6777087074279785
1763694516825213700,0.613213623046875,9.64668740158081,2.68779063873291,0.6908768165588378
1763694516835164000,0.623163818359375,9.587580548095703,2.571073307800293,0.7362170104980469
1763694516845113900,0.63311376953125,9.527725506591796,2.5585037490844726,0.7167641220092773
1763694516855064600,0.643064697265625,9.500790737915038,2.6734254287719725,0.6958148574829102
1763694516865014800,0.653014892578125,9.504830953216553,2.8526912780761715,0.6075286712646484
1763694516874964700,0.66296484375,9.553762449645996,2.9448680419921875,0.4869207626342773
1763694516884914700,0.672914794921875,9.567529109191893,2.899677485656738,0.42796354675292964
1763694516894865700,0.68286572265625,9.534608836364745,2.8063036209106444,0.4332008628845215
1763694516904815600,0.692815673828125,9.472958143615722,2.70036019744873,0.5098153160095215
1763694516914765800,0.702765869140625,9.411756363677977,2.677166368865967,0.5925649108886718
1763694516924716800,0.712716796875,9.358485376739502,2.687192088317871,0.635211627960205
1763694516934666800,0.722666748046875,9.267056800842285,2.6593594940185543,0.6497264755249023
1763694516944616700,0.73261669921875,9.111134417724609,2.7795184898376464,0.6931213806152343
1763694516954566700,0.742566650390625,8.89281315383911,2.9219734886169433,0.7625532287597656
1763694516964518000,0.752517822265625,8.741080623626708,3.0035259826660154,0.7731774986267089
1763694516974467800,0.7624677734375,8.675240077972411,3.0687679779052734,0.7522282341003418
1763694516984417800,0.772417724609375,8.69589006729126,3.0756513076782226,0.7513304084777832
1763694516994367700,0.78236767578125,8.862885633087158,3.014150252532959,0.7221510757446289
1763694517004318700,0.792318603515625,9.131784407043456,2.8803742347717285,0.7023989120483398
1763694517014268700,0.8022685546875,9.414300202941893,2.6699837638854977,0.7179612228393554
1763694517024219000,0.812218994140625,9.66628992767334,2.4129063606262204,0.7558195365905761
1763694517034168800,0.8221689453125,9.803806885528564,2.230647759246826,0.719457598876953
1763694517044119800,0.832119873046875,9.87054525680542,2.2363339881896973,0.6839934867858887
1763694517054069800,0.84206982421875,9.95239702606201,2.309357138824463,0.6540659660339355
1763694517064019700,0.852019775390625,10.058041174316406,2.3720552947998046,0.5374982727050781
1763694517073970000,0.861969970703125,10.04232922592163,2.428468671417236,0.47704468078613277
1763694517083920600,0.871920654296875,10.135852728271484,2.4919150154113767,0.43499651412963863
1763694517093870600,0.88187060546875,10.060285738372801,2.571522220611572,0.35449148330688474
1763694517103820800,0.89182080078125,9.994744467926024,2.7492916938781735,0.3676595924377441
1763694517113771800,0.901771728515625,9.892392346954345,2.8254572341918944,0.3586813362121582
1763694517123721700,0.9117216796875,9.610175826263427,2.8718448913574215,0.2985270195007324
1763694517133671700,0.921671630859375,9.344868354797363,2.8508956268310546,0.364517202758789
1763694517143621600,0.93162158203125,9.145551066589356,2.8624177223205565,0.41748891448974607
1763694517153572900,0.94157275390625,9.172186560058593,2.974496287536621,0.34536358947753903
1763694517163522800,0.951522705078125,9.419687156677245,3.0916625312805173,0.26979659957885743
1763694517173472800,0.96147265625,9.713874685668944,3.0672716018676756,0.18435352783203124
1763694517183422700,0.971422607421875,9.794379716491699,2.9421745651245117,0.20545242996215818
1763694517193373700,0.981373779296875,9.648483052825927,2.7684453071594235,0.35793314819335936
1763694517203324000,0.991323974609375,9.439289682769775,2.61746096496582,0.5398924743652344
1763694517213273900,1.00127392578125,9.17413184890747,2.5553613594055173,0.6420949577331543
1763694517223223800,1.011223876953125,9.007136283111572,2.6464906600952145,0.7683890953063964
1763694517233174800,1.0211748046875,9.070432989501953,2.6452935592651365,0.7547720733642578
1763694517243124700,1.031124755859375,9.1676974319458,2.54099614944458,0.6982090591430664
1763694517253074700,1.04107470703125,9.215581465148926,2.3992893386840817,0.7416039642333984
1763694517263025000,1.05102490234375,9.407117597961426,2.2444144187927244,0.6714239280700683
1763694517272975600,1.0609755859375,9.57695627822876,2.134281142425537,0.5361515342712402
1763694517282925800,1.07092578125,9.86336265182495,2.176329309082031,0.7564180870056152
1763694517292875500,1.08087548828125,9.90226842880249,2.072929724884033,0.5943605621337891
1763694517302826500,1.090826416015625,9.95239702606201,2.0905869621276856,0.5966051261901855
1763694517312776400,1.1007763671875,9.980379257965087,2.1933879959106446,0.591816722869873
1763694517322726400,1.110726318359375,9.982923097229003,2.3876176055908203,0.5204395858764648
1763694517332676400,1.12067626953125,9.885509017181397,2.5149592063903805,0.45878889312744137
1763694517342627600,1.130627685546875,9.818172095489501,2.5565584602355957,0.5159504577636719
1763694517352577500,1.14057763671875,9.757868141174315,2.5851392425537107,0.5168482833862305
1763694517362527500,1.150527587890625,9.752481187438963,2.6255413955688476,0.4740519287109375
1763694517372477400,1.1604775390625,9.689334118652344,2.618957341003418,0.49155952835083006
1763694517382428400,1.170428466796875,9.649380878448486,2.5399486862182616,0.5807435401916503
1763694517392378600,1.180378662109375,9.65865840988159,2.4009353523254395,0.7176619476318359
1763694517402328600,1.19032861328125,9.519345800781249,2.2943933784484862,0.7826046676635742
1763694517412278500,1.200278564453125,9.305064752197264,2.228702470397949,0.9180266990661621
1763694517422229500,1.2102294921875,9.18041662826538,2.2417209419250486,1.0537480056762694
1763694517432179500,1.220179443359375,9.100809423065185,2.2936451904296873,1.0904092185974121
1763694517442129700,1.230129638671875,9.07821414489746,2.320729596710205,1.1438298431396483
1763694517452079600,1.24007958984375,8.99591346282959,2.2750901275634763,1.2102689392089843
1763694517462030300,1.2500302734375,8.927080165100097,2.232443410491943,1.3208511283874511
1763694517471980500,1.25998046875,8.89311242904663,2.168248878479004,1.3919289901733398
1763694517481930500,1.269930419921875,8.832958112335204,2.1006126815795896,1.4252981758117675
1763694517491881700,1.2798818359375,8.788964656829833,2.080561242675781,1.5116390731811522
1763694517501831400,1.28983154296875,8.697536080932617,2.0965724662780763,1.4423568626403809
1763694517511781400,1.299781494140625,8.73389801864624,2.1356278808593747,1.349581548309326
1763694517521731600,1.309731689453125,8.796895449829101,2.1658546768188476,1.234809506225586
1763694517531682600,1.3196826171875,8.956409135437012,2.196979298400879,1.1100117446899413
1763694517541632500,1.329632568359375,9.170540546417236,2.2349872497558594,1.0139444030761717
1763694517551582500,1.33958251953125,9.417592230224608,2.263418394470215,0.9464578437805176
1763694517561532400,1.349532470703125,9.616909518432617,2.2849662094116208,0.8961796089172362
1763694517571483600,1.359483642578125,9.694421797180174,2.2601263671875,0.8936357696533203
1763694517581433600,1.36943359375,9.580098667907714,2.2954408416748047,0.8488941261291504
1763694517591383600,1.379383544921875,9.361627766418456,2.3548469703674315,0.8705915786743164
1763694517601333500,1.38933349609375,9.134028971099854,2.3900118072509766,0.8785223716735839
1763694517611284500,1.399284423828125,9.003993893432616,2.468272274017334,0.8774749084472656
1763694517621234400,1.409234375,8.996512013244628,2.563890702819824,0.8586205703735351
1763694517631184600,1.4191845703125,8.947879792022704,2.59830735168457,0.879120922088623
1763694517641135400,1.42913525390625,8.89999575881958,2.5840917793273923,0.9018658378601073
1763694517651085600,1.43908544921875,8.954463846588133,2.5635914276123044,0.8768763580322265
1763694517661035500,1.449035400390625,9.008931934356688,2.531269705200195,0.888697728729248
1763694517670985500,1.4589853515625,9.076418493652342,2.4691700996398924,0.97039986038208
1763694517680936400,1.4689365234375,9.188197783660888,2.4302643226623535,1.0422259101867675
1763694517690886400,1.478886474609375,9.279626359558105,2.392854921722412,1.0395324333190918
1763694517700836400,1.48883642578125,9.318083223724365,2.415300562286377,1.064821188354492
1763694517710786600,1.49878662109375,9.294739757537842,2.4160487503051757,1.0640730003356933
1763694517720737500,1.508737548828125,9.248651375579833,2.381781739044189,1.0215759208679198
1763694517730687700,1.518687744140625,9.24446152267456,2.3689129051208493,1.000477018737793
1763694517740637400,1.528637451171875,9.362525592041015,2.3540987823486326,0.943614729309082
1763694517750587400,1.53858740234375,9.579350479888916,2.3427263244628906,0.8777741836547851
1763694517760538600,1.54853857421875,9.820117384338378,2.3693618179321287,0.7845499565124511
1763694517770488600,1.558488525390625,10.021230323791503,2.357839722442627,0.7128735443115234
1763694517780438500,1.5684384765625,10.105476294708252,2.3198317710876464,0.6781576202392577
1763694517790388500,1.578388427734375,10.072556021881104,2.2897546127319335,0.6884826148986816
1763694517800339500,1.58833935546875,9.916633638763427,2.3069629371643066,0.7104793426513671
1763694517810289700,1.59828955078125,9.736918876647948,2.3738509460449215,0.7205050621032715
1763694517820239600,1.608239501953125,9.592817864227294,2.43250888671875,0.7052420265197753
1763694517830190300,1.6181904296875,9.462034598541258,2.4953566802978515,0.729034405517578
1763694517840140500,1.628140625,9.381230292510987,2.5344120948791504,0.7634510543823242
1763694517850090500,1.638090576171875,9.297582872009277,2.4947581298828125,0.8467991996765136
1763694517860040400,1.64804052734375,9.280374547576903,2.5130139175415036,0.8794201972961425
1763694517869991400,1.657991455078125,9.260622383880614,2.579901926422119,0.9322422714233398
1763694517879941400,1.66794140625,9.154080410003662,2.581697577667236,0.9319429962158202
1763694517889891600,1.6778916015625,9.063848934936523,2.62374574432373,0.9585784896850585
1763694517899841500,1.687841552734375,9.077465956878662,2.631077986907959,0.9401730644226074
1763694517909792500,1.69779248046875,8.996811288452149,2.5878327194213866,0.9714473236083984
1763694517919742500,1.707742431640625,9.050830463409424,2.5152584815979004,0.9944915145874023
1763694517929692400,1.7176923828125,9.208548497772217,2.46423205871582,0.9810241302490234
1763694517939642400,1.727642333984375,9.379285003662108,2.4729110397338867,0.9543886367797851
1763694517949593600,1.737593505859375,9.441683884429931,2.4365491020202636,0.9421183532714843
1763694517959543600,1.74754345703125,9.41744259262085,2.415150924682617,0.9344868354797363
1763694517969493500,1.757493408203125,9.385569783020019,2.3445219757080076,0.9115922821044922
1763694517979443500,1.767443359375,9.387515071868895,2.2583307159423827,0.9379285003662109
1763694517989394400,1.77739453125,9.438391857147217,2.17079271774292,1.0339958419799804
1763694517999344600,1.7873447265625,9.502736026763916,2.0636521934509275,1.1360486877441405
1763694518009294600,1.797294677734375,9.526079492950439,1.976563108062744,1.2469301521301268
1763694518019245600,1.80724560546875,9.47475379486084,1.950376527404785,1.3392565536499024
1763694518029195500,1.817195556640625,9.405022671508789,1.9571102195739745,1.4059949249267578
1763694518039145500,1.8271455078125,9.492710307312011,1.9303250885009764,1.4100351402282714
1763694518049095700,1.837095703125,9.76220763168335,1.8815432296752927,1.3462895210266113
1763694518059046400,1.84704638671875,10.097545501708984,1.8064251525878905,1.2765583976745605
1763694518068996400,1.856996337890625,10.390087017059326,1.7223288192749022,1.2431892120361328
1763694518078946600,1.866946533203125,10.642824929809569,1.6615759521484375,1.2202946586608887
1763694518088896500,1.876896484375,10.83361287460327,1.5723919403076172,1.21296241607666
1763694518098847700,1.88684765625,10.87955161895752,1.4636054023742675,1.197699380493164
1763694518108797400,1.89679736328125,10.831218672943114,1.4787188003540037,1.2147580673217773
1763694518118747400,1.906747314453125,10.645817681884765,1.5945383056640625,1.1924620643615722
1763694518128697600,1.916697509765625,10.351031602478027,1.7395371437072753,1.1468225952148436
1763694518138648600,1.926648681640625,10.035894808959961,1.9011457557678222,1.094898346710205
1763694518148598500,1.9365986328125,9.910797772216796,2.0018518630981443,1.0736498069763183
1763694518158548500,1.946548583984375,9.84450831375122,2.0835539947509765,1.100584575653076
1763694518168499500,1.95649951171875,9.746645320892334,2.13877027053833,1.1029787773132325
1763694518178449700,1.96644970703125,9.734674312591553,2.2150854484558105,1.0844237144470215
1763694518188399600,1.976399658203125,9.869048880767822,2.291400626373291,1.032349828338623
1763694518198349600,1.986349609375,10.034697708129881,2.3222259727478027,0.9280524185180663
1763694518208300500,1.996300537109375,10.153659603118896,2.2896049751281735,0.8586205703735351
1763694518218250500,2.00625048828125,10.160692570495605,2.2373814514160153,0.8684966522216796
1763694518228200400,2.016200439453125,9.970353538513184,2.198774949645996,0.9642647186279296
1763694518238150700,2.026150634765625,9.678260935974121,2.2026655273437497,1.0773907470703123
1763694518248101400,2.036101318359375,9.28935280380249,2.248454634094238,1.1719617126464843
1763694518258051600,2.046051513671875,8.966135579681396,2.3145944549560546,1.1990461189270019
1763694518268001500,2.05600146484375,8.881590333557128,2.409315058135986,1.2482768905639647
1763694518277951500,2.065951416015625,8.878597581481934,2.5354595581054684,1.1020809516906738
1763694518287903200,2.0759033203125,8.87336026535034,2.7353753967285153,0.8931868568420409
1763694518297853400,2.085853515625,9.182212279510498,2.724152576446533,1.087865379333496
1763694518307803400,2.095803466796875,9.316437210083008,2.6517279762268067,1.0781389350891113
1763694518317754400,2.10575439453125,9.43629693069458,2.572120771026611,1.1596914291381835
1763694518327704300,2.115704345703125,9.4105592628479,2.610577635192871,1.3429974937438964
1763694518337654300,2.125654296875,9.12265651321411,2.70065947265625,1.4610615631103514
1763694518347604200,2.135604248046875,8.709806364440917,2.8100445610046383,1.506102481842041
1763694518357555500,2.145555419921875,8.405742753601073,2.9686604209899903,1.5447089836120604
1763694518367505400,2.15550537109375,8.334215979003906,3.133261785125732,1.5815198341369627
1763694518377455400,2.165455322265625,8.403049276733398,3.259256647491455,1.5387234794616698
1763694518387405300,2.1754052734375,8.68212340774536,3.3572692779541016,1.511190160369873
1763694518397356300,2.185356201171875,9.09766703338623,3.3638533325195312,1.5242086318969725
1763694518407306500,2.195306396484375,9.35324806060791,3.2035914588928223,1.5897499023437498
1763694518417256400,2.20525634765625,9.469965391540526,2.9652187561035155,1.6935983993530273
1763694518427206400,2.215206298828125,9.533860648345946,2.718466347503662,1.9045874206542968
1763694518437157400,2.225157470703125,9.471012854766846,2.55371534576416,2.0681413215637208
1763694518447107300,2.235107421875,9.437045118713378,2.484582772827148,2.1646575759887696
1763694518457057300,2.245057373046875,9.375992976379393,2.2945430160522458,2.1293431015014646
1763694518467008300,2.25500830078125,9.393201300811768,2.219724214172363,2.1308394775390624
1763694518476958200,2.264958251953125,9.339032488250732,2.232443410491943,2.092232975769043
1763694518486908400,2.274908447265625,9.268403539276122,2.3030723594665528,2.013972509002685
1763694518496858400,2.2848583984375,9.288155702972412,2.359036823272705,1.994519620513916
1763694518506809300,2.294809326171875,9.384372682189941,2.412158172607422,1.9303250885009764
1763694518516759300,2.30475927734375,9.45560018157959,2.4160487503051757,1.8734627990722654
1763694518526709200,2.314709228515625,9.540743978118895,2.3862708671569823,1.9188029930114745
1763694518536659200,2.3246591796875,9.669432317352294,2.31743756942749,1.95995333404541
1763694518546610400,2.3346103515625,9.598653730773925,2.2444144187927244,1.9505261650085448
1763694518556560400,2.344560302734375,9.420884257507323,2.227655007171631,1.9819500617980956
1763694518566510300,2.35451025390625,9.247903187561034,2.339284659576416,2.0042460647583007
1763694518576460300,2.364460205078125,9.01491743850708,2.5225907241821286,2.0509329971313477
1763694518586411300,2.374411376953125,8.86213744506836,2.627187409210205,2.066794583129883
1763694518596361500,2.384361572265625,8.773402346038818,2.5938182235717773,2.128445275878906
1763694518606311400,2.3943115234375,8.823530943298339,2.602497204589844,2.151040554046631
1763694518616262400,2.404262451171875,8.859593605804443,2.6138696624755857,2.18994633102417
1763694518626212400,2.41421240234375,8.974964198303223,2.594566411590576,2.17707749710083
1763694518636162300,2.424162353515625,8.92543415145874,2.5585037490844726,2.081907981109619
1763694518646112500,2.434112548828125,8.90553235015869,2.4907179145812988,2.058414877319336
1763694518656063200,2.444063232421875,9.089586602783202,2.4896704513549803,1.982847887420654
1763694518666013200,2.45401318359375,9.184456843566894,2.385373041534424,1.8249802154541015
1763694518675963400,2.46396337890625,9.296984321594238,2.365920153045654,1.7296610618591308
1763694518685913300,2.473913330078125,9.373449137115477,2.366219428253174,1.631798069000244
1763694518695864300,2.4838642578125,9.463231699371338,2.397942600250244,1.4941314735412596
1763694518705814300,2.493814208984375,9.558550852966308,2.422782442474365,1.4212579605102538
1763694518715764200,2.50376416015625,9.664494276428222,2.3880665184020993,1.3628992950439451
1763694518725714400,2.51371435546875,9.690381581878661,2.3802853630065917,1.3262380821228026
1763694518735665400,2.52366552734375,9.618106619262695,2.412756723022461,1.3308768478393553
1763694518745615400,2.533615478515625,9.42866541290283,2.5399486862182616,1.2996025886535645
1763694518755565300,2.5435654296875,9.195978939056396,2.784007617950439,1.2421417488098143
1763694518765516300,2.553516357421875,9.022698593902588,3.0069676475524902,1.1563994018554686
1763694518775466500,2.563466552734375,8.856600853729248,3.1994016059875485,1.0172364303588866
1763694518785416400,2.57341650390625,8.653093712615966,3.271078018188476,0.960823053741455
1763694518795366400,2.583366455078125,8.539668408966063,3.104681002807617,0.9635165306091308
1763694518805317400,2.5933173828125,8.566453540039062,2.6785131072998047,0.9892541984558105
1763694518815267300,2.603267333984375,8.88682764968872,2.101061594390869,0.9874585472106933
1763694518825217300,2.61321728515625,9.331550608062743,1.5792752700805663,0.9964368034362793
1763694518835167500,2.62316748046875,9.625588499450682,1.325938806915283,1.128117894744873
1763694518845118200,2.6331181640625,9.630376902770996,1.2912228828430174,1.2530652938842772
1763694518855068400,2.643068359375,9.629479077148437,1.397465581512451,1.5382745666503905
1763694518865018400,2.653018310546875,9.572167874908446,1.6294038673400877,1.571194839477539
1763694518874969300,2.66296923828125,9.413851290130614,1.8152537712097168,1.5972317825317381
1763694518884919300,2.672919189453125,8.934562045288086,2.013972509002685,1.6927005737304686
1763694518894869200,2.682869140625,8.342446047210693,2.1256021614074707,1.8697218589782714
1763694518904819200,2.692819091796875,7.822156098937988,2.1799206115722654,2.0588637901306153
1763694518914770400,2.7027705078125,7.318475924682617,2.210895595550537,2.308608950805664
1763694518924720400,2.712720458984375,7.079953584289551,2.4814403831481933,2.362628125762939
1763694518934670300,2.72267041015625,6.8022261917114255,2.6753707176208494,2.3068132995605466
1763694518944620300,2.732620361328125,6.970568495941162,3.009361849212646,2.0925322509765625
1763694518954571300,2.7425712890625,7.75691410369873,3.3420062423706054,1.7491139503479003
1763694518964521500,2.752521484375,8.511237264251708,3.5441666450500486,1.3709797256469727
1763694518974471400,2.762471435546875,9.087790951538086,3.6528035453796384,1.084722989654541
1763694518984421400,2.77242138671875,9.572766425323486,3.6180876213073727,0.8491934013366699
1763694518994372400,2.782372314453125,10.01763902130127,3.486406529998779,0.6789058082580566
1763694519004322300,2.792322265625,10.366593913269043,3.3234511795043944,0.5895721588134766
1763694519014272500,2.8022724609375,10.613795234680175,3.1194951255798338,0.5591957252502441
1763694519024223200,2.81222314453125,10.779743337249755,2.8987796600341795,0.6579565437316894
1763694519034173200,2.822173095703125,10.748917990875244,2.638559867095947,0.7986158912658691
1763694519044123400,2.832123291015625,10.561272435760497,2.4519617752075193,0.9439140045166015
1763694519054073300,2.8420732421875,10.36165587234497,2.343624150085449,1.0274117874145507
1763694519064024600,2.852024658203125,10.137199466705322,2.29843359375,1.0468646759033202
1763694519073974300,2.861974365234375,9.968707524871826,2.32387198638916,0.9983820922851562
1763694519083924200,2.87192431640625,9.917082551574707,2.402431728363037,0.8988730857849121
1763694519093874400,2.88187451171875,9.897330387878418,2.4973019691467284,0.8569745567321777
1763694519103825400,2.891825439453125,9.958232892608642,2.5386019477844237,0.7644985176086425
1763694519113775400,2.901775390625,10.155904167175292,2.5513211441040036,0.6036380935668945
1763694519123725300,2.911725341796875,10.393977594757079,2.5279776779174803,0.4400841926574707
1763694519133675300,2.92167529296875,10.473884075164793,2.493710666656494,0.34222119979858395
1763694519143626500,2.93162646484375,10.47597900161743,2.5074773262023924,0.28206688308715816
1763694519153576400,2.941576416015625,10.372878692626953,2.5194483345031737,0.3253121505737305
1763694519163526400,2.9515263671875,10.191368279266356,2.5266309394836424,0.35658640975952144
1763694519173477400,2.961477294921875,9.909301396179199,2.5375544845581053,0.37753567428588863
1763694519183427300,2.97142724609375,9.617807344055175,2.5864859809875487,0.40028059005737304
1763694519193377300,2.981377197265625,9.417891505432129,2.6824036849975585,0.39743747558593745
1763694519203327500,2.991327392578125,9.306860403442382,2.766200743103027,0.4161421760559082
1763694519213278200,3.0012783203125,9.242216958618164,2.823811220550537,0.4317044868469238
1763694519223228400,3.011228515625,9.225607184600829,2.8803742347717285,0.469263525390625
1763694519233178400,3.021178466796875,9.159168088531494,2.8483517875671387,0.5225345123291015
1763694519243128300,3.03112841796875,9.029881198883055,2.7533319091796873,0.6046855567932129
1763694519253079300,3.041079345703125,8.937105884552002,2.6752210800170895,0.6777087074279785
1763694519263029200,3.051029296875,8.857049766540527,2.5966613380432126,0.7158662963867187
1763694519272979200,3.060979248046875,8.812457760620116,2.6185084281921385,0.7332242584228515
1763694519282930400,3.070930419921875,8.914061693572998,2.638859142303467,0.7285854927062988
1763694519292880000,3.0808798828125,9.076418493652342,2.6179098777770995,0.6804021842956542
1763694519302830000,3.090830078125,9.158868813323974,2.5597008499145506,0.6801029090881348
1763694519312779800,3.10077978515625,9.228749574279785,2.472013214111328,0.7071873153686523
1763694519322730800,3.110730712890625,9.336189373779296,2.4058733932495118,0.7707832969665527
1763694519332681000,3.120680908203125,9.386766883850097,2.335992632293701,0.8147767524719238
1763694519342631000,3.130630859375,9.364770156097412,2.337339370727539,0.8066963218688964
1763694519352580900,3.140580810546875,9.375992976379393,2.414702011871338,0.8198644309997558
1763694519362531800,3.15053173828125,9.360729940795897,2.4480711975097655,0.7981669784545898
1763694519372481800,3.160481689453125,9.34681364364624,2.539499773406982,0.6868366012573242
1763694519382432000,3.170431884765625,9.329156406402587,2.6044424934387207,0.589272883605957
1763694519392382000,3.1803818359375,9.292345555877684,2.572270408630371,0.5199906730651855
1763694519402332700,3.190332763671875,9.370606022644042,2.512864279937744,0.5032312614440918
1763694519412283000,3.200282958984375,9.63351929244995,2.498349432373047,0.4495113616943359
1763694519422232800,3.21023291015625,9.84555577697754,2.4625860450744628,0.4643254844665527
1763694519432184000,3.22018408203125,9.906159006500243,2.3451205261230466,0.45175592575073237
1763694519442134000,3.230134033203125,9.81293477935791,2.2138883476257325,0.4370914405822754
1763694519452083700,3.240083740234375,9.610175826263427,2.1848586524963376,0.43290158767700193
1763694519462034000,3.250033935546875,9.445275186920165,2.2590789039611816,0.430956298828125
1763694519471985000,3.25998486328125,9.370456385040283,2.396745499420166,0.40222587890625
1763694519481934800,3.269934814453125,9.322422714233397,2.468870824432373,0.3839700912475586
1763694519491885000,3.279885009765625,9.437942944335937,2.6197055290222164,0.19946692581176756
1763694519501834800,3.289834716796875,10.355670368194579,3.1639374938964844,-0.18435352783203124
1763694519511786000,3.299785888671875,9.545981294250488,3.0802900733947753,0.15936404800415038
1763694519521736000,3.30973583984375,9.641599723052979,2.9920038871765136,0.20260931549072264
1763694519531686000,3.319685791015625,9.747094233703613,2.616114226531982,0.38741175613403317
1763694519541636000,3.329635986328125,9.920524216461182,2.24067347869873,0.5979518646240234
1763694519551586800,3.3395869140625,10.10712230834961,2.1166239051818847,0.6811503723144531
1763694519561536800,3.349536865234375,10.184784224700927,2.3095067764282224,0.6775590698242188
1763694519571487000,3.359487060546875,10.263044691467284,2.607435245513916,0.5538087715148925
1763694519581438000,3.36943798828125,9.766397484588623,2.664297534942627,0.6742670425415038
1763694519591388000,3.379387939453125,9.459640396881102,2.4883237129211424,0.8922890312194823
1763694519601337900,3.389337890625,9.273491217803954,2.36217921295166,1.006163247680664
1763694519611287800,3.399287841796875,9.325415466308593,2.328959664916992,1.009455274963379
1763694519621239000,3.409239013671875,9.39140564956665,2.314893730163574,0.972943699645996
1763694519631189000,3.41918896484375,9.302820188140869,2.261323468017578,1.0428244606018067
1763694519641138700,3.429138671875,9.109338766479492,2.2520459365844725,1.108964281463623
1763694519651089000,3.4390888671875,8.986785569000244,2.264765132904053,1.132607022857666
1763694519661039900,3.449039794921875,8.979752601623535,2.3527520439147946,1.0932523330688475
1763694519670990000,3.458989990234375,9.116222096252441,2.5116671791076657,0.963366893005371
1763694519680940000,3.46893994140625,9.227253198242186,2.669834126281738,0.8620622352600097
1763694519690890800,3.478890869140625,9.223961170959472,2.768146031951904,0.8131307388305664
1763694519700841000,3.488841064453125,9.22590645980835,2.7002105598449706,0.7811082916259765
1763694519710791000,3.498791015625,9.260023833465576,2.5380033973693847,0.725293465423584
1763694519720740900,3.508740966796875,9.349656758117675,2.401234627532959,0.6992565223693847
1763694519730691800,3.51869189453125,9.466673364257812,2.365321602630615,0.6808510971069336
1763694519740641800,3.528641845703125,9.611821839904785,2.410811434173584,0.6364087287902832
1763694519750592000,3.538592041015625,9.763105457305908,2.5309704299926756,0.5407902999877929
1763694519760542000,3.5485419921875,9.806500362396239,2.611924373626709,0.43020811080932614
1763694519770492700,3.55849267578125,9.68469535293579,2.6116250984191893,0.36631285400390623
1763694519780443000,3.56844287109375,9.436745843505859,2.662950796508789,0.3990834892272949
1763694519790392800,3.578392822265625,9.215282189941405,2.759167775726318,0.5105635040283203
1763694519800342800,3.5883427734375,9.063998572540283,2.826504697418213,0.5759551368713378
1763694519810294000,3.5982939453125,8.990376871490477,2.8384757057189938,0.630123949432373
1763694519820243700,3.60824365234375,9.033472501373291,2.752882996368408,0.6455366226196289
1763694519830194000,3.61819384765625,9.210793061828612,2.6485855865478514,0.6910264541625977
1763694519840145000,3.628144775390625,9.364620518493652,2.638709504699707,0.7508814956665039
1763694519850094800,3.6380947265625,9.58862801132202,2.6267384963989255,0.7664438064575195
1763694519860045000,3.648045166015625,9.885808292388916,2.4781483558654784,0.7881412590026855
1763694519869994800,3.657994873046875,10.030208580017089,2.3663690658569334,0.8297405128479003
1763694519879946000,3.667946044921875,9.948207173156737,2.2852654846191407,0.9196727127075195
1763694519889896000,3.67789599609375,9.754276838684081,2.2776339668273926,0.9929951385498046
1763694519899846000,3.687845947265625,9.525032029724121,2.2746412147521973,1.0311527275085448
1763694519909796000,3.697796142578125,9.310900618743895,2.361431024932861,1.0489596023559569
1763694519919746800,3.707746826171875,9.10440072555542,2.4545056144714352,1.059134959411621
1763694519929696800,3.71769677734375,9.003844255828858,2.3413795860290527,1.1825859825134277
1763694519939647000,3.72764697265625,8.904933799743652,2.3876176055908203,1.121084927368164
1763694519949598000,3.737597900390625,8.842834194183348,2.5671827301025387,1.0941501586914062
1763694519959548000,3.7475478515625,8.901043222045898,2.6861446250915524,0.9642647186279296
1763694519969497900,3.757497802734375,9.028983373260498,2.7157728706359863,0.9250596664428711
1763694519979447800,3.76744775390625,9.250147751617432,2.5815479400634764,0.9344868354797363
1763694519989399000,3.77739892578125,9.464279162597656,2.385223403930664,0.9573813888549804
1763694519999349000,3.787348876953125,9.561693242645264,2.316689381408691,0.9555857376098632
1763694520009298700,3.797298583984375,9.605686698150635,2.3924060089111325,0.9156324974060058
1763694520019249000,3.807248779296875,9.644293199920654,2.4639327835083007,0.8683470146179199
1763694520029200000,3.817199951171875,9.624690673828125,2.4138041862487793,0.8698433906555175
1763694520039150000,3.827150146484375,9.493757770538329,2.378190436553955,0.9150339469909667
1763694520049100000,3.83710009765625,9.321973801422118,2.3466169021606444,0.9745897132873534
1763694520059049700,3.8470498046875,9.223063345336913,2.358587910461426,1.0001777435302734
1763694520069001000,3.8570009765625,9.220070593261719,2.4363994644165037,1.010053825378418
1763694520078951000,3.866950927734375,9.400832818603515,2.461388944244385,0.988356372833252
1763694520088900900,3.87690087890625,9.665392102050781,2.4582465545654295,0.9849147079467773
1763694520098851800,3.886851806640625,9.80620108718872,2.4021324531555175,1.0034697708129883
1763694520108801800,3.8968017578125,9.842114112091064,2.3939023849487304,1.0200795448303221
1763694520118752000,3.906751953125,9.80665,2.4263737449645997,1.0298059890747069
1763694520128702000,3.916701904296875,9.625139586639404,2.4163480255126952,1.0646715507507323
1763694520138653000,3.92665283203125,9.464129524993895,2.394800210571289,1.0889128425598145
1763694520148603000,3.936602783203125,9.3975407913208,2.384026303100586,1.1013327636718748
1763694520158552800,3.946552734375,9.459490759277344,2.342127774047851,1.097442185974121
1763694520168502800,3.956502685546875,9.638307695770264,2.2713491874694824,1.0971429107666015
1763694520178454000,3.9664541015625,9.789591313171385,2.2463597076416013,1.061828436279297
1763694520188404000,3.976404052734375,9.753379013061522,2.283769108581543,1.061678798675537
1763694520198354000,3.98635400390625,9.619453357696532,2.403628829193115,1.0682628532409668
1763694520208303900,3.996303955078125,9.472658868408203,2.483984222412109,1.0739490821838378
1763694520218254800,4.0062548828125,9.399934992980956,2.4812907455444333,1.064821188354492
1763694520228205000,4.016205078125,9.440187508392333,2.4363994644165037,1.0622773490905761
1763694520238155000,4.026155029296875,9.560945054626464,2.459294017791748,1.0459668502807618
1763694520248106000,4.03610595703125,9.689483756256102,2.524386375427246,1.0362404060363768
1763694520258056000,4.046055908203125,9.807398188018798,2.5399486862182616,1.0670657524108886
1763694520268006000,4.056005859375,9.83777462158203,2.5172037704467773,1.0582371337890624
1763694520277956000,4.0659560546875,9.777919580078125,2.485480598449707,1.066916114807129
1763694520287906800,4.07590673828125,9.738115977478026,2.4539070640563962,1.101183126068115
1763694520297856500,4.0858564453125,9.846603240203857,2.386420504760742,1.188122573852539
1763694520307806500,4.095806396484375,9.977386505889893,2.3282114768981934,1.2319663917541503
1763694520317756400,4.10575634765625,9.990404977416992,2.3377882835388184,1.2478279777526855
1763694520327707600,4.115707763671875,9.807996738433838,2.3937527473449705,1.271769994354248
1763694520337657300,4.1256572265625,9.549722234344483,2.393453472137451,1.3093290328979492
1763694520347607300,4.135607177734375,9.357288275909424,2.3982418754577637,1.3335703247070312
1763694520357557500,4.1455576171875,9.280524185180663,2.4589947425842285,1.3391069160461424
1763694520367508500,4.155508544921875,9.317634310913085,2.49625450592041,1.3352163383483886
1763694520377458700,4.165458740234375,9.362226316833496,2.4916157402038572,1.3226467796325683
1763694520387408400,4.175408447265625,9.318831411743163,2.483984222412109,1.3537714012145996
1763694520397359400,4.185359375,9.232939427185059,2.4534581512451172,1.355417414855957
1763694520407309600,4.1953095703125,9.21273835067749,2.3689129051208493,1.4053963745117186
1763694520417259500,4.205259521484375,9.176974963378905,2.2794296180725095,1.4487912796020508
1763694520427209500,4.21520947265625,9.050830463409424,2.245312244415283,1.497722776031494
1763694520437160400,4.225160400390625,8.993219985961913,2.258779628753662,1.4966753128051757
1763694520447110400,4.2351103515625,8.915707707214356,2.2240637046813965,1.4915876342773438
1763694520457060600,4.245060546875,8.834903401184082,2.211943058776855,1.5141829124450683
1763694520467010600,4.255010498046875,8.878896856689453,2.267009696960449,1.5198691413879393
1763694520476961300,4.264961181640625,9.068786975860595,2.332700605010986,1.5219640678405761
1763694520486911500,4.274911376953125,9.262268397521972,2.3466169021606444,1.4891934326171874
1763694520496861400,4.284861328125,9.329904594421386,2.2876596862792966,1.4841057540893554
1763694520506811400,4.294811279296875,9.402179557037353,2.2254104431152344,1.5044564682006836
1763694520516762400,4.304762451171875,9.440187508392333,2.204461178588867,1.4960767623901365
1763694520526712300,4.31471240234375,9.30820714187622,2.217330012512207,1.4610615631103514
1763694520536662500,4.32466259765625,9.090783703613281,2.2590789039611816,1.454926421356201
1763694520546613500,4.334613525390625,8.858097229766845,2.3024738090515133,1.4736311218261717
1763694520556563500,4.3445634765625,8.811559934997558,2.325069087219238,1.55129303817749
1763694520566513700,4.354513671875,9.051877926635742,2.3485621910095213,1.603067649078369
1763694520576463400,4.36446337890625,9.44213279724121,2.376993335723877,1.6310498809814453
1763694520586414600,4.37441455078125,9.827898539733885,2.383876665496826,1.6572364616394042
1763694520596364500,4.384364501953125,9.949703549194336,2.3460183517456055,1.6442179901123046
1763694520606314500,4.394314453125,9.91483798751831,2.3041198226928707,1.6805799278259277
1763694520616264700,4.4042646484375,9.850344180297851,2.218078200531006,1.6163853958129881
1763694520626215400,4.41421533203125,9.72285294189453,2.2577321655273437,1.564760422515869
1763694520636165400,4.424165283203125,9.652223992919922,2.2412720291137695,1.562815133666992
1763694520646115600,4.434115478515625,9.668235216522216,2.165555401611328,1.6467618293762205
1763694520656065500,4.4440654296875,9.65327145614624,2.044797855377197,1.708412522125244
1763694520666016500,4.4540166015625,9.593266777038574,1.9584569580078124,1.7489643127441405
1763694520675966500,4.463966552734375,9.459041846466064,1.8421885398864746,1.8611925155639648
1763694520685916400,4.47391650390625,9.275735781860352,1.7758990814208984,1.950376527404785
1763694520695867600,4.48386767578125,9.066243136596679,1.8326117332458496,2.00469497756958
1763694520705817300,4.4938173828125,8.88084214553833,2.0777181282043458,1.952321816253662
1763694520715767300,4.503767333984375,8.845078758239746,2.3413795860290527,1.893514237976074
1763694520725717500,4.513717529296875,8.874557366180419,2.447023734283447,1.8152537712097168
1763694520735668500,4.52366845703125,8.923039949798584,2.4220342544555664,1.7726070541381835
1763694520745618700,4.53361865234375,9.014019612884521,2.401234627532959,1.7637784355163573
1763694520755568400,4.543568359375,9.16186156539917,2.3804350006103516,1.7332523643493651
1763694520765518300,4.553518310546875,9.310451705932616,2.3714567443847656,1.7010802795410156
1763694520775469600,4.563469482421875,9.356839363098144,2.357241172027588,1.6730980476379393
1763694520785419500,4.57341943359375,9.322871627044677,2.3295582153320313,1.6910545600891111
1763694520795369500,4.583369384765625,9.223512258148192,2.3190835830688474,1.715445489501953
1763694520805319400,4.5933193359375,9.166201055908203,2.326565463256836,1.7341501899719238
1763694520815270400,4.6032705078125,9.145401428985595,2.3331495178222657,1.779340746307373
1763694520825220600,4.613220703125,9.138518099212646,2.390909632873535,1.8305168067932127
1763694520835170600,4.623170654296875,9.22485899658203,2.447173371887207,1.8507178833007811
1763694520845121300,4.633121337890625,9.336638286590576,2.411858897399902,1.8710685974121093
1763694520855071500,4.643071533203125,9.391106374359131,2.344372338104248,1.9020435813903807
1763694520865021400,4.653021484375,9.348459657287597,2.2890064247131345,1.916558428955078
1763694520874971400,4.662971435546875,9.291896643066405,2.2999299697875975,1.896806265258789
1763694520884922600,4.672922607421875,9.272144479370116,2.31743756942749,1.914014589691162
1763694520894872300,4.682872314453125,9.221417331695555,2.3391350219726563,1.914014589691162
1763694520904822500,4.692822509765625,9.130587306213378,2.393004559326172,1.8736124366760252
1763694520914772500,4.7027724609375,9.103502899932861,2.4512135871887204,1.8200421745300293
1763694520924723500,4.712723388671875,9.207650672149658,2.5101708030700682,1.741632070159912
1763694520934673700,4.722673583984375,9.32736075515747,2.5068787757873534,1.647809292602539
1763694520944623400,4.732623291015625,9.399486080169677,2.480991470336914,1.6229694503784178
1763694520954573300,4.7425732421875,9.39125601196289,2.4820389335632322,1.601870548248291
1763694520964524500,4.752524658203125,9.327211117553711,2.5321675308227536,1.624166551208496
1763694520974474500,4.762474609375,9.18685104522705,2.526331664276123,1.6434698020935057
1763694520984424700,4.7724248046875,8.940697187042236,2.542791800689697,1.6303016929626464
1763694520994375400,4.78237548828125,8.862287082672118,2.5164555824279784,1.5761328804016113
1763694521004325400,4.792325439453125,9.017910190582274,2.507926239013672,1.511788710784912
1763694521014275600,4.802275634765625,9.386916521453857,2.5110686286926267,1.4710872825622558
1763694521024225500,4.8122255859375,9.443329898071289,2.3508067550659177,1.4944307487487791
1763694521034176500,4.822176513671875,9.614365679168701,2.230498121643066,1.5168763893127442
1763694521044126500,4.83212646484375,9.594314240264891,2.281674182128906,1.4963760375976562
1763694521054076400,4.842076416015625,9.478794010162353,2.3850737663269044,1.48754741897583
1763694521064026600,4.852026611328125,9.370905297851563,2.4735095901489257,1.46195938873291
1763694521073977300,4.861977294921875,9.475651620483397,2.4232313552856444,1.4850035797119139
1763694521083927300,4.87192724609375,9.579051204681395,2.3479636405944824,1.4998177024841308
1763694521093877500,4.88187744140625,9.428366137695312,2.2355858001708984,1.5343839889526367
1763694521103827500,4.891827392578125,9.236830004882812,2.1933879959106446,1.5741875915527344
1763694521113778700,4.90177880859375,9.200916979980468,2.3536498695373536,1.5670049865722655
1763694521123728600,4.911728759765625,9.153781134796143,2.516904495239258,1.4698901817321777
1763694521133678300,4.92167822265625,9.10425108795166,2.582595403289795,1.4553753341674804
1763694521143628300,4.931628173828125,9.338433937835692,2.605340319061279,1.466448516845703
1763694521153579500,4.94157958984375,9.544933831024169,2.546832015991211,1.4757260482788086
1763694521163529500,4.951529541015625,9.674370358276366,2.518700146484375,1.499668064880371
1763694521173479700,4.961479736328125,9.771185887908935,2.4672248107910155,1.5503952125549316
1763694521183430400,4.971430419921875,9.83897172241211,2.4052748428344723,1.5351321769714354
1763694521193380600,4.981380615234375,9.860669174957275,2.4001871643066406,1.5345336265563965
1763694521203330600,4.99133056640625,9.843161575317382,2.3600842864990232,1.5153800132751465
1763694521213280500,5.001280517578125,9.831040929412842,2.358587910461426,1.4866495933532713
1763694521223231500,5.0112314453125,9.818770645904541,2.3460183517456055,1.440261936187744
1763694521233181400,5.021181396484375,9.83223803024292,2.361580662536621,1.40464818649292
1763694521243131400,5.03113134765625,9.80620108718872,2.3741502212524415,1.3971663063049315
1763694521253081600,5.04108154296875,9.839719910430908,2.307860762786865,1.3593079925537108
1763694521263032300,5.0510322265625,9.729885909271239,2.2946926536560057,1.390582251739502
1763694521272982300,5.060982177734375,9.583689970397948,2.2896049751281735,1.4158710067749023
1763694521282932500,5.070932373046875,9.367912545776367,2.307860762786865,1.395071379852295
1763694521292883000,5.080883056640625,9.220968418884278,2.039859814453125,1.5566799919128418
1763694521302834000,5.090833984375,9.003844255828858,2.149544178009033,1.4893430702209471
1763694521312784000,5.100783935546875,8.924087413024901,2.3834277526855465,1.402553260040283
1763694521322733800,5.11073388671875,8.971372895812987,2.4899697265625,1.34703770904541
1763694521332685000,5.12068505859375,9.085546387481688,2.5061305877685545,1.3064859184265136
1763694521342635000,5.130635009765625,9.138518099212646,2.541445062255859,1.3085808448791503
1763694521352585000,5.1405849609375,9.104849638366698,2.420388240814209,1.3401543792724608
1763694521362535000,5.150534912109375,8.965537029266358,2.357241172027588,1.392377902984619
1763694521372486000,5.16048583984375,8.789413569641113,2.440738954925537,1.3548188644409178
1763694521382435800,5.170435791015625,8.769212493133544,2.61132582321167,1.2536638442993164
1763694521392386000,5.180385986328125,8.948927255249023,2.652027251434326,1.2538134819030762
1763694521402336000,5.1903359375,9.247903187561034,2.4979005195617674,1.3787608810424803
1763694521412287000,5.200286865234375,9.558850128173827,2.31115279006958,1.4419079498291014
1763694521422237000,5.21023681640625,9.739313078308104,2.15792388381958,1.4936825607299804
1763694521432187000,5.220186767578125,9.77447791519165,2.104203984069824,1.4999673400878906
1763694521442137000,5.23013720703125,9.719261639404296,2.1670517776489255,1.50670103225708
1763694521452087800,5.240087890625,9.681104050445557,2.2842180213928223,1.4956278495788573
1763694521462037800,5.250037841796875,9.643694649505616,2.395997311401367,1.4713865577697753
1763694521471988000,5.259988037109375,9.635913494110106,2.4705168380737303,1.513584362030029
1763694521481938000,5.26993798828125,9.754875389099121,2.4072201316833493,1.5716437522888183
1763694521491889000,5.279888916015625,9.751583361816406,2.2885575119018555,1.5605705696105956
1763694521501838800,5.2898388671875,9.65237363052368,2.249801372528076,1.4718354705810546
1763694521511788800,5.299788818359375,9.641898998260498,2.2629694816589354,1.4220061485290527
1763694521521740000,5.309739990234375,9.721356565856933,2.286761860656738,1.347785897064209
1763694521531690000,5.31968994140625,9.86291373901367,2.3540987823486326,1.3117232345581054
1763694521541639700,5.3296396484375,9.915885450744629,2.4218846168518064,1.2738649208068846
1763694521551590000,5.33958984375,9.91513726272583,2.4467244590759276,1.2535142066955565
1763694521561540900,5.349540771484375,9.766846397399902,2.467673723602295,1.3019967903137206
1763694521571491000,5.359490966796875,9.583989245605467,2.4378958404541016,1.3615525566101074
1763694521581441000,5.36944091796875,9.415646941375732,2.3882161560058592,1.4468459907531737
1763694521591391000,5.379390869140625,9.402179557037353,2.3261165504455565,1.5001169776916503
1763694521601342000,5.389342041015625,9.342324515533447,2.2471078956604003,1.543062969970703
1763694521611292000,5.3992919921875,9.232191239166259,2.1817162628173827,1.6543933471679686
1763694521621241900,5.409241943359375,9.279925634765624,2.1499930908203124,1.6747440612792968
1763694521631192000,5.419192138671875,9.371354210662842,2.1689970664978024,1.7049708572387694
1763694521641142800,5.429142822265625,9.419238243865966,2.1308394775390624,1.7592893074035643
1763694521651093000,5.439093017578125,9.468917928314209,2.0012533126831054,1.7972972587585447
1763694521661043000,5.44904296875,9.418789331054686,1.9882348411560058,1.8397943382263182
1763694521670993000,5.458992919921875,9.259874195861816,2.0018518630981443,1.8460791175842284
1763694521680943900,5.46894384765625,9.069984076690673,1.9707272415161132,1.8516157089233398
1763694521690893800,5.478893798828125,9.0014500541687,2.0268413429260255,1.8192939865112303
1763694521700843800,5.48884375,9.089137689971924,2.073677912902832,1.7651251739501952
1763694521710795000,5.498794921875,9.166350693511962,2.159719535064697,1.7533038032531738
1763694521720745000,5.508744873046875,9.188347421264648,2.271648462677002,1.7720085037231443
1763694521730695000,5.51869482421875,9.129090930175781,2.3693618179321287,1.7821838607788085
1763694521740644900,5.528644775390625,9.027935910034179,2.418891864776611,1.7847277000427244
1763694521750595800,5.538595947265625,9.062801471710204,2.386570142364502,1.7832313240051267
1763694521760546000,5.548546142578125,9.163956491851806,2.1811177124023438,1.8426374526977538
1763694521770496000,5.55849609375,9.278279621124266,2.038064163208008,1.9071312599182129
1763694521780445700,5.56844580078125,9.408613973999023,1.9895815795898437,1.931821464538574
1763694521790397000,5.57839697265625,9.579051204681395,2.1149778915405273,1.9116203880310056
1763694521800347000,5.588346923828125,9.613617491149903,2.3069629371643066,1.8950106140136718
1763694521810297000,5.598297119140625,9.662399349975585,2.427121932983398,1.8567033874511718
1763694521820247000,5.6082470703125,9.790040225982665,2.5776573623657226,1.8179472480773924
1763694521830197800,5.61819775390625,10.014346994018554,2.5321675308227536,1.7592893074035643
1763694521840148000,5.62814794921875,9.96511622238159,2.3591864608764648,1.7981950843811034
1763694521850098000,5.638097900390625,9.7928833404541,2.2144868980407715,1.9253870475769042
1763694521860048000,5.6480478515625,9.445424824523926,2.1492449028015135,2.1059996353149413
1763694521869998800,5.657998779296875,9.152135121154785,2.127697087860107,2.196829660797119
1763694521879948800,5.66794873046875,9.121609049987793,2.0063409912109376,2.283170558166504
1763694521889898800,5.677898681640625,9.223212982940673,1.8700211341857909,2.3597850112915038
1763694521899849000,5.687848876953125,9.119514123535156,1.8219874633789062,2.39405202255249
1763694521909800000,5.697800048828125,9.092429717254639,1.7785925582885742,2.4006360771179196
1763694521919750000,5.70775,9.30910496749878,1.6823755790710448,2.3286603897094724
1763694521929699800,5.717699951171875,9.4741552444458,1.586457875061035,2.3024738090515133
1763694521939649800,5.72764990234375,9.495403784179686,1.5222633430480956,2.314744092559814
1763694521949601000,5.73760107421875,9.489268642425536,1.4896423454284666,2.2692542610168456
1763694521959551000,5.747551025390625,9.44303062286377,1.4894927078247069,2.2303484840393066
1763694521969500700,5.757500732421875,9.401730644226074,1.5586252807617187,2.1633108375549317
1763694521979452000,5.767451904296875,9.350255308532715,1.6343419082641601,2.129941651916504
1763694521989401900,5.77740185546875,9.308805692291259,1.7477672119140624,2.0624550926208496
1763694521999352000,5.78735205078125,9.247903187561034,1.8634370796203612,2.038064163208008
1763694522009302000,5.797302001953125,9.18744959564209,1.9174562545776366,2.0060417160034176
1763694522019252700,5.807252685546875,9.229048849487304,1.9747674568176268,2.0144214218139647
1763694522029203000,5.817202880859375,9.239373844146728,1.9829975250244138,2.0519804603576657
1763694522039153000,5.82715283203125,9.159168088531494,1.9457377616882323,2.050633721923828
1763694522049102800,5.837102783203125,9.015815264129639,1.960551884460449,2.1333833168029783
1763694522059053800,5.8470537109375,8.938901535797118,2.0400094520568848,2.1434090362548828
1763694522069003800,5.857003662109375,9.083451461029052,2.060659441375732,2.1184195564270016
1763694522078954000,5.8669541015625,9.305962577819823,2.003946789550781,2.081758343505859
1763694522088904000,5.876904052734375,9.389011447906494,1.931222914123535,2.1071967361450192
1763694522098854700,5.886854736328125,9.330952057647705,1.9015946685791014,2.1909937942504882
1763694522108804900,5.896804931640625,9.252691590881348,1.9393033447265624,2.2273557319641113
1763694522118754800,5.9067548828125,9.203311181640624,2.083853269958496,2.155230406951904
1763694522128704800,5.916704833984375,9.21932240524292,2.2309470344543456,2.03043264541626
1763694522138656000,5.926656005859375,9.232340876770019,2.2749404899597168,1.9595044212341308
1763694522148605700,5.936605712890625,9.31524010925293,2.273444113922119,1.9473837753295897
1763694522158556000,5.946555908203125,9.434351641845703,2.2512977485656736,1.965041012573242
1763694522168507000,5.9565068359375,9.560945054626464,2.25369195022583,1.9678841270446776
1763694522178456800,5.966456787109375,9.707589906311034,2.228702470397949,1.9660884757995605
1763694522188407000,5.976406982421875,9.789441675567627,2.16420866317749,1.9648913749694823
1763694522198357000,5.98635693359375,9.690531219482422,2.1288941886901855,1.981052236175537
1763694522208308000,5.996307861328125,9.507524430084228,2.1245546981811523,2.03656778717041
1763694522218258000,6.0062578125,9.392902025604247,2.1371242568969726,2.1068974609374997
1763694522228207900,6.016207763671875,9.3339448097229,2.1719898185729978,2.13862063293457
1763694522238158000,6.026157958984375,9.294739757537842,2.146401788330078,2.1384709953308105
1763694522248108800,6.03610888671875,9.273940130615234,2.0937293518066404,2.1986253120422363
1763694522258058800,6.046058837890625,9.222464794921875,2.0796634170532227,2.187402491760254
1763694522268009000,6.056009033203125,9.189394884490966,2.092831526184082,2.1570260581970215
1763694522277959000,6.065958984375,9.27648396987915,2.1369746192932126,2.1350293304443357
1763694522287910000,6.075909912109375,9.398887529754639,2.061557266998291,2.1191677444458006
1763694522297859600,6.085859619140625,9.42342809677124,1.9930232444763183,2.0816087059020996
1763694522307809500,6.0958095703125,9.400533543395996,1.938255881500244,2.095973915863037
1763694522317759500,6.105759521484375,9.380781379699707,1.904437783050537,2.12590143661499
1763694522327710700,6.115710693359375,9.412803826904296,1.8908207611083983,2.1441572242736817
1763694522337660700,6.12566064453125,9.42956323852539,1.9244892219543457,2.157175695800781
1763694522347610600,6.135610595703125,9.36581761932373,1.989282304382324,2.186504666137695
1763694522357560600,6.145560546875,9.25074630203247,2.037914525604248,2.22166950302124
1763694522367511600,6.155511474609375,9.168894532775878,2.066794583129883,2.2650644081115723
1763694522377461800,6.165461669921875,9.082852910614013,2.0787655914306638,2.316689381408691
1763694522387411700,6.17541162109375,8.940248274230957,2.0265420677185055,2.3644237770080565
1763694522397361400,6.185361328125,8.858995055389403,1.9638439117431639,2.4185925895690916
1763694522407312600,6.195312744140625,8.877400480651856,1.953070004272461,2.4973019691467284
1763694522417262600,6.2052626953125,8.975413111114502,1.9056348838806152,2.543689626312256
1763694522427212800,6.215212890625,9.16111337738037,1.862239978790283,2.590077283477783
1763694522437163500,6.22516357421875,9.274538681030274,1.8471265808105468,2.544138539123535
1763694522447113500,6.235113525390625,9.270947378540038,1.818845073699951,2.5266309394836424
1763694522457063700,6.245063720703125,9.168894532775878,1.7769465446472168,2.5948656867980957
1763694522467013600,6.255013671875,9.157970987701415,1.8040309509277344,2.589329095458984
1763694522476964600,6.264964599609375,9.234884716033935,1.879448303222656,2.6132711120605467
1763694522486914600,6.27491455078125,9.312995545196532,1.900547205352783,2.5611972259521485
1763694522496864500,6.284864501953125,9.351003496551513,1.954865655517578,2.492214290618896
1763694522506814700,6.294814697265625,9.409960712432861,2.0383634384155274,2.396146949005127
1763694522516765700,6.304765625,9.534758473968505,2.1187188316345216,2.261922018432617
1763694522526715400,6.31471533203125,9.756671040344237,2.149095265197754,2.1095909378051756
1763694522536665600,6.32466552734375,9.92740754623413,2.1871032165527344,1.9844939010620115
1763694522546615600,6.334615478515625,10.024971263885497,2.212840884399414,1.9470845001220702
1763694522556566800,6.34456689453125,10.024821626281737,2.2053590042114255,1.9512743530273435
1763694522566516700,6.354516845703125,9.856479322052001,2.1256021614074707,2.026990980529785
1763694522576466700,6.364466796875,9.624241761016846,2.0958242782592773,2.084601457977295
1763694522586416400,6.37441650390625,9.431209252166747,2.090886237335205,2.156726782989502
1763694522596367600,6.38436767578125,9.237428555297852,2.074276463317871,2.203264077758789
1763694522606317600,6.394317626953125,9.058162705993652,2.095375365447998,2.276586503601074
1763694522616267800,6.404267822265625,8.899097933197021,2.1039047088623044,2.316689381408691
1763694522626217700,6.4142177734375,8.822034567260742,2.1187188316345216,2.3313538665771483
1763694522636168700,6.424168701171875,8.775048359680175,2.1064485481262207,2.3024738090515133
1763694522646118700,6.43411865234375,8.847173684692383,2.112583689880371,2.2527941246032714
1763694522656068600,6.444068603515625,9.103053987121582,2.099565218353271,2.203264077758789
1763694522666018600,6.4540185546875,9.354295523834228,2.034023947906494,2.103006883239746
1763694522675969500,6.463969482421875,9.444975911712646,2.0094833808898924,2.0328268470764157
1763694522685919500,6.47391943359375,9.392153837585449,2.0364181495666505,1.9994576614379882
1763694522695869700,6.48386962890625,9.364470880889892,2.061557266998291,1.9684826774597166
1763694522705820700,6.493820556640625,9.412055638885498,2.061257991790771,1.9289783500671385
1763694522715770400,6.503770263671875,9.460089309692382,2.04300220413208,1.9048866958618162
1763694522725720600,6.513720458984375,9.479392560577391,2.0519804603576657,1.8957588020324705
1763694522735670500,6.52367041015625,9.45560018157959,2.032677209472656,1.908178723144531
1763694522745621800,6.533621826171875,9.364171605682373,1.9934721572875975,1.9078794479370116
1763694522755571700,6.54357177734375,9.280075272369384,1.9342156661987304,1.9518729034423827
1763694522765521400,6.553521484375,9.17458076171875,1.8994997421264648,2.0163667106628416
1763694522775471600,6.5634716796875,9.106495652008055,1.910273649597168,2.047491332244873
1763694522785422600,6.573422607421875,9.11038622970581,1.9009961181640624,2.0700866104125977
1763694522795372500,6.58337255859375,9.09153189163208,1.901893943786621,2.090287686920166
1763694522805322800,6.59332275390625,8.99486599960327,1.946635587310791,2.1345804176330567
1763694522815272400,6.6032724609375,8.879046494293213,1.9607015220642088,2.231395947265625
1763694522825223700,6.6132236328125,8.79809255065918,1.913266401672363,2.309806051635742
1763694522835173600,6.623173583984375,8.777592198944092,1.873163523864746,2.3535002319335936
1763694522845123600,6.63312353515625,8.837596878051757,1.847575493621826,2.394949848175049
1763694522855073800,6.64307373046875,8.9255837890625,1.8421885398864746,2.4343045379638673
1763694522865024500,6.6530244140625,8.997409838867187,1.8525135345458983,2.5014918220520017
1763694522874974500,6.662974365234375,8.989628683471679,1.8984522789001463,2.562843239593506
1763694522884924700,6.672924560546875,8.884134172821044,1.9583073204040526,2.60474176864624
1763694522894874600,6.68287451171875,8.806322618865966,1.9868881027221679,2.6445453712463376
1763694522904825600,6.69282568359375,8.847622597503662,1.946635587310791,2.664147897338867
1763694522914775600,6.702775634765625,9.02090294265747,1.9029414070129393,2.6684873878479003
1763694522924725500,6.7127255859375,9.249698838806152,1.8724153358459472,2.6885388267517087
1763694522934675700,6.72267578125,9.449764315032958,1.8846856193542478,2.7527333587646483
1763694522944626700,6.732626708984375,9.523984566497802,1.8831892433166504,2.8170775283813474
1763694522954576400,6.742576416015625,9.432705628204346,1.8522142593383788,2.89848038482666
1763694522964526600,6.752526611328125,9.279177446746825,1.8447323791503905,2.9496564453125
1763694522974476500,6.7624765625,9.151087657928466,1.8791490280151366,3.01968684387207
1763694522984427800,6.772427734375,9.055319591522217,1.9283797996520995,3.0238766967773434
1763694522994377700,6.782377685546875,9.018658378601074,1.9743185440063475,3.068169427490234
1763694523004327400,6.792327392578125,9.045443509674072,1.9868881027221679,3.059939359283447
1763694523014278700,6.802278564453125,9.042600395202637,1.988683753967285,3.0348002418518063
1763694523024228600,6.812228515625,9.132233319854736,1.9666870262145995,3.0557495063781737
1763694523034178600,6.822178466796875,9.336787924194335,1.9194015434265135,3.0342016914367673
1763694523044128800,6.832128662109375,9.55780266494751,1.8700211341857909,2.9881133094787597
1763694523054079500,6.84207958984375,9.671527243804931,1.825279490661621,2.9363386985778805
1763694523064029700,6.85202978515625,9.711330846405028,1.7682675636291503,2.9198785621643064
1763694523073979600,6.861979736328125,9.71058265838623,1.7215806312561035,2.9315502952575683
1763694523083929600,6.8719296875,9.674220720672606,1.7135002006530762,2.9104513931274414
1763694523093880600,6.881880615234375,9.681253688049315,1.7631798851013183,2.864811923980713
1763694523103830500,6.89183056640625,9.760860893249511,1.84503165435791,2.7974750022888184
1763694523113780500,6.901780517578125,9.855132583618163,1.8918682243347167,2.6945243309020994
1763694523123730700,6.911730712890625,9.903315892028807,1.9090765487670898,2.60474176864624
1763694523133681400,6.921681396484375,9.888801044464111,1.9125182136535643,2.5215432609558106
1763694523143631600,6.931631591796875,9.845406139373779,1.9080290855407713,2.498947982788086
1763694523153581600,6.94158154296875,9.76804349822998,1.9460370368957518,2.4150012870788573
1763694523163531500,6.951531494140625,9.692476508331298,2.060659441375732,2.3484125534057614
1763694523173482800,6.961482666015625,9.701155489349365,2.158672071838379,2.2819734573364254
1763694523183432700,6.9714326171875,9.72330185470581,2.175880396270752,2.2221184158325196
1763694523193382400,6.98138232421875,9.603292496490479,2.145803237915039,2.2093992195129393
1763694523203332600,6.99133251953125,9.396343690490722,2.145803237915039,2.2135890724182126
1763694523213283600,7.00128369140625,9.21962168045044,2.1637597503662107,2.20909994430542
1763694523223233800,7.01123388671875,9.13612389755249,2.116324629974365,2.1818659004211423
1763694523233183700,7.021183837890625,9.074024291992187,2.0700866104125977,2.1676503280639645
1763694523243133400,7.031133544921875,8.972869271850586,2.0642507438659665,2.175132208251953
1763694523253084700,7.041084716796875,8.88667801208496,2.127098537445068,2.1779753227233885
1763694523263034600,7.05103466796875,8.87336026535034,2.210895595550537,2.1698948921203614
1763694523272984600,7.060984619140625,8.88069250793457,2.2876596862792966,2.1520880172729493
1763694523282934800,7.070934814453125,8.840290354919434,2.2928970024108883,2.1179706436157226
1763694523292885800,7.0808857421875,8.84313346939087,2.295740116882324,2.0676924087524413
1763694523302836000,7.0908359375,9.01476780090332,2.2665607841491697,2.0120272201538083
1763694523312786000,7.100785888671875,9.294440482330321,2.176329309082031,1.9919757812499999
1763694523322735900,7.11073583984375,9.492261394500732,2.098966667938232,1.9654899253845213
1763694523332686800,7.120686767578125,9.552415711212157,2.0841525451660154,1.9502268898010253
1763694523342636800,7.13063671875,9.481038574218749,2.1179706436157226,1.9277812492370605
1763694523352586800,7.140586669921875,9.416245491790772,2.1972785736083984,1.8882769218444824
1763694523362537000,7.150536865234375,9.449764315032958,2.2554876014709473,1.8359037605285644
1763694523372487700,7.16048779296875,9.48044002380371,2.306514024353027,1.7851766128540039
1763694523382438000,7.17043798828125,9.373898049926757,2.2924480895996093,1.817049422454834
1763694523392387800,7.180387939453125,9.169941996002196,2.241571304321289,1.8959084396362305
1763694523402337800,7.190337890625,8.979004413604736,2.1959318351745605,1.9627964485168456
1763694523412289000,7.2002890625,8.884583085632324,2.192340532684326,2.00454533996582
1763694523422238700,7.21023876953125,8.88144069595337,2.2001216880798338,1.9693805030822753
1763694523432188700,7.220188720703125,8.954014933776856,2.254290500640869,1.9500772521972656
1763694523442139000,7.230138916015625,9.083152185821532,2.316090830993652,1.9066823471069334
1763694523452089900,7.24008984375,9.231293413543701,2.3261165504455565,1.8927660499572754
1763694523462040000,7.2500400390625,9.246855724334717,2.3075614875793455,1.9487305137634277
1763694523471989800,7.25998974609375,9.078962332916259,2.3216274223327638,2.018611274719238
1763694523481940700,7.269940673828125,8.952069644927978,2.362927400970459,2.0588637901306153
1763694523491891000,7.279890869140625,9.011475773620605,2.3816321014404296,2.054374662017822
1763694523501841000,7.2898408203125,9.134777159118652,2.38118318862915,1.9904794052124022
1763694523511790800,7.299790771484375,9.175927500152588,2.3783400741577148,1.9406500831604003
1763694523521741800,7.309741943359375,9.190741622924804,2.3575404472351074,1.9469348625183105
1763694523531691800,7.31969189453125,9.310152430725097,2.2694038986206055,1.9502268898010253
1763694523541642000,7.32964208984375,9.485228427124023,2.1815666252136228,1.901893943786621
1763694523551592000,7.339592041015625,9.616011692810059,2.1333833168029783,1.8375497741699218
1763694523561542700,7.349542724609375,9.743502931213378,2.1754314834594726,1.767818650817871
1763694523571492900,7.359492919921875,9.891344883728026,2.2301988464355467,1.6967407890319823
1763694523581442800,7.36944287109375,9.959729268646239,2.2022166145324706,1.6264111152648926
1763694523591392800,7.379392822265625,9.913191973876952,2.2284031951904297,1.5655086105346678
1763694523601343700,7.38934375,9.823259774017334,2.199373500061035,1.5828665725708007
1763694523611293700,7.399293701171875,9.766247846984863,2.0789152290344237,1.5747861419677733
1763694523621244000,7.409243896484375,9.763404732513427,2.0011036750793454,1.5759832427978515
1763694523631193900,7.41919384765625,9.859771349334716,1.9734207183837889,1.5463549972534179
1763694523641144800,7.429144775390625,9.935039064025878,2.007089179229736,1.4897919830322264
1763694523651095000,7.439094970703125,9.891195246124267,2.079364141845703,1.4812626396179198
1763694523661044700,7.449044677734375,9.846603240203857,2.1411644721984864,1.5665560737609863
1763694523670994700,7.45899462890625,9.7170170753479,2.117072817993164,1.7507599639892577
1763694523680946000,7.46894580078125,9.418938968658447,2.0856489212036133,1.8537106353759765
1763694523690896000,7.478895751953125,8.97705912475586,2.2080524810791013,1.9277812492370605
1763694523700846000,7.48884619140625,8.756942209625244,2.34960965423584,1.9141642272949217
1763694523710795800,7.498795654296875,8.878298306274413,2.3925556465148925,1.8927660499572754
1763694523720746800,7.508746826171875,9.1416604888916,2.292747364807129,1.7966987083435058
1763694523730697000,7.518697021484375,9.451859241485595,2.129941651916504,1.7524059776306151
1763694523740647000,7.52864697265625,9.624092123413085,1.964442462158203,1.7417817077636717
1763694523750596900,7.538596923828125,9.64025298461914,1.8707693222045898,1.8371008613586424
1763694523760547800,7.5485478515625,9.756371765136718,1.7251719337463378,1.9587562332153319
1763694523770497800,7.558497802734375,9.798120656585693,1.5955857688903807,2.0657471199035644
1763694523780448000,7.568447998046875,9.58862801132202,1.590348452758789,2.1818659004211423
1763694523790398000,7.57839794921875,9.253888691711426,1.6941969497680662,2.2972364929199216
1763694523800348700,7.5883486328125,9.039607643127441,1.8152537712097168,2.324320899200439
1763694523810299000,7.598298828125,9.049783000183105,1.875707363128662,2.269703173828125
1763694523820248800,7.608248779296875,9.202263718414306,1.8990508293151855,2.156726782989502
1763694523830198800,7.61819873046875,9.364171605682373,1.9068319847106932,2.037914525604248
1763694523840149800,7.628149658203125,9.560196866607665,2.0307319206237793,1.8983026412963866
1763694523850099700,7.638099609375,9.773729727172851,2.186504666137695,1.698835715484619
1763694523860050000,7.6480498046875,9.948057535552978,2.3413795860290527,1.4823101028442383
1763694523869999900,7.657999755859375,9.962422745513916,2.36861362991333,1.3763666793823242
1763694523879950800,7.667950927734375,9.832836580657958,2.4124574478149414,1.2729670951843262
1763694523889900800,7.67790087890625,9.692177233123779,2.579752288818359,1.1703156990051269
1763694523899850800,7.687850830078125,9.573364975738524,2.7281927917480466,1.0696095916748045
1763694523909802000,7.697802001953125,9.496750522613524,2.7971757270812985,0.9623194297790527
1763694523919752000,7.707751953125,9.452757067108154,2.814832964324951,0.8822633117675781
1763694523929702000,7.717701904296875,9.491962119293213,2.664746447753906,0.8828618621826171
1763694523939651800,7.72765185546875,9.549572596740722,2.552368607330322,0.8641571617126464
1763694523949602800,7.737602783203125,9.637409870147705,2.4452280830383297,0.840813695526123
1763694523959552800,7.747552734375,9.73676923904419,2.3720552947998046,0.8213608070373535
1763694523969503000,7.7575029296875,9.759065242004393,2.3324013298034667,0.8384194938659667
1763694523979453000,7.767452880859375,9.566481645965576,2.2864625854492187,0.9024643882751464
1763694523989404000,7.77740380859375,9.290849179840087,2.2631191192626954,0.9454103805541991
1763694523999353900,7.787353759765625,9.045293872070312,2.2789807052612305,1.0244190353393554
1763694524009303800,7.7973037109375,8.883834897613525,2.291250988769531,1.0953472595214844
1763694524019254000,7.80725390625,8.820238916015624,2.3005285202026364,1.2000935821533203
1763694524029204700,7.817204833984375,8.79210704650879,2.300229244995117,1.3201029403686522
1763694524039154700,7.82715478515625,8.705466873931885,2.297535768127441,1.4555249717712402
1763694524049105000,7.83710498046875,8.584559690093993,2.283769108581543,1.556380716705322
1763694524059054800,7.847054931640625,8.494627490234375,2.269553536224365,1.6068085891723631
1763694524069006000,7.857006103515625,8.565705352020263,2.27913034286499,1.6300024177551269
1763694524078955800,7.866955810546875,8.806771531677246,2.2916999015808104,1.6015712730407714
1763694524088905700,7.87690576171875,9.07192936553955,2.3133973541259762,1.6282067665100097
1763694524098855700,7.886855712890625,9.319878874969483,2.235735437774658,1.7112556365966796
1763694524108807000,7.896806884765625,9.539846152496338,2.159120984649658,1.813757395172119
1763694524118756900,7.9067568359375,9.622895022583007,2.0796634170532227,1.923591396331787
1763694524128706800,7.916706787109375,9.470563941955566,2.0307319206237793,1.9710265167236327
1763694524138656800,7.92665673828125,9.209446323394776,2.1742343826293946,2.062604730224609
1763694524148608000,7.93660791015625,8.979004413604736,2.212691246795654,2.224961530303955
1763694524158558000,7.946557861328125,8.790161757659911,2.235735437774658,2.254290500640869
1763694524168508000,7.9565078125,8.689605287933349,2.3368904579162595,2.295141566467285
1763694524178457900,7.966457763671875,8.614636848449706,2.4058733932495118,2.3862708671569823
1763694524188408800,7.976408935546875,8.522609722137451,2.4756045166015626,2.4684219116210935
1763694524198358800,7.98635888671875,8.345438799285889,2.5610475883483885,2.5643396156311034
1763694524208309000,7.99630908203125,8.298901504516602,2.673126153564453,2.701856573486328
1763694524218259000,8.006259033203126,8.285434120178222,2.8034605064392086,2.855235117340088
1763694524228209700,8.016209716796874,8.049156343841553,2.952649197387695,3.0069676475524902
1763694524238160000,8.026159912109375,7.991845141601562,3.0406361083984375,3.059490446472168
1763694524248109800,8.03610986328125,7.970446964263916,3.1943139274597168,3.109768681335449
1763694524258059800,8.046059814453125,8.024017226409912,3.355473626708984,3.090764705657959
1763694524268010800,8.0560107421875,8.198793947601319,3.4606688621520996,2.996792290496826
1763694524277960700,8.065960693359376,8.36384422454834,3.46036958694458,2.871545616149902
1763694524287911000,8.075910888671874,8.524106098175048,3.3846529594421386,2.7627590782165528
1763694524297860600,8.085860595703124,8.703222309875487,3.2529718681335447,2.6364649406433105
1763694524307811800,8.095811767578125,9.004293168640137,3.1090204933166503,2.493112116241455
1763694524317761500,8.105761474609375,9.373149861907958,2.998587941741943,2.3678654418945313
1763694524327711700,8.115711669921875,9.757119953155517,2.907907553863525,2.226158631134033
1763694524337661700,8.12566162109375,10.114903463745117,2.819322092437744,2.126350349426269
1763694524347612700,8.13561279296875,10.320206256103514,2.7070938896179197,2.108094561767578
1763694524357563000,8.14556298828125,10.207080227661132,2.542791800689697,2.1267992622375487
1763694524367512600,8.1555126953125,9.756072489929199,2.4247277313232423,2.244713694000244
1763694524377462500,8.165462646484375,9.223362620544433,2.4102128837585446,2.4525603256225583
1763694524387413800,8.175413818359376,8.905083437347411,2.382529927062988,2.5752631607055663
1763694524397363700,8.18536376953125,8.801833490753173,2.3407810356140137,2.6765678184509274
1763694524407314000,8.19531396484375,8.797045087432862,2.3033716346740722,2.740911988067627
1763694524417263900,8.205263916015625,8.735244757080078,2.31743756942749,2.822464482116699
1763694524427214600,8.215214599609375,8.640075241088867,2.3728034828186035,2.8899510414123535
1763694524437164800,8.225164794921875,8.654590088653563,2.488024437713623,2.927958992767334
1763694524447114800,8.23511474609375,8.788216468811035,2.577806999969482,2.900425673675537
1763694524457064700,8.245064697265626,9.056516692352295,2.624493932342529,2.8172271659851074
1763694524467015700,8.255015625,9.50572877883911,2.6581623931884764,2.6364649406433105
1763694524476965600,8.264965576171875,10.018536846923828,2.678213832092285,2.414552374267578
1763694524486915800,8.274915771484375,10.45039097137451,2.674323254394531,2.237082176208496
1763694524496865800,8.28486572265625,10.710161851501464,2.6431986328124997,2.1287445510864256
1763694524506816500,8.29481640625,10.869525899505614,2.670432676696777,2.148945627593994
1763694524516766700,8.3047666015625,10.894216104125976,2.7838579803466796,2.1959318351745605
1763694524526716700,8.314716552734374,10.628908632659911,2.9351415977478026,2.2560861518859863
1763694524536666600,8.32466650390625,10.274417149353027,3.0514100158691404,2.213439434814453
1763694524546617900,8.334617919921875,9.79348189086914,3.1248820793151855,2.194734734344482
1763694524556567600,8.344567626953125,9.330952057647705,3.237559194946289,2.236034712982178
1763694524566517800,8.354517822265626,9.132083682250975,3.2404023094177243,2.323273435974121
1763694524576467700,8.3644677734375,9.165752143096924,3.1096190437316893,2.3567922592163084
1763694524586418700,8.374418701171875,9.507225154876709,2.900575311279297,2.3618799377441406
1763694524596369000,8.384368896484375,10.069263994598389,2.5516204193115235,2.2711995498657225
1763694524606318600,8.394318603515625,10.563068087005615,2.2288521080017087,2.1089923873901366
1763694524616269800,8.404269775390626,10.762235737609863,2.0407576400756833,1.8950106140136718
1763694524626219800,8.4142197265625,10.845134970092772,1.9527707290649412,1.7241244705200194
1763694524636169700,8.424169677734374,10.811316871643065,1.9315221893310546,1.5357307273864744
1763694524646120000,8.434119873046875,10.52775361251831,1.9967641845703124,1.336263801574707
1763694524656069600,8.444069580078125,10.090362896728514,2.1538836685180662,1.1807903312683106
1763694524666020600,8.4540205078125,9.733776486968994,2.306663661956787,1.0624269866943359
1763694524675970800,8.463970703125,9.665990652465819,2.284367658996582,0.9666589202880859
1763694524685920800,8.473920654296874,9.756371765136718,2.1532851181030273,0.8889970039367675
1763694524695871700,8.483871826171875,9.846303964996338,2.0787655914306638,0.8207622566223144
1763694524705821700,8.49382177734375,9.858274973297119,2.053177561187744,0.850989052581787
1763694524715771600,8.503771728515625,9.7170170753479,1.9840449882507323,0.9593266777038574
1763694524725721900,8.513721923828125,9.273042304992675,1.9410989959716796,1.0072107109069823
1763694524735671800,8.523671875,8.653841900634765,1.9635446365356444,1.0860697280883789
1763694524745622500,8.53362255859375,8.199991048431396,2.0054431655883787,1.16193599319458
1763694524755572700,8.54357275390625,8.087164295196533,2.01112939453125,1.1153986984252928
1763694524765522700,8.553522705078125,8.22902074356079,1.983596075439453,0.9867103591918944
1763694524775474000,8.563473876953125,8.548646665191649,1.960551884460449,0.8677484642028808
1763694524785424000,8.573423828125,8.933065669250487,1.9093758239746093,0.7802104660034179
1763694524795373600,8.58337353515625,9.293542656707762,1.865382368469238,0.7059902145385741
1763694524805323800,8.59332373046875,9.42911432571411,1.887229458618164,0.6322188758850097
1763694524815274800,8.603274658203125,9.238924931335449,2.005742440795898,0.5603928260803223
1763694524825224700,8.613224609375,8.978256225585938,2.187252854156494,0.5258265396118164
1763694524835175000,8.6231748046875,8.83565158920288,2.3356933570861815,0.4765957679748535
1763694524845124600,8.63312451171875,8.859144692993164,2.4899697265625,0.41105449752807616
1763694524855075800,8.643075927734374,8.952668195343017,2.636016027832031,0.3398269981384277
1763694524865025800,8.65302587890625,9.126098178100586,2.683151873016357,0.31648353195190426
1763694524874975700,8.662975830078125,9.349058207702637,2.6726772407531736,0.3705027069091797
1763694524884926000,8.672926025390625,9.560645779418945,2.5197476097106932,0.4376899909973144
1763694524894876700,8.682876708984375,9.783456171417235,2.313546991729736,0.48198272171020506
1763694524904826600,8.69282666015625,9.9461122467041,2.1607669982910154,0.5277718284606934
1763694524914776800,8.70277685546875,10.03514662094116,2.105700360107422,0.5544073219299316
1763694524924726800,8.712726806640624,10.111012886047362,2.133832229614258,0.4815338088989258
1763694524934677800,8.722677734375,10.150367575836182,2.21553436126709,0.36047698745727536
1763694524944627700,8.732627685546875,10.140790769195556,2.320879234313965,0.22176292877197265
1763694524954577700,8.74257763671875,10.135254177856444,2.4069208564758298,0.1406593475341797
1763694524964527900,8.75252783203125,10.11894367904663,2.471564301300049,0.10414777221679687
1763694524974478800,8.762478759765624,10.289979460144043,2.4431331565856933,0.05805939025878906
1763694524984428500,8.772428466796875,10.270975484466552,2.3561937088012694,0.08888473663330078
1763694524994378800,8.782378662109375,10.02302597503662,2.2890064247131345,0.13976152191162108
1763694525004328700,8.79232861328125,9.498396536254882,2.3714567443847656,0.2792237686157226
1763694525014280000,8.802280029296876,8.991873247528076,2.555211721801758,0.3585316986083984
1763694525024230000,8.81222998046875,8.691849851989746,2.808548184967041,0.3716998077392578
1763694525034179600,8.8221796875,8.543708624267577,3.0723592803955078,0.3570353225708008
1763694525044129500,8.832129638671875,8.513781103515624,3.302053002166748,0.35778351058959956
1763694525054080800,8.842080810546875,8.418910862731932,3.4222119979858396,0.4261678955078125
1763694525064030700,8.85203076171875,8.287977959442138,3.4166754066467284,0.5089174903869629
1763694525073981000,8.86198095703125,8.225279803466796,3.3616087684631344,0.5904699844360352
1763694525083930600,8.8719306640625,8.278550790405273,3.258658097076416,0.6786065330505371
1763694525093881900,8.8818818359375,8.514529291534423,3.2620997619628906,0.7107786178588866
1763694525103831800,8.891831787109375,8.837896153259276,3.2959178604125974,0.7224503509521484
1763694525113781800,8.90178173828125,9.096918845367432,3.310731983184814,0.6944681190490722
1763694525123731700,8.911731689453125,9.276633607482909,3.277662072753906,0.7082347785949706
1763694525133682700,8.9216826171875,9.409362162017821,3.143736417388916,0.737414111328125
1763694525143632600,8.931632568359374,9.495104508972167,3.0027777946472165,0.7749731498718261
1763694525153582800,8.941582763671875,9.4864255279541,2.8493992507934567,0.8565256439208984
1763694525163532800,8.95153271484375,9.42297918395996,2.723554026031494,0.8898948295593261
1763694525173483500,8.9614833984375,9.427169036865234,2.6937761428833005,0.9277531433105468
1763694525183433700,8.971433837890626,9.445873737335205,2.7468974922180176,0.9246107536315917
1763694525193383700,8.9813837890625,9.412055638885498,2.7967268142700195,0.8505401397705078
1763694525203333600,8.991333740234374,9.375843338775635,2.8725930793762204,0.7799111907958984
1763694525213284600,9.00128466796875,9.459490759277344,2.8884546653747556,0.6977601463317871
1763694525223234600,9.011234619140625,9.626486325073241,2.864063735961914,0.6087257720947266
1763694525233184800,9.021184814453125,9.74859060974121,2.7947815254211426,0.5600935508728027
1763694525243134700,9.031134765625,9.79303297805786,2.6964696197509763,0.6121674369812011
1763694525253085700,9.041085693359374,9.758167416381836,2.5975591636657716,0.6666355247497558
1763694525263035600,9.05103564453125,9.720009827423095,2.5369559341430663,0.7205050621032715
1763694525272985600,9.060985595703125,9.727192432403564,2.5062802253723144,0.7423521522521972
1763694525282935600,9.070935546875,9.701604402160644,2.5278280403137208,0.7644985176086425
1763694525292886800,9.08088671875,9.53191535949707,2.6431986328124997,0.7652467056274413
1763694525302836700,9.090836669921876,9.34127705230713,2.808548184967041,0.7766191635131835
1763694525312786700,9.10078662109375,9.18041662826538,2.933495584106445,0.8047510330200195
1763694525322736400,9.110736328125,9.02808554763794,2.982127805328369,0.8158242156982422
1763694525332687600,9.1206875,8.955511309814453,3.0359973426818847,0.8053495834350586
1763694525342637600,9.130637451171875,8.9891797706604,3.0526071166992184,0.8330325401306152
1763694525352587800,9.140587890625,9.144653240966797,3.0000843177795407,0.8078934226989746
1763694525362537700,9.150537841796876,9.31479119644165,2.971653173065185,0.7556698989868164
1763694525372488400,9.160488525390624,9.280973097991943,2.953247747802734,0.7383119369506835
1763694525382438700,9.170438720703125,9.061155458068846,2.9505542709350583,0.7582137382507323
1763694525392388600,9.180388671875,8.832658837127685,2.9517513717651367,0.7375637489318847
1763694525402338600,9.190338623046875,8.813355586242675,2.9795839660644527,0.738012661743164
1763694525412289500,9.20028955078125,8.891765690612793,2.996343377685547,0.7221510757446289
1763694525422239500,9.210239501953126,8.932766394042968,2.968061870574951,0.6619967590332031
1763694525432189700,9.220189697265624,8.987384119415283,2.964769843292236,0.6527192276000976
1763694525442139600,9.2301396484375,9.202114080810546,3.043479222869873,0.615459464263916
1763694525452090600,9.240090576171875,9.473855969238281,3.0398879203796385,0.5976525894165039
1763694525462040600,9.25004052734375,9.642347911071777,2.9632734672546386,0.5729623847961426
1763694525471990500,9.259990478515626,9.548824408721924,2.9294553688049314,0.6516717643737793
1763694525481940500,9.2699404296875,9.303418738555907,2.9349919601440426,0.7776666267395019
1763694525491891700,9.2798916015625,8.971522533416747,3.0069676475524902,0.8789712844848633
1763694525501841700,9.289841552734375,8.639626328277588,3.2351649932861326,0.8698433906555175
1763694525511791600,9.29979150390625,8.419958325958252,3.4434605377197265,0.8141782020568847
1763694525521741600,9.309741455078125,8.281393904876708,3.5509003372192383,0.7665934440612793
1763694525531692500,9.319692626953126,8.295160564422607,3.5570354789733885,0.7706336593627929
1763694525541642800,9.329642822265624,8.492233288574218,3.5001731895446775,0.8747814315795898
1763694525551592700,9.3395927734375,8.781183501434326,3.3660978965759276,0.9451111053466796
1763694525561542400,9.34954248046875,9.05980871963501,3.1790508918762206,1.033696566772461
1763694525571493600,9.35949365234375,9.155726423645019,2.9933506256103515,1.1177929000854492
1763694525581443600,9.369443603515625,9.093776455688475,2.916287259674072,1.2144587921142578
1763694525591393800,9.379393798828126,8.91974792251587,2.9213749382019043,1.259050798034668
1763694525601343700,9.38934375,8.77863966217041,3.0163948165893553,1.2455834136962889
1763694525611294500,9.39929443359375,8.738536784362793,3.1860838592529297,1.192611701965332
1763694525621244700,9.40924462890625,8.803030591583251,3.2728736694335936,1.1158476112365723
1763694525631194600,9.419194580078125,8.89371097946167,3.2843957649230955,1.025915411376953
1763694525641144600,9.42914453125,9.072976828765869,3.181295455932617,0.9666589202880859
1763694525651095600,9.439095458984376,9.412504551696777,3.0054712715148924,0.8895955543518066
1763694525661045500,9.44904541015625,9.836128607940672,2.8432641090393065,0.8023568313598632
1763694525670995700,9.45899560546875,10.161590396118163,2.7576713996887205,0.694617756652832
1763694525680945700,9.468945556640625,10.319009155273436,2.7323826446533204,0.637156916809082
1763694525690896400,9.478896484375,10.392780493927,2.7214590995788575,0.5632359405517577
1763694525700846600,9.4888466796875,10.370484490966795,2.7397148872375485,0.47315410308837885
1763694525710796500,9.498796630859376,10.341903708648681,2.761861252593994,0.4804863456726074
1763694525720746500,9.50874658203125,10.351181240081786,2.724152576446533,0.4999392341613769
1763694525730697700,9.51869775390625,10.356867469024657,2.6913819412231446,0.5063736511230469
1763694525740647700,9.528647705078125,10.306289958953856,2.618059515380859,0.5801449897766113
1763694525750597600,9.53859765625,10.211120442962645,2.510769353485107,0.6958148574829102
1763694525760547600,9.548547607421876,10.111611436462402,2.3790882621765137,0.814028564453125
1763694525770498600,9.55849853515625,9.942820219421385,2.3178864822387695,0.8750807067871094
1763694525780448800,9.56844873046875,9.712677584838866,2.2954408416748047,0.9418190780639648
1763694525790398700,9.578398681640625,9.5001921875,2.3319524169921872,1.011849476623535
1763694525800348400,9.588348388671875,9.375244788360595,2.378190436553955,1.0305541770935058
1763694525810299600,9.598299560546875,9.367313995361327,2.3873183303833008,1.0298059890747069
1763694525820249600,9.60824951171875,9.362675229644775,2.3632266761779785,1.0218751960754393
1763694525830199800,9.61819970703125,9.292944106292724,2.386570142364502,1.043273373413086
1763694525840149800,9.628149658203125,9.241319132995605,2.447173371887207,1.101931314086914
1763694525850100500,9.6381005859375,9.239224206542968,2.4747066909790036,1.0868179161071776
1763694525860050700,9.64805078125,9.201365892791747,2.513462830352783,1.0718541557312011
1763694525870000600,9.658000732421876,9.07207900314331,2.613720024871826,1.0577882209777831
1763694525879950600,9.66795068359375,8.967183042907715,2.6927286796569825,1.070058504486084
1763694525889901600,9.677901611328124,8.8619878074646,2.7557261108398436,1.0492588775634766
1763694525899851500,9.6878515625,8.870666788482666,2.826953610229492,1.0069114356994628
1763694525909801500,9.697801513671875,8.999355127716063,2.893392706298828,0.9358335739135741
1763694525919751700,9.707751708984375,9.171438372039795,2.905962265014648,0.8762778076171874
1763694525929702400,9.717702392578126,9.334992272949219,2.8420670082092285,0.831236888885498
1763694525939652600,9.727652587890624,9.42926396331787,2.7590181381225585,0.8460510116577148
1763694525949602600,9.7376025390625,9.470713579559325,2.6420015319824217,0.8925883064270019
1763694525959552500,9.747552490234375,9.494954871368408,2.5110686286926267,0.8994716361999511
1763694525969503700,9.757503662109375,9.491513206481933,2.424129180908203,0.9130886581420898
1763694525979453400,9.767453369140625,9.483432775878907,2.395548398590088,0.9177274238586425
1763694525989403400,9.7774033203125,9.517250874328612,2.4033295539855954,0.9205705383300781
1763694525999353600,9.787353515625,9.517999062347412,2.3699603683471677,0.9250596664428711
1763694526009304600,9.7973046875,9.458144020843505,2.2972364929199216,0.9201216255187987
1763694526019254800,9.8072548828125,9.439738595581055,2.21553436126709,0.9274538681030273
1763694526029204500,9.81720458984375,9.444676636505127,2.1472996139526366,0.9421183532714843
1763694526039154400,9.827154541015625,9.469067565917967,2.114678616333008,0.9132382957458496
1763694526049104600,9.837104736328126,9.547926583099365,2.111386589050293,0.8527847038269043
1763694526059055600,9.8470556640625,9.642647186279296,2.0910358749389646,0.8144774772644042
1763694526069005600,9.857005615234375,9.714922148895264,2.0795137794494627,0.7457938171386719
1763694526078955800,9.866955810546875,9.713725048065186,2.0693384223937987,0.6874351516723632
1763694526088906500,9.876906494140625,9.648034140014648,2.083703632354736,0.6651391487121582
1763694526098856700,9.886856689453126,9.626635962677002,2.1339818672180173,0.6444891593933105
1763694526108806700,9.896806640625,9.623343935394287,2.2022166145324706,0.6082768592834472
1763694526118756600,9.906756591796874,9.540743978118895,2.2334908737182615,0.5969044013977051
1763694526128706800,9.916706787109375,9.355791899871825,2.2279542823791503,0.6419453201293945
1763694526138657500,9.926657470703125,9.122057962799072,2.212242333984375,0.6753145057678223
1763694526148607500,9.936607421875,8.939350448608398,2.246210070037842,0.7576151878356933
1763694526158557700,9.9465576171875,8.864082733917236,2.2641665824890134,0.8518868782043456
1763694526168507600,9.956507568359376,8.870217875671386,2.281075631713867,0.9923965881347656
1763694526178458600,9.966458740234375,8.852111725616455,2.291550263977051,1.1183914505004882
1763694526188408600,9.97640869140625,8.810811746978759,2.3228245231628417,1.1722609878540038
1763694526198358500,9.986358642578125,8.760982424926757,2.3171382942199705,1.2765583976745605
1763694526208308700,9.996308837890625,8.688707462310791,2.316839019012451,1.334917063140869
1763694526218259500,10.006259521484376,8.65114842376709,2.2967875801086426,1.4208090476989745
1763694526228209400,10.01620947265625,8.731803092193603,2.297086855316162,1.4260463638305663
1763694526238159600,10.02615966796875,8.95745659866333,2.391657820892334,1.3910311645507811
1763694526248109600,10.036109619140625,9.224709358978272,2.460042205810547,1.317110188293457
1763694526258060800,10.046060791015625,9.692027595520019,2.51555775680542,1.1435305679321288
1763694526268010500,10.056010498046875,10.062530302429199,2.5555109970092773,0.9503484214782715
1763694526277960400,10.06596044921875,10.15755018081665,2.568978381347656,0.8644564369201659
1763694526287910700,10.07591064453125,10.066121604919433,2.554313896179199,0.877175633239746
1763694526297861600,10.085861572265625,10.045172340393066,2.556259185028076,0.8376713058471679
1763694526307811600,10.0958115234375,10.101585717010497,2.543539988708496,0.8077437850952148
1763694526317761500,10.105761474609375,10.171316840362548,2.4774001678466795,0.8171709541320801
1763694526327711500,10.11571142578125,10.145579172515868,2.3970447746276853,0.8936357696533203
1763694526337662500,10.125662353515626,10.037391184997558,2.286761860656738,1.0199299072265624
1763694526347612700,10.13561279296875,9.89583401184082,2.1046528968811034,1.179293955230713
1763694526357562600,10.145562744140625,9.776273566436767,1.9155109657287597,1.3516764747619627
1763694526367512600,10.1555126953125,9.564985269927979,1.80672442779541,1.543811157989502
1763694526377463600,10.165463623046875,9.300725261688232,1.7395371437072753,1.7076643341064452
1763694526387413500,10.17541357421875,9.04664061050415,1.7124527374267577,1.8412907142639159
1763694526397363500,10.185363525390626,8.958952974700928,1.7344494651794433,1.9009961181640624
1763694526407313700,10.195313720703124,9.000103315734863,1.7755998062133789,1.9129671264648436
1763694526417264400,10.205264404296875,9.051429013824462,1.815702684020996,1.8658312812805176
1763694526427214600,10.215214599609375,9.18026699066162,1.861641428375244,1.7980454467773437
1763694526437164500,10.22516455078125,9.26975027770996,1.9852420890808105,1.7137994758605957
1763694526447114500,10.235114501953126,9.283816212463378,2.1881506797790524,1.5831658477783201
1763694526457065500,10.2450654296875,9.236381092071532,2.391358545684814,1.483058290863037
1763694526467015400,10.255015380859374,9.166649968719481,2.5629928771972654,1.3670891479492187
1763694526476965400,10.26496533203125,9.177723151397705,2.733729383087158,1.2756605720520018
1763694526486915600,10.27491552734375,9.311648806762694,2.880523872375488,1.2137106040954588
1763694526496866600,10.284866455078125,9.488969367218017,3.0119056884765625,1.1411363662719727
1763694526506816500,10.29481640625,9.6028435836792,3.10931976852417,1.1074679054260252
1763694526516766500,10.304766357421874,9.622745384979247,3.149422646331787,1.1318588348388672
1763694526526716400,10.31471630859375,9.498695811462401,3.105429190826416,1.2220903099060059
1763694526536667600,10.324667724609375,9.293393019104004,2.9836241813659665,1.3558663276672362
1763694526546617600,10.33461767578125,9.083750736236572,2.863914098358154,1.5499462997436522
1763694526556567600,10.344567626953125,9.062053283691405,2.726546778106689,1.7229273696899412
1763694526566517500,10.354517578125,9.15482859802246,2.577806999969482,1.8375497741699218
1763694526576468500,10.364468505859374,9.222165519714355,2.5195979721069333,1.8932149627685546
1763694526586418700,10.374418701171875,9.285013313293456,2.4718635765075683,1.9258359603881834
1763694526596368600,10.38436865234375,9.355941537475585,2.414103461456299,1.9538181922912596
1763694526606318600,10.394318603515625,9.443778810882568,2.337339370727539,1.9295769004821777
1763694526616269600,10.40426953125,9.478494734954834,2.2738930267333983,1.8888754722595213
1763694526626219500,10.414219482421874,9.488670092010498,2.3062147491455076,1.8619407035827635
1763694526636169500,10.42416943359375,9.613467853546142,2.371157469177246,1.757493656158447
1763694526646119700,10.43411962890625,9.762806182098387,2.450465399169922,1.6219219871520996
1763694526656070400,10.4440703125,9.925013344573975,2.5577555610656737,1.4853028549194336
1763694526666020600,10.4540205078125,10.053402408599853,2.636165665435791,1.361103643798828
1763694526675970600,10.463970458984376,10.124779545593261,2.731933731842041,1.2376526206970213
1763694526685920500,10.47392041015625,10.15725090560913,2.84086990737915,1.1475707832336426
1763694526695871500,10.48387158203125,10.103830281066895,2.9366379737854,1.1722609878540038
1763694526705821400,10.493821533203125,9.95314521408081,3.0138509773254394,1.189918225097656
1763694526715771400,10.503771484375,9.816077169036864,3.021632132720947,1.1706149742126464
1763694526725721600,10.5137216796875,9.730035546875,2.966864769744873,1.142183829498291
1763694526735672600,10.523672607421876,9.708936644744872,2.93050283203125,1.1212345649719238
1763694526745622500,10.53362255859375,9.76220763168335,2.883217349243164,1.138293251800537
1763694526755572500,10.543572509765625,9.77462755279541,2.8233623077392576,1.1879729362487792
1763694526765522400,10.5535224609375,9.667337390899657,2.8124387626647946,1.2600982612609863
1763694526775473700,10.5634736328125,9.421333170318603,2.87289235458374,1.3654431343078612
1763694526785423600,10.573423583984376,9.132083682250975,2.871695253753662,1.4733318466186522
1763694526795373300,10.583373291015626,8.872462439727782,2.8673557632446287,1.6003741722106932
1763694526805323500,10.593323486328124,8.72821178970337,2.8012159423828122,1.7010802795410156
1763694526815274500,10.6032744140625,8.709806364440917,2.781164503479004,1.795800882720947
1763694526825224400,10.613224365234375,8.694244053649902,2.686593537902832,1.7357962036132812
1763694526835174700,10.623174560546875,8.748861779022215,2.6541221778869626,1.6397288619995116
1763694526845124600,10.63312451171875,9.013720337677002,2.5508722312927246,1.4983213264465332
1763694526855074300,10.64307421875,9.448417576599121,2.3976433250427243,1.2690765174865721
1763694526865025500,10.653025634765624,9.905111543273925,2.2532430374145505,1.1317091972351074
1763694526874975500,10.6629755859375,10.307636697387695,2.1172224555969237,1.018283893585205
1763694526884925700,10.67292578125,10.558429321289061,1.9898808547973632,0.8925883064270019
1763694526894875600,10.682875732421875,10.566659389495848,1.882740330505371,0.8068459594726562
1763694526904826400,10.692826416015626,10.40011273651123,1.848922232055664,0.8158242156982422
1763694526914776600,10.702776611328124,10.101136804199218,1.8924667747497557,0.8258499351501465
1763694526924726500,10.7127265625,9.80051485824585,1.9074305351257324,0.8423100715637206
1763694526934676500,10.722676513671875,9.581894319152832,1.8192939865112303,0.8743325187683105
1763694526944627500,10.73262744140625,9.41040962524414,1.7648258987426757,0.8743325187683105
1763694526954577400,10.742577392578125,9.281422010803222,1.7941548690795897,0.8798691101074219
1763694526964527600,10.752527587890626,9.258976370239257,1.828421880340576,0.9021651130676269
1763694526974477600,10.7624775390625,9.30147344970703,1.8956091644287107,0.9121908325195311
1763694526984428300,10.77242822265625,9.399635717773437,1.9271826988220213,0.8623615104675293
1763694526994378500,10.78237841796875,9.475053070068359,2.0130746833801267,0.8209118942260741
1763694527004328400,10.792328369140625,9.558401215362549,2.046892781829834,0.8547299926757812
1763694527014278400,10.8022783203125,9.708936644744872,2.042104378509521,0.8421604339599609
1763694527024229600,10.812229736328124,9.88341409072876,1.9987094734191893,0.7396586753845215
1763694527034179300,10.822179443359374,9.872041632843017,1.9265841484069823,0.6845920372009276
1763694527044129500,10.832129638671875,9.740959091949462,1.8454805671691894,0.6890811653137207
1763694527054079500,10.84207958984375,9.661800799560547,1.7998410980224608,0.7365162857055664
1763694527064030500,10.852030517578125,9.753827925872802,1.6723498596191406,0.7619546783447265
1763694527073980700,10.861980712890626,9.894187998199463,1.5523405014038085,0.6857891380310058
1763694527083930400,10.871930419921876,10.097994414520263,1.5442600708007812,0.6022913551330566
1763694527093880300,10.88188037109375,10.121637155914305,1.4241010749816894,0.5934627365112304
1763694527103831600,10.89183154296875,9.982174909210205,1.2556091331481933,0.5859808563232421
1763694527113781500,10.901781494140625,9.903166254425049,1.1119570335388183,0.6025906303405761
1763694527123731700,10.911731689453125,9.848997441864013,1.065569376373291,0.5992986030578613
1763694527133681400,10.921681396484376,9.715670336914062,1.0242693977355957,0.647332273864746
1763694527143632400,10.93163232421875,9.520692539215087,1.089212117767334,0.6109703361511231
1763694527153582600,10.94158251953125,9.344120166778564,1.2428899368286133,0.5779004257202148
1763694527163532500,10.951532470703125,9.173982211303711,1.373822840118408,0.5262754524230957
1763694527173482500,10.961482421875,9.05262611465454,1.5994763465881348,0.45444940261840816
1763694527183433500,10.97143359375,8.975862023925782,1.858499038696289,0.4332008628845215
1763694527193383400,10.981383544921876,8.846425496673584,2.076221752166748,0.4079121078491211
1763694527203333600,10.991333740234374,8.689605287933349,2.2565350646972653,0.4429273071289062
1763694527213283600,11.00128369140625,8.434772448730468,2.3555951583862305,0.5433341392517089
1763694527223234300,11.011234375,8.252064934539794,2.4589947425842285,0.6431424209594726
1763694527233184500,11.0211845703125,8.253411672973632,2.5055320373535155,0.7393594001770019
1763694527243134500,11.031134521484375,8.377161971282959,2.5311200675964356,0.7806593788146973
1763694527253084400,11.04108447265625,8.61209300918579,2.5739164222717283,0.7987655288696288
1763694527263035600,11.05103564453125,8.910470391082763,2.573617147064209,0.850989052581787
1763694527272985300,11.0609853515625,9.214683639526367,2.45779764175415,0.8294412376403808
1763694527282935600,11.070935546875,9.450961415863036,2.338087558746338,0.7945756759643554
1763694527292885500,11.080885498046875,9.635314943695068,2.2194249389648437,0.8255506599426269
1763694527302837200,11.090837158203126,9.772382988739013,2.073079362487793,0.848445213317871
1763694527312787000,11.100786865234374,9.981277083587646,1.9719243423461912,0.8102876243591308
1763694527322737200,11.110737060546874,10.243142890167237,1.9262848731994628,0.7351695472717285
1763694527332687000,11.12068701171875,10.548553239440917,1.8996493797302245,0.6367080039978027
1763694527342637000,11.130636962890625,10.708964750671386,1.8754080879211426,0.6455366226196289
1763694527352588300,11.14058837890625,10.699238306427,1.8128595695495604,0.6884826148986816
1763694527362538000,11.1505380859375,10.487650734710693,1.790114653778076,0.75971011428833
1763694527372488000,11.160488037109374,10.078691163635254,1.8812439544677733,0.8173205917358398
1763694527382438100,11.170438232421875,9.630676177978515,2.0968717414855957,0.8526350662231444
1763694527392389000,11.18038916015625,9.242665871429443,2.359036823272705,0.8934861320495605
1763694527402339300,11.19033935546875,8.989927958679198,2.5897780082702635,0.8438064476013183
1763694527412289000,11.2002890625,8.845078758239746,2.7638065414428707,0.8051999458312988
1763694527422239000,11.210239013671876,8.69514187927246,2.8794764091491696,0.8349778289794921
1763694527432190200,11.220190185546874,8.589946643829345,2.883366986846924,0.8988730857849121
1763694527442140200,11.23014013671875,8.52964268951416,2.9206267501831054,0.9353846611022949
1763694527452090000,11.240090087890625,8.518868782043457,3.0078654731750487,0.9279027809143066
1763694527462040000,11.2500400390625,8.527398125457763,3.056198419189453,0.9080009796142577
1763694527471991000,11.259990966796876,8.525003923797607,3.025522710418701,0.9337386474609375
1763694527481941000,11.26994091796875,8.518120594024658,3.0048727210998534,0.91293902053833
1763694527491891200,11.27989111328125,8.54221224822998,3.025522710418701,0.8999205490112304
1763694527501841200,11.289841064453125,8.567052090454101,3.029862200927734,0.9142857589721679
1763694527511792000,11.299792236328125,8.6183777885437,2.9665654945373534,0.9507973342895507
1763694527521742000,11.3097421875,8.75888749847412,2.8458079483032224,1.0015244819641114
1763694527531692000,11.319692138671876,8.947430879211426,2.658611305999756,1.0322001907348632
1763694527541642200,11.329642333984374,9.121010499572753,2.4658780723571776,1.0736498069763183
1763694527551593000,11.339593017578125,9.263016585540772,2.2946926536560057,1.1053729789733886
1763694527561543000,11.34954296875,9.415796578979492,2.184709014892578,1.1454758567810057
1763694527571493000,11.3594931640625,9.555558100891112,2.135927156066894,1.1586439659118652
1763694527581443000,11.369443115234375,9.682450788879393,2.1089923873901366,1.146074407196045
1763694527591394300,11.379394287109376,9.752780462646484,2.0820576187133786,1.1813888816833495
1763694527601344000,11.389343994140624,9.685742816162108,2.0617069046020506,1.2455834136962889
1763694527611294000,11.3992939453125,9.503484214782715,2.0241478660583496,1.2937667221069336
1763694527621244200,11.409244140625,9.322572351837158,2.0350714111328125,1.373224289703369
1763694527631195100,11.419195068359375,9.363722692871093,2.034772135925293,1.452981132507324
1763694527641145000,11.42914501953125,9.563788169097899,2.0636521934509275,1.5040075553894041
1763694527651095000,11.439094970703126,9.737517427062988,2.120813758087158,1.5408184059143066
1763694527661045000,11.449044921875,9.762656544494629,2.121561946105957,1.5973814201354979
1763694527670996200,11.458996337890625,9.747243871307372,2.122160496520996,1.5834651229858399
1763694527680946200,11.4689462890625,9.759663792419433,2.185457202911377,1.5777788940429687
1763694527690896100,11.478896240234375,9.866804316711425,2.155230406951904,1.5566799919128418
1763694527700846000,11.48884619140625,10.06148283920288,2.05587103805542,1.505354293823242
1763694527710797000,11.498797119140624,10.175057780456543,2.0000562118530274,1.4818611900329588
1763694527720747000,11.5087470703125,10.094702387237549,1.9921254188537596,1.4501380180358885
1763694527730697200,11.518697265625,10.026916552734374,2.089389861297607,1.3332710494995117
1763694527740647200,11.528647216796875,9.985317298889159,2.2641665824890134,1.2548609451293944
1763694527750597000,11.53859716796875,9.89613328704834,2.3760955101013184,1.1777975791931152
1763694527760548000,11.548548095703126,9.798719207000731,2.4070704940795897,1.153556287384033
1763694527770498000,11.558498046875,9.650129066467285,2.4438813446044922,1.1800421432495116
1763694527780448300,11.5684482421875,9.547926583099365,2.4467244590759276,1.1566986770629881
1763694527790398200,11.578398193359375,9.481936399841308,2.4658780723571776,1.1127052215576172
1763694527800349000,11.588348876953125,9.494805233764648,2.562543964385986,1.0645219131469725
1763694527810299100,11.598299072265625,9.545382743835448,2.6509797882080077,1.0160393295288086
1763694527820249000,11.6082490234375,9.58249286956787,2.7000609222412106,1.024718310546875
1763694527830199000,11.618198974609374,9.552415711212157,2.684797886657715,1.0772411094665526
1763694527840150000,11.62814990234375,9.402778107452392,2.6874913635253903,1.1842319961547851
1763694527850100000,11.638099853515625,9.18131445388794,2.664746447753906,1.248127252960205
1763694527860050200,11.64805029296875,8.984840280151367,2.6445453712463376,1.193210252380371
1763694527870000000,11.658000244140625,8.933664219665527,2.6114754608154294,1.0886135673522948
1763694527879951000,11.667951171875,9.161711927795409,2.4628853202819823,0.9714473236083984
1763694527889901000,11.677901123046874,9.58294178237915,2.2486042716979977,0.9087491676330566
1763694527899851000,11.68785107421875,10.011503879547119,2.1275474502563476,0.8503905021667479
1763694527909801000,11.697801025390625,10.280701928710936,2.0527286483764646,0.7826046676635742
1763694527919752200,11.707752197265625,10.204835663604737,2.022501852416992,0.7504325828552245
1763694527929702100,11.7177021484375,9.746944596099853,2.0732290000915525,0.7517793212890624
1763694527939652000,11.727652099609376,9.172186560058593,2.273593751525879,0.8032546569824218
1763694527949602000,11.73760205078125,8.805275155639649,2.4664766227722166,0.814627114868164
1763694527959553000,11.747552978515625,8.679130655670166,2.5317186180114746,0.6980594215393066
1763694527969503200,11.757503173828125,8.643666543579101,2.6030957550048828,0.6711246528625487
1763694527979453200,11.767453125,8.602815477752685,2.692130129241943,0.6622960342407226
1763694527989403100,11.777403076171876,8.629301333618164,2.699163096618652,0.6385036552429199
1763694527999354000,11.78735400390625,8.764274452209472,2.6499323249816893,0.6148609138488769
1763694528009304000,11.797303955078124,8.882787434387206,2.57915373840332,0.5773018753051757
1763694528019254300,11.807254150390625,9.084050011444091,2.5068787757873534,0.5743091232299804
1763694528029204200,11.817204345703125,9.28306802444458,2.347514727783203,0.5994482406616211
1763694528039155000,11.827155029296875,9.412504551696777,2.1820155380249022,0.665887336730957
1763694528049105200,11.837105224609376,9.458293658447266,2.0473416946411134,0.747589468383789
1763694528059055000,11.84705517578125,9.464129524993895,2.0274398933410644,0.8086416107177734
1763694528069005000,11.857005126953124,9.428515775299072,2.0540753868103026,0.8583212951660156
1763694528078955300,11.866955322265625,9.400982456207275,2.1411644721984864,0.9216180015563964
1763694528088906000,11.876906005859375,9.515006310272216,2.19623111038208,0.9624690673828125
1763694528098856200,11.886856201171875,9.654767832183838,2.1062989105224608,0.9917980377197265
1763694528108806100,11.89680615234375,9.648632690429688,1.9933225196838378,1.0726023437499999
1763694528118756000,11.906756103515624,9.60748234939575,1.8828899681091307,1.1742062767028807
1763694528128707000,11.91670703125,9.647884502410887,1.8222867385864256,1.2346598686218262
1763694528138657000,11.926656982421875,9.806949275207518,1.8637363548278807,1.2463316017150878
1763694528148607000,11.93660693359375,10.001478160095214,2.0028993263244628,1.2594997108459471
1763694528158557200,11.94655712890625,10.159345832061767,2.1817162628173827,1.2277765388488768
1763694528168508200,11.956508056640626,10.134356352233887,2.3116017028808593,1.2298714653015137
1763694528178458000,11.9664580078125,9.962422745513916,2.3478140029907224,1.2774562232971192
1763694528188408000,11.976407958984375,9.718663088989258,2.2967875801086426,1.3561656028747557
1763694528198358000,11.98635791015625,9.542240354156494,2.265812596130371,1.4151228187561034
1763694528208309200,11.996309326171875,9.549123683929443,2.269553536224365,1.4044985488891601
1763694528218259200,12.00625927734375,9.712378309631347,2.2535423126220704,1.392377902984619
1763694528228209000,12.016208984375,9.898527488708496,2.203114440155029,1.388636962890625
1763694528238159000,12.0261591796875,10.014795906829834,2.131737303161621,1.4170681076049805
1763694528248110000,12.036110107421875,10.054749147033691,2.0228011276245117,1.4745289474487304
1763694528258060300,12.046060302734375,9.993846642303467,1.8302175315856932,1.5904980903625487
1763694528268010200,12.05601025390625,9.957933617401123,1.6606781265258788,1.6470611045837402
1763694528277960000,12.0659599609375,10.032752419281005,1.5400702178955077,1.6623241401672362
1763694528287911200,12.0759111328125,10.13166287536621,1.4018050720214843,1.624914739227295
1763694528297860900,12.08586083984375,10.167575900268554,1.3109750465393066,1.617133583831787
1763694528307810800,12.095810791015625,10.152612139892577,1.2684779670715332,1.6225205375671385
1763694528317761000,12.105760986328125,10.097994414520263,1.2342109558105467,1.599925259399414
1763694528327711700,12.115711669921875,10.046818354034423,1.1571475898742676,1.5409680435180664
1763694528337662000,12.125661865234376,10.018536846923828,1.1673229469299315,1.4591162742614745
1763694528347612000,12.13561181640625,10.014945544433592,1.2312182037353514,1.3673884231567381
1763694528357561900,12.145561767578124,9.964517671966552,1.268627604675293,1.2431892120361328
1763694528367512800,12.155512939453125,9.881468801879882,1.4221557861328125,1.1791443176269532
1763694528377462800,12.165462890625,9.781361244964598,1.605611488342285,1.1167454368591307
1763694528387412700,12.175412841796875,9.690531219482422,1.7456722854614257,1.0166378799438476
1763694528397363000,12.185363037109376,9.452158516693114,1.7956512451171873,1.0009259315490722
1763694528407313000,12.19531298828125,9.063998572540283,1.8546084609985352,1.1127052215576172
1763694528417263900,12.205263916015625,8.731354179382324,1.8921674995422362,1.2981062126159668
1763694528427213800,12.2152138671875,8.548048114776611,1.8353052101135252,1.446097802734375
1763694528437163800,12.225163818359375,8.387337328338623,1.7277157730102537,1.6219219871520996
1763694528447114000,12.235114013671875,8.034192583465575,1.7317559883117675,1.7613842338562011
1763694528457065000,12.24506494140625,7.738807953643798,1.8770541015625,1.789516103363037
1763694528467015000,12.255014892578124,7.785943798828124,2.0265420677185055,1.7932570434570312
1763694528476964900,12.26496484375,8.269123621368408,2.1404162841796874,1.7120038246154785
1763694528486914800,12.274914794921875,8.780734588623046,1.952321816253662,1.7175404159545897
1763694528496866000,12.284865966796875,8.984690642547607,1.6309002433776854,1.911470750427246
1763694528506816000,12.29481591796875,8.945485590362548,1.3238438804626464,2.210147407531738
1763694528516766000,12.304765869140626,8.902240322875976,1.13649760055542,2.4563012657165526
1763694528526716000,12.3147158203125,8.917952271270751,1.1499649848937987,2.5597008499145506
1763694528536667000,12.3246669921875,8.971821808624266,1.3142670738220215,2.5534160705566404
1763694528546616800,12.334616943359375,9.02658917160034,1.5777788940429687,2.5807997520446775
1763694528556567000,12.344567138671875,8.855703028106689,1.9003975677490232,2.513313192749023
1763694528566517000,12.35451708984375,8.636483938598632,2.1823148132324217,2.476502342224121
1763694528576468000,12.364468017578124,8.57423469543457,2.3205799591064453,2.501791097259521
1763694528586418000,12.37441796875,8.508543787384033,2.26641114654541,2.5369559341430663
1763694528596368000,12.384367919921875,8.437166650390624,2.2474071708679197,2.436698739624023
1763694528606318000,12.394318115234375,8.64486364440918,2.3982418754577637,2.1197662948608396
1763694528616268800,12.404268798828125,9.14914236907959,2.498199794769287,1.834257746887207
1763694528626218800,12.41421875,9.954641590118408,2.5834932289123533,1.483058290863037
1763694528636169000,12.4241689453125,10.953921508026122,2.447173371887207,1.1707646118164061
1763694528646119000,12.434118896484375,11.655572232055663,2.1262007118225097,0.9885060104370117
1763694528656070000,12.44406982421875,11.824662724304199,1.7699135772705077,0.9181763366699218
1763694528666019800,12.454019775390625,11.735029799652098,1.416020644378662,0.7817068420410156
1763694528675969800,12.4639697265625,11.028740309906006,1.3166612754821776,0.7094318794250488
1763694528685920000,12.473919921875,9.8572275100708,1.4477438163757324,0.7944260383605957
1763694528695870000,12.483869873046874,9.125349990081787,1.6283564041137695,0.7802104660034179
1763694528705820700,12.493820556640625,8.862586357879637,1.8400936134338377,0.7411550514221191
1763694528715771000,12.50377099609375,8.81709652633667,2.035969236755371,0.6657376991271973
1763694528725720800,12.513720947265625,8.771008144378662,2.1390695457458495,0.6376058296203613
1763694528735670800,12.5236708984375,8.52380682296753,2.261473105621338,0.6774094322204589
1763694528745622000,12.5336220703125,8.265233043670653,2.3110031524658203,0.7073369529724121
1763694528755572000,12.543572021484374,7.949348062133788,2.3138462669372557,0.7784148147583008
1763694528765522000,12.55352197265625,7.7389575912475586,2.4239795433044433,0.8092401611328125
1763694528775471900,12.563471923828125,7.6182000450134275,2.510918991088867,0.8213608070373535
1763694528785422800,12.5734228515625,7.885602442932129,2.7647043670654297,0.4857236618041992
1763694528795373000,12.583373046875,9.324368003082276,3.8072295524597166,-0.39279870986938475
1763694528805323000,12.593322998046874,7.602937009429931,4.079121078491211,0.21757307586669922
1763694528815272700,12.603272705078124,9.702202952575684,4.59013349533081,-0.6667851623535156
1763694528825224000,12.613223876953125,10.265289255523681,4.621258116912841,-1.0347440299987793
1763694528835174000,12.623173828125,8.719383171081542,4.483441883850097,-0.15816694717407226
1763694528845124000,12.6331240234375,7.949048786926269,3.838952724456787,0.476895043182373
1763694528855074000,12.643073974609376,9.65297218093872,3.214365366363525,0.27398645248413084
1763694528865024800,12.653024658203124,10.672004262542725,2.627785959625244,0.19422960968017577
1763694528874975000,12.66297509765625,10.529998176574706,2.0362685119628905,0.9229647399902343
1763694528884925000,12.672925048828125,10.504559783935546,1.546205359649658,1.153705924987793
1763694528894875000,12.682875,10.766425590515135,1.2674305038452147,1.2165537185668944
1763694528904825900,12.692825927734376,11.174636973571777,1.660528488922119,1.11075993270874
1763694528914775800,12.70277587890625,11.125406201934814,1.9231424835205078,0.924461116027832
1763694528924726000,12.71272607421875,11.119271060180663,2.097769567108154,0.581641365814209
1763694528934676000,12.722676025390625,11.297938359069823,2.203712990570068,0.5563526107788086
1763694528944626700,12.732626708984375,11.647342163848876,2.1365257064819336,0.6462848106384277
1763694528954577000,12.742576904296875,11.796381217193602,1.988085203552246,0.636558366394043
1763694528964526800,12.75252685546875,11.342231089782715,1.9729718055725096,0.8708908538818358
1763694528974476800,12.762476806640626,11.023802268981933,2.045396405792236,0.9680056587219238
1763694528984428000,12.772427978515625,10.758345159912109,2.1607669982910154,0.4038718925476074
1763694528994377700,12.782377685546875,10.390685567474364,2.346317626953125,0.206200617980957
1763694529004327700,12.79232763671875,9.808595288848876,2.335842994689941,0.28580782318115233
1763694529014278000,12.80227783203125,9.26331586074829,2.496853056335449,0.049230771636962885
1763694529024227800,12.812227783203125,9.77402900238037,2.7858032691955565,0.1836053398132324
1763694529034179000,12.822178955078124,10.376619632720947,3.0262708984374997,0.2123357597351074
1763694529044128800,12.832128662109374,10.224138914489746,3.3364696510314937,0.33623569564819333
1763694529054078700,12.84207861328125,9.280823460388183,3.5974376319885253,0.07302315063476562
1763694529064029000,12.85202880859375,8.961197538757323,2.941276739501953,0.3000233955383301
1763694529073980000,12.86197998046875,8.99546455001831,3.1082723052978514,-0.15607202072143553
1763694529083929900,12.871929931640626,9.778218855285644,3.1842882080078123,-0.29433716659545894
1763694529093880000,12.881880126953124,11.311106468200682,3.0775965965270995,-0.14619593887329102
1763694529103829800,12.891829833984374,12.477980502319335,2.6632500717163086,0.1623568000793457
1763694529113781000,12.901781005859375,12.905345498657226,2.1429601234436033,0.24974516067504882
1763694529123731000,12.91173095703125,12.242600551605223,1.8508675209045409,0.19782091217041015
1763694529133681000,12.921680908203125,10.008511127471923,1.437119546508789,0.15876549758911132
