time,seconds_elapsed,z,y,x
1763693835145200000,0.0482001953125,6.56968935546875,7.274332831573486,0.07990648040771484
1763693835155150000,0.058150146484375,7.101351761627197,7.046285123443603,0.08858546142578125
1763693835165100000,0.06810009765625,7.483077288818359,6.596773761749267,0.08843582382202148
1763693835175050200,0.07805029296875,7.271340079498291,6.343736573791504,0.08858546142578125
1763693835185000200,0.088000244140625,6.898742446136474,6.709301239776611,0.15248071823120116
1763693835194950100,0.0979501953125,6.450128910064697,7.117512622833251,0.09322422714233398
1763693835204900400,0.107900390625,6.622960342407226,7.256825231933593,0.08738836059570312
1763693835214850300,0.117850341796875,6.955006185150146,7.01635760269165,0.1292868896484375
1763693835224800000,0.127800048828125,7.11885936126709,6.675483141326904,0.055365913391113276
1763693835234749200,0.137749267578125,7.223605683898925,6.582857464599609,0.11432312927246092
1763693835244699100,0.14769921875,7.24021545791626,6.8782420944213865,0.24705168380737302
1763693835254649000,0.157649169921875,7.0938698814392085,7.072770979309082,0.2223614791870117
1763693835264599000,0.16759912109375,7.0747162681579585,7.08668727645874,0.20081366424560546
1763693835274549200,0.17754931640625,6.667552348327637,6.855946091461181,0.030974983978271482
1763693835284499200,0.187499267578125,6.568492254638672,6.629394759368896,-0.06434416961669921
1763693835294449200,0.19744921875,6.694187841796874,6.640019029235839,0.07407061386108398
1763693835304399400,0.2073994140625,6.914903307342529,6.983287692260742,0.11297639083862304
1763693835314349000,0.21734912109375,7.26505530014038,7.142502102661132,0.17417817077636719
1763693835324299000,0.227299072265625,7.36082336654663,6.935254021453857,0.18405425262451172
1763693835334248200,0.237248291015625,7.127239067077636,6.7371338340759275,-0.05461772537231445
1763693835344198100,0.2471982421875,7.018602166748046,6.7037646484375,0.011671733093261718
1763693835354148000,0.257148193359375,6.6796729942321775,6.918045697021484,0.10145429534912109
1763693835364098000,0.26709814453125,6.636727001953124,7.136815873718262,0.05252279891967773
1763693835374048300,0.27704833984375,6.7673606300354,6.917896059417724,0.26695348510742184
1763693835383998200,0.286998291015625,6.854898628234863,6.785766055297851,0.19078794479370115
1763693835393948200,0.2969482421875,7.1787144027709955,6.6337342498779295,0.13108254089355467
1763693835403898000,0.306898193359375,7.383418644714355,6.721122610473633,0.328155265045166
1763693835413848000,0.31684814453125,7.097461183929443,7.06738402557373,0.17043723068237304
1763693835423798000,0.326798095703125,7.121403200531005,7.101351761627197,0.2211643783569336
1763693835433747200,0.336747314453125,6.730998692321777,6.886621800231933,0.16564882736206055
1763693835443697200,0.346697265625,6.6246063560485835,6.821529442596435,-0.08439560852050781
1763693835453647000,0.356647216796875,6.944082640075683,6.816890676879883,0.07003039855957031
1763693835463597300,0.366597412109375,7.112574581909179,6.996904714202881,0.037110125732421874
1763693835473547300,0.37654736328125,7.480383811950683,7.00977354812622,0.0718260498046875
1763693835483497200,0.386497314453125,7.277175946044921,6.744914989471435,0.25303718795776364
1763693835493447400,0.396447509765625,6.651541124725341,6.649595835876465,0.005536591339111328
1763693835503397000,0.406397216796875,6.502502071380615,6.742670425415039,0.062249243164062495
1763693835513347000,0.41634716796875,6.4356140625,7.013364850616455,0.14395137481689452
1763693835523297000,0.426297119140625,6.958148574829101,7.2237553215026855,0.14888941574096679
1763693835533247200,0.436247314453125,7.519139951324463,6.921038449096679,0.34970307998657224
1763693835543196200,0.446196044921875,7.386261759185791,6.590937895202637,0.2041056915283203
1763693835553146000,0.45614599609375,7.154024198150634,6.611887159729004,0.14454992523193358
1763693835563096300,0.466096435546875,6.778433812713622,6.892158391571044,0.1927332336425781
1763693835573046300,0.47604638671875,6.455216588592529,7.158513326263427,-0.04803367080688476
1763693835582996200,0.485996337890625,6.7645175155639645,7.020098542785644,0.13392565536499024
1763693835592946200,0.4959462890625,6.785766055297851,6.791601921844482,0.02858078231811523
1763693835602896100,0.505896240234375,6.976554000091553,6.634781713104248,-0.06823474731445311
1763693835612846000,0.51584619140625,7.229441550445556,6.693140378570556,0.1370680450439453
1763693835622796300,0.52579638671875,7.221810032653808,6.986729357147216,0.09038111267089843
1763693835632746200,0.535746337890625,7.18245534286499,7.084293074798584,0.14948796615600585
1763693835642695700,0.54569580078125,7.123198851776123,7.05466482925415,0.29613281784057616
1763693835652645600,0.555645751953125,6.683563571929931,6.845621096801757,0.025139117431640625
1763693835662595600,0.565595703125,6.795193224334716,6.657526628875732,0.1801636749267578
1763693835672545800,0.5755458984375,6.714987468719482,6.647650547027587,0.2102408332824707
1763693835682495500,0.58549560546875,6.873752966308594,6.986579719543457,0.07721300354003906
1763693835692445400,0.595445556640625,7.128735443115234,7.005134782409668,0.34386721343994137
1763693835702395600,0.605395751953125,7.151779634094238,6.9141551193237305,0.2219125663757324
1763693835712345600,0.615345703125,7.020697093200683,6.906972514343261,0.12135609664916991
1763693835722295600,0.625295654296875,6.912060192871094,6.846219647216796,0.28909985046386716
1763693835732245500,0.63524560546875,6.651241849517822,6.8210805297851556,0.051774610900878905
1763693835742194700,0.645194580078125,6.819135240936279,6.740874774169922,0.013916297149658202
1763693835752144600,0.65514453125,7.045985848236084,6.946925754547118,0.12330138549804687
1763693835762094600,0.665094482421875,7.22061293182373,7.148487606811523,-0.01840542526245117
1763693835772044500,0.67504443359375,7.417984931182861,7.011419561767577,0.12808978881835936
1763693835781994500,0.684994384765625,7.150881808471679,6.750900493621826,0.08678981018066406
1763693835791944400,0.6949443359375,6.808361333465576,6.554725595092773,0.022445640563964843
1763693835801894700,0.704894775390625,6.661417206573486,6.744466076660156,0.2045546043395996
1763693835811844600,0.7148447265625,6.4266358062744136,7.184400631713867,0.044891281127929686
1763693835821794600,0.724794677734375,6.795193224334716,7.067683300781249,0.08514379653930663
1763693835831744800,0.734744873046875,7.161356440734862,6.610091508483887,0.19393033447265623
1763693835841694700,0.74469482421875,7.31638099822998,6.656778440856933,0.031872809600830075
1763693835851643600,0.7546435546875,7.268347327423095,6.83125588684082,0.23343466186523437
1763693835861593600,0.764593505859375,7.016058327484131,7.045088022613525,0.1854009910583496
1763693835871543600,0.77454345703125,6.806266407012939,7.046883673858642,0.004638765716552734
1763693835881493500,0.784493408203125,6.78651424331665,6.896946794891357,0.11941080780029296
1763693835891443500,0.794443359375,6.815095025634765,6.964732629394531,-0.06359598159790039
1763693835901393700,0.8043935546875,7.133823121643066,6.847416748046874,-0.0028431144714355467
1763693835911343600,0.814343505859375,7.211784313201904,6.618770489501952,0.14350246200561523
1763693835921293600,0.82429345703125,7.13786333694458,6.796390325164794,0.061949967956542965
1763693835931243800,0.834243896484375,6.831704799652099,6.944681190490722,0.1731307075500488
1763693835941193500,0.844193359375,6.657676266479492,6.994061599731445,0.09412205276489258
1763693835951142700,0.854142578125,6.884077960968018,6.997952177429199,0.09023147506713866
1763693835961092400,0.86409228515625,7.031770275878906,6.781276927185059,0.24600422058105467
1763693835971042600,0.87404248046875,7.096413720703125,6.684910310363769,0.10564414825439453
1763693835980992500,0.883992431640625,6.980294940185546,6.796091049957275,0.17941548690795897
1763693835990942500,0.8939423828125,6.873304053497314,6.98403588027954,0.1701379554748535
1763693836000892700,0.903892578125,7.087734739685058,7.090278578948975,0.03696048812866211
1763693836010842600,0.913842529296875,7.273883918762206,6.969221757507324,0.177470198059082
1763693836020792600,0.92379248046875,7.179013677978515,6.834398276519775,0.04159925384521484
1763693836030742500,0.933742431640625,6.787711344146728,6.7085530517578125,-0.028880057525634766
1763693836040692500,0.9436923828125,6.586748042297363,6.659920830535889,0.0757166275024414
1763693836050641700,0.9536416015625,6.523900248718261,6.8056678565979,-0.06943184814453125
1763693836060591400,0.96359130859375,6.904578312683105,7.060201420593262,0.1771709228515625
1763693836070541600,0.97354150390625,7.217320904541015,7.133673484039306,0.23702596435546874
1763693836080491500,0.983491455078125,7.493103008270263,6.885424699401855,0.19572598571777342
1763693836090441500,0.99344140625,7.273285368347167,6.616226650238037,0.3541922080993652
1763693836100391700,1.0033916015625,6.862829421234131,6.763769327545166,0.18555062866210936
1763693836110341600,1.013341552734375,6.375609383392334,6.816292126464844,0.09906009368896483
1763693836120291600,1.02329150390625,6.380248149108886,7.080851409912109,0.10115502014160156
1763693836130241500,1.033241455078125,6.871358764648437,7.1781158523559565,-0.04519055633544922
1763693836140191500,1.04319140625,7.671171756744385,6.861781958007812,0.11985972061157225
1763693836150141400,1.053141357421875,7.970596601867675,6.687903062438965,0.12853870162963865
1763693836160090400,1.06309033203125,7.317129186248779,6.579565437316894,-0.06778583450317383
1763693836170040600,1.07304052734375,6.4740709266662595,6.554875232696533,0.025737667846679687
1763693836179990500,1.082990478515625,6.074388887023925,6.962039152526855,-0.025438392639160156
1763693836189940500,1.0929404296875,6.280290229797363,7.27777449645996,0.05252279891967773
1763693836199890700,1.102890625,7.245752049255371,7.285705289459228,0.3227683113098144
1763693836209840600,1.112840576171875,7.704690579986572,6.8493620368957515,0.2642600082397461
1763693836219790300,1.122790283203125,7.663839514160156,6.3907227813720695,0.28042086944580075
1763693836229740500,1.132740478515625,7.113173132324218,6.451475648498535,0.26276363220214843
1763693836239690500,1.1426904296875,6.299443843078613,6.94602792892456,0.021398177337646485
1763693836249640400,1.152640380859375,6.2310594581604,7.359177352905273,0.11866261978149413
1763693836259589600,1.162589599609375,6.720524060058593,7.388805598449706,0.07332242584228515
1763693836269539600,1.17253955078125,7.344512867736816,6.837989579010009,-0.023642741394042967
1763693836279489500,1.182489501953125,7.717709051513672,6.344634399414062,0.1197100830078125
1763693836289439700,1.192439697265625,7.179761865997314,6.415263348388671,-0.0025438392639160153
1763693836299389700,1.2023896484375,6.748805567169189,6.854000802612305,0.04608838195800781
1763693836309339600,1.212339599609375,6.503998447418213,7.178415127563476,0.15682020874023436
1763693836319289300,1.222289306640625,6.593781009674072,7.3198226631164545,0.028431144714355466
1763693836329239600,1.232239501953125,7.120056462097168,6.980893490600586,0.17372925796508787
1763693836339189500,1.242189453125,7.201758593749999,6.559962911224365,0.17342998275756835
1763693836349139500,1.252139404296875,7.068730764007568,6.43501551208496,0.08753799819946288
1763693836359088600,1.262088623046875,6.96563045501709,6.756736360168457,0.26186580657958985
1763693836369038600,1.27203857421875,6.817489227294922,7.223306408691406,0.2305915473937988
1763693836378988500,1.281988525390625,7.051971352386474,7.329848382568359,0.16295535049438475
1763693836388938800,1.291938720703125,7.265653850555419,6.9442322776794425,0.15741875915527342
1763693836398888700,1.301888671875,6.917896059417724,6.465990496063232,-0.03860650177001953
1763693836408838400,1.31183837890625,6.772597946166992,6.439803915405273,0.028880057525634766
1763693836418788600,1.32178857421875,6.724863550567626,6.909067440795898,0.1105821891784668
1763693836428738600,1.331738525390625,6.719775872039794,7.257573419952392,0.03366846084594726
1763693836438688500,1.3416884765625,7.231087564086914,7.135768410491943,0.1876455551147461
1763693836448638700,1.351638671875,7.310694769287109,6.825270382690429,0.07586626510620116
1763693836458588700,1.361588623046875,7.196222002410888,6.637924102783202,0.043544542694091797
1763693836468537600,1.37153759765625,7.021894194030761,6.704363198852539,0.22864625854492185
1763693836478487600,1.381487548828125,6.511330690002441,6.940192062377929,0.07422025146484375
1763693836488437800,1.391437744140625,6.547692627716064,6.927772141265868,0.1541267318725586
1763693836498387500,1.401387451171875,6.795941412353515,6.998550727844238,0.17567454681396483
1763693836508337400,1.41133740234375,7.0640919982910155,7.041347082519531,0.01705868682861328
1763693836518287600,1.42128759765625,7.568370722961426,6.748356654357909,0.1762730972290039
1763693836528237600,1.431237548828125,7.491756269836426,6.722319711303711,0.1927332336425781
1763693836538187500,1.4411875,6.886621800231933,6.791153009033203,0.03965396499633789
1763693836548137700,1.4511376953125,6.702118634796142,6.911012729644775,0.1518821678161621
1763693836558087700,1.461087646484375,6.406734004974365,7.170185059356689,-0.014664485168457031
1763693836568036600,1.47103662109375,6.91400548171997,7.032668101501464,-0.013916297149658202
1763693836577986600,1.480986572265625,7.32281541519165,6.713042179870605,0.1545756446838379
1763693836587936500,1.4909365234375,7.228843000030517,6.729801591491698,0.035464112091064454
1763693836597886500,1.500886474609375,7.094019519042968,6.687454149627685,0.15307926864624022
1763693836607836400,1.51083642578125,6.8408326934814445,6.87569825515747,0.22131401596069333
1763693836617786600,1.52078662109375,6.5485904533386226,7.0753148185729975,-0.00852934341430664
1763693836627736600,1.530736572265625,6.836642840576172,6.944681190490722,0.2163759750366211
1763693836637686500,1.5406865234375,6.947823580169677,6.933757645416259,0.19737199935913086
1763693836647636700,1.55063671875,7.167940495300293,6.861183407592773,0.10459668502807616
1763693836657586700,1.560586669921875,7.344213592529297,6.675333503723144,0.3559878593444824
1763693836667536600,1.57053662109375,6.9998974662780755,6.8673185493469235,0.14125789794921875
1763693836677485800,1.58048583984375,6.8958993316650385,6.967725381469726,0.054468087768554684
1763693836687435500,1.590435546875,6.78007982635498,6.912359468078613,0.14499883804321287
1763693836697385700,1.6003857421875,6.619219402313232,6.871508402252197,-0.11177929000854492
1763693836707335700,1.610335693359375,6.948422130584716,6.708702689361572,0.07062894897460938
1763693836717285600,1.62028564453125,7.003788043975829,6.817938140106201,0.14903905334472656
1763693836727235800,1.63023583984375,6.993762324523925,7.025934409332275,-0.04938040924072265
1763693836737185800,1.640185791015625,7.223306408691406,6.885723974609375,0.22939444656372068
1763693836747135700,1.6501357421875,7.172429623413086,6.932111631774902,0.1566705711364746
1763693836757085700,1.660085693359375,6.967426106262207,6.860884132385253,0.061949967956542965
1763693836767035600,1.67003564453125,6.944681190490722,6.766013891601562,0.31693244476318355
1763693836776984600,1.679984619140625,6.580762538146972,6.914604032135009,0.07915829238891602
1763693836786934500,1.6899345703125,6.7824740280151365,6.873154415893555,0.12988544006347655
1763693836796884700,1.699884765625,7.0455369354248045,6.841281606292724,0.26710312271118164
1763693836806834700,1.709834716796875,7.081150685119629,6.99091921005249,-0.01331774673461914
1763693836816784600,1.71978466796875,7.213729602050781,6.763021139526367,0.19812018737792966
1763693836826734800,1.72973486328125,7.128136892700195,6.801926916503906,0.11941080780029296
1763693836836684800,1.739684814453125,6.813000099182129,6.862530146026611,-0.06344634399414062
1763693836846634800,1.749634765625,6.919990985870361,6.872855140686035,0.174926358795166
1763693836856584700,1.759584716796875,6.72276862411499,7.06753366317749,-0.03007715835571289
1763693836866534700,1.76953466796875,6.889315277099609,6.934356195831298,0.04878185882568359
1763693836876484600,1.779484619140625,7.11197603149414,6.639121203613281,0.28086978225708004
1763693836886433500,1.78943359375,7.008726084899902,6.845172183990478,0.0665887336730957
1763693836896383700,1.7993837890625,7.098209371948242,6.874201879119872,0.2284966209411621
1763693836906333700,1.809333740234375,7.2258502479553215,7.0461354858398435,0.21188684692382811
1763693836916283600,1.81928369140625,7.007379346466064,7.072471704101562,0.0037409400939941405
1763693836926233900,1.82923388671875,6.982689141845703,6.777835262298583,0.2109890213012695
1763693836936183800,1.839183837890625,6.687304512023926,6.72276862411499,0.06344634399414062
1763693836946133500,1.849133544921875,6.522553510284424,6.813000099182129,-0.0008978256225585938
1763693836956083700,1.859083740234375,6.943184814453125,6.905775413513183,0.20814590682983397
1763693836966033700,1.86903369140625,7.155670211791992,7.06109924621582,0.008828618621826172
1763693836975983600,1.878983642578125,7.408408124542236,6.953659446716308,0.08649053497314453
1763693836985933800,1.888933837890625,7.3097969436645505,6.681618283081054,0.17896657409667968
1763693836995882800,1.8988828125,6.747458828735351,6.670694738006591,0.037708676147460936
1763693837005832700,1.908832763671875,6.437409713745117,6.841580881500244,0.20126257705688474
1763693837015782700,1.91878271484375,6.621912879180908,7.181707154846191,0.2302922721862793
1763693837025732900,1.92873291015625,6.942286988830566,7.1297829063415525,0.11611878051757812
1763693837035682600,1.9386826171875,7.593659477996826,6.769156281280517,0.26336218261718747
1763693837045632500,1.948632568359375,7.395539290618896,6.635679538726806,0.08230068206787108
1763693837055582700,1.958582763671875,6.912060192871094,6.646603083801269,0.05521627578735351
1763693837065532700,1.96853271484375,6.672041476440429,6.855347541046142,0.1619078872680664
1763693837075482600,1.978482666015625,6.457910065460204,7.127987255096435,0.031872809600830075
1763693837085432800,1.988432861328125,6.720075147247314,7.000047103881836,0.049530046844482416
1763693837095382800,1.9983828125,7.204302433013916,6.848613848876953,0.11387421646118163
1763693837105331700,2.008331787109375,7.293037532043456,6.804171480560302,-0.010773907470703125
1763693837115281700,2.01828173828125,7.579144630432128,6.691943277740478,0.18405425262451172
1763693837125231600,2.028231689453125,7.297975572967529,6.827215671539307,0.26351182022094727
1763693837135181600,2.038181640625,6.647800184631348,6.960393138885498,0.046238019561767575
1763693837145131500,2.048131591796875,6.562207475280761,6.903979762268066,0.13003507766723632
1763693837155081700,2.058081787109375,6.550685379791259,6.852953339385986,0.020500351715087888
1763693837165031700,2.06803173828125,6.939443874359131,6.832752262878418,0.05237316131591797
1763693837174981600,2.077981689453125,7.429357389068603,6.87569825515747,0.3232172241210937
1763693837184931800,2.087931884765625,7.236324880218506,6.8439750831604,0.23313538665771483
1763693837194881800,2.0978818359375,7.077409745025634,6.7182794960021965,0.1836053398132324
1763693837204830700,2.107830810546875,6.825569657897949,6.885424699401855,0.20994155807495116
1763693837214780700,2.11778076171875,6.562207475280761,7.2246531471252435,-0.06299743118286133
1763693837224730600,2.127730712890625,6.771550482940674,7.018003616333007,0.021996727752685546
1763693837234680600,2.1376806640625,7.186495558166503,6.809558434295654,0.17328034515380858
1763693837244630500,2.147630615234375,7.034463752746581,6.686855599212646,0.020051438903808592
1763693837254580700,2.157580810546875,7.080851409912109,6.617124475860595,0.17761983566284179
1763693837264530700,2.16753076171875,6.673088939666748,6.731297967529296,0.086191259765625
1763693837274480600,2.177480712890625,6.62670128250122,7.002291667938232,-0.02319382858276367
1763693837284430800,2.187430908203125,7.087585102081299,7.185597732543945,0.23777415237426758
1763693837294380500,2.197380615234375,7.277624858856201,7.260416534423828,0.13542203140258788
1763693837304330500,2.20733056640625,7.624035911560058,6.796539962768554,0.24735095901489257
1763693837314279700,2.21727978515625,7.361721192169189,6.484395921325683,0.26560674667358397
1763693837324229600,2.227229736328125,6.600215426635742,6.69733023147583,-0.0004489128112792969
1763693837334179600,2.2371796875,6.326079336547851,6.892008753967285,0.0809539436340332
1763693837344129800,2.2471298828125,6.551583205413818,7.263858199310302,0.13512275619506836
1763693837354079700,2.257079833984375,6.8411319686889644,7.1689879585266105,-0.006284779357910156
1763693837364029700,2.26702978515625,7.652018143463135,6.591087532806396,0.2454056701660156
1763693837373979600,2.276979736328125,7.336432437133789,6.462848106384277,0.09561842880249023
1763693837383929900,2.286929931640625,6.930166342926025,6.7000237083435055,0.005536591339111328
1763693837393879600,2.296879638671875,6.663212857818603,6.909815628814697,0.15427636947631834
1763693837403829500,2.30682958984375,6.48050534362793,7.328800919342041,0.012868833923339843
1763693837413779700,2.31677978515625,6.929867067718505,7.255478493499756,0.09726444244384765
1763693837423728600,2.326728759765625,7.461379836273193,6.872406227874755,0.23882161560058593
1763693837433678600,2.3366787109375,7.313238608551025,6.455665501403808,0.01601122360229492
1763693837443628800,2.34662890625,7.148637244415283,6.3061775352478024,0.1683423042297363
1763693837453578800,2.356578857421875,6.523152060699463,6.887220350646972,0.14469956283569335
1763693837463528700,2.36652880859375,6.234201847839355,7.3484034454345695,0.03007715835571289
1763693837473479000,2.37647900390625,6.991966673278808,7.136217323303223,0.2995744827270508
1763693837483428600,2.3864287109375,7.3371806251525875,7.010821011352538,0.20216040267944335
1763693837493378600,2.396378662109375,7.3389762763977044,6.7359367332458495,0.12689268798828124
1763693837503328800,2.406328857421875,7.190835048675536,6.426037255859375,0.28431144714355466
1763693837513278700,2.41627880859375,6.546046614074706,6.679224081420898,0.03232172241210937
1763693837523228700,2.426228759765625,6.525396624755859,7.014861226654053,0.08319850769042968
1763693837533177600,2.436177490234375,7.111377481079101,7.333589322662353,0.2397194412231445
1763693837543127800,2.4461279296875,7.076811194610595,7.230638651275634,-0.053420624542236325
1763693837553077800,2.456077880859375,7.4185834815979,6.615927375030517,0.03845686416625976
1763693837563027700,2.46602783203125,7.11885936126709,6.378602135467529,0.062249243164062495
1763693837572977700,2.475977783203125,6.5494882789611815,6.692242552947998,-0.03531447448730469
1763693837582927600,2.485927734375,6.6899979888916015,7.019948905181884,0.22101474075317382
1763693837592877600,2.495877685546875,6.790255183410644,7.400028418731689,0.22310966720581055
1763693837602827800,2.505827880859375,7.1018006744384765,7.107636540985107,0.09367313995361327
1763693837612777700,2.51577783203125,7.621342434692382,6.3973068359375,0.3124433166503906
1763693837622727700,2.525727783203125,6.910563816833496,6.404639078521728,0.10564414825439453
1763693837632676600,2.535676513671875,6.482300994873047,6.762721864318848,0.09292495193481445
1763693837642626800,2.545626708984375,6.650493661499023,7.072920616912842,0.29822774429321286
1763693837652575700,2.55557568359375,6.890362740325927,7.333738960266113,0.042048166656494135
1763693837662526000,2.56552587890625,7.749731498718261,7.053916641235351,0.09202712631225586
1763693837672476000,2.575475830078125,7.766640547943115,6.65902300491333,0.08424597091674804
1763693837682425900,2.58542578125,6.807762783050537,6.494272003173828,-0.19467852249145506
1763693837692375800,2.595375732421875,6.449231084442138,6.551732843017578,0.07556698989868163
1763693837702325800,2.60532568359375,6.105812783813477,7.097910096740722,0.14185644836425781
1763693837712275700,2.615275634765625,6.604106004333496,7.493402283477783,0.037708676147460936
1763693837722226000,2.625225830078125,7.559392466735839,7.0470333114624015,0.30137013397216794
1763693837732176000,2.63517578125,7.592163101959228,6.613233898162841,0.12808978881835936
1763693837742124800,2.645124755859375,7.292738256835937,6.356904682922363,0.08783727340698241
1763693837752074800,2.65507470703125,6.934954746246338,6.628347296142578,0.3794809631347656
1763693837762025000,2.66502490234375,6.201281575012207,7.255328855895995,0.0900818374633789
1763693837771975000,2.674974853515625,6.715436381530761,7.369801622772217,0.19078794479370115
1763693837781924600,2.684924560546875,7.109881105041503,7.067982575988769,0.18106150054931638
1763693837791874800,2.694874755859375,7.256226681518554,6.681618283081054,-0.1714846939086914
1763693837801824800,2.70482470703125,7.464372588348388,6.259490602874756,0.09786299285888671
1763693837811774700,2.714774658203125,6.835146464538574,6.564601676940917,0.12988544006347655
1763693837821725000,2.724724853515625,6.307224998474121,7.131728195190429,-0.09606734161376952
1763693837831675000,2.7346748046875,6.726659201812744,7.230339376068115,0.17417817077636719
1763693837841624800,2.744624755859375,7.026084046936035,7.197568740844726,0.03696048812866211
1763693837851573800,2.75457373046875,7.511957346343993,6.884377236175537,-0.020201076507568357
1763693837861524000,2.76452392578125,7.652616693878174,6.44803398361206,0.3630208267211914
1763693837871473700,2.7744736328125,6.802974379730224,6.591087532806396,0.1771709228515625
1763693837881423600,2.784423583984375,6.532279954528808,6.92687431564331,0.2615665313720703
1763693837891373800,2.794373779296875,6.508487575531006,7.1136220451354975,0.3624222763061523
1763693837901323800,2.80432373046875,6.723965724945068,7.260266896820068,-0.03366846084594726
1763693837911273700,2.814273681640625,7.46332512512207,6.825420020294189,0.1322796417236328
1763693837921224000,2.824223876953125,7.381622993469238,6.566995878601074,0.19647417373657225
1763693837931174000,2.834173828125,6.878840644836425,6.685059947967529,-0.20485387954711912
1763693837941123800,2.844123779296875,6.8691142005920405,6.730699417114257,0.13287819213867186
1763693837951073800,2.85407373046875,6.5680433418273925,7.128136892700195,-0.07721300354003906
1763693837961023000,2.86402294921875,6.925677214813232,7.27163935470581,-0.24390929412841794
1763693837970972700,2.87397265625,7.442675135803222,6.85669427947998,0.1393126091003418
1763693837980922600,2.883922607421875,7.318775199890136,6.571485006713867,0.05955576629638672
1763693837990872800,2.893872802734375,7.005434057617187,6.498611493682861,0.2819172454833984
1763693838000822800,2.90382275390625,6.528688652038574,6.7848682296752925,0.47494975433349607
1763693838010772700,2.913772705078125,6.102221481323242,7.122899576568603,0.18210896377563476
1763693838020723000,2.923722900390625,6.827215671539307,7.206546997070312,0.35778351058959956
1763693838030673000,2.9336728515625,7.356034963226318,6.997802539825439,0.28520927276611324
1763693838040622600,2.94362255859375,7.639747859954833,6.843226895141601,0.1331774673461914
1763693838050572800,2.95357275390625,7.501931626892089,6.593631372070312,0.3290530906677246
1763693838060522800,2.963522705078125,6.86986238861084,6.82437255706787,0.08155249404907226
1763693838070471700,2.9734716796875,6.322488034057617,6.9056257759094235,-0.16983868026733398
1763693838080422000,2.983421875,6.764667153167724,7.005733332824707,-0.061650692749023434
1763693838090371800,2.993371826171875,6.834099001312255,7.123498126983642,-0.2979284690856933
1763693838100321800,3.00332177734375,7.242011109161377,6.817638864898681,-0.14425065002441406
1763693838110271700,3.013271728515625,7.491307357025146,6.461202092742919,0.15637129592895507
1763693838120222000,3.023221923828125,6.8673185493469235,6.63328533706665,0.06763619689941405
1763693838130171600,3.033171630859375,6.717531307983398,6.835745014953613,0.24794950942993163
1763693838140121600,3.04312158203125,6.708702689361572,7.175721650695801,0.2180219886779785
1763693838150071800,3.05307177734375,6.791901197052002,7.2246531471252435,0.16265607528686524
1763693838160021800,3.063021728515625,7.3365820747375485,6.858041017913818,0.4165910888671875
1763693838169971700,3.0729716796875,7.3569327888488765,6.702268272399902,0.32606033859252925
1763693838179921000,3.0829208984375,6.982988417053222,6.577919423675537,0.17776947326660156
1763693838189870800,3.092870849609375,6.9247793891906735,6.750451580810546,0.2741360900878906
1763693838199820800,3.10282080078125,6.50564446105957,7.055113742065429,-0.08155249404907226
1763693838209771000,3.11277099609375,6.949170318603516,7.094318794250488,-0.07481880187988281
1763693838219721000,3.122720947265625,7.405116097259521,6.9545572723388664,0.0796072052001953
1763693838229670700,3.132670654296875,7.0920742301940916,6.730549779510498,-0.07466916427612304
1763693838239620900,3.142620849609375,7.010521736145019,6.449380722045898,0.0330699104309082
1763693838249570800,3.15257080078125,6.703166098022461,6.679822631835937,0.10684124908447265
1763693838259520800,3.162520751953125,6.541856761169433,7.189039397430419,-0.001496376037597656
1763693838269471000,3.172470947265625,7.13786333694458,7.30381143951416,0.2889502128601074
1763693838279421000,3.1824208984375,7.193229250335693,7.179911503601073,0.17776947326660156
1763693838289369900,3.192369873046875,7.273135730743408,6.599317601013183,0.2145803237915039
1763693838299319800,3.20231982421875,7.20160895614624,6.370222429656982,0.3178302703857422
1763693838309270000,3.21227001953125,6.444442681121826,6.856245366668701,0.04908113403320312
1763693838319219700,3.2222197265625,6.4549173133850095,7.198915479278564,0.05521627578735351
1763693838329169700,3.232169677734375,6.95904640045166,7.164648468017577,0.20530279235839843
1763693838339119900,3.242119873046875,7.091625317382812,6.924031201171875,-0.02124853973388672
1763693838349069800,3.25206982421875,7.508366043853759,6.5485904533386226,0.1484405029296875
1763693838359019800,3.262019775390625,7.157914775848388,6.529586477661132,0.1649006393432617
1763693838368970000,3.271969970703125,6.600664339447021,6.819284878540039,-0.04713584518432617
1763693838378920000,3.281919921875,6.56939008026123,6.941838076019287,0.14335282440185546
1763693838388870000,3.291869873046875,6.623109980010986,7.308450205230712,0.08978256225585937
1763693838398818800,3.30181884765625,6.996455801391601,7.191283961486816,0.05416881256103515
1763693838408768800,3.311768798828125,7.746140196228027,6.71633420715332,0.3064578125
1763693838418718700,3.32171875,7.570316011810302,6.592583908843994,0.14829086532592772
1763693838428668700,3.331668701171875,7.165995206451416,6.676380966949463,0.11237784042358398
1763693838438619000,3.341618896484375,6.634482437896728,6.899490634155273,0.1919850456237793
1763693838448568800,3.35156884765625,6.055684186553955,7.17587128829956,-0.10354922180175781
1763693838458518800,3.361518798828125,6.573430295562744,6.957998937225342,0.09023147506713866
1763693838468469000,3.371468994140625,7.122899576568603,6.853402252197265,0.18180968856811522
1763693838478419000,3.3814189453125,7.438485282897949,6.847416748046874,0.028730419921875
1763693838488368600,3.39136865234375,7.656656909179687,6.608894407653808,0.24794950942993163
1763693838498318800,3.40131884765625,7.129483631134033,6.753593970489502,0.14784195251464843
1763693838508267800,3.411267822265625,6.425289067840576,6.9521630706787105,-0.044891281127929686
1763693838518217700,3.4212177734375,6.553528494262695,7.127089429473877,0.21068974609375
1763693838528167700,3.431167724609375,6.543353137207031,7.231536476898193,0.06000467910766601
1763693838538118000,3.441117919921875,7.292588619232177,6.865223622894287,0.13871405868530273
1763693838548067800,3.45106787109375,7.57869571762085,6.398503936767578,0.26485855865478514
1763693838558017800,3.461017822265625,7.004386594390868,6.604405279541015,0.002992752075195312
1763693838567968000,3.470968017578125,6.68431175994873,6.837241390991211,0.08664017257690429
1763693838577917700,3.480917724609375,6.724564275360107,7.21417851486206,0.2018611274719238
1763693838587867600,3.49086767578125,6.788010619354248,7.27777449645996,0.05746083984375
1763693838597817900,3.50081787109375,7.342268303680419,6.829011322784424,0.2919429649353027
1763693838607767800,3.510767822265625,7.148487606811523,6.643610331726074,0.14215572357177733
1763693838617716700,3.520716796875,6.771999395751953,6.599467238616943,-0.050727147674560547
1763693838627666700,3.530666748046875,6.910563816833496,6.6258034568786615,0.203656778717041
1763693838637617000,3.540616943359375,6.757634185791015,7.1769187515258785,0.09202712631225586
1763693838647566800,3.55056689453125,6.931961994171142,7.268796240234375,0.0522235237121582
1763693838657516800,3.560516845703125,7.322366502380371,6.913706206512451,0.23119009780883787
1763693838667466800,3.570466796875,7.046285123443603,6.6647092338562,0.008678981018066407
1763693838677416700,3.580416748046875,6.940341699981689,6.516268730926513,0.020051438903808592
1763693838687366700,3.59036669921875,6.804171480560302,6.937498585510253,0.11552023010253906
1763693838697316900,3.60031689453125,6.499509319305419,7.254281392669677,-0.00613514175415039
1763693838707266800,3.610266845703125,7.0920742301940916,6.962338427734375,0.19826982498168944
1763693838717216800,3.620216796875,7.266850951385497,6.848913124084472,0.18046295013427732
1763693838727165700,3.630165771484375,7.087585102081299,6.801777278900146,0.09172785110473632
1763693838737116000,3.640115966796875,7.122899576568603,6.580313625335693,0.24824878463745115
1763693838747065900,3.65006591796875,6.9342065582275385,6.921786637115478,0.20679916839599607
1763693838757015800,3.660015869140625,6.629394759368896,7.024587670898437,0.15038579177856445
1763693838766965800,3.6699658203125,6.9333087326049805,6.846967835235596,0.3082534637451172
1763693838776915700,3.679915771484375,6.577320873260498,6.742820063018798,0.013168109130859374
1763693838786865700,3.68986572265625,6.969670670318603,6.755539259338378,0.006883329772949218
1763693838796816000,3.69981591796875,7.4119994270324705,6.808211695861816,0.17776947326660156
1763693838806765800,3.709765869140625,7.447014626312256,7.264456749725341,0.016460136413574217
1763693838816715800,3.7197158203125,7.53320588607788,7.022043831634521,0.04144961624145507
1763693838826666000,3.729666015625,7.0944684318542475,6.687304512023926,0.028131869506835935
1763693838836615700,3.73961572265625,6.375759020996093,6.704063923645019,-0.1897404815673828
1763693838846564900,3.74956494140625,6.474819114685058,6.751499044036865,0.030825346374511717
1763693838856514800,3.759514892578125,6.617423751068115,7.062745259857177,0.13991115951538086
1763693838866464800,3.76946484375,7.049726788330077,7.072621341705322,0.12659341278076172
1763693838876414700,3.779414794921875,7.653514519500732,6.698377694702148,0.381126976776123
1763693838886364700,3.78936474609375,7.249044076538086,6.639121203613281,0.2154781494140625
1763693838896315000,3.79931494140625,6.88871672668457,6.688950525665283,0.16774375381469725
1763693838906264800,3.809264892578125,6.6814686454772945,6.842179431915283,0.3564367721557617
1763693838916214800,3.81921484375,6.483348458099365,7.239616907501221,0.1662473777770996
1763693838926165000,3.8291650390625,6.866420723724365,7.129932543945312,0.15427636947631834
1763693838936114700,3.83911474609375,7.370998723602295,6.923283013153076,0.1906383071899414
1763693838946064600,3.849064697265625,7.28465782623291,6.776787799072265,-0.15592238311767578
1763693838956013800,3.859013916015625,7.459584185028076,6.5385647338867185,0.013617021942138671
1763693838965963800,3.8689638671875,6.937348947906494,6.725911013793945,-0.027682956695556638
1763693838975913700,3.878913818359375,6.400000312805175,7.073219892120361,-0.23074118499755858
1763693838985864000,3.888864013671875,6.5023524337768555,6.893954042816162,-0.02498947982788086
1763693838995814000,3.89881396484375,6.723666449737548,6.991517760467529,-0.015263035583496093
1763693839005763800,3.908763916015625,7.133074933624267,6.920290261077881,0.04848258361816406
1763693839015714000,3.918714111328125,7.637054383087158,6.717531307983398,0.4038718925476074
1763693839025663700,3.928663818359375,7.269993341064453,6.754940708923339,0.29837738189697266
1763693839035613700,3.93861376953125,7.065738011932373,6.85684391708374,0.3990834892272949
1763693839045563600,3.948563720703125,6.758232736206054,6.968174294281005,0.476895043182373
1763693839055513900,3.958513916015625,6.374412282562256,7.148786882019042,0.15367781906127928
1763693839065462800,3.968462890625,6.799981627655029,6.925228302001953,0.2814683326721191
1763693839075412700,3.978412841796875,7.059153957366943,6.867468186950683,0.19437924728393555
1763693839085363000,3.988363037109375,6.963834803771972,6.779331638336181,-0.001197100830078125
1763693839095313000,3.99831298828125,7.351096922302245,6.635080988311767,0.11133037719726561
1763693839105262800,4.008262939453125,6.874501154327392,6.787860981750488,-0.09636661682128905
1763693839115212800,4.018212890625,6.85669427947998,7.013065575408935,-0.27099370040893556
1763693839125162800,4.028162841796875,6.930764893341064,6.899939546966553,-0.04803367080688476
1763693839135112700,4.03811279296875,6.687903062438965,7.028328610992431,-0.1370680450439453
1763693839145063000,4.04806298828125,6.894402955627441,6.955604735565185,0.007930792999267577
1763693839155012900,4.058012939453125,7.381772631072997,6.834847189331055,0.3232172241210937
1763693839164962800,4.067962890625,7.279570147705078,6.913406931304931,0.17208324432373046
1763693839174911700,4.077911865234375,7.379677704620361,6.883778685760498,0.30960020217895506
1763693839184862000,4.087862060546875,6.945279740905761,6.822127993011474,0.33833062210083004
1763693839194812000,4.09781201171875,6.329521001434326,6.823325093841552,0.12180500946044921
1763693839204761900,4.107761962890625,6.425438705444336,6.7030164604187,0.34267011260986324
1763693839214711800,4.1177119140625,6.581361088562011,6.97834965133667,0.24615385818481444
1763693839224661800,4.127661865234375,7.054066278839111,7.082796698760986,0.09322422714233398
1763693839234611700,4.13761181640625,7.6659344406127925,6.800430540466309,0.21054010848999022
1763693839244562000,4.14756201171875,7.566724709320068,6.7830725784301755,-0.03037643356323242
1763693839254511900,4.157511962890625,7.035062303161621,6.69104545211792,-0.15996259841918944
1763693839264461800,4.1674619140625,6.779032363128661,6.8505591377258295,0.08080430603027343
1763693839274412000,4.177412109375,6.311265213775634,7.20160895614624,-0.11686696853637694
1763693839284361700,4.18736181640625,6.863876884460449,7.110330017852783,0.004339490509033203
1763693839294311000,4.197310791015625,7.243956398010253,6.732046155548096,0.15442600708007811
1763693839304260600,4.207260498046875,7.072621341705322,6.56295566329956,-0.013467384338378905
1763693839314210800,4.2172109375,7.050923889160156,6.499808594512939,0.282815071105957
1763693839324160800,4.227160888671875,6.876745718383789,7.008576447296142,0.4112041351318359
1763693839334110700,4.23711083984375,6.705261024475098,7.374590026092529,0.2319382858276367
1763693839344061000,4.24706103515625,7.180659691619873,7.062595622253418,0.42706572113037106
1763693839354011000,4.257010986328125,7.114370233154297,6.770353382110596,0.17911621170043945
1763693839363960800,4.2669609375,6.989572471618652,6.56310530090332,-0.06988076095581054
1763693839373910800,4.276910888671875,7.003039855957031,6.609492958068847,0.1566705711364746
1763693839383860700,4.28686083984375,6.737882022094726,7.109132917022705,0.000748188018798828
1763693839393810700,4.296810791015625,6.8411319686889644,7.125593053436279,0.02079962692260742
1763693839403759600,4.306759521484375,7.199065116882323,6.939144599151611,0.1466448516845703
1763693839413709800,4.316709716796875,6.899640271759033,6.733692169189453,-0.14724340209960937
1763693839423659800,4.32665966796875,7.059602870178222,6.520308946228027,0.029927520751953124
1763693839433609700,4.336609619140625,6.921636999511718,6.814346837615966,0.20859481964111326
1763693839443560000,4.346559814453125,6.641515405273437,7.231386839294434,0.10489596023559569
1763693839453510000,4.356510009765625,7.02907679901123,7.109581829833984,0.39534254913330075
1763693839463459800,4.3664599609375,7.064840186309814,6.900089184570312,0.2193687271118164
1763693839473409800,4.376409912109375,7.148786882019042,6.706308487701415,0.03441664886474609
1763693839483359700,4.38635986328125,7.20789373550415,6.558017622375488,0.24645313339233396
1763693839493309700,4.396309814453125,6.725911013793945,6.9244801139831536,0.06673837127685546
1763693839503260000,4.406260009765625,6.516268730926513,6.9731123352050774,0.07556698989868163
1763693839513209900,4.4162099609375,6.711246528625488,6.904129399871826,0.1949777976989746
1763693839523158800,4.42615869140625,6.752845782470703,6.99091921005249,-0.08678981018066406
1763693839533108700,4.436108642578125,7.43743781967163,6.788459532165527,0.043544542694091797
1763693839543059000,4.446058837890625,7.775469166564941,6.908019977569579,0.13736732025146484
1763693839553009000,4.4560087890625,7.357381701660156,7.014561951446533,0.09516951599121093
1763693839562958600,4.46595849609375,6.9995981910705565,6.71648384475708,0.20829554443359374
1763693839572908800,4.47590869140625,6.479158605194091,6.807014595031738,0.1331774673461914
1763693839582858800,4.485858642578125,6.1632736236572265,6.859537393951416,-0.022445640563964843
1763693839592808700,4.49580859375,6.893954042816162,6.8782420944213865,0.23852234039306638
1763693839602759000,4.505759033203125,7.170035421752929,7.04179599533081,0.12913725204467771
1763693839612708900,4.515708984375,7.501183438873291,6.847716023254394,0.14050970993041992
1763693839622658800,4.525658935546875,7.4399816589355465,6.548440815734863,0.28446108474731446
1763693839632607700,4.535607666015625,6.734290719604492,6.739677673339843,0.02124853973388672
1763693839642558000,4.545557861328125,6.573131020355224,6.921636999511718,0.0008978256225585938
1763693839652508700,4.5555087890625,6.700322983551025,7.128885080718994,0.10130465774536132
1763693839662459000,4.565458984375,6.796988875579833,7.195623451995849,-0.07601590270996093
1763693839672408800,4.575408935546875,7.442525498199463,6.78606533050537,0.14335282440185546
1763693839682358800,4.58535888671875,7.466916427612304,6.593481734466552,0.17268179473876952
1763693839692309000,4.59530908203125,7.163750642395019,6.715885294342041,0.0743698890686035
1763693839702259000,4.605259033203125,6.917896059417724,6.726210289001465,0.2792237686157226
1763693839712208600,4.615208740234375,6.445190869140625,7.100603573608398,0.13766659545898435
1763693839722158800,4.625158935546875,6.402693789672851,7.113921320343017,0.058657940673828124
1763693839732108800,4.63510888671875,6.89530078125,6.863876884460449,0.24226328048706053
1763693839742058800,4.645058837890625,7.0175547035217285,6.8116533607482905,0.08993219985961913
1763693839752007700,4.655007568359375,7.3742907508850095,6.6982280570983885,0.16430208892822265
1763693839761958000,4.6649580078125,7.389104873657226,6.8309566116333,0.2632125450134277
1763693839771907800,4.674907958984375,6.827215671539307,7.117213347625732,0.0016460136413574218
1763693839781857800,4.68485791015625,6.880187383270263,7.068281851196288,0.1623568000793457
1763693839791808000,4.69480810546875,6.7462617279052735,6.947225029754638,0.09906009368896483
1763693839801757700,4.7047578125,6.726659201812744,6.80521894378662,-0.09427169036865234
1763693839811707600,4.714707763671875,7.28465782623291,6.589740794372558,0.1833060646057129
1763693839821657900,4.724657958984375,7.199364392089843,6.857143192291259,0.11731588134765625
1763693839831607800,4.73460791015625,6.85654464187622,6.9044286750793455,-0.03411737365722656
1763693839841557800,4.744557861328125,6.890961290740966,6.832901900482177,0.2380734275817871
1763693839851508000,4.754508056640625,6.558765810394287,6.967575743865966,0.05596446380615234
1763693839861457000,4.764456787109375,7.02279201965332,6.93315909500122,0.16594810256958006
1763693839871406800,4.77440673828125,7.278821959686279,6.858340293121337,0.3511994560241699
1763693839881356800,4.784356689453125,7.031471000671386,6.918793885040283,0.1001075569152832
1763693839891306800,4.794306640625,6.836792478179931,6.590189707183837,0.17328034515380858
1763693839901256700,4.804256591796875,6.85654464187622,6.8302084236145015,0.2255038688659668
1763693839911206700,4.81420654296875,6.80521894378662,7.1875430213928215,0.01915361328125
1763693839921156900,4.824156982421875,7.443124048614502,7.124096677398681,0.2588730545043945
1763693839931106800,4.83410693359375,7.362619017791747,6.884676511383057,0.12150573425292968
1763693839941056800,4.844056884765625,6.891559841156005,6.516717643737793,-0.16280571289062498
1763693839951007000,4.854007080078125,6.628796208953857,6.487837586212158,0.056114101409912104
1763693839960957000,4.86395703125,6.265625744628906,7.0738184425354,-0.08035539321899414
1763693839970906600,4.87390673828125,6.7663131668090815,7.223306408691406,-0.00014963760375976562
1763693839980855800,4.883855712890625,7.500884163665771,7.011868474578857,0.2910451393127441
1763693839990805800,4.8938056640625,7.540238853454589,6.836044290161133,0.10639233627319335
1763693840000755700,4.903755615234375,7.358429164886474,6.472724188232421,0.1666962905883789
1763693840010705700,4.91370556640625,6.880187383270263,6.648249097442626,0.30256723480224607
1763693840020655900,4.92365576171875,6.188263103485107,7.090877129364014,0.09995791931152344
1763693840030605800,4.933605712890625,6.548141540527343,7.1203557373046875,0.30196868438720703
1763693840040555800,4.9435556640625,6.91430475692749,7.125443415832519,0.23956980361938476
1763693840050506000,4.953506103515625,7.264756024932861,6.938845323944092,0.00987608184814453
1763693840060455700,4.96345556640625,7.792527853393554,6.458059703063965,0.20814590682983397
1763693840070405600,4.973405517578125,7.244554948425293,6.551134292602539,0.027084406280517576
1763693840080355800,4.98335595703125,6.713640730285644,6.923731925964355,-0.05835866546630859
1763693840090305800,4.993305908203125,6.50534518585205,7.05451519165039,0.11941080780029296
1763693840100254700,5.003254638671875,6.317849268341064,7.19517453918457,-0.16699556579589842
1763693840110204700,5.01320458984375,6.911910555267333,6.908468890380859,-0.03426701126098632
1763693840120155000,5.02315478515625,7.433996154785156,6.64585489578247,0.17642273483276366
1763693840130104800,5.033104736328125,7.4055650100708,6.730699417114257,0.09786299285888671
1763693840140054800,5.0430546875,7.316979548645019,6.744017163848876,0.37918168792724605
1763693840150004700,5.053004638671875,6.762422589111328,6.935702934265136,0.27832594299316404
1763693840159954700,5.06295458984375,6.507440112304687,7.091176404571533,0.13108254089355467
1763693840169904600,5.072904541015625,6.681319007873535,6.9415388008117676,0.24435820693969726
1763693840179854800,5.082854736328125,6.954856547546386,7.0010945671081535,0.07496843948364257
1763693840189804800,5.0928046875,7.24635059967041,6.844723271179199,0.1806125877380371
1763693840199754800,5.102754638671875,7.313238608551025,6.5403603851318355,0.24361001892089842
1763693840209705000,5.112705078125,7.051672077178955,6.724564275360107,0.018555062866210937
1763693840219654000,5.12265380859375,6.716932757568359,6.923283013153076,0.03516483688354492
1763693840229603800,5.132603759765625,6.7739446846008295,7.11841044845581,-0.04234744186401367
1763693840239554000,5.142553955078125,6.822127993011474,7.122001750946045,-0.09831190567016601
1763693840249503700,5.152503662109375,7.052869178009033,6.791751559448242,0.10863690032958984
1763693840259453700,5.16245361328125,7.070077502441406,6.556221971130371,0.136619132232666
1763693840269403600,5.172403564453125,6.694187841796874,6.683563571929931,0.12434884872436523
1763693840279353900,5.182353759765625,7.00992318572998,7.01665687789917,0.24031799163818357
1763693840289303800,5.1923037109375,7.052120989990234,7.17587128829956,0.143652099609375
1763693840299253800,5.202253662109375,7.378779878997802,7.1121256690979,0.23433248748779295
1763693840309204000,5.212203857421875,7.345261055755615,6.744166801452637,0.24031799163818357
1763693840319153700,5.222153564453125,6.742071875,6.591686083221435,0.10145429534912109
1763693840329103600,5.232103515625,6.63358461227417,6.707804863739013,0.14814122772216795
1763693840339052800,5.242052734375,6.468983248138428,6.9150529449462885,0.02528875503540039
1763693840349002800,5.252002685546875,6.8976949829101555,7.138162612152099,0.020051438903808592
1763693840358952700,5.26195263671875,7.2444053108215325,6.998850003051757,0.020350714111328123
1763693840368903000,5.27190283203125,7.5260232810974115,6.772897221374511,0.028880057525634766
1763693840378852900,5.281852783203125,7.145943767547607,6.566397328186035,0.011671733093261718
1763693840388802800,5.291802734375,6.95919603805542,6.78606533050537,0.08888473663330078
1763693840398753000,5.3017529296875,6.433519136047363,6.9044286750793455,0.012120645904541014
1763693840408703000,5.311702880859375,6.5859998542785645,7.159111876678466,0.04683656997680664
1763693840418652700,5.321652587890625,6.980294940185546,7.1787144027709955,0.13003507766723632
1763693840428602600,5.3316025390625,7.5068696678161615,7.005434057617187,0.2275987953186035
1763693840438552800,5.341552734375,7.67985073776245,6.59467883529663,0.2952349922180176
1763693840448501800,5.351501708984375,7.301566875457763,6.541707123565674,0.2979284690856933
1763693840458451700,5.36145166015625,6.393266620635986,6.676979517364502,0.1605611488342285
1763693840468402000,5.37140185546875,6.066009181213379,7.012766300201416,0.03651157531738281
1763693840478352000,5.381351806640625,6.406883642578125,7.211784313201904,0.06703764648437499
1763693840488301800,5.3913017578125,7.052420265197753,7.115567333984375,0.08259995727539061
1763693840498252000,5.401251953125,7.821856823730468,6.779481275939941,0.17836802368164062
1763693840508201700,5.41120166015625,7.6385507591247555,6.4935238151550285,0.17088614349365233
1763693840518151700,5.421151611328125,7.125892328643799,6.603507453918457,0.06239888076782226
1763693840528102000,5.431101806640625,6.572532469940185,6.902034473419189,0.0017956512451171875
1763693840538051800,5.4410517578125,6.265625744628906,7.283161450195312,-0.01092354507446289
1763693840548001800,5.451001708984375,6.722319711303711,7.280767248535156,-0.050427872467041016
1763693840557952000,5.460951904296875,7.079205396270751,6.867168911743164,0.1762730972290039
1763693840567902000,5.47090185546875,7.474697583007812,6.546046614074706,0.15876549758911132
1763693840577851000,5.480850830078125,7.2252516975402825,6.49891076889038,-0.1640028137207031
1763693840587800800,5.49080078125,7.034014839935303,7.154922023773193,-1.0378864196777342
1763693840597750800,5.500750732421875,6.150404789733886,7.232733577728271,-0.5856815811157227
1763693840607700700,5.51070068359375,5.697900675964355,6.936301484680175,-0.26710312271118164
1763693840617650700,5.520650634765625,6.312761589813232,6.97176559677124,0.3203741096496582
1763693840627601000,5.530600830078125,6.834248638916015,7.60982033920288,-0.10893617553710937
1763693840637550800,5.54055078125,6.5871969551086424,6.63298606185913,0.6546645164489746
1763693840647500300,5.550500244140625,6.523451335906982,6.814646112823486,0.9831190567016601
1763693840657450200,5.5604501953125,6.928370691680907,7.370699448394775,-0.02528875503540039
1763693840667400400,5.570400390625,7.216273441314697,7.050774251556396,-0.5397428367614746
1763693840677350400,5.580350341796875,7.2541317550659175,6.936301484680175,-1.4145242683410644
1763693840687300000,5.590300048828125,6.9068228767395015,6.964582991790771,-1.316960550689697
1763693840697249500,5.60024951171875,6.983736605072021,7.512555896759033,-0.1370680450439453
1763693840707199200,5.61019921875,6.417657550048828,7.152527822113036,1.3753192161560057
1763693840717149200,5.620149169921875,6.6331356994628905,7.267150226593017,1.2770073104858397
1763693840727099400,5.630099365234375,6.925826852416992,7.272237905120849,0.9346364730834961
1763693840737049300,5.64004931640625,7.111527118682861,7.051522439575195,0.859368758392334
1763693840746999300,5.649999267578125,6.69044690170288,7.350049459075927,0.7561188117980957
1763693840756949500,5.659949462890625,6.278344940948486,7.651120317840576,0.33518823242187495
1763693840766899500,5.6698994140625,5.651513018798828,7.242310384368896,0.022445640563964843
1763693840776849200,5.67984912109375,5.691166983795165,7.1029977752685545,-0.2519897247314453
1763693840786799000,5.689799072265625,6.389376042938232,7.5631334068298335,-0.6208464179992675
1763693840796749300,5.699749267578125,6.561309649658202,7.602637734222411,-0.9139864837646484
1763693840806698200,5.7096982421875,6.668599811553955,7.472453018951415,-0.7466916427612305
1763693840816648200,5.719648193359375,6.44174920425415,7.353790399169921,-0.5355529838562011
1763693840826598400,5.729598388671875,5.417479806518554,7.08025285949707,0.1188122573852539
1763693840836548400,5.73954833984375,8.25520732421875,7.632864530181885,1.553986515045166
1763693840846498300,5.749498291015625,4.561851988220215,7.914482500457763,1.200841770172119
1763693840856448500,5.759448486328125,7.323264328002929,7.146243042755127,0.9967360786437988
1763693840866398200,5.769398193359375,6.960093863677978,7.541435954284667,-0.08514379653930663
1763693840876348200,5.77934814453125,6.761973676300048,7.401075881958008,-0.26485855865478514
1763693840886298400,5.78929833984375,6.178387021636962,7.302165425872802,0.23268647384643554
1763693840896248300,5.799248291015625,5.912929912567138,7.651569230651855,0.1744774459838867
1763693840906198300,5.8091982421875,5.746981809997559,7.844003189086914,0.18390461502075195
1763693840916148500,5.8191484375,6.065260993194579,7.682095301818848,0.052073886108398436
1763693840926098400,5.829098388671875,6.324882235717773,7.4128972526550285,0.006584054565429687
1763693840936047400,5.83904736328125,6.557867984771728,7.2717889923095695,0.03411737365722656
1763693840945997300,5.848997314453125,6.631040773010254,7.220164019012451,-0.0474351203918457
1763693840955947500,5.858947509765625,6.308422099304199,7.477540697479248,0.06763619689941405
1763693840965897200,5.868897216796875,6.0613704154968255,7.867645930480957,0.11686696853637694
1763693840975847200,5.87884716796875,5.881206740570068,7.747935847473144,0.04129997863769531
1763693840985797400,5.88879736328125,6.161926885223388,7.556399714660644,-0.10339958419799804
1763693840995747300,5.898747314453125,6.51192924041748,7.46302584991455,-0.4508581001281738
1763693841005697300,5.908697265625,6.387131478881836,7.29737702255249,-0.05117606048583984
1763693841015647500,5.9186474609375,6.059275489044189,7.364115393829345,0.2223614791870117
1763693841025597400,5.928597412109375,6.16072978439331,7.720851441192626,0.12000935821533203
1763693841035547100,5.938547119140625,6.238092425537109,7.727734770965576,0.12943652725219726
1763693841045497300,5.948497314453125,6.580762538146972,7.818415158843994,0.07466916427612304
1763693841055446300,5.9584462890625,6.6522893127441405,7.562983769226074,0.1140238540649414
1763693841065396200,5.968396240234375,6.222530114746093,7.174075637054443,-0.0025438392639160153
1763693841075346200,5.97834619140625,5.91218172454834,7.266850951385497,-0.10190320816040038
1763693841085296400,5.98829638671875,5.652710119628906,7.596203317260742,-0.04055179061889648
1763693841095246300,5.998246337890625,5.8822542037963865,7.812579292297363,-0.017357962036132813
1763693841105196300,6.0081962890625,6.420051751708984,7.830236529541015,0.1005564697265625
1763693841115146500,6.018146484375,6.8587892059326165,7.568969273376465,0.2798223190307617
1763693841125096400,6.028096435546875,6.646603083801269,7.20145931854248,0.09112930068969725
1763693841135046100,6.038046142578125,6.383240901184082,7.740304329681396,0.6503250259399413
1763693841144996400,6.047996337890625,6.871658039855957,8.265831594085693,1.3108254089355469
1763693841154946300,6.0579462890625,7.370250535583495,8.240093926239012,1.331774673461914
1763693841164896300,6.067896240234375,7.383867557525634,8.038681711578368,1.8972551780700682
1763693841174845200,6.07784521484375,7.998429196166992,8.393472470092773,2.0370166999816894
1763693841184795400,6.08779541015625,8.501959732818603,8.481010468292236,1.2696750679016113
1763693841194745300,6.097745361328125,8.85540375289917,7.608623238372802,0.8276455863952636
1763693841204695300,6.1076953125,9.947458985137938,6.871209127044677,-0.0022445640563964844
1763693841214645500,6.1176455078125,10.566809027099609,7.217320904541015,-1.1798925056457519
1763693841224595200,6.12759521484375,11.21054999847412,7.87198542098999,-3.1714193740844725
1763693841234545200,6.137545166015625,11.03891566696167,7.853879270935058,-4.952555771636963
1763693841244495400,6.147495361328125,9.722254391479492,7.890540483856201,-6.430526383972167
1763693841254445300,6.1574453125,7.6647373397827145,7.821258273315429,-7.910891197967529
1763693841264395300,6.167395263671875,5.856217260742187,7.944410021209716,-9.547926583099365
1763693841274345500,6.177345458984375,4.031685958099365,8.22348415222168,-10.513238764953613
1763693841284295400,6.18729541015625,3.385550785064697,8.038980986785889,-10.097545501708984
1763693841294245000,6.1972451171875,3.799149121856689,7.611615990447998,-9.393500576019287
1763693841304194300,6.2071943359375,3.911078049468994,7.104643788909912,-8.476970252990721
1763693841314144300,6.217144287109375,3.652653907775879,6.773346134185791,-7.209240473937988
1763693841324094200,6.22709423828125,3.1675287963867187,6.5862991294860835,-6.074688162231445
1763693841334044200,6.237044189453125,2.526182026672363,6.5972226745605465,-5.667075329589843
1763693841343994400,6.246994384765625,2.5471312911987303,6.845770734405517,-5.461772537231445
1763693841353944300,6.2569443359375,2.881421697998047,7.226149523162841,-4.451419436645508
1763693841363894300,6.266894287109375,4.20706122970581,6.8302084236145015,-3.3200095146179196
1763693841373844500,6.276844482421875,6.003909575653076,6.4356140625,-2.277334691619873
1763693841383794400,6.28679443359375,7.331344758605956,6.3524155548095695,-1.3299790222167969
1763693841393744100,6.296744140625,8.151209189605712,6.34568186264038,-0.755220986175537
1763693841403694300,6.3066943359375,7.97403826675415,6.10371785736084,-0.2925415153503418
1763693841413644300,6.316644287109375,7.015310139465331,5.524919606018066,0.005985504150390624
1763693841423593200,6.32659326171875,5.914575926208496,5.12658430480957,0.14036007232666015
1763693841433543200,6.336543212890625,5.1419969779968255,4.965125330352783,-0.040701428222656245
1763693841443493400,6.346493408203125,5.513547148132324,4.969464820861816,-0.6347627151489258
1763693841453443300,6.356443359375,6.325480786132812,5.15247161026001,-1.352873575592041
1763693841463393300,6.366393310546875,6.896348244476318,4.874594580078124,-1.837400136566162
1763693841473343500,6.376343505859375,7.614908017730713,4.30941335067749,-2.358587910461426
1763693841483293200,6.386293212890625,7.968352037811279,3.7898715904235836,-2.7870003700256345
1763693841493243100,6.3962431640625,7.555801164245605,3.2888848930358883,-2.9595325271606443
1763693841503193300,6.406193359375,7.221660395050049,3.4515409683227536,-3.0096611244201656
1763693841513143300,6.416143310546875,8.68945565032959,4.180874649047851,-1.9879355659484863
1763693841523093200,6.42609326171875,7.672817770385742,5.156212550354003,-0.7507318580627441
1763693841533043500,6.43604345703125,7.739107228851318,4.967818807220459,-1.8052280517578123
1763693841542992400,6.445992431640625,8.723872299194335,3.83700743560791,-1.7459715606689452
1763693841552942300,6.4559423828125,8.278850065612792,4.269759385681152,-1.6078560523986816
1763693841562892300,6.465892333984375,7.632714892578124,4.4850878974914545,-1.6831237670898436
1763693841572842200,6.47584228515625,7.035062303161621,3.642328913116455,-1.5183727653503416
1763693841582792200,6.485792236328125,6.5586161727905266,3.718195178222656,-1.5291466728210448
1763693841592742100,6.4957421875,6.140528707885742,4.600458489990234,-1.7833809616088867
1763693841602692400,6.5056923828125,6.16761311416626,5.059097745513916,-2.025045691680908
1763693841612642300,6.515642333984375,6.913406931304931,5.524021780395508,-1.8501193328857422
1763693841622592300,6.52559228515625,7.055712292480468,5.431845016479492,-1.412279704284668
1763693841632542500,6.53554248046875,7.475146495819091,5.076754982757568,-0.9491513206481933
1763693841642492400,6.545492431640625,7.170185059356689,4.670488888549804,-0.8819640365600585
1763693841652442400,6.5554423828125,6.181529411315918,4.0057986526489255,-2.0133739585876462
1763693841662392600,6.565392578125,6.762572226715087,3.488202181243896,-3.665672379302978
1763693841672341500,6.575341552734375,7.52063632736206,4.4288241584777825,-3.4298435157775877
1763693841682291500,6.58529150390625,7.718307601928711,5.0118122627258295,-3.8768110382080074
1763693841692241700,6.59524169921875,8.240842114257813,5.08782816543579,-4.477007466888428
1763693841702191600,6.605191650390625,10.1000893409729,5.492597883605956,-4.952406134033203
1763693841712141600,6.6151416015625,10.359411308288573,5.804891562652587,-4.57741429901123
1763693841722091800,6.625091796875,5.947346561431885,5.579387693786621,-3.6578912239074706
1763693841732041500,6.63504150390625,8.278251515197754,5.0580502822875975,-3.6545991966247557
1763693841741991400,6.644991455078125,7.738059765625,5.014056826782226,-3.4287960525512693
1763693841751941400,6.65494140625,7.470208454895019,5.183745869445801,-3.011456775665283
1763693841761891600,6.6648916015625,7.197419103240966,5.52866054611206,-2.78355870513916
1763693841771841500,6.674841552734375,7.492953370666504,5.523572867584228,-2.4200889656066895
1763693841781791500,6.68479150390625,7.816020957183837,5.3484968711853025,-1.6858172439575194
1763693841791740700,6.69474072265625,7.934234664154053,5.415534517669677,-1.7546505416870115
1763693841801690600,6.704690673828125,7.688080805969238,5.098302797698974,-1.8064251525878905
1763693841811640600,6.714640625,7.749132948303222,5.319467176055908,-2.4281693962097166
1763693841821590800,6.7245908203125,7.844302464294433,5.355080925750732,-2.5864859809875487
1763693841831540500,6.73454052734375,7.760954319000244,5.286397265624999,-2.6768670936584473
1763693841841490400,6.744490478515625,7.700351089477539,5.181950218200683,-2.663549346923828
1763693841851440600,6.754440673828125,7.922263655853271,4.9726072105407715,-2.535160282897949
1763693841861390600,6.764390625,8.041824101257324,4.847959086608887,-2.488622988128662
1763693841871340500,6.774340576171875,8.028207079315186,4.715529807281494,-2.7985224655151364
1763693841881290800,6.784290771484375,7.616105118560791,4.684854098510742,-3.214963916778564
1763693841891240700,6.79424072265625,8.104821532440186,4.503044409942627,-3.565714459991455
1763693841901190400,6.8041904296875,8.186374026489258,5.123890827941894,-3.8016929611206054
1763693841911140600,6.814140625,7.932738288116455,5.347748683166504,-3.8334161331176757
1763693841921089500,6.824089599609375,8.246677980804442,4.8892590652465815,-3.5754409042358395
1763693841931039500,6.83403955078125,8.417713761901854,4.3239281982421875,-3.1476269950866698
1763693841940989400,6.843989501953125,8.069058145141602,3.3316812477111815,-3.2366613693237305
1763693841950939600,6.853939697265625,8.489390174102782,2.7465982170104977,-2.9384336250305174
1763693841960889600,6.8638896484375,8.967631955718993,3.8907273353576657,-2.206556105041504
1763693841970839600,6.873839599609375,9.068936613464356,4.241328240966797,-2.2821230949401854
1763693841980789800,6.883789794921875,9.329006768798827,4.174739507293701,-2.896385458374023
1763693841990739500,6.893739501953125,9.141361213684082,4.136432280731201,-3.2761656967163084
1763693842000689400,6.903689453125,7.422773334503173,4.15618444442749,-3.9930794563293457
1763693842010639600,6.9136396484375,7.479336348724365,4.064606230926514,-5.0966567840576165
1763693842020589600,6.923589599609375,9.622895022583007,4.3543046318054195,-6.9731123352050774
1763693842030539500,6.93353955078125,7.085490175628662,4.805312369537353,-8.418910862731932
1763693842040488400,6.943488525390625,8.264634493255615,4.674978016662598,-7.407510298919678
1763693842050438700,6.953438720703125,8.758737860870362,4.403385765838623,-5.80354482421875
1763693842060388600,6.963388671875,9.165303230285645,4.601505953216552,-3.4593221237182616
1763693842070338600,6.973338623046875,8.810811746978759,4.288464086151123,-1.2802993377685545
1763693842080288800,6.983288818359375,9.270648103332519,3.559280043029785,-0.6561608924865723
1763693842090238500,6.993238525390625,9.125050714874266,2.569576931762695,-3.7346553146362305
1763693842100188400,7.0031884765625,8.54191297302246,2.1416133850097654,-5.786635774993896
1763693842110138600,7.013138671875,8.303240995025634,2.231844860076904,-5.962310321807861
1763693842120088600,7.023088623046875,8.730605991363525,2.7862521820068356,-5.728576384735107
1763693842130038500,7.03303857421875,9.048735536956787,3.8208465744018554,-5.046827462005615
1763693842139988700,7.04298876953125,9.962422745513916,4.281880031585693,-5.400421119689941
1763693842149938700,7.052938720703125,9.335291548156738,3.132064684295654,-5.641786574554443
1763693842159888400,7.062888427734375,8.467692721557617,2.779069577026367,-5.786785412597656
1763693842169837600,7.072837646484375,7.71232209777832,2.4161983879089353,-5.671265182495117
1763693842179787500,7.08278759765625,6.846369284820557,1.6729484100341796,-5.757007529449463
1763693842189737500,7.092737548828125,6.0036103004455565,1.632396619415283,-5.108777429962158
1763693842199687400,7.1026875,6.883778685760498,2.35574479598999,-3.9098809486389157
1763693842209637600,7.1126376953125,6.159383045959473,3.1147067222595215,-4.263773881530762
1763693842219587600,7.122587646484375,6.106411334228516,3.5160347755432126,-4.394257872009277
1763693842229537500,7.13253759765625,6.4266358062744136,3.5607764190673827,-4.501847309112549
1763693842239487700,7.14248779296875,6.6011132522583,3.5672108360290524,-4.8494554626464845
1763693842249437700,7.152437744140625,6.412869146728515,3.5932477790832515,-5.0763060699462885
1763693842259387400,7.162387451171875,6.251559809875488,3.536086214447021,-5.449502253723145
1763693842269337600,7.172337646484375,6.279093128967284,3.2516251296997067,-5.909637885284424
1763693842279287600,7.18228759765625,6.442347754669189,2.9646202056884765,-6.039972238159179
1763693842289237500,7.192237548828125,6.51881257019043,2.7787703018188474,-5.446958414459228
1763693842299186400,7.2021865234375,6.595277385711669,2.576011348724365,-4.2971430671691895
1763693842309136600,7.21213671875,6.337900707244873,2.420986791229248,-4.96063620223999
1763693842319086600,7.222086669921875,5.485714553833008,2.539649411010742,-5.922955632019042
1763693842329036500,7.23203662109375,4.414010035705566,2.5055320373535155,-6.338050344848632
1763693842338986800,7.24198681640625,3.8980595779418943,2.551021868896484,-5.762693758392333
1763693842348936400,7.2519365234375,3.5039141296386718,2.2731448387145994,-5.670217719268798
1763693842358886400,7.261886474609375,3.3529297874450683,1.8296189811706542,-5.179556016540527
1763693842368836600,7.271836669921875,3.332130160522461,1.5298948608398437,-4.82057540512085
1763693842378786600,7.28178662109375,3.165433869934082,1.6054618507385252,-5.15202269744873
1763693842388736500,7.291736572265625,3.0315082145690915,1.6657658050537107,-5.379322217559814
1763693842398686700,7.301686767578125,2.7980735527038574,1.815702684020996,-5.327248331451416
1763693842408636700,7.31163671875,2.5047838493347165,1.8432360031127928,-5.232228453063964
1763693842418585600,7.321585693359375,2.152836205291748,1.7764976318359373,-5.175515801239014
1763693842428535600,7.33153564453125,1.9633949989318846,1.5943886680603025,-5.245845475006103
1763693842438485500,7.341485595703125,1.9734207183837889,1.3678373359680176,-5.530306559753417
1763693842448435500,7.351435546875,2.047491332244873,1.3750199409484862,-5.860407113647461
1763693842458385400,7.361385498046875,2.194136183929443,1.6180314094543455,-6.169558403015136
1763693842468335600,7.371335693359375,2.466177347564697,1.8836381561279296,-6.494870553588867
1763693842478285600,7.38128564453125,2.6613047828674317,2.099116305541992,-6.956352923583984
1763693842488235500,7.391235595703125,2.825606871795654,2.712630480957031,-7.479186711120605
1763693842498185700,7.401185791015625,2.8188731796264648,2.8254572341918944,-7.952191176605224
1763693842508135700,7.4111357421875,3.1530139488220215,2.685246799468994,-8.393472470092773
1763693842518085400,7.42108544921875,3.21750775604248,2.8989292976379395,-8.63723212661743
1763693842528035600,7.43103564453125,3.105429190826416,3.3221044410705565,-8.895506630706787
1763693842537985500,7.440985595703125,3.086724490356445,3.590404664611816,-9.02763663482666
1763693842547934500,7.4509345703125,3.2531215057373046,3.5782840187072753,-9.035417790222168
1763693842557884400,7.460884521484375,3.491045295715332,3.325097193145752,-9.05322466506958
1763693842567834600,7.470834716796875,3.716399526977539,3.1771056030273437,-9.150189832305907
1763693842577784600,7.48078466796875,3.9236476081848144,3.084928839111328,-9.402478832244872
1763693842587734500,7.490734619140625,4.167556902313232,3.0998925994873043,-9.306860403442382
1763693842597684700,7.500684814453125,4.38602780380249,3.2206501457214354,-9.288305340576171
1763693842607634400,7.510634521484375,4.650287812042236,3.386747885894775,-9.214982914733886
1763693842617584400,7.52058447265625,4.798728314971924,3.4172739570617674,-9.169941996002196
1763693842627534600,7.53053466796875,4.846013797760009,3.2620997619628906,-8.944138851928711
1763693842637484500,7.540484619140625,4.941781864166259,2.8746880058288573,-8.643516905975341
1763693842647434500,7.5504345703125,5.224148022460938,2.577208449554443,-8.559420572662352
1763693842657384400,7.560384521484375,5.2079871612548825,2.6548703659057615,-8.705017961120605
1763693842667334400,7.57033447265625,5.109525617980957,2.871545616149902,-9.220968418884278
1763693842677283300,7.580283447265625,4.964975692749023,2.983923456573486,-9.94626188430786
1763693842687233300,7.5902333984375,4.844816696929931,3.015496990966797,-10.815506724548339
1763693842697183500,7.60018359375,4.862174658966064,3.0590415336608885,-11.687893954467773
1763693842707133200,7.61013330078125,4.888810152435302,3.13460852355957,-12.279261764526366
1763693842717083100,7.620083251953125,4.837634091949463,3.034500966644287,-12.727725662994384
1763693842727033300,7.630033447265625,4.746804066467285,2.697965995788574,-12.987047630310057
1763693842736983300,7.6399833984375,4.662109182739258,2.272097375488281,-12.978219011688232
1763693842746933200,7.649933349609375,4.524143312072754,1.8679262077331542,-12.840851691436766
1763693842756883500,7.659883544921875,4.341735073089599,1.6958429634094236,-12.665326782226561
1763693842766833400,7.66983349609375,4.06041637802124,1.8581997634887695,-12.65395432434082
1763693842776783000,7.679783203125,3.674800273132324,2.2833201957702633,-12.885742972564696
1763693842786733300,7.6897333984375,3.1687258972167966,2.465429159545898,-13.219135553741454
1763693842796683300,7.699683349609375,2.8133365882873536,2.166752502441406,-13.428029648590087
1763693842806632200,7.709632080078125,2.6880899139404297,1.610100616455078,-13.448530000305174
1763693842816582100,7.71958203125,2.693027954864502,1.1288660827636718,-13.332261582183838
1763693842826532400,7.729532470703125,2.7844565307617186,0.858022019958496,-13.046453759002684
1763693842836482300,7.739482421875,2.92391877746582,0.5698199951171875,-12.709469875335692
1763693842846432300,7.749432373046875,2.9978397537231443,0.15292963104248045,-12.291532048034668
1763693842856382500,7.759382568359375,3.032106764984131,-0.14694412689208983,-11.76615442123413
1763693842866332400,7.76933251953125,3.0933085449218747,-0.30630817489624024,-11.272799241638182
1763693842876282000,7.7792822265625,3.077895871734619,-0.524779076385498,-10.841693305206299
1763693842886232300,7.789232421875,2.8541876541137694,-0.9454103805541991,-10.308534523010254
1763693842896182300,7.799182373046875,2.5380033973693847,-1.2392986343383787,-9.866355403900146
1763693842906132200,7.80913232421875,2.248454634094238,-1.3542203140258788,-9.6396544342041
1763693842916082400,7.81908251953125,1.7559972801208494,-1.3884873252868652,-9.528024781799315
1763693842926032400,7.829032470703125,1.43652099609375,-1.1490671592712403,-9.562740705871581
1763693842935981300,7.838981201171875,1.5110405227661132,-0.52986675491333,-9.680355862426758
1763693842945931300,7.84893115234375,1.4233528869628906,0.1897404815673828,-9.713575410461425
1763693842955881500,7.858881591796875,1.2765583976745605,0.38367081604003905,-9.798270294189452
1763693842965831200,7.8688310546875,1.1400889030456542,0.3076549133300781,-9.820117384338378
1763693842975781000,7.878781005859375,1.0652701011657715,0.39968203964233395,-9.683348614501952
1763693842985731300,7.8887314453125,0.9654618194580078,0.4688146125793457,-9.428964688110351
1763693842995681300,7.898681396484375,0.9849147079467773,0.42063130416870115,-9.20076734237671
1763693843005631200,7.90863134765625,1.0920552322387695,0.3555389465332031,-8.994716361999512
1763693843015581400,7.91858154296875,0.9472060317993164,0.09965864410400391,-8.999355127716063
1763693843025531400,7.928531494140625,1.0377367820739745,0.2258031440734863,-8.250718196105957
1763693843035481000,7.938481201171875,0.5612906517028808,-0.1892915687561035,-8.258499351501465
1763693843045431300,7.948431396484375,0.2991255699157715,-0.4059668190002441,-9.37180312347412
1763693843055381200,7.95838134765625,0.8822633117675781,-0.15203180541992187,-9.224559721374511
1763693843065330200,7.968330078125,0.6859387756347656,0.34551322708129883,-9.272593392181395
1763693843075280400,7.9782802734375,1.8091186294555663,0.6549637916564941,-9.868599967956543
1763693843085230300,7.988230224609375,2.2616227432250975,0.8325836273193359,-10.149469750213623
1763693843095180300,7.99818017578125,1.9595044212341308,1.119738188934326,-10.075997686767577
1763693843105130200,8.008130126953125,1.797895809173584,1.1938088027954101,-10.050110381317138
1763693843115080400,8.01808056640625,1.5662567985534668,1.0280103378295897,-10.237905574035643
1763693843125030400,8.028030517578125,1.6722002220153807,0.9018658378601073,-10.541669909667968
1763693843134980000,8.03797998046875,1.5203180541992187,0.6328174263000488,-10.829871934509276
1763693843144930300,8.047930419921874,1.413476805114746,0.4725555526733398,-11.271452503204346
1763693843154880300,8.05788037109375,1.5216647926330567,0.40716391983032224,-11.71542727355957
1763693843164830200,8.067830322265625,1.5870564254760742,0.5009866973876953,-11.796081941986083
1763693843174780400,8.077780517578125,1.799691460418701,0.6973112335205077,-11.55456684951782
1763693843184730400,8.08773046875,1.9882348411560058,0.7649474304199219,-11.182567766571044
1763693843194679300,8.09767919921875,2.461089669036865,0.5134066184997559,-10.63624087524414
1763693843204629500,8.10762939453125,5.268889665985107,-0.15996259841918944,-8.968380143737793
1763693843214579500,8.117579345703126,5.069722015380859,0.1771709228515625,-7.644236988067626
1763693843224529200,8.127529052734374,1.4731822090148925,0.9804255798339843,-9.419238243865966
1763693843234479400,8.137479248046875,0.08693944778442382,0.47330374069213865,-10.735151331329345
1763693843244429300,8.14742919921875,0.550965657043457,-0.8315361640930176,-10.401010562133788
1763693843254379300,8.157379150390625,0.9540893615722655,-1.5304934112548827,-10.11265889968872
1763693843264329200,8.1673291015625,1.3901333389282227,-1.4999673400878906,-9.741707279968262
1763693843274279400,8.177279541015626,1.4336778816223144,-1.2083236503601074,-9.162160840606688
1763693843284229400,8.1872294921875,1.3084312072753905,-1.2675801414489745,-9.036764528656006
1763693843294179300,8.197179443359374,0.934037922668457,-0.9777321029663085,-9.832986218261718
1763693843304129300,8.20712939453125,0.47719431838989257,-0.49889177093505854,-10.726173075103759
1763693843314079200,8.217079345703125,-0.19737199935913086,-0.9958382530212402,-11.520299838256836
1763693843324028200,8.227028076171875,0.18824410552978516,-1.5360300025939941,-12.452841384887694
1763693843333978400,8.236978271484375,-0.12988544006347655,-1.304989542388916,-12.344354122161864
1763693843343928300,8.24692822265625,0.5113116920471191,-0.9080009796142577,-11.327716242218017
1763693843353878300,8.256878173828126,1.568052449798584,-1.064970825958252,-10.71315460357666
1763693843363828500,8.266828369140624,3.2344168052673337,-2.156427507781982,-9.246257173919677
1763693843373778400,8.2767783203125,3.0240263343811034,-1.836203035736084,-7.634360906219482
1763693843383728400,8.286728271484375,3.2257378242492676,-1.4942811111450194,-8.359355096435547
1763693843393678300,8.29667822265625,2.145803237915039,-1.4809633644104003,-8.425943830108642
1763693843403628300,8.306628173828125,2.0313304710388183,-0.7528267845153808,-9.220070593261719
1763693843413578200,8.316578125,1.73654439163208,-0.6548141540527344,-9.075520668029785
1763693843423528200,8.326528076171876,1.2384008087158203,-0.722749626159668,-8.33690945587158
1763693843433478400,8.336478515625,0.7559691741943358,-0.5588964500427246,-7.826345951843261
1763693843443428400,8.346428466796874,0.15038579177856445,-0.5231330627441406,-7.369951260375976
1763693843453377300,8.356377197265624,-0.49949032135009763,-0.42975919799804685,-7.029824987030029
1763693843463327500,8.366327392578125,-0.7836521308898925,-0.29014731369018554,-7.401674432373047
1763693843473277400,8.37627734375,-0.5092167655944824,-0.3094505645751953,-7.926303871154785
1763693843483227100,8.38622705078125,-0.046238019561767575,-0.24256255569458007,-8.020276286315918
1763693843493177300,8.39617724609375,1.3901333389282227,-0.030526071166992186,-7.400477331542969
1763693843503127300,8.406127197265626,4.393659321594238,-0.36062662506103516,-6.2201359130859375
1763693843513077200,8.4160771484375,5.311237107849121,-0.5003881469726562,-4.71792400894165
1763693843523027500,8.42602734375,4.262876055908203,-0.17073650588989256,-4.740220011901855
1763693843532977400,8.435977294921875,3.8394016372680664,-0.12240355987548827,-5.853074871063232
1763693843542927400,8.44592724609375,3.87516502456665,-0.5027823486328125,-7.174674187469482
1763693843552877300,8.455877197265625,3.7571009552001953,-1.319654027557373,-7.632714892578124
1763693843562827300,8.4658271484375,2.752882996368408,-1.896806265258789,-7.550414210510254
1763693843572777200,8.475777099609376,2.3178864822387695,-2.2946926536560057,-6.90128628540039
1763693843582726100,8.48572607421875,2.043451116943359,-2.644395733642578,-6.103568219757079
1763693843592676400,8.49567626953125,1.9437924728393554,-2.7703905960083004,-5.57340218963623
1763693843602626300,8.505626220703125,1.8810943168640135,-3.0514100158691404,-5.553350750732421
1763693843612576300,8.515576171875,1.2529156562805175,-3.4989760887145995,-5.086481427001953
1763693843622526500,8.5255263671875,0.3705027069091797,-4.004152639007568,-5.412541765594482
1763693843632476400,8.535476318359375,0.2964320930480957,-4.5964182746887206,-5.373336713409423
1763693843642426400,8.54542626953125,1.1305120964050293,-4.605845443725586,-7.336282799530029
1763693843652376300,8.555376220703126,3.0584429832458495,-3.912873700714111,-10.121337880706786
1763693843662326300,8.565326171875,3.8516719207763668,-2.8905495918273925,-12.818256413269042
1763693843672276200,8.575276123046875,1.7476175743103026,-0.5244798011779784,-17.65379557876587
1763693843682226400,8.585226318359375,-0.24794950942993163,-0.6305728622436523,-19.44720225982666
1763693843692176400,8.59517626953125,-1.0877157417297363,-3.231124777984619,-18.433257856750487
1763693843702126300,8.605126220703125,-1.1544541130065917,-4.76281529006958,-16.506972983551023
1763693843712075500,8.615075439453125,-0.2916436897277832,-4.271704674530029,-12.824092279815673
1763693843722025500,8.625025390625,0.7633014167785644,-3.6563948478698727,-9.961674557495117
1763693843731975400,8.634975341796874,2.2105963203430172,-2.6523265266418456,-10.320954444122314
1763693843741925000,8.644925048828124,0.049230771636962885,-1.2181997322082518,-11.151592782592774
1763693843751875300,8.654875244140625,-2.333897705841064,-1.3236942428588867,-10.895862117767333
1763693843761825300,8.6648251953125,-2.926462616729736,-4.444236831665039,-9.95987890625
1763693843771775200,8.674775146484375,-1.7764976318359373,-6.641665042877197,-11.193192036437988
1763693843781725400,8.684725341796875,-0.5054758255004882,-7.124096677398681,-11.800571070098876
1763693843791675400,8.69467529296875,-2.109890213012695,-7.025335858917236,-12.042235800170898
1763693843801625300,8.704625244140624,-3.0086136611938477,-7.270591891479492,-10.289380909729003
1763693843811575300,8.7145751953125,-4.318092331695556,-9.094225368499755,-10.27845736465454
1763693843821525200,8.724525146484375,-5.673659384155273,-8.315810553741455,-10.230722969055176
1763693843831475200,8.73447509765625,-4.584746541595459,-6.892308029174805,-7.243357847595214
1763693843841425400,8.74442529296875,-3.3349732749938963,-7.350049459075927,-5.3850084465026855
1763693843851374300,8.754374267578125,-2.684049698638916,-6.695085667419433,-5.294178421020508
1763693843861324300,8.76432421875,-2.1767782218933105,-5.993285305786133,-5.347748683166504
1763693843871274500,8.7742744140625,-1.4209586853027343,-5.174169062805175,-3.4210148971557617
1763693843881224400,8.784224365234374,-2.3560440711975095,-4.58399835357666,-5.2648494506835934
1763693843891174400,8.79417431640625,-2.7603648765563964,-4.033182334136963,-7.888146282196044
1763693843901124400,8.804124267578125,-2.918232548522949,-4.377199185180664,-8.249371457672119
1763693843911074300,8.81407421875,-3.413682654571533,-5.3585225906372065,-7.716212675476074
1763693843921024300,8.824024169921875,-4.374206433105469,-5.897517239379883,-6.654982789611816
1763693843930974200,8.83397412109375,-4.442740455627441,-6.730699417114257,-7.045686573028564
1763693843940924400,8.84392431640625,-4.194940583801269,-7.533056248474121,-6.674435678100585
1763693843950874400,8.853874267578124,-3.9989153228759764,-7.783100684356689,-5.054758255004883
1763693843960824300,8.86382421875,-3.2632968627929686,-7.421576233673095,-2.7582699501037595
1763693843970774500,8.8737744140625,-3.469647118377685,-5.999570085144042,0.8475473876953125
1763693843980723500,8.883723388671875,-3.665223466491699,-0.9150339469909667,1.204732347869873
1763693843990673400,8.89367333984375,-0.9705494979858398,-0.3960907371520996,-8.673743701934814
1763693844000623400,8.903623291015625,5.723039793395996,-4.25853656539917,-14.005331523895263
1763693844010573300,8.9135732421875,5.13301872177124,-5.038148480987549,-13.781324031066895
1763693844020523300,8.923523193359374,-1.5515923133850096,-5.0297687751770015,-9.689633393859863
1763693844030473500,8.933473388671874,-2.4197896903991696,-5.422567485046386,-7.6606971244812
1763693844040423400,8.94342333984375,-2.100911956787109,-4.53297193069458,-5.741445218658447
1763693844050373400,8.953373291015625,0.6838438491821288,-3.4346319190979,-5.885546231079101
1763693844060323300,8.9633232421875,2.250399922943115,-2.0560206756591795,-6.640019029235839
1763693844070273300,8.973273193359375,1.1857283721923828,-1.0975918235778808,-6.526294450378417
1763693844080223200,8.98322314453125,1.7130512878417967,-0.3193266464233398,-6.507739387512206
1763693844090173200,8.993173095703124,2.3624784881591796,-0.2059013427734375,-6.385635102844238
1763693844100123400,9.003123291015624,1.5846622238159178,-0.6688800888061524,-6.0351838348388664
1763693844110073300,9.0130732421875,-0.2650081962585449,-2.2162825492858884,-4.933851071166992
1763693844120022300,9.023022216796875,-1.2906243324279785,-4.614075511932373,-4.301931470489501
1763693844129972500,9.032972412109375,-1.7555483673095702,-9.498845449066161,-3.3934815780639647
1763693844139922400,9.04292236328125,-1.386093123626709,-10.377667095947265,-2.4274212081909177
1763693844149872400,9.052872314453126,-3.7672763122558592,-13.24098264389038,-3.2038907341003418
1763693844159822300,9.062822265625,-4.263474606323242,-14.344709609222411,-2.6702830390930172
1763693844169772300,9.072772216796874,-0.003142389678955078,-17.200992189788817,-2.270301724243164
1763693844179722200,9.08272216796875,0.1701379554748535,-18.044648999786375,-3.533692012786865
1763693844189672400,9.09267236328125,-1.1647791076660157,-16.425270851898194,-5.588964500427246
1763693844199622400,9.102622314453125,-1.1330559356689451,-14.806191979217528,-7.04194563293457
1763693844209572400,9.112572265625,-0.3945943611145019,-13.186065643310545,-6.53796618347168
1763693844219522300,9.122522216796876,0.09711480484008789,-10.32978306274414,-5.250484240722656
1763693844229472500,9.132472412109376,0.9579799392700195,-10.37467434387207,-4.904073188018798
1763693844239422200,9.142422119140624,0.9648632690429687,-11.596465378570556,-4.648492160797119
1763693844249371400,9.152371337890624,1.1391910774230956,-12.433388496398925,-5.078999546813964
1763693844259321300,9.1623212890625,1.3159130874633789,-11.720514952087402,-6.738779847717285
1763693844269271300,9.172271240234375,-1.2137106040954588,-8.3119199760437,-7.359177352905273
1763693844279221200,9.18222119140625,-2.0096330184936524,-9.322273076629639,-7.617302219390869
1763693844289171500,9.19217138671875,-1.3741221153259278,-10.344447547912598,-8.29351455078125
1763693844299121400,9.202121337890626,-0.4574421546936035,-10.56037461013794,-7.645883001708984
1763693844309071400,9.2120712890625,-0.1696890426635742,-11.279084020996093,-6.330269189453125
1763693844319021600,9.222021484375,-0.0378583137512207,-11.027543209075928,-5.102043737792968
1763693844328971300,9.23197119140625,1.84503165435791,-11.40896946105957,-3.844638953399658
1763693844338921200,9.241921142578125,3.703530693054199,-12.7555582572937,-2.0069395416259765
1763693844348871400,9.251871337890625,3.0386908195495606,-13.486687589263916,-0.25348610076904293
1763693844358821400,9.2618212890625,0.8105868995666503,-13.104812424468994,0.1497872413635254
1763693844368771300,9.271771240234376,-1.3211504035949706,-12.463764929962158,-0.19437924728393555
1763693844378721300,9.28172119140625,-2.316240468597412,-12.323404857635497,-0.7462427299499511
1763693844388670500,9.29167041015625,-1.642721614074707,-12.740594496917724,-1.8568530250549315
1763693844398620400,9.301620361328125,0.08409633331298827,-13.396456114196777,-2.2637176696777344
1763693844408570400,9.3115703125,0.8738836059570312,-13.452869490814209,-2.245461882019043
1763693844418520600,9.3215205078125,0.5376479103088379,-12.797606423950194,-2.2786814300537106
1763693844428470300,9.33147021484375,0.4779425064086914,-11.952303600311279,-2.467673723602295
1763693844438420200,9.341420166015626,0.9644143562316894,-11.323676026916504,-2.17079271774292
1763693844448370400,9.351370361328126,1.4814122772216796,-10.498424642181396,-1.6361375595092773
1763693844458320400,9.3613203125,1.2876315803527831,-9.479691835784912,-1.4167688323974608
1763693844468270300,9.371270263671875,0.8725368675231933,-8.450334759521484,-1.272368544769287
1763693844478220500,9.381220458984375,0.7689876457214355,-7.251587915802001,-1.3874398620605468
1763693844488170500,9.39117041015625,0.6187514915466308,-6.250512346649169,-1.546205359649658
1763693844498120200,9.4011201171875,0.5698199951171875,-5.695356836700439,-1.325938806915283
1763693844508070400,9.4110703125,0.34267011260986324,-5.462371087646484,-0.7846995941162109
1763693844518019300,9.421019287109376,0.1575683967590332,-5.281908137512207,-0.4364928901672363
1763693844527969300,9.43096923828125,0.27099370040893556,-4.757428336334228,-0.35134909362792965
1763693844537919200,9.440919189453124,0.9686042091369629,-3.605817337799072,0.12330138549804687
1763693844547869400,9.450869384765625,1.1875240234375,-2.5815479400634764,0.6048351943969726
1763693844557819400,9.4608193359375,1.3254898941040039,-3.0838813758850097,0.4252700698852539
1763693844567769300,9.470769287109375,1.2779051361083984,-4.246864832305908,0.2145803237915039
1763693844577719600,9.480719482421875,1.11719434967041,-5.382614244842529,-0.049230771636962885
1763693844587669200,9.490669189453126,1.283890640258789,-6.14172580871582,-0.3429693878173828
1763693844597619200,9.500619140625,1.6225205375671385,-6.644807432556152,-0.405368268585205
1763693844607569400,9.5105693359375,1.9378069686889647,-6.880486658477783,-0.5355529838562011
1763693844617519400,9.520519287109375,2.332102054595947,-6.944082640075683,-0.7775169891357422
1763693844627469300,9.53046923828125,2.786102544403076,-6.997802539825439,-1.0232219345092772
1763693844637419500,9.54041943359375,3.1024364387512207,-7.069329314422607,-1.2626421005249022
1763693844647369500,9.550369384765625,3.098396223449707,-7.15686731262207,-1.764676261138916
1763693844657319400,9.5603193359375,2.799121015930176,-7.581538832092285,-2.69437469329834
1763693844667268400,9.570268310546876,2.886808651733398,-8.639327053070067,-3.962254109954834
1763693844677218300,9.58021826171875,3.466055815887451,-10.092008910369872,-5.091120192718505
1763693844687168300,9.590168212890624,4.217685499572753,-11.425130322265625,-5.956175180053711
1763693844697118200,9.6001181640625,5.198709629821777,-11.822717435455322,-6.51836365737915
1763693844707068200,9.610068115234375,6.22477467880249,-11.313949582672118,-6.967725381469726
1763693844717018400,9.620018310546875,6.232406196594238,-10.44425582962036,-7.369053434753417
1763693844726968300,9.62996826171875,5.893327386474609,-8.987084844207763,-6.6531871383666985
1763693844736918300,9.639918212890626,5.625775350952148,-7.504924378967285,-5.110573081207275
1763693844746868500,9.649868408203124,5.097554609680175,-6.432022760009765,-3.72866981048584
1763693844756818200,9.659818115234375,4.374206433105469,-5.960215395355224,-3.0180408302307127
1763693844766768000,9.66976806640625,3.618386896514892,-6.832452987670898,-3.2124200775146483
1763693844776718300,9.67971826171875,3.079841160583496,-8.90598126296997,-4.190900368499755
1763693844786668300,9.689668212890625,2.550572956085205,-9.829843828582764,-3.9374142677307127
1763693844796618200,9.6996181640625,1.1604396171569824,-10.67439846420288,-3.628113340759277
1763693844806567400,9.7095673828125,-1.0516530792236327,-11.628487825775146,-3.7235821319580076
1763693844816517400,9.719517333984374,-2.3766940605163573,-11.845761626434326,-4.16261886138916
1763693844826467300,9.72946728515625,-0.27263971405029297,-12.527660186767577,-3.955071504974365
1763693844836417300,9.739417236328125,4.397998812103271,-14.8884926612854,-2.6165631393432616
1763693844846367200,9.7493671875,4.832247138214111,-16.290746646118162,-1.4821604652404785
1763693844856317200,9.759317138671875,0.9943418769836425,-14.72912861328125,-1.3115735969543456
1763693844866267100,9.76926708984375,-2.0040964271545407,-12.720243782806396,-1.213560966491699
1763693844876217300,9.77921728515625,-1.9843442634582518,-10.769268704986573,-0.6593032821655274
1763693844886167300,9.789167236328124,-1.3159130874633789,-8.958952974700928,0.15098434219360352
1763693844896117200,9.7991171875,-2.4486697479248045,-6.616525925445556,0.309001651763916
1763693844906067500,9.8090673828125,-3.603423136138916,-5.438129795837402,-0.0028431144714355467
1763693844916017400,9.819017333984375,-4.131344602203369,-5.437531245422363,0.22640169448852537
1763693844925967000,9.828967041015625,-3.3955765045166015,-5.328445432281494,0.16460136413574217
1763693844935917300,9.838917236328125,-1.8059762397766113,-4.783315641784668,0.08918401184082031
1763693844945866200,9.8488662109375,-0.1197100830078125,-4.283077132415771,0.8705915786743164
1763693844955816200,9.858816162109376,1.369333712005615,-4.9075148529052735,1.3712790008544922
1763693844965766400,9.868766357421874,1.3389572784423827,-6.300341668701171,0.38232407760620113
1763693844975716400,9.87871630859375,0.82360537109375,-8.494926765441894,-1.389983701324463
1763693844985666300,9.888666259765625,0.15547347030639647,-10.963498314666747,-3.3050457542419434
1763693844995616300,9.8986162109375,-0.6405985816955566,-10.721085396575926,-4.282478582000732
1763693845005566500,9.90856640625,-0.6443395217895508,-10.634445223999023,-3.8901287849426267
1763693845015516200,9.91851611328125,0.031573534393310544,-10.613196684265136,-2.7865514572143555
1763693845025466000,9.928466064453126,0.5672761558532714,-10.262296503448486,-1.9882348411560058
1763693845035416300,9.938416259765624,0.4041711677551269,-9.348160382080078,-1.3045406295776367
1763693845045366300,9.9483662109375,0.42886137237548827,-10.197503421020507,-1.600523809814453
1763693845055316200,9.958316162109375,-0.049530046844482416,-11.081562384033202,-1.9755156448364257
1763693845065266400,9.968266357421875,-0.8246528343200683,-10.428843156433105,-2.3273136512756345
1763693845075216400,9.97821630859375,-0.853532891845703,-9.105897101593017,-2.4895208137512204
1763693845085166300,9.988166259765626,-0.7644985176086425,-9.016563452148437,-2.189198143005371
1763693845095115500,9.998115478515626,-0.6289268486022949,-8.955660947418213,-1.1812392440795898
1763693845105065500,10.0080654296875,-0.634014527130127,-8.37611450805664,0.18959084396362302
1763693845115015200,10.01801513671875,-0.5255272644042969,-4.371512956237793,1.2029366966247559
1763693845124965400,10.02796533203125,-0.5250783515930175,-5.198410354614258,2.3705589187622067
1763693845134915300,10.037915283203125,-0.9816226806640624,-8.785971904754637,2.9652187561035155
1763693845144865300,10.047865234375,-0.30960020217895506,-8.488342710876465,2.1347300552368162
1763693845154815200,10.057815185546875,-2.4990976203918454,-6.945878291320801,2.46423205871582
1763693845164765400,10.067765380859376,-2.009184105682373,-8.076540025329589,2.7762264625549316
1763693845174715400,10.07771533203125,-0.6127659873962402,-8.294412376403809,2.466326985168457
1763693845184665000,10.0876650390625,0.32606033859252925,-7.084891625213623,2.546083827972412
1763693845194615300,10.097615234375,-0.23822306518554687,-6.5954270233154295,2.775927187347412
1763693845204565200,10.107565185546875,-1.3883376876831053,-6.953809084320068,2.520495797729492
1763693845214515200,10.11751513671875,-1.2138602416992186,-7.936778503417968,1.0860697280883789
1763693845224464400,10.12746435546875,-0.3459621398925781,-12.175413267517088,-1.9987094734191893
1763693845234414300,10.137414306640625,0.17687164764404295,-23.995437226104734,-8.806172981262206
1763693845244364300,10.1473642578125,-1.0809820495605469,-21.166538327026366,-11.251251426696777
1763693845254314500,10.157314453125,-1.592293741607666,-14.9015111328125,-7.277624858856201
1763693845264264400,10.167264404296875,0.21308394775390624,-13.37430974884033,-1.7548001792907715
1763693845274214100,10.177214111328125,0.919971987915039,-13.695432046508788,2.386719779968262
1763693845284164400,10.187164306640625,0.9615712417602539,-13.44553724822998,3.259406285095215
1763693845294114300,10.1971142578125,1.867477294921875,-14.431349781799316,0.9971849914550781
1763693845304064300,10.207064208984375,-0.25962124252319335,-15.37391704788208,-0.6156091018676757
1763693845314014200,10.21701416015625,1.6003741722106932,-12.839953865814207,-1.4101847778320311
1763693845323964400,10.22696435546875,4.051138846588135,-13.663110324096678,-0.07975684280395508
1763693845333914400,10.236914306640625,4.758775074768066,-13.590835361480712,1.1514613609313964
1763693845343864300,10.2468642578125,6.338798532867432,-13.78356859512329,0.9726444244384765
1763693845353814300,10.256814208984375,6.3046811592102046,-15.324087725830077,0.19482816009521484
1763693845363764200,10.26676416015625,1.718737516784668,-16.008979038238525,-0.24779987182617186
1763693845373713200,10.276713134765625,-1.9948188957214354,-17.048361833953855,0.6736684921264648
1763693845383663400,10.286663330078126,-1.500865165710449,-18.570026626586912,4.134187716674805
1763693845393613300,10.29661328125,-1.3708300880432127,-19.190573769378663,7.650072854614257
1763693845403563300,10.306563232421874,-2.835183678436279,-19.62422354507446,10.193163930511474
1763693845413513500,10.316513427734375,-4.383334326934814,-17.713500982666016,9.656413845825195
1763693845423463400,10.32646337890625,-4.124610910034179,-13.269862701416015,6.430975296783447
1763693845433413400,10.336413330078125,-4.008941042327881,-10.27920555267334,3.9927801811218258
1763693845443363300,10.34636328125,-1.452981132507324,-12.597989860534668,3.2028432708740233
1763693845453313300,10.356313232421876,1.3640963958740233,-14.723741659545897,2.0611083541870117
1763693845463263200,10.36626318359375,2.5043349365234375,-15.378855088806151,0.9105448188781737
1763693845473213200,10.376213134765624,3.2849943153381345,-15.700875212097166,0.5262754524230957
1763693845483163400,10.386163330078125,3.2543186065673826,-16.066290240478516,1.7120038246154785
1763693845493113300,10.39611328125,2.2171803749084473,-15.498864447021484,2.965518031311035
1763693845503063300,10.406063232421875,0.9021651130676269,-13.486837226867674,3.2763153343200684
1763693845513012500,10.416012451171875,0.08319850769042968,-9.560645779418945,1.6494553062438964
1763693845522962400,10.42596240234375,-0.9947907897949219,-5.941959607696533,-0.3000233955383301
1763693845532912000,10.435912109375,-2.6458921096801755,-3.4377743087768553,-0.46686932373046874
1763693845542862300,10.4458623046875,-3.1447838806152344,-2.5191490592956542,0.11566986770629882
1763693845552812300,10.455812255859374,-2.155080769348144,-2.689586289978027,1.3819032707214354
1763693845562762200,10.46576220703125,-1.2681786918640137,-3.4913445709228514,2.334047343444824
1763693845572712400,10.47571240234375,-1.2568062339782715,-3.6728549842834473,2.419041502380371
1763693845582662400,10.485662353515625,-1.6172832214355468,-3.1794998046874996,2.7262475028991697
1763693845592612400,10.4956123046875,-1.5741875915527344,-3.1733646629333494,3.081038261413574
1763693845602562300,10.505562255859376,-1.2150573425292968,-3.257909909057617,3.0892683296203614
1763693845612512300,10.51551220703125,-1.3491326354980469,-2.8495488883972167,3.250278391265869
1763693845622462200,10.525462158203124,-1.431433317565918,-2.4444798950195312,3.380612744140625
1763693845632412200,10.535412109375,-1.4999673400878906,-2.165555401611328,3.391386651611328
1763693845642362400,10.5453623046875,-1.5705962890624998,-2.1422119354248044,3.3892917251586914
1763693845652312000,10.55531201171875,-1.5719430274963377,-2.3026234466552733,3.342904067993164
1763693845662261000,10.565260986328125,-1.3584101669311524,-2.4754548789978026,3.3252468307495113
1763693845672211000,10.5752109375,-0.7528267845153808,-2.353350594329834,3.039588645172119
1763693845682161000,10.585160888671876,-0.25573066482543944,-2.2149358108520505,2.666093186187744
1763693845692111000,10.595111083984374,0.25034371109008785,-2.421734979248047,2.1535843933105467
1763693845702061000,10.60506103515625,1.552639776611328,-3.044676323699951,1.3819032707214354
1763693845712010800,10.6150107421875,3.567061198425293,-4.241328240966797,1.162534543609619
1763693845721961000,10.6249609375,5.459527973175049,-5.429600452423095,1.1299135459899903
1763693845731911000,10.634910888671875,7.152677459716797,-6.281337693023681,0.565630142211914
1763693845741860900,10.64486083984375,8.734795844268799,-8.387786241149902,-0.22475568084716796
1763693845751811000,10.65481103515625,11.147552567291259,-11.681160262298583,-0.6242880828857421
1763693845761761000,10.664760986328124,12.453290297698974,-15.745467218017577,-0.036062662506103516
1763693845771711000,10.6747109375,11.567585321044922,-19.92364839019775,-0.2814683326721191
1763693845781661000,10.684660888671875,10.976067873382569,-23.452103086853025,-0.6233902572631835
1763693845791611000,10.69461083984375,11.407024172210694,-23.470059599304196,-0.060902504730224606
1763693845801559800,10.704559814453125,9.2443118850708,-18.546683160400388,1.610848804473877
1763693845811509800,10.714509765625,6.658125179290771,-11.628936738586425,3.0488661766052245
1763693845821460000,10.7244599609375,4.331709353637695,-5.884349130249023,3.584868073272705
1763693845831410000,10.734409912109374,1.9710265167236327,-1.2671312286376952,4.336497756958008
1763693845841360000,10.74435986328125,-0.9718962364196777,0.07152677459716797,3.2906805442810056
1763693845851310000,10.75431005859375,-3.491494208526611,-3.261501211547851,0.5485714553833008
1763693845861260000,10.764260009765625,-2.564638890838623,-8.983493541717529,1.9731214431762694
1763693845871210000,10.7742099609375,-0.9112930068969726,-16.097564499664305,6.044162091064453
1763693845881160000,10.784159912109375,1.9607015220642088,-24.16392916793823,8.330026126098632
1763693845891110000,10.79410986328125,3.528005783843994,-27.482143031311033,6.142174721527099
1763693845901059800,10.804059814453124,2.5350106452941894,-24.34184827880859,0.9632172554016113
1763693845911010000,10.814010009765624,0.13168109130859373,-18.16391016998291,-1.9023428565979004
1763693845920960000,10.8239599609375,-4.629787460327148,-12.069020931243896,0.575206948852539
1763693845930910000,10.833909912109375,-6.5880947807312005,-6.273257262420654,4.23249962234497
1763693845940859000,10.84385888671875,-4.534767581939697,-0.7697358337402344,5.879560726928711
1763693845950809000,10.85380908203125,-1.597979970550537,2.9116484939575193,5.604676448822021
1763693845960759000,10.863759033203126,-0.968454571533203,3.114108171844482,3.293074745941162
1763693845970708700,10.873708740234376,-2.703652224731445,-0.9051578651428223,1.0854711776733397
1763693845980659000,10.883658935546874,-4.585195454406738,-5.902754555511474,-0.8225579078674315
1763693845990609000,10.89360888671875,-3.3373674766540526,-9.861866275787353,-2.5834932289123533
1763693846000558800,10.903558837890625,-0.5274725532531738,-14.742296722412108,-3.4554315460205074
1763693846010509000,10.913509033203125,1.900547205352783,-17.291672577667235,-3.3692402862548825
1763693846020459000,10.923458984375,2.970456072235107,-16.943166598510743,-2.0877438476562498
1763693846030409000,10.933408935546876,2.7213094619750975,-14.867992309570312,-0.17432780838012693
1763693846040359000,10.94335888671875,2.714126856994629,-12.695553578186034,1.025316860961914
1763693846050308900,10.953308837890624,2.0335750350952146,-10.159196194458007,1.415422093963623
1763693846060258800,10.9632587890625,0.8830114997863769,-6.955904010772705,1.5699977386474608
1763693846070209000,10.973208984375,0.5401917495727538,-4.506186799621582,1.924938134765625
1763693846080158000,10.983157958984375,0.9950900650024413,-3.6770448371887205,2.3383868339538574
1763693846090108000,10.99310791015625,1.0688614036560058,-3.6638767280578612,3.1459809814453124
1763693846100057900,11.003057861328125,0.46312838363647457,-4.096927953338623,3.5564369285583495
1763693846110008000,11.013008056640626,-0.14514847564697264,-5.275174445343017,2.492962478637695
1763693846119958000,11.0229580078125,-0.7282862174987793,-6.579266162109374,1.7009306419372558
1763693846129908000,11.032907958984374,-1.145326219177246,-8.10182878036499,1.6314987937927246
1763693846139858000,11.04285791015625,-1.0717045181274414,-8.554183256530761,1.0577882209777831
1763693846149807900,11.052807861328125,-0.699106884765625,-8.063820829010009,0.22670096969604492
1763693846159757800,11.0627578125,-0.9847650703430175,-8.06337191619873,-0.23208792343139648
1763693846169708000,11.0727080078125,-1.4133271675109862,-8.076540025329589,-0.25797522888183594
1763693846179658000,11.082657958984376,-1.426944189453125,-8.19759684677124,-0.40626609420776366
1763693846189608000,11.09260791015625,-1.6103998916625977,-9.799317757415771,0.1197100830078125
1763693846199558100,11.10255810546875,-0.4634276588439941,-10.48331124420166,0.4291606475830078
1763693846209507800,11.1125078125,0.3872621185302734,-9.191489810943603,-0.031872809600830075
1763693846219457800,11.122457763671875,0.17342998275756835,-8.754697645568847,0.20709844360351562
1763693846229406700,11.13240673828125,1.39177935256958,-9.181613729095458,0.6405985816955566
1763693846239357000,11.14235693359375,2.4262241073608397,-11.211896736907958,0.45759179229736324
1763693846249307000,11.152306884765625,1.117942537689209,-12.894122678375243,0.40985739669799803
1763693846259256800,11.1622568359375,0.08948328704833984,-12.882750220489502,-0.44262803192138667
1763693846269207000,11.17220703125,0.03426701126098632,-12.222549112701415,-1.6418237884521483
1763693846279157000,11.182156982421875,0.1571194839477539,-11.739818202972412,-2.3943512977600094
1763693846289107000,11.19210693359375,0.1379658706665039,-12.022782911682128,-3.1061773788452145
1763693846299057000,11.202056884765625,-0.24750059661865234,-13.17110188293457,-3.484161965942383
1763693846309006800,11.2120068359375,0.7065887649536132,-14.344410334014892,-3.296217135620117
1763693846318956800,11.221956787109375,1.2746131088256836,-14.620790988159179,-2.788197470855713
1763693846328907000,11.231906982421876,1.7887679153442382,-14.876521652984618,-2.2686557106018066
1763693846338857000,11.24185693359375,2.6186580657958984,-15.01553498687744,-1.4716858329772948
1763693846348807000,11.251806884765625,2.9294553688049314,-14.860660066986084,-0.7034463752746581
1763693846358757000,11.261757080078125,2.963572742462158,-14.32675309677124,-0.06075286712646484
1763693846368706000,11.2717060546875,4.124910185241699,-14.103793067169189,0.33967736053466796
1763693846378656000,11.281656005859375,5.589413413238525,-15.174001209259032,0.4688146125793457
1763693846388606000,11.29160595703125,4.636072239685058,-16.824653616333006,0.2694973243713379
1763693846398556000,11.301555908203126,2.5317186180114746,-17.157746922302245,0.0073322425842285155
1763693846408505900,11.311505859375,0.5602431884765625,-15.435268465423583,1.218798282623291
1763693846418455800,11.321455810546874,0.33039982910156246,-12.810325620269774,4.677222580718994
1763693846428406000,11.331406005859375,1.4263456390380858,-11.193042398834228,7.17617056350708
1763693846438356000,11.34135595703125,-1.2152069801330565,-11.691036344146728,7.483077288818359
1763693846448306000,11.351305908203125,-4.206013766479492,-14.324209257507324,8.054692935180663
1763693846458256100,11.361256103515625,-4.251054685211181,-17.364695728302,8.270470359802246
1763693846468205800,11.371205810546876,-1.6086042404174803,-19.17127051849365,7.424568985748291
1763693846478155800,11.38115576171875,0.9817723182678222,-19.27496937789917,5.9850552375793455
1763693846488106000,11.39110595703125,1.804779138946533,-18.265214827728272,4.449174872589111
1763693846498056000,11.401055908203125,0.9843161575317382,-16.958878546905517,3.157054164123535
1763693846508004900,11.4110048828125,0.8144774772644042,-15.674688631439208,2.150292366027832
1763693846517954800,11.420954833984375,0.5780500633239746,-14.379874446105957,1.7857751632690428
1763693846527905000,11.430905029296875,-0.7739256866455078,-12.89008246307373,1.6774375381469726
1763693846537855000,11.44085498046875,-1.6940473121643065,-10.850222648620605,1.4499883804321287
1763693846547805000,11.450804931640626,-1.6434698020935057,-8.278700428009033,0.5828384666442871
1763693846557755000,11.4607548828125,-1.6121955429077148,-5.677699599456787,-0.732326432800293
1763693846567704800,11.470704833984374,-2.0254946044921875,-4.451868349456787,-0.7439981658935546
1763693846577654800,11.48065478515625,-2.262670206451416,-3.6528035453796384,-0.30735563812255856
1763693846587605000,11.49060498046875,-2.7986721031188964,-2.755426835632324,0.2754828285217285
1763693846597555000,11.500554931640625,-3.388244261932373,-1.7048212196350097,0.567575431060791
1763693846607505000,11.5105048828125,-3.44106633605957,-0.26964696197509763,0.09322422714233398
1763693846617455000,11.520455078125,-3.9694367149353025,0.4112041351318359,0.37140053253173827
1763693846627405000,11.530405029296874,-3.8461353294372556,0.11776479415893554,0.5792471641540528
1763693846637354800,11.540354736328124,-3.4522891563415525,0.21727380065917967,1.2455834136962889
1763693846647305200,11.55030517578125,-3.6258687767028808,0.6328174263000488,2.6225486434936522
1763693846657254100,11.560254150390625,-3.5681086616516113,0.5790975265502929,4.18222138748169
1763693846667204000,11.5702041015625,-3.6490626052856445,0.3468599655151367,5.519233377075195
1763693846677154300,11.580154296875,-3.1911715377807615,0.2376245147705078,5.592855078125
1763693846687104300,11.590104248046876,-2.2399252906799316,-0.10040683212280273,4.693383441925048
1763693846697054200,11.60005419921875,-0.6274304725646972,-0.6772597946166992,3.3737294143676757
1763693846707004200,11.610004150390624,2.2016180641174317,-1.6301520553588866,2.3006781578063964
1763693846716954000,11.6199541015625,6.65213967514038,-3.1727661125183104,2.073677912902832
1763693846726904000,11.629904052734375,10.166678074645995,-5.053112241363525,1.8893243850708006
1763693846736854000,11.63985400390625,10.886734223937987,-7.275380294799804,1.6115969924926756
1763693846746804200,11.64980419921875,12.027870590209961,-10.200645810699463,1.5270517463684081
1763693846756754200,11.659754150390626,14.386907413482666,-14.34515852203369,0.9292495193481445
1763693846766704000,11.6697041015625,13.775787439727782,-19.26793641052246,-0.23927052841186522
1763693846776654300,11.679654296875,10.960206287384032,-23.65994971847534,-1.331774673461914
1763693846786604300,11.689604248046875,9.383624494171142,-24.646360802459714,-1.2867337547302244
1763693846796554000,11.699553955078125,9.6794580368042,-19.617040940093993,-0.7764695259094238
1763693846806503200,11.709503173828125,8.777143286132812,-12.745831813049316,1.3180080139160155
1763693846816453000,11.719453125,6.4746694770812985,-7.329549107360839,3.6343981201171873
1763693846826403000,11.729403076171875,3.2926258331298826,-4.600308852386474,5.0580502822875975
1763693846836353300,11.739353271484376,3.0454245117187497,-4.142567422485351,6.085312432098388
1763693846846303200,11.74930322265625,2.674472891998291,-4.714781619262695,4.825214170837402
1763693846856253200,11.759253173828125,0.5371989974975586,-6.7565867225646965,2.5477298416137693
1763693846866203100,11.769203125,2.1703438049316404,-11.161618502044677,4.856787705230713
1763693846876153300,11.7791533203125,7.662043862915039,-19.32030957183838,9.98501802368164
1763693846886103000,11.78910302734375,10.012551342773437,-29.338996056365964,9.878924962615967
1763693846896053000,11.799052978515626,-6.776787799072265,-26.490494631195066,4.637568615722656
1763693846906003200,11.809003173828126,-11.790545350646973,-12.540229745483398,0.9747393508911132
1763693846915953200,11.818953125,-5.917419040679931,-4.380042299652099,0.8040028450012207
1763693846925903000,11.828903076171875,-2.3035212722778318,-1.46195938873291,0.36750995483398435
1763693846935853300,11.838853271484375,-6.85011022491455,-1.5123872611999511,0.2811690574645996
1763693846945802200,11.84880224609375,-8.212410969543457,-2.241571304321289,0.8197147933959961
1763693846955752200,11.858752197265625,-6.025906303405761,-3.6668694801330566,0.9579799392700195
1763693846965702400,11.868702392578125,-4.18760834121704,-7.15701695022583,1.8634370796203612
1763693846975652000,11.878652099609376,-2.5751135231018063,-11.155483360290527,3.071461454772949
1763693846985602000,11.88860205078125,-1.6123451805114746,-14.283058916473388,3.9209541313171385
1763693846995552300,11.89855224609375,-0.8707412162780761,-15.318551134490965,2.9809307044982907
1763693847005502200,11.908502197265625,0.3437175758361816,-14.59460440750122,1.3232453300476072
1763693847015452200,11.9184521484375,0.6660369743347168,-13.038373328399658,0.2953846298217773
1763693847025402000,11.928402099609375,-0.15203180541992187,-11.107599327087401,0.29179332733154295
1763693847035352300,11.938352294921875,-0.8653542625427245,-9.299677798461914,0.6619967590332031
1763693847045302300,11.94830224609375,-1.0917559570312498,-7.944709296417236,0.7926303871154785
1763693847055252000,11.958251953125,-1.226429800415039,-6.465092670440673,-0.008379705810546874
1763693847065202200,11.9682021484375,-0.8539818046569824,-5.121646263885498,-1.294664547729492
1763693847075152100,11.978152099609375,-0.36855741806030273,-4.763563478088378,-2.402431728363037
1763693847085102000,11.98810205078125,0.25139117431640623,-5.3393689773559565,-2.7536311843872068
1763693847095051300,11.99805126953125,0.28969840087890625,-6.32054274520874,-2.089389861297607
1763693847105001200,12.008001220703125,0.10145429534912109,-7.790283289337157,-0.7867945205688476
1763693847114951200,12.017951171875,0.5897217964172363,-9.131634769439696,0.06239888076782226
1763693847124901400,12.0279013671875,1.3290811965942382,-9.554809912872313,0.43798926620483397
1763693847134851300,12.037851318359374,1.9385551567077635,-9.237877468109131,0.8770259956359863
1763693847144801000,12.047801025390624,2.653972540283203,-8.61329011001587,1.6436194396972654
1763693847154751200,12.057751220703125,2.5086744270324703,-8.24952109527588,2.286612223052978
1763693847164701200,12.067701171875,2.1052514472961423,-8.378957622528075,2.3509563926696777
1763693847174651100,12.077651123046875,1.7112556365966796,-9.121309774780272,1.3871405868530273
1763693847184601000,12.08760107421875,1.3455413330078123,-9.915286900329589,-0.09127893829345703
1763693847194551300,12.09755126953125,1.34060329208374,-10.500669206237792,-1.4061445625305176
1763693847204501200,12.107501220703124,1.6481085678100584,-10.377816733551025,-2.0937293518066404
1763693847214451200,12.117451171875,2.5725696838378904,-9.554061724853515,-1.896806265258789
1763693847224401200,12.127401123046875,1.9789573097229003,-9.25134485244751,-1.215655892944336
1763693847234351000,12.13735107421875,0.6015431671142578,-9.720009827423095,-1.2339116806030272
1763693847244300000,12.147300048828125,-0.5398924743652344,-10.887632049560546,-2.0923826133728025
1763693847254250200,12.157250244140625,-0.3660135787963867,-12.006771688079834,-3.1714193740844725
1763693847264200200,12.1672001953125,-0.25049334869384765,-12.689568074035643,-3.546560846710205
1763693847274150100,12.177150146484376,-0.3182791831970215,-13.045256658172606,-2.883217349243164
1763693847284100400,12.187100341796874,-0.24750059661865234,-13.201627954101562,-2.224213342285156
1763693847294050300,12.19705029296875,0.5612906517028808,-13.464541223907469,-1.527650296783447
1763693847304000300,12.207000244140625,2.014271784210205,-13.734188185882568,-0.5952583877563477
1763693847313950200,12.2169501953125,2.2284031951904297,-14.168137236785888,0.1541267318725586
1763693847323900200,12.226900146484375,2.7555764732360837,-14.918869094848631,0.34177228698730466
1763693847333850000,12.23685009765625,3.5634698959350586,-15.244630158233642,-0.33488895721435546
1763693847343800000,12.246800048828124,3.4644098022460934,-15.0792806060791,-1.7235259201049804
1763693847353750300,12.256750244140624,4.370615130615234,-14.930690465545654,-3.1299697578430172
1763693847363700200,12.2667001953125,5.497386286926269,-14.576348619842529,-4.378396286010742
1763693847373650200,12.276650146484375,4.441692992401123,-14.163498471069335,-4.905868839263916
1763693847383599400,12.286599365234375,2.0765210273742674,-13.20896019668579,-3.9041947196960445
1763693847393549300,12.29654931640625,-0.309001651763916,-10.944943251800536,-0.7579144630432129
1763693847403499000,12.3064990234375,1.2969091117858886,-8.762029888153076,2.5796026512145995
1763693847413449200,12.31644921875,3.099593324279785,-7.192630699920654,3.228730576324463
1763693847423399200,12.326399169921874,0.7580641006469726,-7.526322556304931,2.09417826461792
1763693847433349000,12.33634912109375,-1.9586065956115721,-10.077942975616455,1.2771569480895995
1763693847443299300,12.34629931640625,-2.7741315361022947,-13.532476696014404,1.7185878791809082
1763693847453249300,12.356249267578125,-1.8843863441467283,-17.28823091278076,3.2134675407409667
1763693847463199200,12.36619921875,-0.5787982513427734,-20.14331639251709,4.608838195800781
1763693847473149200,12.376149169921876,0.44532150878906246,-21.17042890472412,5.261258148193359
1763693847483099100,12.38609912109375,1.2485761657714842,-20.269161617279053,5.41388850402832
1763693847493049000,12.396049072265624,1.677736813354492,-19.04991442184448,5.966350537109375
1763693847502999000,12.4059990234375,2.02384859085083,-18.2970876373291,6.584054565429687
1763693847512949200,12.41594921875,2.4836849472045897,-17.720384312438963,6.576123772430419
1763693847522899200,12.425899169921875,2.825008321380615,-17.201590740203855,5.978620820617675
1763693847532848000,12.43584814453125,2.5993548149108885,-16.746991699981688,4.956147074127197
1763693847542798300,12.44579833984375,2.644844646453857,-16.35030241241455,3.3686417358398435
1763693847552748300,12.455748291015626,3.2040403717041013,-16.27458578491211,1.4612112007141111
1763693847562698200,12.4656982421875,2.72609786529541,-16.578499758148194,0.29269115295410153
1763693847572648200,12.475648193359374,2.136226431274414,-17.088464711761475,0.3537432952880859
1763693847582598100,12.48559814453125,2.2717981002807615,-17.41542287597656,0.34760815353393554
1763693847592548000,12.495548095703125,2.609829447174072,-16.82869383163452,-0.36272155151367186
1763693847602498300,12.505498291015625,2.057666689300537,-15.206322931671142,-0.33698388366699217
1763693847612448300,12.5154482421875,0.5808931777954102,-12.35976679534912,0.4604349067687988
1763693847622398200,12.525398193359376,-1.383399646759033,-8.40798731765747,1.4894927078247069
1763693847632348400,12.535348388671874,-2.7256489524841307,-3.7184944534301754,2.1806687995910643
1763693847642298000,12.545298095703124,-3.547757947540283,0.8719383171081543,3.3494881225585935
1763693847652247800,12.555247802734375,-4.274098876190186,5.368697947692871,4.8889597900390624
1763693847662197800,12.56519775390625,-4.616619351196289,8.596381060791016,5.3013610260009765
1763693847672147700,12.575147705078125,-4.85184966430664,9.469965391540526,4.900332247924805
1763693847682096600,12.5850966796875,-4.680963520812988,8.79090994567871,4.619013552856445
1763693847692046800,12.595046875,-4.123413809204101,6.591386808013915,4.3616368743896485
1763693847701996800,12.604996826171876,-2.977189764404297,4.832546413421631,3.93292513961792
1763693847711946800,12.61494677734375,-1.5550339782714844,3.3625065940856933,2.9960441024780273
1763693847721897000,12.62489697265625,1.1495160720825195,1.5345336265563965,1.8562544746398926
1763693847731847000,12.634846923828125,3.7761049308776853,-0.2747346405029297,1.4621090263366698
1763693847741796600,12.644796630859375,4.880879359436035,-1.5204676918029785,1.8321628204345701
1763693847751746800,12.654746826171875,5.640888748931885,-3.155707425689697,1.649604943847656
1763693847761696800,12.66469677734375,5.761945570373535,-5.141548065185547,0.7688380081176758
1763693847771646700,12.674646728515626,6.298546017456054,-6.8876692634582515,0.5027823486328125
1763693847781597000,12.684596923828124,7.213579964447021,-8.21585263442993,1.313818161010742
1763693847791547000,12.694546875,7.120804650115966,-8.18427910003662,1.9195511810302732
1763693847801496800,12.704496826171875,5.33712441329956,-7.076960832214355,2.0418051033020017
1763693847811446800,12.71444677734375,3.050512190246582,-5.46536383972168,2.6542718154907226
1763693847821396700,12.724396728515625,-0.48722003784179685,-4.6912885154724115,5.306598342132568
1763693847831346000,12.734345947265625,-4.059967465209961,-7.786093436431885,12.440870376586913
1763693847841295600,12.744295654296875,-0.48826750106811523,-16.245855364990234,20.135235961914063
