time,seconds_elapsed,z,y,x
1763693835150175000,0.053175048828125,-0.0010272851213812828,0.0001181294210255146,-0.008968534879386425
1763693835160125200,0.063125244140625,-0.0007901525823399425,-0.0021060784347355366,-0.00008933001663535833
1763693835170075100,0.0730751953125,0.0004173247143626213,0.00041060883086174726,0.005098241381347179
1763693835180025000,0.083025146484375,-0.0028333421796560287,-0.0008012854377739131,0.005786909721791744
1763693835189975300,0.092975341796875,0.00025459297467023134,0.0008259059395641088,0.003367161378264427
1763693835199925200,0.10292529296875,0.00322891678661108,-0.0014445859706029296,-0.005268193781375885
1763693835209875200,0.112875244140625,0.00012127426452934742,-0.0012030373327434063,-0.008493814617395401
1763693835219825200,0.1228251953125,-0.0025430319365113974,-0.0003066910430788994,-0.00048025912838056684
1763693835229774300,0.1327744140625,-0.00009425543248653412,0.000022475607693195343,0.0007320118602365255
1763693835239724000,0.14272412109375,-0.0012815857771784067,-0.00163210928440094,0.00159335951320827
1763693835249674000,0.152674072265625,0.001133102341555059,0.002677417825907469,0.005187295377254486
1763693835259624200,0.162624267578125,0.0019013655837625265,-0.0014834791654720902,0.0037831421941518784
1763693835269574100,0.17257421875,0.0002725763479247689,-0.0021511337254196405,0.0016454228898510337
1763693835279524000,0.182524169921875,0.00003810366615653038,0.0012685686815530062,0.00018633011495694518
1763693835289474300,0.192474365234375,-0.004154244437813759,-0.000278727849945426,-0.003164725610986352
1763693835299424300,0.20242431640625,0.001198616111651063,-0.0026390505954623222,-0.002217623870819807
1763693835309374200,0.212374267578125,0.0024822596460580826,0.0017860578373074532,-0.001682328525930643
1763693835319324200,0.22232421875,0.0008939781691879034,-0.0014653510879725218,-0.0005150246433913708
1763693835329273300,0.2322734375,0.002656724536791444,-0.00031406665220856667,0.005122088361531496
1763693835339223000,0.24222314453125,0.0010702518047764897,-0.0013599342200905085,0.0019281187560409307
1763693835349173000,0.252173095703125,-0.0031777562107890844,-0.003033731132745743,0.0033116310369223356
1763693835359123200,0.262123291015625,0.0023096140939742327,0.000690037733875215,0.001579358708113432
1763693835369073200,0.2720732421875,0.0010323619935661554,-0.001514260657131672,-0.007275651209056377
1763693835379023000,0.282023193359375,0.003936705179512501,-0.0006771364714950323,-0.00292610633186996
1763693835388973300,0.291973388671875,0.0025846180506050587,0.0028853737749159336,-0.0005891824257560074
1763693835398923300,0.30192333984375,-0.0031506437808275223,-0.0030830292962491512,-0.0008129321504384279
1763693835408873000,0.311873046875,0.0005894994246773422,0.0014030655147507787,0.00501859188079834
1763693835418823200,0.3218232421875,0.001952636637724936,0.00027931539807468653,0.0032116579823195934
1763693835428772000,0.331772216796875,-0.0028572985902428627,-0.0024027542676776648,-0.0004973263712599874
1763693835438722000,0.34172216796875,0.0042866310104727745,0.0027360813692212105,0.0004853800928685814
1763693835448672300,0.35167236328125,-0.001936377608217299,-0.0012562633492052555,-0.006118460092693567
1763693835458622200,0.361622314453125,-0.004656264092773199,0.000672930502332747,-0.003574875183403492
1763693835468572200,0.371572265625,0.0026162900030612946,0.0041449484415352345,0.0015913790557533503
1763693835478522400,0.3815224609375,0.00008815119508653879,-0.004810995422303677,0.005189043469727039
1763693835488472300,0.391472412109375,-0.0008817720226943493,0.0012301189126446843,0.007170967757701874
1763693835498422300,0.40142236328125,0.0017875141929835081,-0.0017379740020260215,0.0013655428774654865
1763693835508372000,0.4113720703125,-0.0008654522243887186,-0.0025362614542245865,-0.003175000660121441
1763693835518322200,0.421322265625,0.0006031605298630893,0.003989069256931543,-0.008611833676695824
1763693835528272100,0.431272216796875,-0.0025409674271941185,0.00009526149369776249,-0.004496450535953045
1763693835538221000,0.441220947265625,-0.00006860960274934769,-0.0013396572321653366,0.0028906662482768297
1763693835548171300,0.451171142578125,-0.0000781969865784049,0.0039685554802417755,0.007454792037606239
1763693835558121200,0.461121337890625,-0.0036188755184412003,-0.004406764637678862,0.004507193807512522
1763693835568071200,0.4710712890625,0.0008187494822777808,0.003995774779468775,-0.0028308804612606764
1763693835578021400,0.481021484375,0.0004743095487356186,0.00019974191673099995,-0.00404573418200016
1763693835587971300,0.490971435546875,0.002528672106564045,-0.0038618450053036213,-0.0032896625343710184
1763693835597921000,0.500921142578125,-0.0015840476844459772,0.0031587802805006504,0.0002206499921157956
1763693835607871200,0.510871337890625,-0.0003443461610004306,-0.0031103009823709726,-0.0017871072050184011
1763693835617821200,0.5208212890625,0.00010519544593989849,-0.0010338341817259789,0.0004169249441474676
1763693835627771100,0.530771240234375,0.0016006731893867254,0.004005462862551212,0.0011748138349503279
1763693835637720000,0.540719970703125,-0.0009186771931126714,-0.005271658767014742,0.002333022654056549
1763693835647670500,0.55067041015625,0.003922657109797001,0.0016503841616213322,0.002109270077198744
1763693835657620700,0.560620849609375,0.0011869908776134253,0.001616910332813859,-0.000570007658097893
1763693835667570700,0.57057080078125,-0.0029507626313716173,-0.0016233576461672783,-0.0006152813439257443
1763693835677520600,0.580520751953125,0.0025410959497094154,0.0031761275604367256,-0.0006924677873030305
1763693835687470600,0.590470703125,-0.0014315411681309342,0.0008842110401019454,-0.005326634272933006
1763693835697420500,0.600420654296875,-0.002367184031754732,-0.00000967457890510559,0.00189224723726511
1763693835707370500,0.61037060546875,0.000004627392627298832,0.004641270264983177,0.0028773504309356213
1763693835717320700,0.62032080078125,-0.0032638567499816418,-0.0010675928788259625,0.0014326078817248344
1763693835727270700,0.630270751953125,-0.0025623803958296776,0.00217214273288846,-0.0012345480499789119
1763693835737220600,0.640220703125,0.002514743246138096,0.005820536054670811,-0.004467473831027746
1763693835747169500,0.65016943359375,-0.004629719071090221,-0.0010951606091111898,-0.0007755333208478987
1763693835757119700,0.66011962890625,0.0018020813586190343,0.0029674917459487915,-0.00005408300785347819
1763693835767069700,0.670069580078125,-0.00005262403283268213,0.0005681760376319289,0.0013218100648373365
1763693835777019400,0.680019287109375,-0.0032064260449260473,-0.002759195864200592,0.004071083385497332
1763693835786969600,0.689969482421875,0.001379271037876606,0.0036651473492383957,0.0038013048470020294
1763693835796919600,0.69991943359375,-0.0015043998137116432,-0.0006134869763627648,0.0037717437371611595
1763693835806869500,0.709869384765625,-0.0013004015199840069,0.0028835097327828407,-0.0005361855146475136
1763693835816819700,0.71981982421875,0.002265824470669031,0.004145426210016012,-0.00990973599255085
1763693835826769700,0.729769775390625,-0.004865322262048721,-0.0015124594792723656,-0.004685147199779749
1763693835836719600,0.7397197265625,-0.0000891159288585186,0.0014808967243880033,0.0025551081635057926
1763693835846668500,0.74966845703125,-0.0016705008456483483,0.0012092541437596083,0.0022168864961713552
1763693835856618800,0.75961865234375,-0.0039399536326527596,-0.0018539504380896688,0.00037842540768906474
1763693835866568400,0.769568359375,0.00232992647215724,0.004934180527925491,0.0024932415690273046
1763693835876518400,0.779518310546875,0.0023371169809252024,-0.0025160121731460094,0.002816283144056797
1763693835886468600,0.789468505859375,-0.0007247991161420941,-0.000610594404861331,-0.0031640082597732544
1763693835896418600,0.79941845703125,-0.00021339894738048315,0.002272939309477806,-0.005901319440454245
1763693835906368500,0.809368408203125,-0.0011372495209798217,-0.00254764873534441,0.0022500839550048113
1763693835916318700,0.819318603515625,-0.0003314940258860588,0.0001346778590232134,0.00376731320284307
1763693835926268700,0.8292685546875,-0.001147486618719995,0.0009232398588210344,0.0025489171966910362
1763693835936218600,0.839218505859375,0.0011625635670498013,0.0003147536190226674,-0.0007839748286642134
1763693835946167600,0.84916748046875,0.0018672359874472022,0.002556069754064083,-0.004434902220964432
1763693835956117500,0.859117431640625,-0.0009829457849264145,-0.002995740156620741,-0.0013351228553801775
1763693835966067500,0.8690673828125,-0.00021515646949410439,0.0003483912441879511,-0.0006701313541270792
1763693835976017400,0.879017333984375,0.00013245281297713518,-0.00033159542363137007,0.0018120745662599802
1763693835985967600,0.888967529296875,-0.00019831175450235605,0.002149405423551798,0.000835759739857167
1763693835995917600,0.89891748046875,0.0016900489572435617,0.00231183972209692,-0.003738126717507839
1763693836005867500,0.908867431640625,-0.001076176413334906,-0.0012775687500834465,0.0008140141726471484
1763693836015817700,0.918817626953125,-0.0006441479781642556,-0.002911385614424944,0.004864500369876623
1763693836025767700,0.928767578125,0.0017407129053026438,-0.00041413947474211454,0.0007999841473065317
1763693836035717400,0.93871728515625,-0.0015103451441973448,-0.0034492393024265766,0.0012945642229169607
1763693836045667600,0.94866748046875,0.003074553096666932,0.0015700202202424407,-0.002114814706146717
1763693836055616500,0.958616455078125,0.0008561398717574775,0.0006456369301304221,-0.0072669656947255135
1763693836065566500,0.96856640625,-0.0014041910180822015,-0.002443748526275158,-0.003154454752802849
1763693836075516400,0.978516357421875,0.001351487822830677,-0.0012505336198955774,-0.002379000186920166
1763693836085466600,0.988466552734375,-0.003216099925339222,-0.0023821108043193817,0.0007536762859672308
1763693836095416600,0.99841650390625,-0.002821346279233694,-0.000044791377149522305,0.005942463409155607
1763693836105366500,1.008366455078125,0.0019350596703588963,0.001898783608339727,0.0032958141528069973
1763693836115316700,1.018316650390625,-0.00038134469650685787,-0.0009343979181721807,-0.0065373522229492664
1763693836125266400,1.028266357421875,0.0011584949679672718,0.004695790819823742,-0.012838924303650856
1763693836135216400,1.03821630859375,-0.000012496835552155972,0.005833227187395096,-0.012428265064954758
1763693836145166600,1.04816650390625,-0.00022368552163243294,-0.003131239442154765,0.00425510760396719
1763693836155115500,1.058115478515625,0.002441159915179014,0.0014395624166354537,0.016289308667182922
1763693836165065500,1.0680654296875,0.00041103234980255365,-0.00011545734014362097,0.012127319350838661
1763693836175015400,1.078015380859375,0.00025846133939921856,-0.002406273502856493,0.0052140504121780396
1763693836184965600,1.087965576171875,0.0018374494975432754,0.0033506820909678936,-0.0030840933322906494
1763693836194915600,1.09791552734375,-0.0027970371302217245,-0.0000172322615981102,-0.009503989480435848
1763693836204865500,1.107865478515625,-0.0008601199369877577,-0.0007559930672869086,-0.004919090773910284
1763693836214815700,1.117815673828125,0.0017411690205335617,0.0012331034522503614,0.005437236279249191
1763693836224765400,1.127765380859375,-0.0013824526686221361,-0.0009264537948183715,0.017927460372447968
1763693836234715400,1.13771533203125,0.0013196837389841676,0.002685022307559848,0.010658550076186657
1763693836244665600,1.14766552734375,-0.0005645027849823236,0.0013571700546890497,-0.0057782139629125595
1763693836254615600,1.157615478515625,0.00008693942800164223,0.00040987355168908834,-0.011518066748976707
1763693836264564500,1.167564453125,0.001648350735194981,0.005246973130851984,-0.007517999038100243
1763693836274514700,1.1775146484375,-0.0023579623084515333,-0.00167991709895432,0.0016193422488868237
1763693836284464600,1.187464599609375,0.00026631669607013464,-0.0035923330578953028,0.012728719040751457
1763693836294414600,1.19741455078125,0.0014784481609240174,0.0030668536201119423,0.008448459208011627
1763693836304364500,1.207364501953125,-0.0019570295698940754,-0.0016879541799426079,-0.0015647601103410125
1763693836314314500,1.217314453125,0.003873035777360201,0.0011305167572572827,-0.0036382705438882113
1763693836324264400,1.227264404296875,0.0023534358479082584,0.00037417898420244455,-0.007076677866280079
1763693836334214400,1.23721435546875,-0.0026038391515612602,-0.0018193848663941026,-0.0028133615851402283
1763693836344164600,1.24716455078125,0.0019562917295843363,-0.0011418766807764769,0.00602380558848381
1763693836354114600,1.257114501953125,-0.0002455828944221139,0.00021077855490148067,0.0018589228857308626
1763693836364063500,1.2670634765625,-0.00080484664067626,0.001907212077639997,-0.0003054281696677208
1763693836374013700,1.277013671875,0.0016120524378493428,0.004475381225347519,-0.00170714792329818
1763693836383963600,1.286963623046875,-0.0007001040503382683,-0.002061614068225026,-0.0009846322936937213
1763693836393913600,1.29691357421875,0.0006227164994925261,-0.00016838987357914448,0.0028591754380613565
1763693836403863600,1.306863525390625,-0.0011786456452682614,0.0010193800553679466,0.0024855337105691433
1763693836413813500,1.3168134765625,-0.0011640541488304734,-0.0014752305578440428,0.0030558754224330187
1763693836423763500,1.326763427734375,0.002190463710576296,0.0018222955986857414,-0.0030976245179772377
1763693836433713700,1.336713623046875,0.000714443507604301,0.0012388336472213268,-0.008376994170248508
1763693836443663600,1.34666357421875,0.001979178749024868,-0.0024805371649563313,0.000154708803165704
1763693836453613600,1.356613525390625,0.0007634656503796577,0.0005273373099043965,0.003663722425699234
1763693836463562500,1.3665625,-0.0028805378824472427,-0.00438965717330575,0.002867703326046467
1763693836473512700,1.3765126953125,0.00019986159168183804,-0.0006173633737489581,0.003482995554804802
1763693836483462700,1.386462646484375,0.0023809904232621193,0.0037864395417273045,-0.0022414694540202618
1763693836493412600,1.39641259765625,-0.0016698044491931796,-0.0016908360412344337,-0.007796263322234154
1763693836503362600,1.406362548828125,0.0021643484942615032,0.0013816527789458632,-0.005498488433659077
1763693836513312500,1.4163125,-0.0007504812674596906,0.0007510163122788072,-0.005395689979195595
1763693836523262500,1.426262451171875,-0.003080214373767376,-0.0035558477975428104,0.004535237327218056
1763693836533212700,1.436212646484375,0.0024015626404434443,0.003137878840789199,0.01095783244818449
1763693836543162600,1.44616259765625,0.0009088608203455806,-0.0016843071207404137,-0.0000924214837141335
1763693836553112600,1.456112548828125,-0.0008817416382953525,-0.00043969356920570135,-0.002368686255067587
1763693836563062800,1.466062744140625,0.0016551855951547623,0.001323052798397839,-0.005483785644173622
1763693836573011700,1.47601171875,-0.00341224716976285,-0.005184398964047432,-0.005973746534436941
1763693836582961700,1.485961669921875,-0.0010681330459192395,-0.0006959072779864073,0.004601666238158941
1763693836592911400,1.495911376953125,0.0028935284353792667,0.0014138218248263001,0.00438105221837759
1763693836602861600,1.505861572265625,-0.0009478151332587004,-0.004912783391773701,0.001794856390915811
1763693836612811500,1.5158115234375,0.0010870879050344229,0.0024411685299128294,0.0011218370636925101
1763693836622761500,1.525761474609375,0.0007999991066753864,-0.000289370771497488,-0.004458018112927675
1763693836632711700,1.535711669921875,-0.0011624387698248029,-0.0037361541762948036,-0.00336497463285923
1763693836642661600,1.54566162109375,0.0029673250392079353,0.0027292021550238132,-0.0005574701353907585
1763693836652611800,1.55561181640625,-0.003205469809472561,-0.002038929844275117,0.0002598908613435924
1763693836662561500,1.5655615234375,0.0005240209866315126,0.00015764543786644936,0.0056171054020524025
1763693836672510700,1.5755107421875,0.0023766220547258854,0.005015902686864138,0.003362682182341814
1763693836682460700,1.585460693359375,-0.0026935040950775146,-0.0018790211761370301,-0.0009391217608936131
1763693836692410600,1.59541064453125,0.0010144589468836784,0.0011291570262983441,-0.0026192287914454937
1763693836702360600,1.605360595703125,0.000003789318725466728,0.0013608521549031138,-0.0031372136436402798
1763693836712310800,1.615310791015625,-0.0016104894457384944,-0.004889154806733131,0.0007555289776064456
1763693836722260700,1.6252607421875,0.0037579103372991085,0.0029519901145249605,0.00044713495299220085
1763693836732210700,1.635210693359375,0.0014796149916946888,-0.0011434934567660093,-0.001828207285143435
1763693836742161000,1.645160888671875,-0.00181870989035815,-0.004879642277956009,0.0032376577146351337
1763693836752110600,1.655110595703125,0.002101300749927759,0.004233282525092363,0.004674652591347694
1763693836762060500,1.665060546875,-0.001315268687903881,-0.0037114594597369432,-0.00003807758912444115
1763693836772010800,1.6750107421875,-0.0003860917640849948,0.001422316301614046,0.001021327916532755
1763693836781959700,1.684959716796875,0.0024714800529181957,0.005653280299156904,-0.0017174668610095978
1763693836791909600,1.69490966796875,-0.0012713148025795817,-0.003414094215258956,-0.003355016466230154
1763693836801859600,1.704859619140625,0.00011752359569072723,0.002146319719031453,0.0020445426926016808
1763693836811809800,1.714809814453125,0.00023544055875390768,0.00036628986708819866,-0.0006176782189868391
1763693836821759700,1.724759765625,-0.0027065537869930267,-0.004274001810699701,0.002313396893441677
1763693836831709700,1.734709716796875,0.003577583469450474,0.003989300690591335,0.005505479406565428
1763693836841660000,1.744659912109375,-0.00019132217857986689,-0.00226193736307323,-0.0005345698446035385
1763693836851609600,1.754609619140625,-0.001076778513379395,-0.0008615012629888952,-0.0018785822903737426
1763693836861559600,1.7645595703125,0.0028535146266222,0.004715690389275551,-0.002734255976974964
1763693836871509800,1.774509765625,-0.004063873086124659,-0.005475124344229698,-0.001695274724625051
1763693836881459700,1.784459716796875,0.0008850789163261652,-0.00042603735346347094,-0.0003929890226572752
1763693836891408600,1.79440869140625,0.0015947790816426277,0.002390798181295395,0.00009004882303997874
1763693836901358600,1.804358642578125,-0.00108835578430444,-0.0028495038859546185,0.0008895297651179135
1763693836911308800,1.814308837890625,0.002887280657887459,0.0012069395743310452,0.0015991248656064272
1763693836921258800,1.8242587890625,-0.00007894821465015411,-0.0007131994934752584,0.002110451925545931
1763693836931208700,1.834208740234375,-0.0022650877945125103,-0.0038361968472599983,0.0007667257450520992
1763693836941158700,1.84415869140625,0.004349938128143549,0.0030832281336188316,-0.00124822196085006
1763693836951108600,1.854108642578125,-0.002320449333637953,-0.0028191544115543365,-0.0077164568938314915
1763693836961058600,1.86405859375,0.0013275485252961516,0.0017271279357373714,-0.009305831044912338
1763693836971008800,1.8740087890625,0.0029672980308532715,0.000020456034690141678,-0.0006741601973772049
1763693836980958700,1.883958740234375,-0.0013374355621635914,-0.004821170587092638,0.004122725687921047
1763693836990907600,1.89390771484375,0.0003969882382079959,-0.0023465249687433243,0.005613377317786217
1763693837000857600,1.903857666015625,0.0008438666700385511,0.0006817555986344814,0.0005150217330083251
1763693837010807800,1.913807861328125,0.0006106668151915073,-0.003568686079233885,-0.008276686072349548
1763693837020757800,1.9237578125,0.0034226984716951847,0.0034777717664837837,-0.012526558712124825
1763693837030707700,1.933707763671875,-0.0005217024590820074,0.0005194770637899637,-0.007869742810726166
1763693837040657700,1.94365771484375,-0.0014010784216225147,-0.004964770749211311,0.001078744768165052
1763693837050607600,1.953607666015625,-0.00038441282231360674,0.0006207779515534639,0.005816240329295397
1763693837060557600,1.9635576171875,-0.0039040464907884598,-0.0021228105761110783,-0.0033860462717711926
1763693837070507800,1.9735078125,0.002570933196693659,-0.00023096485529094934,-0.003564662067219615
1763693837080457700,1.983457763671875,0.00509054958820343,0.0038383454084396362,-0.00596603425219655
1763693837090407700,1.99340771484375,-0.0007528902497142553,-0.0028569241985678673,-0.009054102003574371
1763693837100356600,2.003356689453125,-0.0017763429787009954,0.0012656489852815866,-0.003428440075367689
1763693837110306800,2.013306884765625,0.0009517125436104834,-0.0022614598274230957,0.004059130325913429
1763693837120256800,2.0232568359375,-0.001798533950932324,-0.0034750623162835836,0.007878902368247509
1763693837130206500,2.03320654296875,0.0045735836029052734,0.003945311065763235,0.008755005896091461
1763693837140156700,2.04315673828125,0.001531720976345241,-0.0010238811373710632,0.0021551602985709906
1763693837150106600,2.053106689453125,-0.0010723641607910395,0.00025323464069515467,-0.001312612323090434
1763693837160056600,2.063056640625,6.235204637050629e-7,0.004539059475064278,0.0032642963342368603
1763693837170006800,2.0730068359375,-0.0011567120673134923,-0.0038865208625793457,0.001341640716418624
1763693837179956700,2.082956787109375,-0.0007388620870187879,-0.0007818074664101005,0.012923195026814938
1763693837189906700,2.09290673828125,0.0025328700430691242,0.003399023786187172,0.014447660185396671
1763693837199856600,2.102856689453125,-0.002226465381681919,-0.0029062763787806034,0.009292579255998135
1763693837209805800,2.112805908203125,0.00011326256208121777,-0.00022975250612944365,0.0021649175323545933
1763693837219755800,2.122755859375,0.005069938022643328,0.0019108965061604977,-0.00957296509295702
1763693837229705500,2.13270556640625,-0.006806781515479088,-0.003194668097421527,-0.0013064200757071376
1763693837239655700,2.14265576171875,-0.00011612242087721825,0.0038440667558461428,0.002873145043849945
1763693837249605600,2.152605712890625,0.0037464399356395006,-0.000395970419049263,-0.0017851627198979259
1763693837259555600,2.1625556640625,-0.0013271481730043888,-0.0006393833318725228,0.002911588177084923
1763693837269505800,2.172505859375,0.0019701304845511913,0.004577317275106907,0.0031806034967303276
1763693837279455700,2.182455810546875,-0.0013953062007203698,-0.0041392091661691666,-0.007907467894256115
1763693837289405700,2.19240576171875,0.0005998220876790583,0.003391347825527191,-0.004234924912452698
1763693837299355600,2.202355712890625,0.0011886470019817352,0.002894135657697916,0.002008589915931225
1763693837309304800,2.212304931640625,-0.0026741628535091877,-0.005490708164870739,0.005317246541380882
1763693837319254500,2.222254638671875,0.0003213608870282769,0.004986966494470835,0.00906324852257967
1763693837329204700,2.232204833984375,0.0009900502627715468,0.0016825253842398524,0.006478849798440933
1763693837339154700,2.24215478515625,-0.0012398144463077188,-0.004417977761477232,-0.008694776333868504
1763693837349104600,2.252104736328125,0.0023352187126874924,0.004695304669439793,-0.008538700640201569
1763693837359054800,2.262054931640625,-0.0013207687297835946,-0.0015205133240669966,-0.005001223646104336
1763693837369004800,2.2720048828125,-0.0006563040660694242,-0.002033493248745799,0.005344904027879238
1763693837378954800,2.281954833984375,0.0019282937282696366,0.002332492731511593,0.009345504455268383
1763693837388904400,2.291904541015625,-0.0028485595248639584,-0.003497140482068062,-0.00017093843780457973
1763693837398854700,2.301854736328125,0.0009110250393860042,0.0005575221730396152,-0.0018157067243009806
1763693837408804600,2.3118046875,0.002664910163730383,0.0048523759469389915,-0.006087513640522957
1763693837418753500,2.32175341796875,-0.002873665653169155,-0.004380537196993828,-0.0075360070914030075
1763693837428703700,2.331703857421875,0.0020379279740154743,0.00046442344319075346,0.004467246122658253
1763693837438653700,2.34165380859375,0.000448287115432322,-0.00028632173780351877,0.009607680141925812
1763693837448603600,2.351603759765625,-0.0038163322024047375,-0.004004268907010555,0.005997565574944019
1763693837458553900,2.361553955078125,0.0011792253935709596,0.0045623211190104485,-0.003786622080951929
1763693837468503800,2.37150390625,-0.0009736614301800728,0.0004212617641314864,-0.013197142630815506
1763693837478453800,2.381453857421875,-0.00039389124140143394,-0.0008445386774837971,-0.00604362552985549
1763693837488403700,2.39140380859375,0.0028431746177375317,0.004227506462484598,0.002470754785463214
1763693837498353700,2.401353759765625,-0.00448957271873951,-0.005092225503176451,0.00009228562703356147
1763693837508303600,2.4113037109375,-0.003631433704867959,0.00048088887706398964,0.004219518043100834
1763693837518253800,2.42125390625,0.002128983847796917,0.006673270836472511,-0.0016106741968542337
1763693837528202800,2.43120263671875,-0.0008455007337033749,-0.003466714872047305,-0.009944237768650055
1763693837538152700,2.441152587890625,0.0014323008945211768,0.0026226029731333256,-0.00822649896144867
1763693837548102700,2.4511025390625,-0.00011284090578556061,-0.0007252106443047523,-0.0045358361676335335
1763693837558052900,2.461052978515625,-0.005454609170556068,-0.0035697328858077526,-0.0031736292876303196
1763693837568002800,2.4710029296875,-0.00036099611315876245,0.0012613226426765323,0.005109688267111778
1763693837577952500,2.480952392578125,0.0008494106587022543,0.0009023285238072276,-0.0029540969990193844
1763693837587902700,2.49090283203125,-0.0007296354742720723,-0.0012167751556262374,-0.010374297387897968
1763693837597852700,2.500852783203125,0.0045623318292200565,0.00468958355486393,-0.006140137556940317
1763693837607802600,2.510802734375,-0.0009156230371445417,-0.004055346827954054,-0.00449956301599741
1763693837617752800,2.5207529296875,-0.003936712630093098,-0.000435045687481761,0.008362439461052418
1763693837627702800,2.530702880859375,0.0029702880419790745,0.004365531727671623,0.00874585472047329
1763693837637651700,2.540651611328125,-0.0006382953142747283,-0.003006097860634327,-0.002537426073104143
1763693837647601000,2.550600830078125,0.0017636489355936646,0.007688293233513832,-0.004091576673090458
1763693837657550800,2.56055078125,0.0029788492247462273,0.007831037975847721,0.0018898833077400923
1763693837667500800,2.570500732421875,-0.004201882518827915,-0.004871798679232597,0.007657658774405718
1763693837677451000,2.580450927734375,-0.00022072321735322475,0.002207682467997074,0.013375199399888515
1763693837687400700,2.590400634765625,-0.0011010938324034214,-0.0003381171263754368,0.011901531368494034
1763693837697350700,2.6003505859375,-0.00036499614361673594,-0.0025099250487983227,0.0035144377034157515
1763693837707300900,2.61030078125,0.00767548056319356,0.005422733258455992,-0.008563786745071411
1763693837717250800,2.620250732421875,0.001276436960324645,-0.0004018661566078663,-0.010091109201312065
1763693837727200800,2.63020068359375,-0.003332088701426983,-0.004521115217357874,-0.00013393734116107225
1763693837737151000,2.64015087890625,0.0012235146714374423,0.0036465334706008434,0.006573500111699104
1763693837747100000,2.650099853515625,-0.006066801957786083,-0.0048606498166918755,0.008583027869462967
1763693837757049900,2.6600498046875,-0.00013434432912617922,0.0044604139402508736,0.004961928352713585
1763693837766999800,2.669999755859375,0.0029409127309918404,0.005643509328365326,-0.004974910989403725
1763693837776949800,2.67994970703125,-0.0019379983423277736,-0.00390019454061985,-0.01330740936100483
1763693837786899700,2.689899658203125,0.0004387926310300827,0.0048181223683059216,-0.003316988004371524
1763693837796849700,2.699849609375,-0.003244359279051423,-0.0013976957416161895,0.0049902102909982204
1763693837806800000,2.7097998046875,-0.0030406273435801268,-0.007324294187128544,0.005040011368691921
1763693837816749800,2.719749755859375,0.005803996697068214,0.005023984704166651,0.0032386493403464556
1763693837826699800,2.72969970703125,0.00123841711319983,0.0003155613085255027,-0.006653917953372002
1763693837836650000,2.73964990234375,-0.0010212751803919673,-0.00141176488250494,-0.011174101382493973
1763693837846600000,2.749599853515625,0.0007399714668281376,0.004382116720080376,-0.002576415427029133
1763693837856548900,2.759548828125,-0.006620206870138645,-0.00624309666454792,0.0036431308835744858
1763693837866498800,2.769498779296875,-0.0006612101569771767,-0.0010373792611062527,0.008506407961249352
1763693837876448800,2.77944873046875,0.0053982799872756,0.004233815241605043,0.004251742269843817
1763693837886398700,2.789398681640625,-0.003310771193355322,-0.0033134818077087402,-0.0031502065248787403
1763693837896348700,2.7993486328125,0.0021228764671832323,0.00448159035295248,-0.005941732320934534
1763693837906299000,2.809298828125,0.0011982206488028169,-0.000813783670309931,-0.006063983775675297
1763693837916248800,2.819248779296875,-0.010076272301375866,-0.009769994765520096,0.005932757630944252
1763693837926198800,2.82919873046875,0.01082602608948946,0.0043780202977359295,-0.0009806558955460787
1763693837936149000,2.83914892578125,-0.0005552588263526559,-0.0005874434718862176,-0.00017078866949304938
1763693837946098700,2.8490986328125,-0.0028799320571124554,0.00004585622809827328,0.0007392134284600616
1763693837956048600,2.859048583984375,0.009065410122275352,0.005414256360381842,-0.007021503988653421
1763693837965997600,2.86899755859375,-0.003718388732522726,-0.00863015279173851,-0.006486926227807999
1763693837975947800,2.87894775390625,-0.004956225864589214,-0.003880671691149473,0.004316985607147217
1763693837985897700,2.888897705078125,0.001569453626871109,0.0023877122439444065,0.008335433900356293
1763693837995847700,2.89884765625,-0.0019757463596761227,-0.005775409284979105,0.00245836959220469
1763693838005798000,2.9087978515625,0.005240175407379866,0.003236213233321905,-0.0038148004096001387
1763693838015747800,2.918747802734375,0.00018363131675869226,0.004081500694155693,-0.012365943752229214
1763693838025697800,2.92869775390625,-0.006348985247313976,-0.0005204320186749101,-0.014575328677892685
1763693838035647700,2.938647705078125,-0.0005667305085808039,0.0017547066090628505,-0.002179911360144615
1763693838045597700,2.94859765625,-0.0033720298670232296,-0.0012441505677998066,0.003372128587216139
1763693838055547600,2.958547607421875,-0.0017395123140886426,-0.0004995306953787804,0.0029239184223115444
1763693838065497900,2.968497802734375,0.005757725797593594,0.005989031866192818,0.0007924039964564145
1763693838075446800,2.97844677734375,-0.0018700999207794666,-0.002680622972548008,-0.003941364586353302
1763693838085396700,2.988396728515625,-0.0019178573274984956,-0.00020177103579044342,-0.007349319756031036
1763693838095347000,2.998346923828125,0.0012244065292179585,0.0027202493511140347,-0.00842204038053751
1763693838105297000,3.008296875,-0.0016915813321247697,-0.007713446393609047,-0.0007579160155728459
1763693838115246800,3.018246826171875,0.0005073907086625695,0.0016552878078073263,0.006350327283143997
1763693838125196800,3.02819677734375,0.0025462955236434937,0.0024274480529129505,0.0037071104161441326
1763693838135146800,3.038146728515625,0.002993173897266388,-0.003980650100857019,-0.00006046367343515158
1763693838145096700,3.0480966796875,0.003340653143823147,0.0007174605270847678,-0.00230748881585896
1763693838155046700,3.058046630859375,-0.002344663254916668,-0.0014250526437535882,-0.0058156708255410194
1763693838164996900,3.067996826171875,-0.0031241823453456163,-0.004532584920525551,0.0012733708135783672
1763693838174946800,3.07794677734375,0.004234131425619125,0.004521629773080349,0.0092503372579813
1763693838184895700,3.087895751953125,-0.0007874321890994906,-0.0012185841333121061,0.00418838718906045
1763693838194846000,3.097845947265625,-0.001646035467274487,0.0033098547719419003,0.0005861957324668765
1763693838204796000,3.1077958984375,0.002705552615225315,0.00419951556250453,0.0002971988287754357
1763693838214745900,3.117745849609375,-0.006201922427862883,-0.005915436428040266,-0.00028550077695399523
1763693838224695800,3.12769580078125,-0.000887421309016645,0.0009215761674568057,0.006666194647550583
1763693838234645800,3.137645751953125,0.003161648754030466,-0.0003146631643176079,0.01293820608407259
1763693838244595700,3.147595703125,0.0021637286990880966,-0.005152009427547455,0.01312378142029047
1763693838254546000,3.1575458984375,0.0008558502304367721,0.0037927499506622553,0.007472021039575338
1763693838264495900,3.167495849609375,0.00213937577791512,-0.002215616637840867,-0.0023483559489250183
1763693838274445800,3.17744580078125,0.0059500932693481445,-0.0034228276927024126,-0.007592386100441217
1763693838284395800,3.187395751953125,0.0004339743172749877,0.0012888552155345678,0.007873562164604664
1763693838294345000,3.197344970703125,-0.005154136568307877,-0.001959402346983552,0.00899235624819994
1763693838304295000,3.207294921875,0.000980519806034863,0.002397766336798668,0.003001951612532139
1763693838314244900,3.217244873046875,0.0033267647959291935,0.0059610758908092976,-0.0031041440088301897
1763693838324194800,3.22719482421875,-0.003779598046094179,-0.0026698606088757515,-0.009911402128636837
1763693838334144800,3.237144775390625,0.0006716093048453331,0.0021350146271288395,-0.0041344729252159595
1763693838344094700,3.2470947265625,0.0013792982790619135,0.0013062573270872235,0.0023499634116888046
1763693838354045000,3.257044921875,-0.003444485366344452,-0.0031156553886830807,0.007617429830133915
1763693838363995000,3.266994873046875,0.0029589873738586903,0.005149023607373238,0.00742654362693429
1763693838373944800,3.27694482421875,0.0006148729007691145,0.001065066084265709,-0.0018327346770092845
1763693838383895000,3.28689501953125,-0.0006740969838574529,-0.0017568194307386875,-0.0027765589766204357
1763693838393844700,3.2968447265625,0.001815425930544734,0.0037242325488477945,-0.009331929497420788
1763693838403794000,3.3067939453125,-0.0015806203009560704,-0.0035684658214449883,-0.011350826360285282
1763693838413743600,3.31674365234375,0.00005056592635810375,-0.0020818894263356924,0.007475591730326414
1763693838423693800,3.32669384765625,0.0013468376128003001,0.004445316269993782,0.01158694177865982
1763693838433643800,3.336643798828125,-0.002957895863801241,-0.004516220651566982,0.004432891495525837
1763693838443593700,3.34659375,0.003188389353454113,0.0012782393023371696,0.0010767217027023435
1763693838453544000,3.3565439453125,-0.0009072860702872276,0.0015381637495011091,-0.006707165390253067
1763693838463494000,3.366493896484375,-0.0035436474718153477,-0.0032277379650622606,-0.010244579054415226
1763693838473443800,3.37644384765625,0.0035608671605587006,0.0029097828082740307,-0.00020020129159092903
1763693838483393800,3.386393798828125,0.0021413047797977924,-0.0011554412776604295,0.005096089094877243
1763693838493343700,3.39634375,-0.00293547916226089,-0.00398291926831007,0.00802423432469368
1763693838503293700,3.406293701171875,0.003267589956521988,0.00505019398406148,0.008791049011051655
1763693838513242600,3.41624267578125,-0.0007985245902091265,-0.004741183947771788,-0.002430979162454605
1763693838523192800,3.42619287109375,0.00019525119569152594,0.0010453221620991826,-0.010542947798967361
1763693838533142800,3.436142822265625,0.0016168465372174978,0.0038554896600544453,-0.006340213119983673
1763693838543092700,3.4460927734375,-0.001480594277381897,-0.006046602968126535,0.0001609853352420032
1763693838553043000,3.45604296875,0.00005818018689751625,0.00023819098714739084,0.008128897286951542
1763693838562993000,3.465992919921875,-0.0006454322719946504,0.0036295149475336075,0.0033730072900652885
1763693838572942800,3.47594287109375,-0.0041480218060314655,-0.0028057475574314594,-0.0039006182923913
1763693838582892800,3.485892822265625,0.0036442186683416367,0.004596151411533356,-0.003328099846839905
1763693838592842800,3.4958427734375,0.001062550232745707,0.0009066078346222639,-0.004090030211955309
1763693838602792700,3.505792724609375,-0.0014040694804862142,-0.005805622786283493,0.0010693119838833809
1763693838612743000,3.515742919921875,0.003030892461538315,0.00387709797360003,0.002747636055573821
1763693838622691800,3.52569189453125,-0.002533429302275181,-0.002440168522298336,-0.0013332194648683071
1763693838632641800,3.535641845703125,-0.0018439366249367595,-0.0006137725431472063,0.00030915200477465987
1763693838642591700,3.545591796875,0.0020672909449785948,0.004115002229809761,-0.003061110619455576
1763693838652542000,3.5555419921875,-0.0009338251547887921,-0.003765558125451207,-0.008293423801660538
1763693838662492000,3.565491943359375,-0.0008108092006295919,0.0007335388800129294,-0.0003170521231368184
1763693838672441600,3.575441650390625,-0.00023024016991257668,0.002443554811179638,0.0016409039963036776
1763693838682391800,3.585391845703125,-0.001865001511760056,-0.00681284861639142,-0.003014512360095978
1763693838692341800,3.595341796875,0.0010708672925829887,0.0033204792998731136,-0.007635629270225763
1763693838702291700,3.605291748046875,-0.0011312401620671153,0.0018618390895426273,-0.016457222402095795
1763693838712242000,3.615241943359375,-0.0010228493483737111,-0.003512686351314187,-0.011925854720175266
1763693838722192000,3.62519189453125,0.0006429642089642584,0.0005632267566397786,-0.0037818951532244682
1763693838732140800,3.635140869140625,-0.003431938588619232,-0.0001481036888435483,-0.0027246202807873487
1763693838742090800,3.6450908203125,0.0013651892077177763,-0.00461879838258028,-0.006462154444307089
1763693838752041000,3.655041015625,0.00247173267416656,0.0022028889507055283,-0.0018125418573617935
1763693838761991000,3.664990966796875,-0.0043490855023264885,-0.004399171564728022,-0.007390674203634262
1763693838771940600,3.674940673828125,-0.0005231879185885191,-0.0001594190252944827,-0.005809822119772434
1763693838781890800,3.684890869140625,0.002328008646145463,0.0029400698840618134,-0.0036206559743732214
1763693838791840800,3.6948408203125,-0.004302463494241238,-0.0019167368300259113,-0.006614315323531628
1763693838801790700,3.704790771484375,0.00028383685275912285,0.0030478439293801785,0.001259178970940411
1763693838811741000,3.714740966796875,0.0035331598483026028,0.0007862875936552882,0.004366555251181126
1763693838821691000,3.72469091796875,-0.0011767327087000012,-0.0035477043129503727,0.0032355880830436945
1763693838831640800,3.734640869140625,-0.0015948490472510457,0.0018015209352597594,0.009886831976473331
1763693838841590000,3.744590087890625,0.0030899227131158113,-0.002126429695636034,0.0009804399451240897
1763693838851540000,3.7545400390625,-0.00011812103912234306,-0.005358175840228796,-0.004798353649675846
1763693838861489700,3.76448974609375,0.002398761920630932,0.0049488740041852,-0.002227196004241705
1763693838871439600,3.774439697265625,0.0016661264235153794,-0.0031524617224931717,-0.0033947257325053215
1763693838881389800,3.784389892578125,0.0017218911089003086,-0.004670343827456236,0.008152955211699009
1763693838891339800,3.79433984375,0.0013940560165792704,0.005066172685474157,0.01348353922367096
1763693838901289700,3.804289794921875,-0.0005091193597763777,-0.0010200226679444313,0.005890705622732639
1763693838911240000,3.814239990234375,0.0024816105142235756,-0.0015529211377725005,0.003774557961151004
1763693838921190000,3.82418994140625,0.004030505195260048,0.00577210308983922,0.0005625194171443582
1763693838931139600,3.8341396484375,-0.002391205169260502,-0.0009920507436618209,-0.0048054177314043045
1763693838941089800,3.84408984375,0.004227566532790661,0.0026603098958730698,0.002778243739157915
1763693838951038700,3.854038818359375,0.0035066488198935986,-0.0006665108958259225,0.009980496019124985
1763693838960988700,3.86398876953125,-0.003471235278993845,-0.005043474957346916,0.010764745064079762
1763693838970939000,3.87393896484375,0.0025517698377370834,0.002036538440734148,0.010381249710917473
1763693838980888800,3.883888916015625,0.005649353377521038,-0.0018552083056420088,0.0011269355891272426
1763693838990838800,3.8938388671875,0.0009187808027490973,-0.0019369673682376742,-0.002517067827284336
1763693839000789000,3.9037890625,0.003969505894929171,0.004881652537733316,-0.0019339536083862185
1763693839010739000,3.913739013671875,0.00033216073643416166,-0.006637584418058395,0.0012634375598281622
1763693839020689000,3.92368896484375,0.00412111496552825,-0.0021103485487401485,0.007625873200595379
1763693839030638600,3.933638671875,0.003540013451129198,0.0023978501558303833,0.017135221511125565
1763693839040588800,3.9435888671875,-0.002993187867105007,-0.004744776990264654,0.010369835421442986
1763693839050538800,3.953538818359375,0.0032202331349253654,0.003476667683571577,0.002994210459291935
1763693839060487700,3.96348779296875,-0.0013775351690128446,0.00525484187528491,-0.0028454738203436136
1763693839070438000,3.97343798828125,-0.007899882271885872,-0.00033140473533421755,-0.008102553896605968
1763693839080387800,3.983387939453125,0.0003545567160472274,0.005379176698625088,0.000770003127399832
1763693839090337800,3.993337890625,0.0026930784806609154,-0.0007831118418835104,0.0028533940203487873
1763693839100288000,4.0032880859375,-0.0016930804122239351,-0.000871877302415669,0.0008130171918310225
1763693839110238000,4.013238037109375,0.005222084000706673,0.0029777218587696552,0.0040319799445569515
1763693839120187600,4.023187744140625,-0.000964092556387186,-0.0041834451258182526,-0.0000036148703657090664
1763693839130137900,4.033137939453125,-0.0014229551889002323,-0.004378388170152903,-0.0022401376627385616
1763693839140087800,4.043087890625,0.0021766601130366325,0.0012579441536217928,-0.002879656385630369
1763693839150037800,4.053037841796875,-0.0007003528298810124,-0.0059475041925907135,-0.005775843746960163
1763693839159988000,4.062988037109375,0.0009986100485548377,0.0011263244086876512,-0.0008506511803716421
1763693839169938000,4.07293798828125,0.0036053122021257877,0.0009809158509597182,0.006807002238929272
1763693839179886800,4.082886962890625,-0.0014204828767105937,-0.008019067347049713,0.005998760461807251
1763693839189836800,4.0928369140625,0.001931105274707079,0.0009962652111425996,0.0027840586844831705
1763693839199787000,4.102787109375,-0.0008960830746218562,-0.0012585867661982775,-0.0038908319547772408
1763693839209736700,4.11273681640625,-0.002455363981425762,-0.0015270333969965577,-0.006139604840427637
1763693839219686700,4.122686767578125,0.004656199831515551,0.006595870014280081,-0.00937487743794918
1763693839229636900,4.132636962890625,-0.0011063481215387583,0.0017166930483654141,-0.007392686791718006
1763693839239586800,4.1425869140625,-0.002422414254397154,-0.003793512238189578,0.0053605749271810055
1763693839249536800,4.152536865234375,0.0011414277832955122,0.0034406986087560654,0.01004081405699253
1763693839259487000,4.162487060546875,-0.00320773059502244,-0.005449916236102581,0.002487382385879755
1763693839269437000,4.17243701171875,0.001585693215020001,0.0006889364449307323,0.000029817456379532814
1763693839279387000,4.182386962890625,0.004437759518623352,0.0027454476803541183,-0.006536832079291344
1763693839289335800,4.192335693359375,-0.0021082907915115356,-0.005686919204890728,-0.005020960699766874
1763693839299286000,4.2022861328125,0.0012213095324113965,0.00146767299156636,0.0040212469175457954
1763693839309235700,4.212235595703125,-0.0011124185984954238,-0.0007494086166843772,0.00347050535492599
1763693839319185700,4.222185546875,-0.004789908416569233,-0.004965541884303093,0.0005592694506049156
1763693839329135900,4.232135986328125,0.004080547951161861,0.005370452534407377,-0.0013097368646413088
1763693839339085800,4.2420859375,0.004587499890476465,0.0009551865514367819,-0.005152399186044931
1763693839349035800,4.252035888671875,-0.0005113881779834628,-0.0030845622532069683,-0.0008295561419799924
1763693839358986000,4.261986083984375,0.0011785072274506092,0.005233510863035917,0.006188407074660063
1763693839368936000,4.27193603515625,-0.0027869394980371,-0.0027349330484867096,0.0005856487550772727
1763693839378885600,4.2818857421875,-0.0028219514060765505,-0.001642140094190836,0.0026581019628793
1763693839388835800,4.2918359375,0.003992544952780008,0.006717788986861706,-0.002243446186184883
1763693839398785800,4.301785888671875,-0.00014412251766771078,-0.0034144255332648754,-0.005394697189331055
1763693839408734700,4.311734619140625,0.0013448508689180017,0.0009907091734930873,0.001540174474939704
1763693839418684700,4.3216845703125,-0.00001743726897984743,0.002707043197005987,-0.0013593658804893494
1763693839428635000,4.331634765625,-0.005783979780972004,-0.0066782026551663876,-0.0010301992297172546
1763693839438584800,4.341584716796875,0.0005740241031162441,0.0029717683792114258,0.001274950453080237
1763693839448534800,4.35153466796875,0.000037130783312022686,0.0001344367628917098,-0.007212543860077858
1763693839458485000,4.361485107421875,-0.002718698000535369,0.00033646158408373594,-0.008573117665946484
1763693839468434700,4.3714345703125,0.002972477348521352,0.0033881780691444874,-0.0014912397600710392
1763693839478384600,4.381384521484375,-0.004073002375662327,-0.0028697364032268524,-0.0034501662012189627
1763693839488334800,4.3913349609375,-0.00621311878785491,0.0001649357145652175,-0.0029321813490241766
1763693839498284800,4.401284912109375,-0.0005217530997470021,0.003908679820597172,-0.002214067615568638
1763693839508234800,4.41123486328125,-0.0037601571530103683,-0.0053263637237250805,-0.008624030277132988
1763693839518183700,4.42118359375,0.0014566166792064905,0.003380345180630684,-0.010419987142086029
1763693839528134000,4.4311337890625,-0.0011887012515217066,0.0025286665186285973,-0.010588033124804497
1763693839538083800,4.441083740234375,-0.0028709962498396635,-0.004728933330625296,-0.004102645441889763
1763693839548033800,4.45103369140625,0.0021003263536840677,-0.0006295295897871256,0.007371317595243454
1763693839557984000,4.46098388671875,-0.0005806779954582453,0.0003140283515676856,0.005457569845020771
1763693839567933700,4.47093359375,-0.0025862520560622215,-0.002496058354154229,0.0030075442045927048
1763693839577883600,4.480883544921875,0.004682694561779499,0.005111271981149912,0.0012498411815613508
1763693839587833900,4.490833740234375,-0.002688668668270111,-0.0025205486454069614,-0.010123721323907375
1763693839597783800,4.50078369140625,-0.0025788000784814358,-0.00044244027230888605,-0.004475956317037344
1763693839607733800,4.510733642578125,0.003828765358775854,0.0012958049774169922,0.004018728621304035
1763693839617684000,4.52068408203125,-0.000894079334102571,-0.004408740438520908,0.004982810467481613
1763693839627634000,4.530634033203125,-0.0004133787006139755,0.0022315853275358677,0.011298763565719128
1763693839637582800,4.540582763671875,0.003074927255511284,0.0043044984340667725,0.00953009631484747
1763693839647533800,4.550533935546875,-0.0018979934975504875,-0.0033723292872309685,-0.0033910281490534544
1763693839657483800,4.56048388671875,0.0015789270401000977,0.003914224915206432,-0.002378983423113823
1763693839667433700,4.570433837890625,0.0019360568840056658,0.0027128728106617928,-0.000048983609303832054
1763693839677384000,4.580384033203125,-0.00028226920403540134,-0.004549282602965832,0.006082051899284124
1763693839687334000,4.590333984375,0.00486269174143672,0.0023645497858524323,0.01509072631597519
1763693839697283800,4.600283935546875,0.0008093655342236161,0.0005785792600363493,0.01429525762796402
1763693839707233800,4.61023388671875,0.001995803788304329,-0.003506443463265896,0.008905552327632904
1763693839717183700,4.620183837890625,0.0032464349642395973,0.004395312163978815,-0.00011400849325582385
1763693839727133700,4.6301337890625,-0.0018910691142082214,-0.0011896025389432907,-0.007380976341664791
1763693839737084000,4.640083984375,-0.0022231596522033215,0.000155771616846323,-0.0018591625848785043
1763693839747032800,4.65003271484375,0.0017686524661257863,0.0037944489158689976,0.0009802996646612883
1763693839756982800,4.659982666015625,-0.0028581605292856693,-0.005361353512853384,0.0011792841833084822
1763693839766932700,4.6699326171875,0.0011728000827133656,0.005696890410035849,0.004079999402165413
1763693839776883000,4.679883056640625,0.0005871928879059851,-0.0001899797935038805,0.0025564671959728003
1763693839786833000,4.6898330078125,-0.003580920398235321,-0.0056641073897480965,-0.0010633012279868126
1763693839796782800,4.699782958984375,-0.00026948098093271255,0.005456957966089249,-0.002578530926257372
1763693839806732800,4.70973291015625,-0.0008665616624057293,0.00043450226075947285,-0.003957516048103571
1763693839816682800,4.719682861328125,-0.0022920374758541584,-0.004874232225120068,0.0017674666596576571
1763693839826632700,4.7296328125,0.0017578316619619727,0.0042798519134521484,0.004717450123280287
1763693839836583000,4.7395830078125,-0.0025050961412489414,-0.0013769140932708979,-0.00030342256650328636
1763693839846532900,4.749532958984375,0.0007815110147930682,-0.0008994092931970954,-0.0009817297104746103
1763693839856482800,4.75948291015625,0.00323753384873271,0.004468004684895277,-0.004462144337594509
1763693839866431700,4.769431640625,-0.002337261103093624,-0.002318262355402112,-0.0018378659151494503
1763693839876382000,4.7793818359375,0.0025536769535392523,0.0012352890335023403,0.004423890262842178
1763693839886332000,4.789331787109375,0.0014532587956637144,0.0019447552040219307,-0.00018790562171489
1763693839896281600,4.799281494140625,-0.006262185052037239,-0.0035091324243694544,0.0007710987119935453
1763693839906231800,4.809231689453125,0.002769126556813717,0.004656385630369186,0.00009359052637591958
1763693839916181800,4.819181640625,0.0018613417632877827,0.0006731140892952681,-0.008037400431931019
1763693839926131700,4.829131591796875,-0.004290826618671417,-0.003840411314740777,-0.0017235783161595464
1763693839936082000,4.83908203125,0.002477633533999324,0.0069701895117759705,0.011195680126547813
1763693839946031900,4.849031982421875,-0.003246032167226076,-0.003981261979788542,0.0019563748501241207
1763693839955981800,4.85898193359375,-0.0014931984478607774,-0.0018665235256776214,-0.003321002935990691
1763693839965931800,4.868931884765625,0.0034664063714444637,0.005223077721893787,-0.008516564033925533
1763693839975881700,4.8788818359375,0.000321838422678411,-0.0022505878005176783,-0.010153420269489288
1763693839985830700,4.88883056640625,0.002603634726256132,-0.0017251460812985897,0.004510210826992989
1763693839995780600,4.898780517578125,0.0019382145255804062,0.003497965633869171,0.00894059706479311
1763693840005730800,4.908730712890625,-0.004332464653998613,-0.006134954281151295,0.005307245999574661
1763693840015680800,4.9186806640625,0.0010230541229248047,0.002326266374439001,0.004496111534535885
1763693840025630700,4.928630615234375,0.0017298569437116385,0.0038645081222057343,-0.005797804798930883
1763693840035581000,4.938580810546875,-0.0036401618272066116,-0.001394217717461288,-0.00927462987601757
1763693840045531000,4.94853076171875,0.00212371745146811,0.006554252468049526,-0.006576580926775932
1763693840055480800,4.958480712890625,-0.0036930455826222897,-0.0004296094411984086,0.0006983652710914612
1763693840065430800,4.9684306640625,-0.0055932109244167805,-0.0015649149427190423,0.008385047316551208
1763693840075380700,4.978380615234375,0.0016205545980483294,0.005007524508982897,0.011270935647189617
1763693840085330700,4.98833056640625,0.0005225333152338862,-0.004739910829812288,0.000720823067240417
1763693840095281000,4.998281005859375,0.0025223882403224707,0.001436510356143117,-0.005509470589458942
1763693840105229800,5.008229736328125,0.001035811728797853,0.002291385317221284,-0.007561969105154276
1763693840115179800,5.0181796875,-0.0013067423133179545,-0.004461037926375866,-0.004876734223216772
1763693840125129700,5.028129638671875,-0.0015365731669589877,0.0009656853508204222,0.003688791301101446
1763693840135080000,5.038079833984375,-0.0006270406302064657,0.00020186265464872122,0.0075355772860348225
1763693840145030000,5.04802978515625,-0.00015885685570538044,-0.0004426223458722234,0.004464153666049242
1763693840154979600,5.0579794921875,0.003915492445230484,0.0038748462684452534,-0.000023606931790709496
1763693840164929800,5.0679296875,-0.002333348849788308,-0.0012482765596359968,-0.005189873278141022
1763693840174879700,5.077879638671875,0.000026702298782765865,0.0008008356671780348,-0.005456238053739071
1763693840184829700,5.08782958984375,0.0005047398153692484,-0.0003025119658559561,-0.004357417579740286
1763693840194780000,5.09777978515625,-0.001964213792234659,-0.001238907454535365,0.0006595617160201073
1763693840204729900,5.107729736328125,-0.0009111997205764055,0.0023955083452165127,0.005410108249634504
1763693840214678800,5.1176787109375,-0.00020219513680785894,0.004184802062809467,0.0036653270944952965
1763693840224629000,5.12762890625,-0.0011910268804058433,-0.0013801392633467913,-0.0038977842777967453
1763693840234579000,5.137578857421875,-0.0014133135555312037,0.0019839839078485966,-0.0043508815579116344
1763693840244529000,5.14752880859375,-0.0015933433314785361,-0.0007502835942432284,-0.000974259979557246
1763693840254478600,5.157478515625,-0.0011397149646654725,-0.0034068231470882893,-0.001692857826128602
1763693840264428800,5.1674287109375,0.0020028152503073215,0.004768815357238054,0.0028078844770789146
1763693840274378800,5.177378662109375,-0.0006287307478487492,-0.0012724269181489944,-0.001065555727109313
1763693840284328700,5.18732861328125,-0.0005072907079011202,0.002586226910352707,-0.00576390465721488
1763693840294279000,5.19727880859375,0.0006093475967645645,0.0015622478676959872,0.00166010158136487
1763693840304228900,5.207228759765625,-0.002236506436020136,-0.0026055993512272835,0.0025264278519898653
1763693840314178800,5.2171787109375,-0.0008782690856605768,0.003458678722381592,0.004730814136564732
1763693840324128800,5.227128662109375,0.000022944645024836063,0.0019960706122219563,0.003512684255838394
1763693840334078000,5.237077880859375,0.001331100706011057,0.0008776998147368431,-0.00272334273904562
1763693840344027600,5.247027587890625,0.0016743822488933802,0.0006353522185236216,-0.005899162497371435
1763693840353977900,5.256977783203125,-0.0010844358475878835,0.0006320734973996878,-0.0032928234431892633
1763693840363927800,5.266927734375,-0.0017456988571211696,-0.003466797759756446,0.000054769974667578936
1763693840373877800,5.276877685546875,-0.001250833971425891,0.002493972424417734,0.0061945184133946896
1763693840383828000,5.286827880859375,0.00046583975199609995,-0.001107420539483428,0.0059074293822050095
1763693840393778000,5.29677783203125,0.0032607130706310272,0.0006899358704686165,0.0011920493561774492
1763693840403728000,5.306727783203125,0.0025871996767818928,-0.0009218092891387641,-0.0032682130113244057
1763693840413677600,5.316677490234375,-0.0007206854643300176,-0.001640070928260684,-0.00763624906539917
1763693840423627800,5.326627685546875,0.00022953038569539785,-0.00011221540626138449,-0.005823702085763216
1763693840433577700,5.33657763671875,0.00033509021159261465,-0.0019661334808915854,0.002547613810747862
1763693840443527700,5.346527587890625,0.001061866758391261,-0.003821557853370905,0.01079196110367775
1763693840453476900,5.356476806640625,-0.00020485313143581152,-0.0008925690781325102,0.010235896334052086
1763693840463426800,5.3664267578125,0.001795713440515101,0.0025168098509311676,0.00017420720541849732
1763693840473376800,5.376376708984375,-0.0014226192142814398,0.001719368272460997,-0.00995891634374857
1763693840483327000,5.386326904296875,-0.00038212211802601814,0.0022035306319594383,-0.010630299337208271
1763693840493277000,5.39627685546875,0.0013161987299099565,-0.001295549562200904,-0.005648796912282705
1763693840503227000,5.406226806640625,-0.0005035392241552472,-0.0025086193345487118,0.005745004862546921
1763693840513176800,5.4161767578125,-0.0008262658957391977,-0.000986754079349339,0.013319096527993679
1763693840523126800,5.426126708984375,0.0010150435846298933,-0.000123889883980155,0.006185020320117474
1763693840533076700,5.43607666015625,-0.00017173239029943943,0.0007196174701675773,-0.0023366825189441442
1763693840543027000,5.44602685546875,0.006134100258350372,-0.00928161758929491,-0.005829951260238886
1763693840552977000,5.455976806640625,0.0025810697115957737,-0.004734602756798267,-0.010783670470118523
1763693840562926800,5.4659267578125,0.0032551155891269445,-0.005398262292146683,0.0005765752866864204
1763693840572875800,5.475875732421875,0.022142736241221428,0.01335851289331913,0.008191557601094246
1763693840582826000,5.485825927734375,0.12433648854494095,0.020130397751927376,0.016713673248887062
1763693840592776000,5.49577587890625,0.12106486409902573,0.006316177546977997,0.10890260338783264
1763693840602725600,5.5057255859375,-0.04076611250638962,0.024111952632665634,0.33159932494163513
1763693840612675800,5.51567578125,-0.16888238489627838,0.08114039897918701,0.5275014638900757
1763693840622625800,5.525625732421875,-0.010867719538509846,0.07560235261917114,0.670568585395813
1763693840632575700,5.53557568359375,0.06689932942390442,0.08440283685922623,0.7776946425437927
1763693840642525200,5.545525146484375,-0.044807229191064835,0.05951027199625969,0.8355576992034912
1763693840652475400,5.555475341796875,0.03029569610953331,0.07377488911151886,0.8116697669029236
1763693840662425300,5.56542529296875,-0.04130152240395546,0.0592566654086113,0.6732040643692017
1763693840672375300,5.575375244140625,-0.05136871337890625,0.06404819339513779,0.5865474343299866
1763693840682325200,5.5853251953125,0.03124600276350975,0.04558262974023819,0.45588284730911255
1763693840692274400,5.5952744140625,0.11979591846466064,0.013270090334117413,0.29315662384033203
1763693840702224100,5.60522412109375,0.014497728087008,-0.0028769210912287235,0.1977022886276245
1763693840712174300,5.61517431640625,-0.024232424795627594,-0.012957221828401089,0.1934342235326767
1763693840722124300,5.625124267578125,0.016385842114686966,0.02617553249001503,0.16965298354625702
1763693840732074200,5.63507421875,0.004748088773339987,-0.00047333294060081244,0.14338967204093933
1763693840742024400,5.6450244140625,-0.014608299359679222,0.013407062739133835,0.12615501880645752
1763693840751974400,5.654974365234375,-0.0010553848696872592,0.015696600079536438,0.10916183143854141
1763693840761924400,5.66492431640625,-0.0027022836729884148,0.015994342043995857,0.11563677340745926
1763693840771874300,5.674874267578125,-0.004659784026443958,0.01930265873670578,0.18871325254440308
1763693840781824300,5.68482421875,0.002227683085948229,0.03240008279681206,0.27613601088523865
1763693840791774200,5.694774169921875,0.014405433088541031,0.06508584320545197,0.3669608533382416
1763693840801724200,5.70472412109375,-0.009711621329188347,0.06942998617887497,0.5036126971244812
1763693840811673300,5.71467333984375,-0.004721938166767359,0.057661913335323334,0.6405590772628784
1763693840821623300,5.724623291015625,0.0008552538929507136,0.07135641574859619,0.6945197582244873
1763693840831573200,5.7345732421875,0.0932072252035141,0.6074161529541016,0.3821532130241394
1763693840841523500,5.7445234375,0.0483073927462101,-0.15825463831424713,0.05653597041964531
1763693840851473400,5.754473388671875,-0.042315807193517685,0.0071249790489673615,-0.008963583037257195
1763693840861423400,5.76442333984375,-0.04124921187758446,-0.06613005697727203,-0.032425232231616974
1763693840871373300,5.774373291015625,-0.0026855478063225746,0.010790600441396236,0.019875578582286835
1763693840881323300,5.7843232421875,-0.0007747296476736665,0.00933678075671196,0.01322353444993496
1763693840891273200,5.794273193359375,0.005204099230468273,-0.0008092970820143819,0.0012308000586926937
1763693840901223400,5.804223388671875,0.003157992847263813,-0.02173614874482155,-0.007518483325839043
1763693840911173400,5.81417333984375,0.00032556685619056225,0.0024829143658280373,-0.004056645557284355
1763693840921123300,5.824123291015625,-0.003152521327137947,-0.005014149937778711,-0.010039171203970909
1763693840931072300,5.834072265625,-0.005394482985138893,-0.015822067856788635,-0.005803140811622143
1763693840941022500,5.8440224609375,-0.0008980014827102423,-0.006243743468075991,-0.00019745330791920424
1763693840950972400,5.853972412109375,-0.007830732502043247,-0.009904101490974426,0.0036473895888775587
1763693840960922400,5.86392236328125,-0.025115979835391045,-0.019480828195810318,0.005317192059010267
1763693840970872300,5.873872314453125,-0.04233851656317711,-0.010565994307398796,-0.0033782797399908304
1763693840980822300,5.883822265625,-0.04970082640647888,-0.0057957409881055355,-0.008254794403910637
1763693840990772200,5.893772216796875,-0.02509625256061554,-0.00012226239778101444,-0.0006229233695194125
1763693841000722400,5.903722412109375,0.006153280846774578,-0.003268787171691656,0.0017507520969957113
1763693841010672400,5.91367236328125,0.0023410418070852757,0.006765066646039486,-0.0006030756048858166
1763693841020622300,5.923622314453125,0.0011751099955290556,0.009633024223148823,0.0001828232198022306
1763693841030572300,5.933572265625,0.006072396412491798,0.00769317802041769,-0.002639594953507185
1763693841040522200,5.943522216796875,0.00907200202345848,0.004236679058521986,-0.007410475052893162
1763693841050471400,5.953471435546875,0.0028196119237691164,-0.002088346518576145,0.0025767385959625244
1763693841060421000,5.963421142578125,-0.0010041547939181328,-0.007915343157947063,0.006540321744978428
1763693841070371300,5.973371337890625,0.0022972545120865107,-0.0028060809709131718,0.003568768734112382
1763693841080321300,5.9833212890625,0.0009518254664726555,0.009009298868477345,0.0010238520335406065
1763693841090271200,5.993271240234375,0.0321747288107872,0.05732085183262825,0.02000075951218605
1763693841100221400,6.003221435546875,0.0355827771127224,0.22455164790153503,0.10990455001592636
1763693841110171400,6.01317138671875,0.06293157488107681,0.354134202003479,0.21414251625537872
1763693841120121300,6.023121337890625,0.058084886521101,0.3225477635860443,0.20209304988384247
1763693841130071300,6.0330712890625,0.15373845398426056,0.21189679205417633,0.04635621979832649
1763693841140021200,6.043021240234375,0.29894810914993286,0.6567059755325317,-0.11710860580205917
1763693841149971200,6.05297119140625,0.3323986828327179,1.229042410850525,-0.35951387882232666
1763693841159921400,6.06292138671875,0.12568572163581848,1.4641196727752686,-0.6253647208213806
1763693841169871400,6.072871337890625,-0.41160649061203003,1.461887240409851,-0.8113617897033691
1763693841179820300,6.0828203125,-0.8969471454620361,1.879347562789917,-0.9410713315010071
1763693841189770200,6.092770263671875,-1.2749918699264526,2.3457999229431152,-1.1908509731292725
1763693841199720400,6.102720458984375,-1.6591626405715942,2.436555862426758,-1.362870454788208
1763693841209670400,6.11267041015625,-1.9295045137405396,2.595027446746826,-1.1477874517440796
1763693841219620400,6.122620361328125,-1.9956358671188354,2.6494898796081543,-0.7154111862182617
1763693841229570300,6.1325703125,-1.8725436925888062,2.74228835105896,-0.24390776455402374
1763693841239520300,6.142520263671875,-1.6434623003005981,2.9502756595611572,0.12093943357467651
1763693841249470200,6.15247021484375,-1.3793795108795166,3.3406341075897217,0.2551175355911255
1763693841259420400,6.16242041015625,-1.0773199796676636,3.7415435314178467,0.14724698662757874
1763693841269370400,6.172370361328125,-0.7470622658729553,4.085867404937744,-0.09611612558364868
1763693841279320300,6.1823203125,-0.4200950860977173,4.226417064666748,-0.375682532787323
1763693841289270500,6.1922705078125,-0.05547655001282692,4.174386501312256,-0.5966538786888123
1763693841299219500,6.202219482421875,0.333233118057251,3.944389820098877,-0.7057212591171265
1763693841309169400,6.21216943359375,0.7195737957954407,3.56033992767334,-0.7606459259986877
1763693841319119000,6.222119140625,1.0882761478424072,3.052640676498413,-0.9002789258956909
1763693841329069300,6.2320693359375,1.4378992319107056,2.5049426555633545,-1.1855343580245972
1763693841339019300,6.242019287109375,1.7112632989883423,1.9439462423324585,-1.576535701751709
1763693841348969200,6.25196923828125,1.898987054824829,1.6527061462402344,-1.9594557285308838
1763693841358919400,6.26191943359375,1.9696273803710938,1.4473021030426025,-2.1809186935424805
1763693841368869400,6.271869384765625,1.905966877937317,1.2401748895645142,-2.1121158599853516
1763693841378819300,6.2818193359375,1.7597118616104126,1.1439037322998047,-1.7849633693695068
1763693841388769300,6.291769287109375,1.5806936025619507,0.9847491979598999,-1.332426905632019
1763693841398719200,6.30171923828125,1.38253653049469,0.7019294500350952,-0.9400939345359802
1763693841408669200,6.311669189453125,1.139891266822815,0.34509551525115967,-0.8279860615730286
1763693841418618000,6.3216181640625,0.8961054086685181,-0.031180113554000854,-0.987309455871582
1763693841428568300,6.331568359375,0.7078079581260681,-0.22079803049564362,-1.2578989267349243
1763693841438518300,6.341518310546875,0.5740943551063538,-0.27259010076522827,-1.5046097040176392
1763693841448468200,6.35146826171875,0.5366652607917786,-0.3846275508403778,-1.631687045097351
1763693841458418400,6.36141845703125,0.5983381867408752,-0.43974700570106506,-1.62921142578125
1763693841468368400,6.371368408203125,0.7377198934555054,-0.49348440766334534,-1.5786609649658203
1763693841478318300,6.381318359375,0.9171162843704224,-0.6882962584495544,-1.5239311456680298
1763693841488268300,6.391268310546875,1.0927621126174927,-0.8178550601005554,-1.5505317449569702
1763693841498218200,6.40121826171875,1.244939923286438,-0.8360370397567749,-1.6219995021820068
1763693841508168200,6.411168212890625,1.2240262031555176,-1.2467365264892578,-1.5584361553192139
1763693841518118400,6.421118408203125,1.1917308568954468,-1.0857911109924316,-1.4178268909454346
1763693841528068400,6.431068359375,1.2718645334243774,-0.5279448628425598,-1.2227189540863037
1763693841538018300,6.441018310546875,1.1999455690383911,-0.33258095383644104,-0.9120168089866638
1763693841547967200,6.45096728515625,1.0916945934295654,-0.33020657300949097,-0.6222335696220398
1763693841557917400,6.46091748046875,1.0778474807739258,-0.3267284631729126,-0.5578327775001526
1763693841567867400,6.470867431640625,1.054305076599121,-0.27020764350891113,-0.6757752895355225
1763693841577817000,6.480817138671875,0.9638378620147705,-0.18591807782649994,-0.8150996565818787
1763693841587767300,6.490767333984375,0.8355464935302734,-0.07007851451635361,-0.9020280838012695
1763693841597717200,6.50071728515625,0.6515172719955444,0.12591497600078583,-0.9345516562461853
1763693841607667200,6.510667236328125,0.4702017307281494,0.16280920803546906,-0.9291647672653198
1763693841617617400,6.520617431640625,0.2839290499687195,0.2923602759838104,-0.8235933780670166
1763693841627567400,6.5305673828125,0.03368021175265312,0.29605624079704285,-0.6371046900749207
1763693841637517300,6.540517333984375,-0.22208525240421295,0.2973116636276245,-0.48118487000465393
1763693841647467500,6.550467529296875,-0.41052114963531494,0.7487801313400269,-0.5623457431793213
1763693841657417500,6.56041748046875,-0.6374690532684326,1.0813331604003906,-0.7347822189331055
1763693841667366400,6.570366455078125,-0.7350124716758728,0.9553902745246887,-0.7875155210494995
1763693841677316600,6.580316650390625,-0.6701799631118774,0.9816765189170837,-0.8857075572013855
1763693841687266600,6.5902666015625,-0.526689350605011,0.9792307615280151,-0.9144036769866943
1763693841697216500,6.600216552734375,-0.3529766798019409,1.1346759796142578,-0.6323589086532593
1763693841707166700,6.610166748046875,-0.16883647441864014,0.7349982857704163,-0.1150493398308754
1763693841717116700,6.62011669921875,-0.040008194744586945,0.8000574707984924,-0.44354307651519775
1763693841727066600,6.630066650390625,0.10693803429603577,0.5665827989578247,-0.5350662469863892
1763693841737016600,6.6400166015625,0.2773563861846924,0.34826427698135376,-0.5830520987510681
1763693841746966500,6.649966552734375,0.39836862683296204,0.18102353811264038,-0.555392324924469
1763693841756916500,6.65991650390625,0.4782693386077881,0.18722444772720337,-0.5335357785224915
1763693841766866400,6.669866455078125,0.49710336327552795,0.13502268493175507,-0.42995285987854004
1763693841776816600,6.679816650390625,0.39273834228515625,0.1865399330854416,-0.2962128818035126
1763693841786765600,6.689765625,0.29203107953071594,0.18690446019172668,-0.1650031954050064
1763693841796715500,6.699715576171875,0.17376300692558289,0.18904751539230347,-0.08303377032279968
1763693841806665700,6.709665771484375,0.14944985508918762,0.1995600014925003,-0.05386228859424591
1763693841816615700,6.71961572265625,0.1387695074081421,0.16720153391361237,-0.021320857107639313
1763693841826565600,6.729565673828125,0.09650454670190811,0.14072676002979279,0.04395661875605583
1763693841836515600,6.739515625,0.01885688677430153,0.16864441335201263,0.13985519111156464
1763693841846465500,6.749465576171875,-0.08950147032737732,0.20381003618240356,0.2640259563922882
1763693841856415500,6.75941552734375,-0.17784039676189423,0.227966770529747,0.350637823343277
1763693841866365700,6.76936572265625,-0.20796790719032288,0.22546041011810303,0.3632320165634155
1763693841876315600,6.779315673828125,-0.1946054995059967,0.19014263153076172,0.30010366439819336
1763693841886265600,6.789265625,-0.12072265893220901,0.2187601774930954,0.09410833567380905
1763693841896215600,6.799215576171875,-0.10985536128282547,0.1769847720861435,0.10122163593769073
1763693841906165500,6.80916552734375,-0.1017841324210167,0.2246117889881134,0.11716221272945404
1763693841916114700,6.81911474609375,-0.12746553122997284,0.27874958515167236,0.1653963178396225
1763693841926064400,6.829064453125,-0.21001365780830383,0.35723382234573364,0.25019216537475586
1763693841936014600,6.8390146484375,-0.30805209279060364,0.6844556331634521,0.29384857416152954
1763693841945964500,6.848964599609375,-0.42498934268951416,1.0585761070251465,0.17973610758781433
1763693841955914500,6.85891455078125,-0.46566060185432434,1.1971256732940674,0.13777907192707062
1763693841965864700,6.86886474609375,-0.4744003713130951,1.2428327798843384,0.14179956912994385
1763693841975814700,6.878814697265625,-0.4272347390651703,1.220153570175171,0.12646640837192535
1763693841985764600,6.8887646484375,-0.34928223490715027,1.305799126625061,0.08481836318969727
1763693841995714600,6.898714599609375,-0.27079808712005615,1.7728219032287598,-0.04851439222693443
1763693842005664500,6.90866455078125,-0.29678717255592346,2.5382192134857178,-0.28489094972610474
1763693842015614500,6.918614501953125,-0.30175477266311646,2.1719632148742676,0.016861692070961
1763693842025564700,6.928564697265625,-0.05778808891773224,1.936072587966919,0.09015526622533798
1763693842035514600,6.9385146484375,0.1940350979566574,1.2543833255767822,0.11634479463100433
1763693842045463600,6.948463623046875,0.37723076343536377,0.3606775999069214,0.1641099750995636
1763693842055413500,6.95841357421875,0.2814222276210785,-0.259639173746109,0.27416324615478516
1763693842065363700,6.96836376953125,-0.06692363321781158,-0.30925676226615906,0.3225161135196686
1763693842075313700,6.978313720703125,-0.5903815627098083,-0.18688932061195374,0.3042502701282501
1763693842085263600,6.988263671875,-0.9602884650230408,-0.06086384505033493,0.2793649733066559
1763693842095213600,6.998213623046875,-1.100525140762329,0.023275533691048622,0.2848971486091614
1763693842105163500,7.00816357421875,-1.175139307975769,0.16973046958446503,0.34954947233200073
1763693842115113500,7.018113525390625,-1.227939486503601,0.3042967915534973,0.4434773027896881
1763693842125063700,7.028063720703125,-1.1264708042144775,0.4870333671569824,0.48486676812171936
1763693842135013600,7.038013671875,-0.8558400273323059,0.15733352303504944,0.534688413143158
1763693842144963600,7.047963623046875,-0.7409003376960754,-0.1706242561340332,0.6446486115455627
1763693842154913500,7.05791357421875,-0.7048816084861755,-0.25325921177864075,0.797271192073822
1763693842164863500,7.067863525390625,-0.7061273455619812,-0.13504360616207123,0.9532883763313293
1763693842174812700,7.077812744140625,-0.714741051197052,0.0725838914513588,1.0617953538894653
1763693842184762400,7.087762451171875,-0.8038870692253113,0.26369261741638184,1.079427719116211
1763693842194712600,7.097712646484375,-0.9117664098739624,0.06954286247491837,1.0116251707077026
1763693842204662500,7.10766259765625,-0.9315589070320129,0.17788955569267273,0.890723466873169
1763693842214612500,7.117612548828125,-0.9134150147438049,0.3491097390651703,0.7760498523712158
1763693842224562700,7.127562744140625,-0.9052948951721191,0.4997619390487671,0.7035430669784546
1763693842234512600,7.1375126953125,-0.8859864473342896,0.6408628821372986,0.6537800431251526
1763693842244462600,7.147462646484375,-0.8393332958221436,0.8267935514450073,0.623950183391571
1763693842254412500,7.15741259765625,-0.7217521071434021,1.0160667896270752,0.5999742746353149
1763693842264362500,7.167362548828125,-0.5837276577949524,1.1683690547943115,0.5762147307395935
1763693842274312400,7.1773125,-0.46020033955574036,1.2729377746582031,0.567433774471283
1763693842284262700,7.1872626953125,-0.4391419589519501,1.2577733993530273,0.5434178113937378
1763693842294211600,7.197211669921875,-0.5603187084197998,1.1434346437454224,0.4972226321697235
1763693842304161500,7.20716162109375,-0.6793361306190491,1.02776038646698,0.4332786798477173
1763693842314111500,7.217111572265625,-0.7731654644012451,1.064284086227417,0.3638173043727875
1763693842324061700,7.227061767578125,-0.8144645690917969,1.237145185470581,0.27529260516166687
1763693842334011600,7.23701171875,-0.9454628229141235,1.292678952217102,0.18212591111660004
1763693842343961600,7.246961669921875,-1.0725877285003662,1.3007044792175293,0.08228658139705658
1763693842353911600,7.25691162109375,-1.1888149976730347,1.3156934976577759,-0.017349200323224068
1763693842363861500,7.266861572265625,-1.2753019332885742,1.3107811212539673,-0.08356286585330963
1763693842373811500,7.2768115234375,-1.2831257581710815,1.3020515441894531,-0.11575248837471008
1763693842383761700,7.28676171875,-1.2340856790542603,1.240753412246704,-0.1419249027967453
1763693842393711600,7.296711669921875,-1.1668109893798828,1.171530842781067,-0.18503108620643616
1763693842403661600,7.30666162109375,-1.1265342235565186,1.09123957157135,-0.2756582498550415
1763693842413611800,7.31661181640625,-1.1126540899276733,1.0390081405639648,-0.42157870531082153
1763693842423560700,7.326560791015625,-1.1221895217895508,1.0189226865768433,-0.6166751980781555
1763693842433510700,7.3365107421875,-1.1563613414764404,1.0363125801086426,-0.8312804102897644
1763693842443460400,7.34646044921875,-1.1944503784179688,1.0399881601333618,-1.03683340549469
1763693842453410600,7.35641064453125,-1.2394546270370483,1.0224440097808838,-1.2080535888671875
1763693842463360500,7.366360595703125,-1.3016945123672485,0.9804996252059937,-1.3357805013656616
1763693842473310500,7.376310546875,-1.363906741142273,0.9263589382171631,-1.4237927198410034
1763693842483260700,7.3862607421875,-1.359978199005127,0.8931631445884705,-1.4666730165481567
1763693842493210600,7.396210693359375,-1.3064007759094238,0.9215889573097229,-1.459223985671997
1763693842503160600,7.40616064453125,-1.26678466796875,0.8726906180381775,-1.4039363861083984
1763693842513110500,7.416110595703125,-1.2322884798049927,0.8378681540489197,-1.3389389514923096
1763693842523060500,7.426060546875,-1.1730066537857056,0.8254268169403076,-1.290290355682373
1763693842533010400,7.436010498046875,-1.0973933935165405,0.8248960375785828,-1.2621349096298218
1763693842542959400,7.44595947265625,-1.0367801189422607,0.8272990584373474,-1.2456978559494019
1763693842552909600,7.45590966796875,-0.9951530694961548,0.8713375926017761,-1.2154169082641602
1763693842562859500,7.465859619140625,-0.9680013060569763,0.9235168695449829,-1.1575936079025269
1763693842572809500,7.4758095703125,-0.9468528628349304,0.9868140816688538,-1.067870855331421
1763693842582759700,7.485759765625,-0.9647781252861023,1.043581485748291,-0.9652366042137146
1763693842592709600,7.495709716796875,-1.0050500631332397,1.0883926153182983,-0.8592774271965027
1763693842602659600,7.50565966796875,-1.0256879329681396,1.0929901599884033,-0.7564994692802429
1763693842612609500,7.515609619140625,-1.0192641019821167,1.0600515604019165,-0.6567175388336182
1763693842622559500,7.5255595703125,-0.9991546869277954,0.9974339604377747,-0.5696855783462524
1763693842632509400,7.535509521484375,-0.9958811402320862,0.9369511604309082,-0.49712562561035156
1763693842642459600,7.545459716796875,-1.047914743423462,0.8226408362388611,-0.44078752398490906
1763693842652409300,7.555409423828125,-1.1246031522750854,0.6543216109275818,-0.40980589389801025
1763693842662359300,7.565359375,-1.20281183719635,0.49320030212402344,-0.39034467935562134
1763693842672308200,7.57530810546875,-1.2616159915924072,0.37101444602012634,-0.3667333722114563
1763693842682258400,7.585258544921875,-1.2694988250732422,0.3089039623737335,-0.34755662083625793
1763693842692208400,7.59520849609375,-1.2085508108139038,0.23973208665847778,-0.33574309945106506
1763693842702158300,7.605158447265625,-1.0869768857955933,0.1553165316581726,-0.31915730237960815
1763693842712108300,7.6151083984375,-0.9339743852615356,0.12466728687286377,-0.2838893234729767
1763693842722058200,7.625058349609375,-0.7870514988899231,0.13933244347572327,-0.2381744384765625
1763693842732008200,7.63500830078125,-0.6842824816703796,0.18061064183712006,-0.19103728234767914
1763693842741958400,7.64495849609375,-0.6283044219017029,0.2266371250152588,-0.1532166600227356
1763693842751908400,7.654908447265625,-0.5909855365753174,0.22748588025569916,-0.1391274631023407
1763693842761858300,7.6648583984375,-0.5370463728904724,0.2161048799753189,-0.18057405948638916
1763693842771808500,7.67480859375,-0.4378688633441925,0.17463013529777527,-0.2694866359233856
1763693842781758200,7.68475830078125,-0.28764137625694275,0.17710860073566437,-0.39545559883117676
1763693842791708200,7.694708251953125,-0.12019271403551102,0.21649649739265442,-0.5284698009490967
1763693842801657000,7.704656982421875,0.03032364696264267,0.29358038306236267,-0.6458109617233276
1763693842811607300,7.714607177734375,0.16979871690273285,0.3959429860115051,-0.7530953288078308
1763693842821557200,7.72455712890625,0.30436623096466064,0.49565914273262024,-0.8668673634529114
1763693842831507200,7.734507080078125,0.4260711073875427,0.5341498255729675,-0.9779084324836731
1763693842841457400,7.74445751953125,0.5212938189506531,0.5250775218009949,-1.0803900957107544
1763693842851407400,7.754407470703125,0.583467423915863,0.49272942543029785,-1.1828999519348145
1763693842861357300,7.764357421875,0.6209083199501038,0.42492592334747314,-1.2814087867736816
1763693842871307300,7.774307373046875,0.6290299296379089,0.3314601480960846,-1.3543651103973389
1763693842881257200,7.78425732421875,0.577530562877655,0.2812393605709076,-1.3824542760849
1763693842891207200,7.794207275390625,0.4732068181037903,0.3083055913448334,-1.3797099590301514
1763693842901157400,7.804157470703125,0.3334856629371643,0.34071096777915955,-1.3672285079956055
1763693842911107300,7.814107421875,0.16812705993652344,0.4491916298866272,-1.3522777557373047
1763693842921057300,7.824057373046875,0.015197943896055222,0.5918314456939697,-1.3308335542678833
1763693842931006200,7.834006103515625,-0.07298970222473145,0.6557603478431702,-1.3117302656173706
1763693842940956400,7.843956298828125,-0.053681839257478714,0.660094678401947,-1.288584589958191
1763693842950906400,7.85390625,0.03743742033839226,0.6413079500198364,-1.2767612934112549
1763693842960856300,7.863856201171875,0.15516743063926697,0.6330459713935852,-1.270529866218567
1763693842970806300,7.87380615234375,0.306317001581192,0.634408712387085,-1.2790038585662842
1763693842980756200,7.883756103515625,0.4626179039478302,0.6326019167900085,-1.3143898248672485
1763693842990706200,7.8937060546875,0.5963384509086609,0.5903410315513611,-1.3795372247695923
1763693843000656400,7.903656494140625,0.6965913772583008,0.49938610196113586,-1.4606977701187134
1763693843010606300,7.9136064453125,0.6730679273605347,0.456825852394104,-1.5496419668197632
1763693843020556300,7.923556396484375,0.6903660297393799,0.5409124493598938,-1.6379297971725464
1763693843030506500,7.933506591796875,0.6840114593505859,0.5306904315948486,-1.7171803712844849
1763693843040456200,7.943456298828125,0.5143284201622009,0.6014333367347717,-1.8302147388458252
1763693843050406100,7.95340625,0.4004139006137848,0.5735648274421692,-1.9885908365249634
1763693843060355300,7.963355224609375,0.41568705439567566,0.8439595103263855,-2.094620704650879
1763693843070305300,7.97330517578125,0.4676237404346466,0.8103152513504028,-2.063762903213501
1763693843080255200,7.983255126953125,0.467869371175766,0.5358515381813049,-1.9282097816467285
1763693843090205200,7.993205078125,0.49366822838783264,0.3868729770183563,-1.7694525718688965
1763693843100155400,8.0031552734375,0.5060428977012634,0.33855515718460083,-1.6577160358428955
1763693843110105300,8.013105224609374,0.49337929487228394,0.37720802426338196,-1.5875608921051025
1763693843120055300,8.02305517578125,0.45809489488601685,0.31725552678108215,-1.522652268409729
1763693843130005200,8.033005126953125,0.42661258578300476,0.3219490945339203,-1.459520697593689
1763693843139955200,8.042955078125,0.4199928045272827,0.4220987856388092,-1.3969324827194214
1763693843149905200,8.0529052734375,0.41852059960365295,0.5211367011070251,-1.3231122493743896
1763693843159855400,8.06285546875,0.43376362323760986,0.5895639061927795,-1.225136637687683
1763693843169805300,8.072805419921876,0.47816598415374756,0.6051666140556335,-1.1008120775222778
1763693843179755300,8.08275537109375,0.5271397233009338,0.5861412286758423,-0.9573445916175842
1763693843189704400,8.092704345703124,0.5408917665481567,0.5234327912330627,-0.760492205619812
1763693843199654400,8.102654296875,0.3985433280467987,0.38456445932388306,-0.20444388687610626
1763693843209604400,8.112604248046875,0.12120014429092407,0.3556545376777649,0.4460451900959015
1763693843219554300,8.12255419921875,-0.00012326287105679512,0.5410060286521912,0.5959065556526184
1763693843229504300,8.132504150390625,0.0324794203042984,0.6235397458076477,0.3752111494541168
1763693843239454200,8.1424541015625,0.07810104638338089,0.6886749267578125,0.1969190388917923
1763693843249404400,8.152404296875,0.14711393415927887,0.7422665357589722,0.1388823688030243
1763693843259354400,8.162354248046874,0.2197958528995514,0.6405653357505798,0.11705905199050903
1763693843269304300,8.17230419921875,0.28088822960853577,0.43933233618736267,0.09623046964406967
1763693843279254300,8.182254150390625,0.22951184213161469,0.013271336443722248,0.010005203075706959
1763693843289204500,8.19220458984375,0.1306544989347458,-0.39718571305274963,-0.16546328365802765
1763693843299154200,8.202154296875,0.14869733154773712,-0.7369086146354675,-0.38499292731285095
1763693843309104000,8.212104248046876,0.21345582604408264,-0.6466405391693115,-0.5583534836769104
1763693843319053300,8.22205322265625,0.27632829546928406,-0.6345563530921936,-0.7040099501609802
1763693843329003300,8.232003173828126,0.397491991519928,-0.41856256127357483,-0.8002981543540955
1763693843338953200,8.241953125,0.5220432877540588,-0.24932625889778137,-0.8364148139953613
1763693843348903400,8.2519033203125,0.6564570069313049,-0.06464481353759766,-0.7542706727981567
1763693843358853400,8.261853271484375,0.6734413504600525,-0.09237945824861526,-0.6091314554214478
1763693843368803300,8.27180322265625,0.6455926895141602,0.06534305959939957,-0.35092467069625854
1763693843378753500,8.28175341796875,0.5727807879447937,-0.11351536959409714,-0.17482270300388336
1763693843388703200,8.291703125,0.5150476694107056,0.05223258584737778,-0.3001132607460022
1763693843398653200,8.301653076171876,0.510970413684845,-0.0023875224869698286,-0.47304925322532654
1763693843408603400,8.311603271484374,0.4934596121311188,-0.13938558101654053,-0.5889348387718201
1763693843418553300,8.32155322265625,0.41993746161460876,-0.246909499168396,-0.680709719657898
1763693843428503300,8.33150341796875,0.3000880181789398,-0.40527382493019104,-0.7811769247055054
1763693843438453200,8.341453369140625,0.15932123363018036,-0.5937994122505188,-0.938568651676178
1763693843448402400,8.35140234375,0.014741416089236736,-0.7360482215881348,-1.1480777263641357
1763693843458352400,8.361352294921875,-0.07909534126520157,-0.7635313868522644,-1.392699956893921
1763693843468302300,8.37130224609375,-0.14263916015625,-0.7232169508934021,-1.644196629524231
1763693843478252300,8.381252197265624,-0.2112329751253128,-0.5114928483963013,-1.8390439748764038
1763693843488202200,8.3912021484375,-0.36787930130958557,-0.1900884211063385,-1.8192909955978394
1763693843498152200,8.401152099609375,-0.5886735320091248,0.20652899146080017,-1.3334214687347412
1763693843508102400,8.411102294921875,-0.9173023104667664,0.40508443117141724,-0.6927579045295715
1763693843518052400,8.42105224609375,-1.2176711559295654,0.7062779068946838,-0.2846464216709137
1763693843528002300,8.431002197265625,-1.368255853652954,0.999173104763031,-0.0695439875125885
1763693843537952500,8.440952392578126,-1.319701075553894,1.002036690711975,0.07530312240123749
1763693843547902500,8.45090234375,-1.1523491144180298,0.93080073595047,0.2628016471862793
1763693843557852200,8.46085205078125,-1.0490089654922485,1.0005600452423096,0.32847505807876587
1763693843567802400,8.47080224609375,-1.1616071462631226,0.96392822265625,0.2841073274612427
1763693843577752300,8.48075244140625,-1.4647988080978394,0.9269254207611084,0.2024921327829361
1763693843587701200,8.490701171875,-1.8804447650909424,0.8462966084480286,0.12487271428108215
1763693843597651200,8.500651123046875,-2.3111534118652344,0.6891821026802063,0.029742274433374405
1763693843607601400,8.510601318359376,-2.7727818489074707,0.4293065667152405,-0.17982372641563416
1763693843617551400,8.52055126953125,-3.2012927532196045,0.2227531224489212,-0.5235424637794495
1763693843627501300,8.530501220703124,-3.482522487640381,-0.03719216585159302,-0.903956413269043
1763693843637451500,8.540451416015625,-3.5936529636383057,-0.30616456270217896,-1.1597329378128052
1763693843647401200,8.550401123046875,-3.26410174369812,-0.6547856330871582,-1.1383615732192993
1763693843657351200,8.56035107421875,-2.7150633335113525,-0.8637040257453918,-0.8135257959365845
1763693843667301400,8.57030126953125,-1.6598789691925049,-0.8334484100341797,-0.5837720036506653
1763693843677251300,8.580251220703126,-0.4149356484413147,-0.4880710542201996,-0.4636141359806061
1763693843687201300,8.590201171875,0.4443918466567993,0.04647395759820938,-0.32015928626060486
1763693843697151500,8.6001513671875,0.6217953562736511,0.8845846056938171,-0.11272487789392471
1763693843707101400,8.610101318359375,0.09640722721815109,1.8422787189483643,0.23661766946315765
1763693843717050400,8.62005029296875,-0.6248477101325989,2.5676076412200928,0.5658710598945618
1763693843727000300,8.630000244140625,-1.257925033569336,2.765007734298706,0.8749895095825195
1763693843736950300,8.6399501953125,-1.4699138402938843,2.8674111366271973,0.956336259841919
1763693843746900200,8.649900146484375,-1.4695546627044678,2.688823699951172,0.5409310460090637
1763693843756850200,8.65985009765625,-1.6024924516677856,2.4600210189819336,0.06328066438436508
1763693843766800400,8.66980029296875,-1.541203260421753,2.024153470993042,-0.13247446715831757
1763693843776750300,8.679750244140624,-1.3180407285690308,1.5824040174484253,0.08321664482355118
1763693843786700300,8.6897001953125,-1.0556621551513672,1.3803648948669434,0.14437612891197205
1763693843796650500,8.699650390625,-1.1061352491378784,1.4153956174850464,0.10345146059989929
1763693843806600400,8.709600341796875,-1.2714234590530396,1.55396568775177,-0.04410391300916672
1763693843816550100,8.719550048828125,-1.2902073860168457,1.3799290657043457,-0.3213181495666504
1763693843826500400,8.729500244140626,-1.3976110219955444,1.5394459962844849,-0.3316890299320221
1763693843836450300,8.7394501953125,-1.807895302772522,1.4932950735092163,-0.298501193523407
1763693843846399200,8.749399169921874,-2.1828207969665527,1.2536488771438599,-0.26059773564338684
1763693843856349400,8.759349365234375,-2.3694570064544678,0.992791473865509,-0.18651917576789856
1763693843866299400,8.76929931640625,-2.7199182510375977,0.5227273106575012,-0.1361667811870575
1763693843876249300,8.779249267578125,-2.825521230697632,0.240857794880867,-0.24266307055950165
1763693843886199300,8.78919921875,-2.5819919109344482,-0.14506007730960846,-0.35986027121543884
1763693843896149500,8.7991494140625,-2.245455265045166,-0.5013378262519836,-0.38733235001564026
1763693843906099200,8.80909912109375,-2.0968782901763916,-0.7056560516357422,-0.30093514919281006
1763693843916049200,8.819049072265624,-2.214137077331543,-0.4783097505569458,-0.11932513117790222
1763693843925999400,8.828999267578125,-2.309601068496704,-0.09638888388872147,0.20058183372020721
1763693843935949300,8.83894921875,-2.3605687618255615,0.13710112869739532,0.5884672999382019
1763693843945899300,8.848899169921875,-2.479160785675049,0.31428149342536926,0.8716303110122681
1763693843955849500,8.858849365234375,-2.7439379692077637,0.36499688029289246,1.0192360877990723
1763693843965799400,8.86879931640625,-3.3866586685180664,0.4855667054653168,0.9080222249031067
1763693843975749400,8.878749267578126,-4.217154026031494,0.3820843994617462,0.3020007014274597
1763693843985698600,8.888698486328124,-3.9149510860443115,0.23462727665901184,-0.1288715898990631
1763693843995648500,8.8986484375,-2.6067352294921875,0.23890578746795654,0.6823993921279907
1763693844005598200,8.90859814453125,-1.4593722820281982,-0.547160804271698,1.5187491178512573
1763693844015548400,8.91854833984375,-0.9706283807754517,-0.5672594308853149,1.5194863080978394
1763693844025498400,8.928498291015625,-1.2265377044677734,-0.4014955163002014,1.1554378271102905
1763693844035448300,8.9384482421875,-1.5446780920028687,0.23214802145957947,0.7619680166244507
1763693844045398300,8.948398193359376,-1.961884617805481,0.3794025778770447,0.6018852591514587
1763693844055348500,8.958348388671874,-2.173891544342041,0.36160776019096375,0.49046066403388977
1763693844065298400,8.96829833984375,-2.348924398422241,0.3745073080062866,0.49188467860221863
1763693844075248000,8.978248046875,-2.479541301727295,0.4101543128490448,0.6265348792076111
1763693844085198300,8.9881982421875,-2.46709942817688,0.3831320106983185,0.9211505055427551
1763693844095148300,8.998148193359375,-2.2562856674194336,0.45977216958999634,1.1797467470169067
1763693844105098200,9.00809814453125,-2.106624126434326,0.6551384925842285,1.2663652896881104
1763693844115047400,9.01804736328125,-1.9093785285949707,0.9674240350723267,1.1254371404647827
1763693844124997400,9.027997314453126,-1.923482894897461,1.2531393766403198,0.8164793252944946
1763693844134947300,9.037947265625,-1.714326024055481,1.011659026145935,0.5484135150909424
1763693844144897500,9.0478974609375,-1.4591975212097168,0.6981676816940308,0.04005231708288193
1763693844154847500,9.057847412109375,-1.3627712726593018,0.7537442445755005,-0.4331963360309601
1763693844164797200,9.067797119140625,-1.6120907068252563,0.524919331073761,-0.19758860766887665
1763693844174747400,9.077747314453125,-1.7274223566055298,0.40809372067451477,0.310149610042572
1763693844184697300,9.087697265625,-1.4261295795440674,0.2941405177116394,0.4710777699947357
1763693844194647300,9.097647216796876,-0.9593256711959839,0.05722569301724434,0.3481522500514984
1763693844204597200,9.10759716796875,-0.3821587562561035,-0.0469377301633358,0.15284694731235504
1763693844214547500,9.11754736328125,-0.07111598551273346,-0.14770165085792542,-0.04320117458701134
1763693844224497400,9.127497314453125,0.15691398084163666,-0.2753182053565979,-0.09795895963907242
1763693844234447400,9.137447265625,0.3889938294887543,-0.3821142613887787,-0.11869333684444427
1763693844244396500,9.147396484375,0.5873420834541321,-0.5797082781791687,-0.06469667702913284
1763693844254346500,9.157346435546875,0.5609663128852844,-0.9034577012062073,0.16992582380771637
1763693844264296200,9.167296142578126,-0.0937872976064682,-1.4840089082717896,0.5404120087623596
1763693844274246400,9.177246337890624,-0.4380359947681427,-1.2622119188308716,1.1804957389831543
1763693844284196400,9.1871962890625,-0.492557555437088,-0.7718573808670044,1.8317943811416626
1763693844294146300,9.197146240234375,-0.3996604084968567,-0.8477294445037842,2.2218902111053467
1763693844304096500,9.207096435546875,-0.2695234417915344,-1.3171488046646118,2.3516125679016113
1763693844314046500,9.21704638671875,-0.15482039749622345,-1.829031229019165,2.306842803955078
1763693844323996400,9.226996337890625,0.0011961048003286123,-2.0352089405059814,2.148710012435913
1763693844333946400,9.2369462890625,0.09969666600227356,-2.0084996223449707,2.1095399856567383
1763693844343896300,9.246896240234374,0.09341054409742355,-1.7841981649398804,2.0719521045684814
1763693844353846300,9.25684619140625,0.0750713050365448,-1.459873914718628,1.8634260892868042
1763693844363796200,9.266796142578125,0.19433803856372833,-1.112494945526123,1.442272663116455
1763693844373746400,9.276746337890625,0.5228893160820007,-0.9584524631500244,0.9911203384399414
1763693844383695400,9.2866953125,0.7677030563354492,-0.8751804828643799,0.7541019320487976
1763693844393645300,9.296645263671875,0.8850600123405457,-0.8542823791503906,0.8301153779029846
1763693844403595500,9.306595458984376,0.8540102243423462,-0.7667006254196167,1.0736291408538818
1763693844413545500,9.31654541015625,0.7390250563621521,-0.6487743258476257,1.2216410636901855
1763693844423495200,9.3264951171875,0.6543261408805847,-0.6770336627960205,1.139330506324768
1763693844433445400,9.3364453125,0.5939505100250244,-0.8947010636329651,0.9037681221961975
1763693844443395300,9.346395263671875,0.5534374713897705,-1.1774814128875732,0.7147321105003357
1763693844453345300,9.35634521484375,0.5680355429649353,-1.2736949920654297,0.6534691452980042
1763693844463295500,9.36629541015625,0.633197546005249,-1.0782266855239868,0.5271064043045044
1763693844473245400,9.376245361328126,0.7651476860046387,-0.970203697681427,0.3697853088378906
1763693844483195400,9.3861953125,0.9054749608039856,-1.059810757637024,0.21616670489311218
1763693844493145300,9.396145263671874,1.0069674253463745,-1.2772458791732788,0.07812237739562988
1763693844503095300,9.40609521484375,1.009194016456604,-1.4210067987442017,-0.01169832143932581
1763693844513045200,9.416045166015625,0.9259152412414551,-1.3777306079864502,-0.02355332113802433
1763693844522994200,9.425994140625,0.7965386509895325,-1.1231414079666138,0.05571993067860603
1763693844532944400,9.4359443359375,0.6106154322624207,-0.9111312627792358,0.06369538605213165
1763693844542894300,9.445894287109375,0.2955741286277771,-0.6551583409309387,-0.14805176854133606
1763693844552844300,9.45584423828125,0.08824916929006577,-0.4838830530643463,-0.39412617683410645
1763693844562794500,9.46579443359375,0.027926703914999962,-0.357708603143692,-0.5401667952537537
1763693844572744400,9.475744384765624,-0.011389708146452904,-0.23018382489681244,-0.5973547101020813
1763693844582694400,9.4856943359375,-0.051598645746707916,-0.17589715123176575,-0.6332514882087708
1763693844592644400,9.495644287109375,-0.0820448100566864,-0.15538470447063446,-0.6110289692878723
1763693844602594300,9.50559423828125,-0.10405104607343674,-0.13542990386486053,-0.518399178981781
1763693844612544300,9.515544189453125,-0.11850479990243912,-0.09662913531064987,-0.4023268520832062
1763693844622494500,9.525494384765626,-0.1186201199889183,-0.0636802390217781,-0.25741705298423767
1763693844632444400,9.5354443359375,-0.15978379547595978,-0.01781991682946682,-0.14882449805736542
1763693844642394400,9.545394287109374,-0.22040480375289917,0.0340973399579525,-0.10715668648481369
1763693844652344300,9.55534423828125,-0.21970005333423615,0.10072416812181473,-0.1428125500679016
1763693844662293200,9.565293212890625,-0.12194499373435974,0.15223315358161926,-0.2617170810699463
1763693844672243500,9.575243408203125,0.033154845237731934,0.15246491134166718,-0.42687973380088806
1763693844682193200,9.585193115234375,0.10009739547967911,0.16906413435935974,-0.25573673844337463
1763693844692143000,9.59514306640625,0.1795278787612915,-0.008576478809118271,0.06917694211006165
1763693844702093300,9.60509326171875,0.3197592794895172,-0.29173681139945984,0.2162739783525467
1763693844712043300,9.615043212890624,0.4461200535297394,-0.40098312497138977,0.22840838134288788
1763693844721993200,9.6249931640625,0.6800201535224915,-0.3491777181625366,0.3026288151741028
1763693844731943400,9.634943359375,0.8048644661903381,-0.27929139137268066,0.3984551429748535
1763693844741893400,9.644893310546875,0.6946665644645691,-0.17504753172397614,0.5025815367698669
1763693844751843300,9.65484326171875,0.5348852872848511,-0.100429467856884,0.48389458656311035
1763693844761793300,9.664793212890626,0.41923055052757263,-0.09207193553447723,0.2824610769748688
1763693844771743200,9.6747431640625,0.38584691286087036,0.029163876548409462,-0.054918281733989716
1763693844781693200,9.684693115234374,0.37160274386405945,0.22114476561546326,-0.44316375255584717
1763693844791643400,9.694643310546875,0.3789672553539276,0.6389845013618469,-0.8637747764587402
1763693844801592300,9.70459228515625,0.28721046447753906,1.2631874084472656,-1.2025482654571533
1763693844811542300,9.714542236328125,0.07214131206274033,1.9492980241775513,-1.3785892724990845
1763693844821492200,9.7244921875,-0.22576333582401276,2.2379021644592285,-1.3546998500823975
1763693844831442400,9.7344423828125,-0.7047426700592041,1.935022234916687,-0.9332484006881714
1763693844841392400,9.744392333984376,-1.316980004310608,1.9171595573425293,-0.2884283661842346
1763693844851342000,9.754342041015626,-1.8676388263702393,2.40999698638916,0.1027870923280716
1763693844861292300,9.764292236328124,-2.1800451278686523,2.7117440700531006,0.13534343242645264
1763693844871242200,9.7742421875,-2.3905258178710938,2.1998422145843506,-0.03589056804776192
1763693844881192200,9.784192138671875,-2.513108968734741,1.2107337713241577,-0.17052507400512695
1763693844891142400,9.794142333984375,-2.509960174560547,0.505964994430542,-0.17899829149246216
1763693844901092400,9.80409228515625,-2.309412717819214,0.28110069036483765,-0.24804048240184784
1763693844911042300,9.814042236328126,-2.0873770713806152,0.4889321029186249,-0.6090667843818665
1763693844920992300,9.8239921875,-1.9355090856552124,0.6754665970802307,-1.1692368984222412
1763693844930942200,9.833942138671874,-1.7731139659881592,0.5512576699256897,-1.5855950117111206
1763693844940891400,9.843891357421874,-1.5909050703048706,0.34961584210395813,-1.6792030334472656
1763693844950841300,9.85384130859375,-1.4907532930374146,0.36108827590942383,-1.4401805400848389
1763693844960791300,9.863791259765625,-1.3635271787643433,0.6709388494491577,-1.176703691482544
1763693844970741200,9.8737412109375,-1.2006769180297852,0.8647725582122803,-0.9425056576728821
1763693844980691200,9.883691162109375,-1.133836030960083,0.8931818008422852,-0.8301791548728943
1763693844990641400,9.893641357421876,-1.051081895828247,0.8392056226730347,-0.692392885684967
1763693845000591400,9.90359130859375,-0.9447895884513855,0.9106408953666687,-0.5422279238700867
1763693845010541300,9.913541259765625,-1.021049976348877,0.989335298538208,-0.31317734718322754
1763693845020491300,9.9234912109375,-1.1737322807312012,0.8180809617042542,-0.07309605181217194
1763693845030441200,9.933441162109375,-1.2799803018569946,0.4713480770587921,0.07431904226541519
1763693845040391200,9.94339111328125,-1.2457239627838135,0.3006543517112732,-0.20573338866233826
1763693845050341400,9.95334130859375,-1.3296140432357788,0.2129267454147339,-0.4395250380039215
1763693845060291300,9.963291259765626,-1.266006350517273,0.24845276772975922,-0.6910614371299744
1763693845070241300,9.9732412109375,-1.1424826383590698,0.3901066482067108,-0.9854761362075806
1763693845080191500,9.98319140625,-1.0349111557006836,0.5154629945755005,-1.2466976642608643
1763693845090140400,9.993140380859375,-1.0363754034042358,0.5620075464248657,-1.4143279790878296
1763693845100090400,10.00309033203125,-1.1127992868423462,0.549888014793396,-1.4544343948364258
1763693845110040300,10.013040283203125,-1.2909032106399536,0.5348177552223206,-1.332187533378601
1763693845119990300,10.022990234375,-1.4400184154510498,0.30614331364631653,-1.3037391901016235
1763693845129940200,10.032940185546876,-1.789406180381775,0.2697139382362366,-1.330835223197937
1763693845139890200,10.04289013671875,-2.15270733833313,-0.23198431730270386,-1.05549156665802
1763693845149840400,10.05284033203125,-2.3182835578918457,0.007809033617377281,-1.1687040328979492
1763693845159790300,10.062790283203125,-2.3565447330474854,0.757752537727356,-1.4982686042785645
1763693845169740300,10.072740234375,-2.4391982555389404,1.1532093286514282,-1.6485270261764526
1763693845179690200,10.082690185546875,-2.5410869121551514,0.9545748233795166,-1.556071162223816
1763693845189640200,10.09264013671875,-2.699018955230713,0.6765293478965759,-1.3768659830093384
1763693845199590100,10.102590087890626,-2.753492832183838,0.719789445400238,-1.2049757242202759
1763693845209540400,10.112540283203124,-2.851414918899536,0.6605262756347656,-1.013991117477417
1763693845219490300,10.122490234375,-2.6616907119750977,0.4638310372829437,-0.8907456398010254
1763693845229439200,10.132439208984374,-2.2695472240448,0.4004046618938446,-0.5021755695343018
1763693845239389400,10.142389404296875,-1.770296573638916,0.4326816499233246,-0.5255767107009888
1763693845249339400,10.15233935546875,-1.1870461702346802,0.499699205160141,-0.6583548188209534
1763693845259289300,10.162289306640625,-0.9306995868682861,0.12786972522735596,-0.4236651062965393
1763693845269239600,10.172239501953126,-0.9775235652923584,-0.4157281219959259,0.025672800838947296
1763693845279189200,10.182189208984376,-1.2545708417892456,-0.6527467370033264,0.31505534052848816
1763693845289139200,10.19213916015625,-1.1376289129257202,-0.8567234873771667,0.534320592880249
1763693845299089200,10.202089111328124,-0.6985450387001038,-0.17493559420108795,0.8610518574714661
1763693845309039400,10.212039306640625,-0.36947017908096313,0.1384926736354828,1.090796947479248
1763693845318989300,10.2219892578125,0.030060691758990288,-0.17571718990802765,1.4047743082046509
1763693845328939300,10.231939208984375,0.16978274285793304,-0.41788873076438904,1.7524672746658325
1763693845338889500,10.241889404296876,0.43593716621398926,-0.6666167974472046,2.3196465969085693
1763693845348839200,10.251839111328126,0.7798490524291992,-1.029532551765442,3.085541009902954
1763693845358789000,10.2617890625,1.1506198644638062,-1.2587412595748901,3.579158067703247
1763693845368738300,10.27173828125,1.555066466331482,-1.1639292240142822,3.7812304496765137
1763693845378688300,10.281688232421875,1.7467446327209473,-0.6352450847625732,4.065223693847656
1763693845388638200,10.29163818359375,1.7701683044433594,0.06373007595539093,4.269398212432861
1763693845398588400,10.30158837890625,1.6809563636779785,0.6452515721321106,4.2483906745910645
1763693845408538400,10.311538330078125,1.649976134300232,1.0319361686706543,4.1036529541015625
1763693845418488300,10.32148828125,1.8646320104599,0.8555288910865784,3.65987229347229
1763693845428438500,10.3314384765625,2.178162097930908,0.5995067358016968,2.9809491634368896
1763693845438388200,10.34138818359375,2.3585336208343506,0.5137665271759033,2.2531330585479736
1763693845448338200,10.351338134765625,2.4875664710998535,0.5504319071769714,1.749259352684021
1763693845458288000,10.3612880859375,2.645982265472412,0.6561234593391418,1.545133113861084
1763693845468238300,10.37123828125,2.7935519218444824,0.34799322485923767,1.4344279766082764
1763693845478188300,10.381188232421875,2.7948124408721924,-0.3401697278022766,1.3986095190048218
1763693845488138200,10.39113818359375,2.6179418563842773,-1.0406980514526367,1.403493881225586
1763693845498088400,10.40108837890625,2.2447149753570557,-1.4643446207046509,1.426803469657898
1763693845508038400,10.411038330078124,1.4857640266418457,-1.7332905530929565,1.5533372163772583
1763693845517987300,10.4209873046875,1.0048019886016846,-2.1690731048583984,1.7035259008407593
1763693845527937500,10.4309375,0.8857501745223999,-2.272143602371216,1.9135714769363403
1763693845537887200,10.44088720703125,0.8867613673210144,-2.119074583053589,2.0640385150909424
1763693845547837200,10.450837158203125,0.8299622535705566,-2.1588776111602783,2.048346996307373
1763693845557787400,10.460787353515625,0.6048756241798401,-2.405994415283203,1.9440723657608032
1763693845567737300,10.4707373046875,0.4248890280723572,-2.54050874710083,1.9153186082839966
1763693845577687300,10.480687255859374,0.4311669170856476,-2.5001728534698486,1.7671808004379272
1763693845587637500,10.490637451171875,0.4793727993965149,-2.2301173210144043,1.4570001363754272
1763693845597587500,10.50058740234375,0.45652952790260315,-2.1997463703155518,1.172795057296753
1763693845607537200,10.510537109375,0.423543781042099,-2.1646883487701416,0.8988277316093445
1763693845617487400,10.5204873046875,0.41165703535079956,-2.1046438217163086,0.6285552382469177
1763693845627437300,10.530437255859376,0.4323699474334717,-2.0202481746673584,0.3313803970813751
1763693845637387300,10.54038720703125,0.4519577622413635,-1.910744547843933,0.06834980845451355
1763693845647337200,10.550337158203124,0.4382110834121704,-1.7892717123031616,-0.17020376026630402
1763693845657286000,10.560285888671874,0.39717790484428406,-1.6107603311538696,-0.37883901596069336
1763693845667235800,10.57023583984375,0.3791099488735199,-1.440429925918579,-0.5305291414260864
1763693845677186000,10.58018603515625,0.4251472055912018,-1.2658727169036865,-0.656236469745636
1763693845687136000,10.590135986328125,0.5090571045875549,-1.0060513019561768,-0.8100385069847107
1763693845697086000,10.6000859375,0.6120655536651611,-0.7573118209838867,-0.9814661741256714
1763693845707036000,10.610035888671876,0.5700225234031677,-0.490512877702713,-1.071420669555664
1763693845716985900,10.61998583984375,0.3699893355369568,-0.12486831843852997,-1.139406681060791
1763693845726935800,10.629935791015624,0.26448315382003784,0.30103692412376404,-1.2559795379638672
1763693845736886000,10.639885986328125,0.20120351016521454,0.7800745964050293,-1.4258772134780884
1763693845746836000,10.6498359375,0.13806644082069397,1.0325663089752197,-1.4869896173477173
1763693845756786000,10.659785888671875,-0.007835370488464832,0.7993460893630981,-1.3983790874481201
1763693845766736100,10.669736083984375,-0.1375417858362198,-0.01730814389884472,-1.1947147846221924
1763693845776686000,10.67968603515625,-0.29148155450820923,-0.8949065208435059,-0.7137541174888611
1763693845786635800,10.6896357421875,-0.3307512104511261,-1.513303279876709,0.10328936576843262
1763693845796585000,10.6995849609375,-0.17505322396755219,-1.6144496202468872,0.7302313446998596
1763693845806535000,10.709534912109374,-0.06943270564079285,-1.554616093635559,0.8323588371276855
1763693845816484900,10.71948486328125,-0.04068707302212715,-1.242658019065857,0.4904118776321411
1763693845826434800,10.729434814453125,-0.08264109492301941,-0.5967786312103271,-0.101530060172081
1763693845836385000,10.739385009765625,-0.14513909816741943,0.3190680742263794,-0.9383077621459961
1763693845846335000,10.7493349609375,-0.129873126745224,1.1152467727661133,-1.954803466796875
1763693845856285000,10.759284912109376,-0.4216975271701813,1.4966343641281128,-2.516756534576416
1763693845866235100,10.769235107421874,-0.9363649487495422,2.261105537414551,-2.271371364593506
1763693845876184800,10.779184814453124,-1.4632601737976074,3.161038875579834,-1.5477930307388306
1763693845886134800,10.789134765625,-1.406476378440857,3.445321798324585,-1.0116595029830933
1763693845896085000,10.7990849609375,-0.3589753210544586,3.169034004211426,-0.9418050646781921
1763693845906035000,10.809034912109375,0.5535479784011841,2.061919927597046,-1.3228752613067627
1763693845915985000,10.81898486328125,0.39321768283843994,0.9441961646080017,-1.7813479900360107
1763693845925935000,10.82893505859375,-0.3262522518634796,0.3011613190174103,-1.9009191989898682
1763693845935884000,10.838884033203126,-1.0616815090179443,-0.12228024005889893,-1.7454252243041992
1763693845945834000,10.848833984375,-1.4981974363327026,-0.5579167008399963,-1.4750174283981323
1763693845955784000,10.858783935546874,-1.4310168027877808,-0.6711777448654175,-1.321554183959961
1763693845965734000,10.86873388671875,-1.135228157043457,-0.08866561204195023,-1.4961998462677002
1763693845975683800,10.878683837890625,-0.8153143525123596,0.9681832194328308,-2.0007448196411133
1763693845985633800,10.8886337890625,-0.436492383480072,1.792697787284851,-2.3248913288116455
1763693845995584000,10.898583984375,-0.0721418559551239,1.8848333358764648,-2.266277313232422
1763693846005534000,10.908533935546876,0.2479143589735031,1.5635569095611572,-1.8561065196990967
1763693846015484000,10.91848388671875,0.4652698338031769,0.8975333571434021,-1.3825660943984985
1763693846025434000,10.92843408203125,0.5666181445121765,0.24588081240653992,-1.0252171754837036
1763693846035384000,10.938384033203125,0.5396882891654968,-0.18953564763069153,-0.7539542317390442
1763693846045333800,10.948333740234375,0.3753165900707245,-0.19871129095554352,-0.5699353814125061
1763693846055284000,10.958283935546875,0.19187283515930176,0.2561466097831726,-0.5165033340454102
1763693846065234000,10.96823388671875,0.050391267985105515,0.8833718299865723,-0.571678876876831
1763693846075183900,10.978183837890626,-0.030246319249272346,1.251794695854187,-0.7090703248977661
1763693846085132800,10.9881328125,-0.12159452587366104,1.3160384893417358,-0.9157687425613403
1763693846095083000,10.9980830078125,-0.2992878258228302,1.3694822788238525,-1.1363285779953003
1763693846105033000,11.008032958984375,-0.4298579692840576,1.3324772119522095,-1.2836225032806396
1763693846114983000,11.01798291015625,-0.5375626683235168,1.290802240371704,-1.3692524433135986
1763693846124933000,11.02793310546875,-0.6930879354476929,1.3319746255874634,-1.4928309917449951
1763693846134882800,11.0378828125,-0.8569847345352173,1.2717702388763428,-1.5990769863128662
1763693846144832800,11.047832763671876,-0.9964013695716858,1.0974934101104736,-1.5975831747055054
1763693846154783000,11.057782958984374,-1.0980398654937744,0.8727095723152161,-1.5671675205230713
1763693846164733000,11.06773291015625,-1.2386555671691895,0.696722149848938,-1.5756646394729614
1763693846174683000,11.077682861328125,-1.3094680309295654,0.6220529675483704,-1.5917176008224487
1763693846184633000,11.087633056640625,-1.3510351181030273,0.6210044026374817,-1.6823370456695557
1763693846194583000,11.0975830078125,-1.454221487045288,0.6153901815414429,-1.74344801902771
1763693846204532700,11.10753271484375,-1.4405572414398193,0.5926591157913208,-1.6187195777893066
1763693846214483000,11.11748291015625,-1.3176274299621582,0.7057909965515137,-1.4574878215789795
1763693846224431900,11.127431884765626,-1.1435554027557373,0.7741972208023071,-1.1945337057113647
1763693846234381800,11.1373818359375,-0.9861916303634644,0.5005416870117188,-0.7804941534996033
1763693846244331800,11.147331787109374,-0.9289200901985168,0.4128139019012451,-0.4282738268375397
1763693846254282000,11.157281982421875,-0.8067800402641296,0.5962007641792297,-0.3357961177825928
1763693846264232000,11.16723193359375,-0.6274333596229553,0.704701840877533,-0.3077966272830963
1763693846274182000,11.177181884765625,-0.5568955540657043,0.6388048529624939,-0.22923387587070465
1763693846284132000,11.187132080078126,-0.5619991421699524,0.40886151790618896,-0.1485593169927597
1763693846294082000,11.19708203125,-0.561959981918335,0.27373993396759033,-0.1260574758052826
1763693846304031700,11.20703173828125,-0.521873414516449,0.17678748071193695,-0.029048241674900055
1763693846313982000,11.21698193359375,-0.4495014548301697,0.12339189648628235,0.11612972617149353
1763693846323932000,11.226931884765625,-0.3693879246711731,-0.05891137197613716,0.3038022220134735
1763693846333881900,11.2368818359375,-0.2850288450717926,-0.24561840295791626,0.4850497841835022
1763693846343832000,11.24683203125,-0.21081475913524628,-0.2862720489501953,0.7082374095916748
1763693846353782000,11.256781982421876,-0.123630590736866,-0.11643080413341522,1.0444470643997192
1763693846363731000,11.26673095703125,0.04935431107878685,-0.10225808620452881,1.493984341621399
1763693846373681000,11.276680908203126,0.3105752766132355,-0.3397292196750641,2.0875000953674316
1763693846383631000,11.286631103515624,0.6401554942131042,-0.5011241436004639,2.787677764892578
1763693846393580800,11.296580810546875,1.0718597173690796,-0.40339305996894836,3.269500732421875
1763693846403530800,11.30653076171875,1.4279406070709229,-0.28773245215415955,3.2528369426727295
1763693846413481000,11.31648095703125,1.6306908130645752,-0.014320342801511288,3.2320990562438965
1763693846423431000,11.326430908203125,1.7771981954574585,-0.045053526759147644,3.5016584396362305
1763693846433380900,11.336380859375,2.004103183746338,-0.32686975598335266,3.613629102706909
1763693846443331000,11.3463310546875,2.200934886932373,-0.08284507691860199,3.347231864929199
1763693846453281000,11.356281005859374,2.2277774810791016,0.6362941265106201,2.943115472793579
1763693846463231000,11.36623095703125,2.0317981243133545,1.1551071405410767,2.6261725425720215
1763693846473181000,11.376180908203125,1.8213284015655518,1.107132911682129,2.4026544094085693
1763693846483131000,11.386130859375,1.8297361135482788,0.7473390698432922,2.319676637649536
1763693846493080800,11.396080810546875,2.000938653945923,0.3088381588459015,2.2350800037384033
1763693846503031000,11.406031005859376,2.1655678749084473,-0.1781390905380249,2.1539227962493896
1763693846512980000,11.41597998046875,2.1520586013793945,-0.5979925394058228,2.1601529121398926
1763693846522930000,11.425929931640624,1.97332763671875,-0.9949989318847656,2.1356818675994873
1763693846532880000,11.4358798828125,1.74052095413208,-1.3068593740463257,2.121127128601074
1763693846542830000,11.445830078125,1.5533082485198975,-1.5998562574386597,2.2095282077789307
1763693846552780000,11.455780029296875,1.5839617252349854,-1.9963233470916748,2.305610418319702
1763693846562729700,11.465729736328125,1.6513205766677856,-2.266211748123169,2.337402820587158
1763693846572680000,11.475679931640625,1.5639063119888306,-2.4680211544036865,2.3036141395568848
1763693846582630000,11.4856298828125,1.2695109844207764,-2.682070016860962,2.301826000213623
1763693846592579800,11.495579833984374,0.8912768959999084,-2.714491128921509,2.2747280597686768
1763693846602530000,11.505530029296875,0.6848413348197937,-2.8858110904693604,2.1755478382110596
1763693846612480000,11.51547998046875,0.6888326406478882,-2.8581950664520264,1.9878175258636475
1763693846622430000,11.525429931640625,0.6539048552513123,-2.780973434448242,1.6904878616333008
1763693846632380000,11.5353798828125,0.6312234997749329,-2.7480897903442383,1.347495675086975
1763693846642329900,11.545329833984376,0.6922959685325623,-2.5993707180023193,1.0228466987609863
1763693846652279000,11.555279052734376,0.7420305013656616,-2.468749523162842,0.6673718690872192
1763693846662229200,11.565229248046874,0.7281299233436584,-2.209960699081421,0.30066585540771484
1763693846672179200,11.57517919921875,0.6951988935470581,-1.8880902528762817,-0.08302748948335648
1763693846682129200,11.585129150390625,0.6736176609992981,-1.4865416288375854,-0.46041592955589294
1763693846692079000,11.5950791015625,0.6787146329879761,-1.042318344116211,-0.8048869967460632
1763693846702029300,11.605029296875,0.7337425947189331,-0.6019684672355652,-1.0705572366714478
1763693846711979300,11.614979248046875,0.7294378280639648,-0.18895801901817322,-1.1607123613357544
1763693846721929000,11.624928955078126,0.5855817794799805,0.215947687625885,-1.2090327739715576
1763693846731879200,11.634879150390624,0.30900800228118896,0.5684024095535278,-1.4111981391906738
1763693846741829000,11.6448291015625,0.058141592890024185,0.5696150660514832,-1.5151662826538086
1763693846751779000,11.654779052734375,-0.03304770588874817,0.0987013727426529,-1.20909583568573
1763693846761729300,11.664729248046875,-0.03215554729104042,-0.6929302215576172,-0.7380812168121338
1763693846771679200,11.67467919921875,-0.18437731266021729,-1.4961574077606201,-0.3717447817325592
1763693846781629200,11.684629150390625,-0.420036256313324,-1.7699649333953857,0.0739511251449585
1763693846791579100,11.6945791015625,-0.28376710414886475,-1.5939576625823975,0.69085294008255
1763693846801528300,11.7045283203125,-0.07453053444623947,-1.3704441785812378,0.9653393626213074
1763693846811478000,11.71447802734375,0.06095937639474869,-1.1122760772705078,0.7329708337783813
1763693846821428200,11.72442822265625,0.07659287005662918,-0.40555524826049805,0.22069960832595825
1763693846831378200,11.734378173828125,-0.09817627817392349,0.1788293421268463,-0.32803380489349365
1763693846841328000,11.744328125,-0.1346169114112854,0.6727246642112732,-0.9905732274055481
1763693846851278300,11.7542783203125,0.050907935947179794,1.7180920839309692,-1.608931064605713
1763693846861228300,11.764228271484376,0.023133544251322746,2.5660147666931152,-1.481432557106018
1763693846871178200,11.77417822265625,-0.2971770763397217,2.721367835998535,-0.32253512740135193
1763693846881128200,11.784128173828124,-0.5520328283309937,2.593552589416504,1.0177546739578247
1763693846891078100,11.794078125,-0.4832226037979126,2.7756779193878174,0.006792849395424128
1763693846901028000,11.804028076171875,-0.3833394944667816,2.122067451477051,-1.2104870080947876
1763693846910978000,11.81397802734375,-0.2933105230331421,1.1698226928710938,-1.5235273838043213
1763693846920928300,11.82392822265625,-0.4599494934082031,0.6998835206031799,-1.2313660383224487
1763693846930878200,11.833878173828126,-0.7971363067626953,0.8274326920509338,-1.4256417751312256
1763693846940828200,11.843828125,-1.0401158332824707,1.060939908027649,-2.1353015899658203
1763693846950777300,11.85377734375,-1.0121155977249146,1.447986364364624,-2.7966227531433105
1763693846960727300,11.863727294921874,-0.9703953266143799,1.8830163478851318,-3.07694673538208
1763693846970677200,11.87367724609375,-0.9979422688484192,1.991782784461975,-3.1506216526031494
1763693846980627200,11.883627197265625,-1.0698617696762085,2.13812255859375,-3.0029373168945312
1763693846990577200,11.8935771484375,-1.0769585371017456,2.1665167808532715,-2.8341445922851562
1763693847000527000,11.903527099609375,-0.9242551326751709,1.9332506656646729,-2.7010064125061035
1763693847010477300,11.913477294921876,-0.6120069622993469,1.7359399795532227,-2.5260508060455322
1763693847020427300,11.92342724609375,-0.3673141300678253,1.763152837753296,-2.3887569904327393
1763693847030377200,11.933377197265624,-0.29714488983154297,1.8633220195770264,-2.301189661026001
1763693847040327200,11.9433271484375,-0.417957067489624,1.98469877243042,-2.244102954864502
1763693847050277000,11.953277099609375,-0.6533011198043823,2.0193748474121094,-2.2354514598846436
1763693847060227000,11.96322705078125,-0.7690868973731995,1.9013334512710571,-2.2050957679748535
1763693847070177000,11.973177001953125,-0.8195628523826599,1.7175847291946411,-2.096817970275879
1763693847080127200,11.983127197265626,-0.8691241145133972,1.436511516571045,-1.9518510103225708
1763693847090077200,11.9930771484375,-0.9750420451164246,1.1836084127426147,-1.9459025859832764
1763693847100026000,12.003026123046874,-1.0522825717926025,1.0971492528915405,-2.0312869548797607
1763693847109976300,12.012976318359375,-1.0462512969970703,1.1441594362258911,-2.067211389541626
1763693847119926300,12.02292626953125,-0.9307175874710083,1.268160343170166,-1.9678584337234497
1763693847129876200,12.032876220703125,-0.789831817150116,1.4022773504257202,-1.8208884000778198
1763693847139826200,12.042826171875,-0.7618724703788757,1.4711118936538696,-1.5879963636398315
