time,seconds_elapsed,z,y,x
1763701032438815200,0.242815185546875,0.80280601978302,2.0411460399627686,-0.042759306728839874
1763701032448402000,0.25240185546875,0.9701781868934631,2.175532579421997,-0.10873081535100937
1763701032457989400,0.2619892578125,1.006829023361206,2.270824670791626,-0.17958909273147583
1763701032467576000,0.271576171875,0.9530744552612305,2.1254429817199707,-0.2223484069108963
1763701032477161700,0.28116162109375,0.8370134830474854,1.7271705865859985,-0.2651077210903168
1763701032486748700,0.290748779296875,0.6830799579620361,1.2421579360961914,-0.3701734244823456
1763701032496336000,0.3003359375,0.5120427012443542,0.6617003083229065,-0.5961869359016418
1763701032505922800,0.3099228515625,0.36543938517570496,0.14370182156562805,-0.8783983588218689
1763701032515508500,0.319508544921875,0.282364159822464,-0.06398624926805496,-1.0042328834533691
1763701032525095200,0.32909521484375,0.3104631304740906,-0.164165198802948,-0.9749122262001038
1763701032534681900,0.338681884765625,0.42163732647895813,-0.09697200357913971,-0.8832851648330688
1763701032544268000,0.34826806640625,0.5120427012443542,0.09116895496845245,-0.735460102558136
1763701032553854000,0.35785400390625,0.5303681492805481,0.11682453751564026,-0.629172682762146
1763701032563440600,0.367440673828125,0.5621321797370911,0.28908345103263855,-0.45080527663230896
1763701032573028000,0.377028076171875,0.6183301210403442,0.4955498278141022,-0.27121618390083313
1763701032582614800,0.38661474609375,0.6171084642410278,0.439351886510849,-0.2907632887363434
1763701032592200700,0.39620068359375,0.5352548956871033,0.5456393361091614,-0.5326588153839111
1763701032601787400,0.405787353515625,0.4130854606628418,0.6679614782333374,-0.7647807598114014
1763701032611374800,0.415374755859375,0.2945810854434967,0.48455458879470825,-0.9052756428718567
1763701032620961500,0.42496142578125,0.2420482337474823,0.2683146595954895,-1.0005677938461304
1763701032630547500,0.43454736328125,0.256708562374115,0.0594048947095871,-1.0726478099822998
1763701032640134100,0.444134033203125,0.2945810854434967,-0.164165198802948,-1.110520362854004
1763701032649721600,0.4537216796875,0.3239017724990845,-0.41827765107154846,-1.1056334972381592
1763701032659308300,0.463308349609375,0.3104631304740906,-0.6161921620368958,-1.0518789291381836
1763701032668894000,0.47289404296875,0.26037365198135376,-0.6772769093513489,-0.939483106136322
1763701032678481000,0.48248095703125,0.20906247198581696,-0.6271874308586121,-0.7623373866081238
1763701032688068400,0.492068359375,0.16874656081199646,-0.5257867574691772,-0.5473191738128662
1763701032697655000,0.501655029296875,0.15652960538864136,-0.44393324851989746,-0.3408527672290802
1763701032707240700,0.51124072265625,0.2029540091753006,-0.38162681460380554,-0.19180603325366974
1763701032716827600,0.52082763671875,0.28847262263298035,-0.29977330565452576,-0.12827792763710022
1763701032726415000,0.5304150390625,0.3483356535434723,-0.19226416945457458,-0.13560809195041656
1763701032736001500,0.54000146484375,0.362995982170105,-0.09575030952692032,-0.16004198789596558
1763701032745587500,0.54958740234375,0.33001023530960083,-0.06765133142471313,-0.17714570462703705
1763701032755174100,0.559174072265625,0.26281702518463135,-0.11285403370857239,-0.18081079423427582
1763701032764761600,0.56876171875,0.19562382996082306,-0.20570281147956848,-0.17714570462703705
1763701032774348300,0.578348388671875,0.1369825005531311,-0.2912214398384094,-0.16248537600040436
1763701032783934200,0.587934326171875,0.08933641016483307,-0.32787227630615234,-0.1429382562637329
1763701032793521000,0.59752099609375,0.07101099193096161,-0.33764582872390747,-0.12339114397764206
1763701032803108400,0.6071083984375,0.08811471611261368,-0.34253260493278503,-0.1172826737165451
1763701032812695000,0.616695068359375,0.18218518793582916,-0.5661026835441589,-0.5265503525733948
1763701032822281000,0.626281005859375,0.24571330845355988,-0.3633013963699341,-0.6401679515838623
1763701032831867600,0.63586767578125,0.32634514570236206,-0.448820024728775,-0.45324867963790894
1763701032841455000,0.645455078125,0.4521796703338623,-0.48302745819091797,-0.3970507085323334
1763701032851041800,0.655041748046875,0.5108210444450378,-0.40361732244491577,-0.30664533376693726
1763701032860627700,0.664627685546875,0.48516544699668884,-0.448820024728775,-0.2345653474330902
1763701032870214400,0.67421435546875,0.4277457892894745,-0.4940227270126343,-0.20524467527866364
1763701032879801900,0.6838017578125,0.3739912211894989,-0.5147915482521057,-0.2101314514875412
1763701032889388500,0.693388427734375,0.305576354265213,-0.5489989519119263,-0.2895416021347046
1763701032898974500,0.702974365234375,0.22616620361804962,-0.5587725043296814,-0.3310792148113251
1763701032908561200,0.71256103515625,0.15286453068256378,-0.529451847076416,-0.3396310806274414
1763701032918148600,0.722148681640625,0.09055810421705246,-0.448820024728775,-0.3286358118057251
1763701032927735300,0.7317353515625,0.05390727147459984,-0.36452311277389526,-0.3115321099758148
1763701032937321200,0.7413212890625,0.03436015918850899,-0.270452618598938,-0.2870981991291046
1763701032946908000,0.750907958984375,0.06123743951320648,-0.1763821393251419,-0.2651077210903168
1763701032956495400,0.760495361328125,0.14309096336364746,-0.07009471952915192,-0.2504473626613617
1763701032966082000,0.77008203125,0.24571330845355988,0.038636088371276855,-0.24556060135364532
1763701032975667700,0.779667724609375,0.32512345910072327,0.0716218426823616,-0.21379654109477997
1763701032985254400,0.78925439453125,0.35566580295562744,0.0032069480512291193,-0.15271180868148804
1763701032994841900,0.798841796875,0.32634514570236206,-0.08353336155414581,-0.11361759155988693
1763701033004428500,0.808428466796875,0.23960483074188232,-0.19592925906181335,-0.16859383881092072
1763701033014014500,0.818014404296875,0.11987877637147903,-0.2276933193206787,-0.4349232614040375
1763701033023601200,0.82760107421875,0.04169032722711563,-0.6528429985046387,-0.38727715611457825
1763701033033188600,0.837188720703125,0.150421142578125,-0.6430694460868835,-0.11239589750766754
1763701033042775300,0.846775390625,0.07834116369485855,-0.17027367651462555,-0.37139514088630676
1763701033052361200,0.856361328125,-0.0584886260330677,-0.21181128919124603,-0.5656445622444153
1763701033061948000,0.865947998046875,-0.062153708189725876,-0.3718532621860504,-0.7146912813186646
1763701033071535400,0.875535400390625,0.02092151902616024,-0.5331169366836548,-0.7623373866081238
1763701033081122000,0.8851220703125,0.09544488787651062,-0.6381826996803284,-0.6829272508621216
1763701033090708000,0.8947080078125,0.15775130689144135,-0.6308525204658508,-0.5338805317878723
1763701033100294700,0.904294677734375,0.18096350133419037,-0.42194274067878723,-0.37139514088630676
1763701033109882000,0.913882080078125,0.1650814712047577,-0.2276933193206787,-0.26999449729919434
1763701033119468800,0.92346875,0.1650814712047577,-0.11651911586523056,-0.22845686972141266
1763701033129054700,0.9330546875,0.19318044185638428,-0.16172181069850922,-0.21990501880645752
1763701033138641400,0.942641357421875,0.2017323076725006,-0.2838912606239319,-0.23823043704032898
1763701033148228900,0.952228759765625,0.17974179983139038,-0.3107685446739197,-0.25533416867256165
1763701033157815600,0.961815673828125,0.13209572434425354,-0.28877803683280945,-0.25533416867256165
1763701033167401500,0.9714013671875,0.08200624585151672,-0.2570139765739441,-0.23334364593029022
1763701033176988200,0.98098828125,0.0331384651362896,-0.3352024257183075,-0.23334364593029022
1763701033186575600,0.99057568359375,-0.024281177669763565,-0.4915793240070343,-0.261442631483078
1763701033196162300,1.000162353515625,-0.04504998400807381,-0.5844281315803528,-0.25533416867256165
1763701033205748000,1.009748046875,-0.021837789565324783,-0.6003101468086243,-0.2235700935125351
1763701033215335000,1.0193349609375,0.016034740954637527,-0.5489989519119263,-0.1698155403137207
1763701033224922400,1.02892236328125,0.05024218559265137,-0.47325390577316284,-0.10750912129878998
1763701033234509000,1.038509033203125,0.07467607408761978,-0.43049460649490356,-0.06719319522380829
1763701033244094700,1.0480947265625,0.072232685983181,-0.4671454429626465,-0.08063183724880219
1763701033253681400,1.057681396484375,0.03680354729294777,-0.5221216678619385,-0.12094775587320328
1763701033263269000,1.06726904296875,0.008704573847353458,-0.5514423847198486,-0.15393351018428802
1763701033272855600,1.07685546875,-0.0022906772792339325,-0.640626072883606,-0.16126367449760437
1763701033282441500,1.08644140625,-0.024281177669763565,-0.7212579250335693,-0.14660334587097168
1763701033292028200,1.096028076171875,-0.04504998400807381,-0.6931589245796204,-0.11483928561210632
1763701033301615600,1.10561572265625,-0.05726693198084831,-0.6198572516441345,-0.0781884491443634
1763701033311202300,1.115202392578125,-0.08780929446220398,-0.5196782946586609,-0.03542914241552353
1763701033320788200,1.124788330078125,-0.14156384766101837,-0.39506545662879944,0.03665083646774292
1763701033330375000,1.134375,-0.18310146033763885,-0.2533488869667053,0.13560809195041656
1763701033339962400,1.14396240234375,-0.19654010236263275,-0.0859767496585846,0.2345653474330902
1763701033349549000,1.153549072265625,-0.17454960942268372,0.09972081333398819,0.30786702036857605
1763701033359135000,1.163135009765625,-0.1391204595565796,0.8402203917503357,0.3530697226524353
1763701033368721700,1.1727216796875,-0.03771981969475746,1.8957644701004028,0.4850127100944519
1763701033378309000,1.18230908203125,-0.07070557028055191,1.4816100597381592,0.4446968138217926
1763701033387895800,1.191895751953125,-0.05115845799446106,1.2226108312606812,0.4092676639556885
1763701033397481700,1.201481689453125,-0.024281177669763565,1.0051491260528564,0.3127537965774536
1763701033407068400,1.211068359375,-0.10735640674829483,0.7754706144332886,0.21379654109477997
1763701033416656000,1.22065576171875,-0.20509196817874908,0.5896202921867371,0.0916270911693573
1763701033426242600,1.23024267578125,-0.2967190444469452,0.4381301999092102,-0.043981000781059265
1763701033435828500,1.239828369140625,-0.39445462822914124,0.3342861533164978,-0.17470231652259827
1763701033445415200,1.249415283203125,-0.49952033162117004,0.28786176443099976,-0.29442837834358215
1763701033455002600,1.259002685546875,-0.5654918551445007,0.3049654960632324,-0.39949411153793335
1763701033464589300,1.26858935546875,-0.50196373462677,0.4149180054664612,-0.4556920528411865
1763701033474175000,1.278175048828125,-0.41766682267189026,0.5444176197052002,-0.45080527663230896
1763701033483762000,1.287761962890625,-0.3455868363380432,0.6948387622833252,-0.3970507085323334
1763701033493349400,1.297349365234375,-0.26128992438316345,0.8451071977615356,-0.30664533376693726
1763701033502935800,1.306935791015625,-0.16966283321380615,0.9684983491897583,-0.19180603325366974
1763701033512521700,1.316521728515625,-0.08292251825332642,1.0613471269607544,-0.06963659077882767
1763701033522108400,1.3261083984375,-0.01572931744158268,1.1822948455810547,0.03665083646774292
1763701033531695900,1.33569580078125,0.03436015918850899,1.3679924011230469,0.14049486815929413
1763701033541282600,1.345282470703125,0.04169032722711563,1.4864968061447144,0.23945212364196777
1763701033550868500,1.354868408203125,-0.005955760832875967,1.5659070014953613,0.3139754831790924
1763701033560455200,1.364455078125,-0.12201674282550812,1.7002933025360107,0.35917818546295166
1763701033570042600,1.374042724609375,-0.3590254783630371,1.7552696466445923,0.37139514088630676
1763701033579629300,1.38362939453125,-0.6510104537010193,1.6905198097229004,0.34940463304519653
1763701033589215200,1.39321533203125,-0.8648070096969604,1.4131951332092285,0.2980934679508209
1763701033598802000,1.402802001953125,-0.8733588457107544,0.8561024069786072,0.2089097648859024
1763701033608389400,1.412389404296875,-0.8330429196357727,0.4747810363769531,0.05864133685827255
1763701033617976000,1.42197607421875,-0.7927270531654358,0.2951919436454773,-0.1453816443681717
1763701033627562000,1.43156201171875,-0.6632274389266968,0.23288552463054657,-0.3115321099758148
1763701033637148700,1.441148681640625,-0.48608171939849854,0.27686652541160583,-0.41171106696128845
1763701033646736100,1.450736083984375,-0.32848310470581055,0.4161396920681,-0.46668729186058044
1763701033656322800,1.46032275390625,-0.2808370292186737,0.5554128885269165,-0.46546560525894165
1763701033665908700,1.46990869140625,-0.0584886260330677,0.9391776323318481,-0.3811686933040619
1763701033675495400,1.479495361328125,0.07589777559041977,1.161526083946228,-0.3005368411540985
1763701033685083000,1.489082763671875,0.08078455179929733,1.3533320426940918,-0.18936264514923096
1763701033694669600,1.498669677734375,0.028251685202121735,1.5512466430664062,-0.10628741979598999
1763701033704255500,1.50825537109375,-0.08047912269830704,1.7259489297866821,-0.07696675509214401
1763701033713842200,1.51784228515625,-0.32603973150253296,1.885990858078003,-0.10262233763933182
1763701033723429600,1.5274296875,-0.5642701387405396,1.9275285005569458,-0.12583453953266144
1763701033733016300,1.537016357421875,-0.5874823331832886,1.9030946493148804,-0.23334364593029022
1763701033742602000,1.54660205078125,-0.44332239031791687,1.8566702604293823,-0.38849884271621704
1763701033752189000,1.55618896484375,-0.26006820797920227,1.8701088428497314,-0.5790832042694092
1763701033761776400,1.5657763671875,-0.1513374149799347,1.8249062299728394,-0.6621584296226501
1763701033771363000,1.575363037109375,-0.1244601309299469,1.5463597774505615,-0.652384877204895
1763701033780948700,1.58494873046875,0.024586603045463562,1.2055070400238037,-0.5937435626983643
1763701033790535700,1.59453564453125,0.16630317270755768,0.952616274356842,-0.5082249045372009
1763701033800123100,1.604123046875,0.2835858464241028,0.8756495714187622,-0.46546560525894165
1763701033809709600,1.61370947265625,0.3605526089668274,0.9440644383430481,-0.4618005156517029
1763701033819295500,1.62329541015625,0.3336753249168396,1.035691499710083,-0.4618005156517029
1763701033828882200,1.632882080078125,0.21028417348861694,1.176186442375183,-0.4446968138217926
1763701033838469600,1.6424697265625,0.05390727147459984,1.3985347747802734,-0.40071579813957214
1763701033848056300,1.652056396484375,-0.08047912269830704,1.6343218088150024,-0.3249707520008087
1763701033857642200,1.661642333984375,-0.20020519196987152,1.7137320041656494,-0.24678228795528412
1763701033867229000,1.67122900390625,-0.323596328496933,1.6783028841018677,-0.2113531529903412
1763701033876816400,1.68081640625,-0.4408790171146393,1.6392086744308472,-0.2504473626613617
1763701033886403000,1.690403076171875,-0.5361711978912354,1.696628212928772,-0.3823903799057007
1763701033895989000,1.699989013671875,-0.5410579442977905,1.885990858078003,-0.4727957844734192
1763701033905575700,1.70957568359375,-0.4396573007106781,2.3587865829467773,-0.517998456954956
1763701033915163100,1.7191630859375,-0.30160582065582275,2.6984176635742188,-0.4056025743484497
1763701033924749800,1.728749755859375,-0.15378080308437347,2.5701398849487305,-0.09651386737823486
1763701033934335700,1.738335693359375,-0.06704048812389374,2.0521414279937744,0.2504473626613617
1763701033943922400,1.74792236328125,-0.026724567636847496,1.8835475444793701,0.5338805317878723
1763701033953510000,1.757510009765625,-0.09513945877552032,2.1535420417785645,0.605960488319397
1763701033963096600,1.7670966796875,-0.19409671425819397,2.568918228149414,0.5497625470161438
1763701033972682500,1.7766826171875,-0.2515163719654083,2.534710645675659,0.49356457591056824
1763701033982269200,1.786269287109375,-0.26495498418807983,2.0008301734924316,0.4691306948661804
1763701033991856600,1.795856689453125,-0.23563432693481445,1.3985347747802734,0.4337015450000763
1763701034001443300,1.805443359375,-0.20997874438762665,1.083337664604187,0.3665083646774292
1763701034011029000,1.815029052734375,-0.16721943020820618,0.9196305274963379,0.3127537965774536
1763701034020616000,1.824615966796875,-0.12690351903438568,0.8108997344970703,0.2761029601097107
1763701034030203400,1.834203369140625,-0.08047912269830704,0.7754706144332886,0.21257483959197998
1763701034039790000,1.8437900390625,-0.009620844386518002,0.7571451663970947,0.19180603325366974
1763701034049375700,1.853375732421875,-0.004734066314995289,0.7962393760681152,0.21379654109477997
1763701034058962700,1.862962646484375,-0.07681404054164886,0.8732061386108398,0.258999228477478
1763701034068550100,1.872550048828125,-0.21364383399486542,0.9367342591285706,0.32008397579193115
1763701034078136800,1.88213671875,-0.3504736125469208,1.036913275718689,0.3836120665073395
1763701034087722500,1.891722412109375,-0.44820916652679443,1.1896250247955322,0.4446968138217926
1763701034097309400,1.901309326171875,-0.48730340600013733,1.382652759552002,0.5021164417266846
1763701034106896600,1.910896728515625,-0.4286620616912842,1.6074445247650146,0.577861487865448
1763701034116483300,1.9204833984375,-0.2918322682380676,1.9201983213424683,0.7232431769371033
1763701034126069200,1.9300693359375,-0.1501157134771347,2.3538999557495117,0.9358180165290833
1763701034135656000,1.939656005859375,-0.043828289955854416,2.7753844261169434,1.1874871253967285
1763701034145243400,1.949243408203125,0.00992626789957285,2.9806292057037354,1.456259846687317
1763701034154830000,1.958830078125,-0.004734066314995289,2.8328042030334473,1.6553961038589478
1763701034164416000,1.968416015625,-0.020616095513105392,2.3929941654205322,1.7005987167358398
1763701034174002700,1.978002685546875,-0.0035123717971146107,2.0008301734924316,1.6114150285720825
1763701034183590100,1.987590087890625,0.00015271181473508477,1.8835475444793701,1.477028727531433
1763701034193176800,1.9971767578125,-0.06948387622833252,1.8676655292510986,1.336533784866333
1763701034202762800,2.0067626953125,-0.1525591015815735,1.8395664691925049,1.243685007095337
1763701034212349400,2.016349365234375,-0.22219568490982056,1.5976710319519043,1.2082558870315552
1763701034221937000,2.02593701171875,-0.30282753705978394,1.1346487998962402,1.249793529510498
1763701034231523600,2.035523681640625,-0.372464120388031,0.5541911721229553,1.3353121280670166
1763701034241109500,2.045109619140625,-0.3749074935913086,0.08628217875957489,1.3792930841445923
1763701034250696200,2.0546962890625,-0.42133188247680664,-0.19837264716625214,1.3658545017242432
1763701034260283600,2.06428369140625,-0.5789304971694946,-0.36574479937553406,1.3292036056518555
1763701034269870300,2.073870361328125,-0.6742226481437683,-0.5758762359619141,1.2522368431091309
1763701034279456300,2.083456298828125,-0.6375718116760254,-0.6723901033401489,1.165496587753296
1763701034289043000,2.09304296875,-0.5239542126655579,-0.663838267326355,1.1264023780822754
1763701034298630400,2.10263037109375,-0.4030064642429352,-0.7530219554901123,1.110520362854004
1763701034308217000,2.112217041015625,-0.3749074935913086,-0.8544226288795471,1.1202938556671143
1763701034317802800,2.121802734375,-0.3968980014324188,-0.8580876588821411,1.1422843933105469
1763701034327389700,2.1313896484375,-0.43354883790016174,-0.682163655757904,1.1300674676895142
1763701034336977200,2.14097705078125,-0.44820916652679443,-0.1385096162557602,1.0677610635757446
1763701034346563800,2.150563720703125,-0.3504736125469208,0.45523393154144287,0.9834640622138977
1763701034356149500,2.1601494140625,-0.21242213249206543,0.7290462255477905,0.893058717250824
1763701034365736400,2.169736328125,-0.03894151374697685,0.8683193922042847,0.8307522535324097
1763701034375324000,2.179323974609375,0.19562382996082306,0.9843803644180298,0.7794411182403564
1763701034384910600,2.18891064453125,0.43018919229507446,1.1114366054534912,0.7317950129508972
1763701034394496300,2.198496337890625,0.6048914790153503,1.1737430095672607,0.675597071647644
1763701034404083000,2.2080830078125,0.6830799579620361,1.1957335472106934,0.6181774139404297
1763701034413670400,2.21767041015625,0.6342121958732605,1.1712995767593384,0.5473191738128662
1763701034423257000,2.227257080078125,0.4790569543838501,1.178629755973816,0.4618005156517029
1763701034432843000,2.236843017578125,0.20539739727973938,1.3252331018447876,0.36162158846855164
1763701034442429700,2.2464296875,-0.17454960942268372,1.5207042694091797,0.22967857122421265
1763701034452017200,2.25601708984375,-0.5178457498550415,1.5891191959381104,0.10140064358711243
1763701034461603800,2.265603759765625,-0.7646280527114868,1.5182608366012573,-0.05741964280605316
1763701034471189800,2.275189697265625,-0.9405520558357239,1.405864953994751,-0.24433889985084534
1763701034480776400,2.2847763671875,-1.0480611324310303,1.3850961923599243,-0.4043808877468109
1763701034490364000,2.294364013671875,-1.076160192489624,1.3997565507888794,-0.4947862923145294
1763701034499950600,2.30395068359375,-0.996749997138977,1.382652759552002,-0.5167768001556396
1763701034509536500,2.31353662109375,-0.8428165316581726,1.3728792667388916,-0.48989951610565186
1763701034519123200,2.323123291015625,-0.6192464232444763,1.176186442375183,-0.4324798583984375
1763701034528710700,2.332710693359375,-0.31504446268081665,0.7033905982971191,-0.3689517378807068
1763701034538297300,2.34229736328125,0.02214321307837963,0.058183200657367706,-0.3518480062484741
1763701034547883300,2.35188330078125,0.3312319219112396,-0.557550847530365,-0.4300364851951599
1763701034557470000,2.361469970703125,0.5926745533943176,-1.0144646167755127,-0.5815265774726868
1763701034567057400,2.371057373046875,0.7869240045547485,-1.4249539375305176,-0.7769976854324341
1763701034576644000,2.38064404296875,0.9298622608184814,-1.7865755558013916,-0.9810206890106201
1763701034586230000,2.39022998046875,1.0263761281967163,-2.0895557403564453,-1.1545013189315796
1763701034595816700,2.399816650390625,1.0593618154525757,-2.3387813568115234,-1.2876659631729126
1763701034605404200,2.409404052734375,1.0508099794387817,-2.5391392707824707,-1.3854016065597534
1763701034614990800,2.418990966796875,1.0227110385894775,-2.6979596614837646,-1.479472041130066
1763701034624576800,2.42857666015625,0.9713998436927795,-2.7724831104278564,-1.5833160877227783
1763701034634163500,2.43816357421875,0.8968765139579773,-2.7150633335113525,-1.7005987167358398
1763701034643751000,2.4477509765625,0.7820371985435486,-2.5098187923431396,-1.8044427633285522
1763701034653337600,2.457337646484375,0.6012263894081116,-2.210503578186035,-1.855754017829895
1763701034662923300,2.46692333984375,0.3605526089668274,-1.857433795928955,-1.8142163753509521
1763701034672510200,2.47651025390625,0.09300149232149124,-1.5263545513153076,-1.6700564622879028
1763701034682097700,2.48609765625,-0.1769929975271225,-1.2563600540161133,-1.461146593093872
1763701034691684400,2.495684326171875,-0.3736858069896698,-1.056002140045166,-1.2314680814743042
1763701034701270000,2.50527001953125,-0.4103366434574127,-0.9607100486755371,-1.007897973060608
1763701034710856700,2.514856689453125,-0.31137940287590027,-0.9057337641716003,-0.8063184022903442
1763701034720444200,2.524444091796875,-0.1244601309299469,-0.7554653286933899,-0.6267293095588684
1763701034730031000,2.534031005859375,0.03558185324072838,-0.5636593103408813,-0.4569137394428253
1763701034739616800,2.54361669921875,0.11010521650314331,-0.3865135908126831,-0.29320669174194336
1763701034749203500,2.553203369140625,0.11621369421482086,-0.19348587095737457,-0.14049486815929413
1763701034758791000,2.562791015625,0.07467607408761978,-0.02489202655851841,0.010995250195264816
1763701034777963500,2.581963623046875,-0.11346487700939178,0.08383878320455551,0.28343313932418823
1763701034787550200,2.59155029296875,-0.21120044589042664,0.07040014863014221,0.390942245721817
1763701034797137700,2.6011376953125,-0.3199312388896942,-0.06276455521583557,0.48012593388557434
1763701034806724400,2.610724365234375,-0.41766682267189026,-0.2545706033706665,0.5326588153839111
1763701034816310300,2.620310302734375,-0.4286620616912842,-0.5428904891014099,0.517998456954956
1763701034825897000,2.62989697265625,-0.2808370292186737,-0.9387195110321045,0.4056025743484497
1763701034835484400,2.639484375,0.03558185324072838,-1.3027844429016113,0.1820324808359146
1763701034845071000,2.649071044921875,0.4130854606628418,-1.5874392986297607,-0.14171656966209412
1763701034854657000,2.658656982421875,0.7172874212265015,-1.867207407951355,-0.4984513521194458
1763701034864243700,2.66824365234375,0.8980981707572937,-2.2642581462860107,-0.7965448498725891
1763701034873831200,2.6778310546875,0.9823951125144958,-2.704068183898926,-0.9773555994033813
1763701034883417900,2.68741796875,1.0031639337539673,-3.0901236534118652,-1.0066763162612915
1763701034893003800,2.697003662109375,0.9982771277427673,-3.3246889114379883,-0.8722898960113525
1763701034902590500,2.706590576171875,0.9616262912750244,-3.378443479537964,-0.6340594291687012
1763701034912178000,2.716177978515625,0.8699992299079895,-3.3161370754241943,-0.38727715611457825
1763701034921764600,2.7257646484375,0.7221741676330566,-3.1084489822387695,-0.19180603325366974
1763701034931350500,2.7353505859375,0.5254813432693481,-2.760266065597534,-0.0647498071193695
1763701034940937200,2.744937255859375,0.2701472043991089,-2.3815407752990723,0.01954711228609085
1763701034950524700,2.754524658203125,-0.0328330397605896,-2.0040371417999268,0.08674030750989914
1763701034960111400,2.764111328125,-0.3712424337863922,-1.6436372995376587,0.12827792763710022
1763701034969697300,2.773697265625,-0.7389724850654602,-1.3284400701522827,0.11606097966432571
1763701034979284000,2.783283935546875,-1.0871554613113403,-1.042563557624817,0.0525328628718853
1763701034988871400,2.792871337890625,-1.384027123451233,-0.7835643291473389,-0.014660334214568138
1763701034998458000,2.8024580078125,-1.644248127937317,-0.5318952798843384,-0.043981000781059265
1763701035008043800,2.812043701171875,-1.8837002515792847,-0.2545706033706665,-0.025655584409832954
1763701035017630700,2.821630615234375,-2.114600419998169,0.02886253222823143,0.01954711228609085
1763701035027218200,2.83121826171875,-2.3393921852111816,0.28541839122772217,0.043981000781059265
1763701035036804900,2.840804931640625,-2.5434153079986572,0.5395308136940002,0.008551862090826035
1763701035046390500,2.850390625,-2.7156741619110107,0.7950177192687988,-0.10140064358711243
1763701035055977200,2.859977294921875,-2.8427305221557617,1.021031141281128,-0.3176405727863312
1763701035065564700,2.869564697265625,-2.8915982246398926,1.2360494136810303,-0.6487197875976562
1763701035075151600,2.879151611328125,-2.8329567909240723,1.405864953994751,-1.0640959739685059
1763701035084737300,2.8887373046875,-2.626490592956543,1.493826985359192,-1.4806936979293823
1763701035094324000,2.898323974609375,-2.2441000938415527,1.4913835525512695,-1.7653485536575317
1763701035103911400,2.907911376953125,-1.7334318161010742,1.4034215211868286,-1.8300983905792236
1763701035113498000,2.917498046875,-1.1848909854888916,1.2555965185165405,-1.673721432685852
1763701035132670700,2.936670654296875,-0.2967190444469452,1.045465111732483,-1.1215155124664307
1763701035142258200,2.946258056640625,-0.060932014137506485,1.073564052581787,-0.9407047629356384
1763701035151844900,2.955844970703125,-0.0584886260330677,1.0234745740890503,-0.893058717250824
1763701035161430800,2.9654306640625,-0.3761292099952698,0.8255600929260254,-0.9382613897323608
1763701035171017500,2.975017578125,-0.9429954290390015,0.42102646827697754,-0.9797990322113037
1763701035180605000,2.98460498046875,-1.5513993501663208,-0.19592925906181335,-0.8906152844429016
1763701035190191600,2.994191650390625,-2.106048583984375,-0.8861866593360901,-0.6108472347259521
1763701035199777500,3.003777587890625,-2.649702787399292,-1.5068074464797974,-0.18936264514923096
1763701035209364200,3.0133642578125,-3.1029512882232666,-1.8158961534500122,0.20646637678146362
1763701035218951700,3.02295166015625,-3.2556631565093994,-1.6143165826797485,0.41171106696128845
1763701035228538400,3.032538330078125,-3.0357582569122314,-0.8935168385505676,0.3921639323234558
1763701035238124300,3.042124267578125,-2.6045000553131104,0.12659808993339539,0.26755109429359436
1763701035247711000,3.0517109375,-2.1304824352264404,1.0613471269607544,0.11972606182098389
1763701035257298400,3.06129833984375,-1.6796772480010986,1.735722541809082,-0.02076880633831024
1763701035266885000,3.070885009765625,-1.232537031173706,2.1168911457061768,-0.1185043677687645
1763701035276471000,3.080470947265625,-0.7744016051292419,2.2048532962799072,-0.15149012207984924
1763701035286057700,3.0900576171875,-0.349251925945282,2.0814621448516846,-0.1172826737165451
1763701035295645200,3.099645263671875,-0.027946261689066887,1.8151326179504395,-0.03665083646774292
1763701035305232000,3.10923193359375,0.27625566720962524,1.443737506866455,0.06963659077882767
1763701035314817800,3.11881787109375,0.5816792845726013,0.9782719016075134,0.15271180868148804
1763701035324404500,3.128404541015625,0.8895463347434998,0.4784461259841919,0.16492876410484314
1763701035333992000,3.137991943359375,1.1937482357025146,0.009315420873463154,0.1050657257437706
1763701035343578600,3.14757861328125,1.4687821865081787,-0.3730749487876892,0.030542362481355667
1763701035353164500,3.15716455078125,1.7131211757659912,-0.6394043564796448,-0.03298575058579445
1763701035362751200,3.166751220703125,1.928139328956604,-0.8348754644393921,-0.11117420345544815
1763701035372338700,3.176338623046875,2.0820729732513428,-0.9521581530570984,-0.21257483959197998
1763701035381925400,3.18592529296875,2.1504876613616943,-0.9888089895248413,-0.3249707520008087
1763701035391511000,3.195510986328125,2.149266004562378,-0.9338327646255493,-0.416597843170166
1763701035401098000,3.205097900390625,2.1040632724761963,-0.7835643291473389,-0.4471401870250702
1763701035410685400,3.214685546875,1.9916675090789795,-0.5734328627586365,-0.35795649886131287
1763701035420272000,3.224272216796875,1.7900879383087158,-0.32787227630615234,-0.13438639044761658
1763701035429857800,3.23385791015625,1.521315097808838,-0.0981936976313591,0.17592400312423706
1763701035439444700,3.24344482421875,1.2195565700531006,0.09972081333398819,0.44958359003067017
1763701035449032200,3.2530322265625,0.9506310224533081,0.2927485406398773,0.582748293876648
1763701035458618600,3.26261865234375,0.779593825340271,0.29030516743659973,0.5387672781944275
1763701035468204500,3.27220458984375,0.8211314082145691,-0.0456608310341835,0.3274141252040863
1763701035477791200,3.281791259765625,1.163205862045288,-0.552664041519165,-0.008551862090826035
1763701035487378700,3.291378662109375,1.7754275798797607,-0.9594883322715759,-0.365286648273468
1763701035496965400,3.30096533203125,2.4888970851898193,-1.5068074464797974,-0.6022953987121582
1763701035506551300,3.31055126953125,3.1828196048736572,-2.1506404876708984,-0.5668662786483765
1763701035516138000,3.320137939453125,3.798553705215454,-2.4291868209838867,-0.2870981991291046
1763701035525725400,3.329725341796875,4.223703384399414,-2.1628575325012207,0.10873081535100937
1763701035535312100,3.33931201171875,4.442386627197266,-1.6277552843093872,0.5363239049911499
1763701035544898000,3.34889794921875,4.442386627197266,-1.0132428407669067,0.9345963001251221
1763701035554484700,3.358484619140625,4.202934741973877,-0.5160132050514221,1.2314680814743042
1763701035564072200,3.368072265625,3.8058838844299316,-0.2154763638973236,1.430604338645935
1763701035573659000,3.377658935546875,3.4173851013183594,-0.004123218823224306,1.6101933717727661
1763701035583244800,3.387244873046875,3.124178409576416,0.19989976286888123,1.8349851369857788
1763701035592831500,3.39683154296875,2.893278121948242,0.38193225860595703,2.0817675590515137
1763701035602419000,3.4064189453125,2.7026937007904053,0.6140542030334473,2.2870121002197266
1763701035612005600,3.416005615234375,2.568307399749756,0.9978190064430237,2.395742893218994
1763701035621591600,3.425591552734375,2.427812337875366,1.4388507604599,2.395742893218994
1763701035631178200,3.43517822265625,2.189582109451294,1.7601563930511475,2.2833471298217773
1763701035640765700,3.444765625,1.8426207304000854,1.910424828529358,2.089097738265991
1763701035650352400,3.454352294921875,1.4235795736312866,1.868887186050415,1.8423153162002563
1763701035659938300,3.463938232421875,0.9628480076789856,1.650203824043274,1.5430002212524414
1763701035669525000,3.47352490234375,0.5254813432693481,1.3789876699447632,1.2131426334381104
1763701035679112400,3.483112548828125,0.16874656081199646,1.1322053670883179,0.9223793745040894
1763701035688699100,3.49269921875,-0.0975828468799591,0.8768712282180786,0.726908266544342
1763701035698285000,3.50228515625,-0.27472856640815735,0.645818293094635,0.605960488319397
1763701035707871700,3.511871826171875,-0.3859027624130249,0.4527905285358429,0.5094466209411621
1763701035717459200,3.521459228515625,-0.46042612195014954,0.252432644367218,0.3970507085323334
1763701035727046000,3.5310458984375,-0.5557183027267456,-0.13362284004688263,0.2626643180847168
1763701035736631800,3.5406318359375,-0.7218687534332275,-0.7762341499328613,0.12583453953266144
1763701035746218500,3.550218505859375,-1.0175188779830933,-1.4383926391601562,-0.01588202826678753
1763701035755806000,3.559805908203125,-1.4145694971084595,-1.9380656480789185,-0.21379654109477997
1763701035765392600,3.569392578125,-1.7932947874069214,-2.2874703407287598,-0.5021164417266846
1763701035774978600,3.578978515625,-1.9533368349075317,-2.377875566482544,-0.8612946271896362
1763701035784565200,3.588565185546875,-1.7908514738082886,-2.0748953819274902,-1.1923738718032837
1763701035794152700,3.598152587890625,-1.4194563627243042,-1.4603830575942993,-1.3414205312728882
1763701035803739400,3.607739501953125,-1.0407310724258423,-0.7615737915039062,-1.180156946182251
1763701035813325000,3.617324951171875,-0.7511894106864929,-0.11529742181301117,-0.726908266544342
1763701035822912000,3.626912109375,-0.5740436911582947,0.3990359604358673,-0.11483928561210632
1763701035832499500,3.63649951171875,-0.50685054063797,0.7632536292076111,0.4679090082645416
1763701035842086100,3.646086181640625,-0.525175929069519,0.9452861547470093,0.8869501948356628
1763701035851671800,3.655671875,-0.5899257659912109,0.9123004078865051,1.115407109260559
1763701035861258800,3.6652587890625,-0.6632274389266968,0.7107207775115967,1.170383334159851
1763701035870846200,3.67484619140625,-0.7365291118621826,0.37826716899871826,1.0909732580184937
1763701035880432600,3.6844326171875,-0.7780666947364807,0.005650337319821119,0.9236010313034058
1763701035890018600,3.6940185546875,-0.765849769115448,-0.3327590525150299,0.6988092660903931
1763701035899605200,3.703605224609375,-0.7169819474220276,-0.5929799675941467,0.4324798583984375
1763701035909192700,3.713192626953125,-0.6717792749404907,-0.7322531342506409,0.11972606182098389
1763701035918779600,3.722779541015625,-0.6424586176872253,-0.7627955079078674,-0.23334364593029022
1763701035928365300,3.732365234375,-0.6192464232444763,-0.7163711190223694,-0.6132906675338745
1763701035937952000,3.741951904296875,-0.6106945276260376,-0.6320741772651672,-0.9969027042388916
1763701035947539500,3.75153955078125,-0.6290199756622314,-0.48302745819091797,-1.345085620880127
1763701035957126100,3.761126220703125,-0.6436802744865417,-0.18737739324569702,-1.619966983795166
1763701035966712000,3.770712158203125,-0.6326850652694702,0.19623468816280365,-1.753131628036499
1763701035976298800,3.780298828125,-0.5899257659912109,0.5749599933624268,-1.7238109111785889
1763701035985886200,3.78988623046875,-0.5117372870445251,0.9013051390647888,-1.5882028341293335
1763701035995473000,3.799472900390625,-0.4237752854824066,1.0332481861114502,-1.447708010673523
1763701036005058800,3.809058837890625,-0.31382277607917786,0.8854231238365173,-1.3805148601531982
1763701036014645500,3.8186455078125,-0.10491301864385605,0.5896202921867371,-1.382958173751831
1763701036024233000,3.82823291015625,0.20784078538417816,0.22311195731163025,-1.3890666961669922
1763701036033819600,3.837819580078125,0.543806791305542,-0.34253260493278503,-1.3426423072814941
1763701036043405600,3.847405517578125,0.8883246183395386,-1.0498937368392944,-1.1911520957946777
1763701036052992300,3.8569921875,1.230551838874817,-1.608208179473877,-0.9602518677711487
1763701036062579700,3.866579833984375,1.5176500082015991,-1.7902406454086304,-0.7036960124969482
1763701036072166400,3.87616650390625,1.693574070930481,-1.6289769411087036,-0.45447036623954773
1763701036081752300,3.88575244140625,1.748550295829773,-1.284459114074707,-0.23334364593029022
1763701036091339000,3.895339111328125,1.7143428325653076,-0.8690829277038574,-0.04886778071522713
1763701036100926500,3.904926513671875,1.6312675476074219,-0.4647020399570465,0.1050657257437706
1763701036110513200,3.91451318359375,1.511541485786438,-0.18493400514125824,0.22479179501533508
1763701036120099000,3.92409912109375,1.3478344678878784,-0.06398624926805496,0.32130566239356995
1763701036129685800,3.933685791015625,1.1473238468170166,-0.10063708573579788,0.4349232614040375
1763701036139273200,3.943273193359375,0.9469659924507141,-0.270452618598938,0.5937435626983643
1763701036148860000,3.95285986328125,0.7576032876968384,-0.48424917459487915,0.7745543122291565
1763701036158445800,3.96244580078125,0.5682406425476074,-0.6552863717079163,0.9309312105178833
1763701036168032500,3.972032470703125,0.3703261613845825,-0.733474850654602,1.031110167503357
1763701036177620000,3.981619873046875,0.1638597846031189,-0.7151494026184082,1.0555440187454224
1763701036187206700,3.99120654296875,-0.059710320085287094,-0.6198572516441345,1.0005677938461304
1763701036196792600,4.00079248046875,-0.30038413405418396,-0.47325390577316284,0.8820634484291077
1763701036206379300,4.010379150390625,-0.5361711978912354,-0.3229855000972748,0.7220214605331421
1763701036215966700,4.019966796875,-0.7548545002937317,-0.2020377367734909,0.5338805317878723
1763701036225553400,4.029553466796875,-0.9393303990364075,-0.11285403370857239,0.3396310806274414
1763701036235139300,4.039139404296875,-1.090820550918579,-0.08964183181524277,0.15026842057704926
1763701036244726000,4.04872607421875,-1.264301061630249,-0.1250709742307663,-0.025655584409832954
1763701036254313500,4.0583134765625,-1.4426685571670532,-0.23502348363399506,-0.16859383881092072
1763701036263900200,4.067900146484375,-1.5807199478149414,-0.43171629309654236,-0.32130566239356995
1763701036273486000,4.077486083984375,-1.6430264711380005,-0.5465555787086487,-0.5436540842056274
1763701036283072800,4.08707275390625,-1.6479132175445557,-0.5196782946586609,-0.8551861643791199
1763701036292660200,4.09666015625,-1.6283661127090454,-0.4671454429626465,-1.2326897382736206
1763701036302247000,4.106246826171875,-1.5587295293807983,-0.48791423439979553,-1.6248537302017212
1763701036311832800,4.115832763671875,-1.3730319738388062,-0.5905365943908691,-1.9815884828567505
1763701036321419500,4.12541943359375,-1.0346225500106812,-0.7921161651611328,-2.267617702484131
1763701036331007000,4.135007080078125,-0.6058077812194824,-1.0083560943603516,-2.44109845161438
1763701036340593700,4.14459375,-0.1892099380493164,-1.1879452466964722,-2.4374332427978516
1763701036350179300,4.154179443359375,0.12232216447591782,-1.4298406839370728,-2.2554008960723877
1763701036359766300,4.163766357421875,0.2420482337474823,-1.686396598815918,-1.9400508403778076
1763701036369353700,4.173353759765625,0.08200624585151672,-1.8843110799789429,-1.5882028341293335
1763701036378940400,4.1829404296875,-0.4127800464630127,-2.001593828201294,-1.3243168592453003
1763701036388526000,4.192526123046875,-1.2496408224105835,-1.9954853057861328,-1.243685007095337
1763701036398113000,4.202113037109375,-2.296633005142212,-1.8378866910934448,-1.40617036819458
1763701036407700500,4.211700439453125,-3.288648843765259,-1.497033953666687,-1.809329628944397
1763701036417287200,4.221287109375,-3.9825713634490967,-0.9472714066505432,-2.351914644241333
1763701036426872800,4.230872802734375,-4.2710442543029785,-0.2570139765739441,-2.8711347579956055
1763701036436459500,4.24045947265625,-4.18919038772583,0.38193225860595703,-3.1924405097961426
1763701036446047200,4.250047119140625,-3.8518500328063965,0.7876875400543213,-3.19977068901062
1763701036455634000,4.259634033203125,-3.352177143096924,0.929404079914093,-2.8906819820404053
1763701036465219600,4.269219482421875,-2.740108013153076,0.8915315866470337,-2.3653533458709717
1763701036474806500,4.278806640625,-2.09138822555542,0.721716046333313,-1.7665703296661377
1763701036484393700,4.288393798828125,-1.5061966180801392,0.4283566474914551,-1.2534586191177368
1763701036493980400,4.29798046875,-1.0663865804672241,0.06551336497068405,-0.9407047629356384
1763701036503566300,4.30756640625,-0.7878402471542358,-0.26312246918678284,-0.8661814332008362
1763701036513153000,4.317153076171875,-0.6216897964477539,-0.49646610021591187,-0.9810206890106201
1763701036522740500,4.326740478515625,-0.4934118688106537,-0.6418477296829224,-1.2216944694519043
1763701036532327200,4.3363271484375,-0.35413870215415955,-0.7371399402618408,-1.5332266092300415
1763701036541913000,4.3459130859375,-0.17332790791988373,-0.8128849864006042,-1.8679709434509277
1763701036551499800,4.355499755859375,0.06245913356542587,-0.8690829277038574,-2.1747689247131348
1763701036561087200,4.365087158203125,0.3312319219112396,-0.9008470177650452,-2.403225898742676
1763701036570674000,4.374673828125,0.59023118019104,-0.9069554805755615,-2.5095131397247314
1763701036580259800,4.384259765625,0.7918107509613037,-0.8898517489433289,-2.472862482070923
1763701036589846500,4.393846435546875,0.8638907074928284,-0.8507575392723083,-2.328702449798584
1763701036599434000,4.40343408203125,0.7710419297218323,-0.7737907767295837,-2.1368963718414307
1763701036609020700,4.413020751953125,0.5376983284950256,-0.635739266872406,-1.957154631614685
1763701036618606600,4.422606689453125,0.22127941250801086,-0.4622586667537689,-1.817881464958191
1763701036628193300,4.432193359375,-0.1244601309299469,-0.3071034550666809,-1.6957119703292847
1763701036637780700,4.44178076171875,-0.46897798776626587,-0.2838912606239319,-1.5674340724945068
1763701036647367400,4.451367431640625,-0.7572978734970093,-0.4537068009376526,-1.462368369102478
1763701036656953300,4.460953369140625,-0.9161182045936584,-0.7847860455513,-1.4135005474090576
1763701036666540000,4.4705400390625,-0.8855758309364319,-1.2307045459747314,-1.4098354578018188
1763701036676127500,4.48012744140625,-0.6546755433082581,-1.7035002708435059,-1.4269392490386963
1763701036685714200,4.489714111328125,-0.33947837352752686,-2.1933999061584473,-1.41594398021698
1763701036695300000,4.499300048828125,-0.062153708189725876,-2.7065114974975586,-1.3011046648025513
1763701036704886800,4.50888671875,0.10766182839870453,-3.2416136264801025,-1.0702043771743774
1763701036714474200,4.51847412109375,0.17974179983139038,-3.7095227241516113,-0.7415685653686523
1763701036724061000,4.52806103515625,0.2176143378019333,-3.974630355834961,-0.36284327507019043
1763701036733646800,4.537646728515625,0.2652604281902313,-3.9477531909942627,0.02076880633831024
1763701036743233500,4.547233642578125,0.3080197274684906,-3.6667633056640625,0.37383851408958435
1763701036752821000,4.556821044921875,0.3312319219112396,-3.164646863937378,0.6975875496864319
1763701036762407700,4.56640771484375,0.362995982170105,-2.487828254699707,1.0103414058685303
1763701036771993600,4.57599365234375,0.41675055027008057,-1.708387017250061,1.3243168592453003
1763701036781580300,4.585580322265625,0.5230379700660706,-0.9081771373748779,1.6407357454299927
1763701036791167700,4.595167724609375,0.7075138092041016,-0.15927842259407043,1.9522678852081299
1763701036800754400,4.60475439453125,0.968956470489502,0.4772244095802307,2.250361204147339
1763701036810340400,4.61434033203125,1.2855280637741089,0.9709417223930359,2.50813889503479
1763701036819927000,4.623927001953125,1.6239374876022339,1.2898039817810059,2.698723077774048
1763701036829514500,4.633514404296875,1.9733420610427856,1.4425158500671387,2.797680377960205
1763701036839101200,4.64310107421875,2.331298589706421,1.462062954902649,2.7927937507629395
1763701036848687000,4.65268701171875,2.6745946407318115,1.3765443563461304,2.696279764175415
1763701036858273800,4.662273681640625,3.0007872581481934,1.2067288160324097,2.531351089477539
1763701036867861200,4.671861328125,3.3074324131011963,0.9636115431785583,2.332214832305908
1763701036877448000,4.681447998046875,3.578648567199707,0.6875085830688477,2.131856918334961
1763701036887033900,4.691033935546875,3.7973320484161377,0.4014793634414673,1.9498244524002075
1763701036896620500,4.70062060546875,3.9622607231140137,0.13514995574951172,1.7751221656799316
1763701036906208000,4.7102080078125,4.088095188140869,-0.05543438717722893,1.5918679237365723
1763701036915794700,4.719794677734375,4.178500652313232,-0.17027367651462555,1.3963968753814697
1763701036925380600,4.729380615234375,4.206599712371826,-0.2838912606239319,1.1948171854019165
1763701036934967300,4.73896728515625,4.10764217376709,-0.4769189953804016,0.9920159578323364
1763701036944554800,4.7485546875,3.841312885284424,-0.7408050298690796,0.8050966858863831
1763701036954141400,4.758141357421875,3.4259369373321533,-1.057223916053772,0.6658235192298889
1763701036963727400,4.767727294921875,2.889612913131714,-1.3821946382522583,0.5974085927009583
1763701036973314000,4.77731396484375,2.2836525440216064,-1.644858956336975,0.6035171151161194
1763701036982901500,4.786901611328125,1.660588264465332,-1.7926839590072632,0.6621584296226501
1763701036992488200,4.79648828125,1.0508099794387817,-1.8220046758651733,0.7501204609870911
1763701037002074000,4.80607421875,0.47539186477661133,-1.7352643013000488,0.8295305967330933
1763701037011660800,4.815660888671875,-0.04016320779919624,-1.5446799993515015,0.8612946271896362
1763701037021248300,4.825248291015625,-0.4653128981590271,-1.283237338066101,0.818535327911377
1763701037030835000,4.8348349609375,-0.7792884111404419,-0.9863656163215637,0.6963658928871155
1763701037040420900,4.8444208984375,-0.9613208770751953,-0.6894938349723816,0.4947862923145294
1763701037050007600,4.854007568359375,-1.0004150867462158,-0.40483900904655457,0.21868331730365753
1763701037059595000,4.863594970703125,-0.9051229357719421,-0.17027367651462555,-0.12216944992542267
1763701037069181700,4.873181640625,-0.7120952010154724,-0.0261137206107378,-0.5277720093727112
1763701037078767600,4.882767578125,-0.43354883790016174,0.014202198944985867,-0.9920159578323364
1763701037088354300,4.892354248046875,-0.08780929446220398,-0.05543438717722893,-1.502684235572815
1763701037097941800,4.901941650390625,0.2811424434185028,-0.24724042415618896,-2.03412127494812
1763701037107528400,4.911528564453125,0.6354338526725769,-0.5612159371376038,-2.5473856925964355
1763701037117114400,4.9211142578125,0.9469659924507141,-0.9814788103103638,-3.007964611053467
1763701037126701000,4.930701171875,1.2171131372451782,-1.4579397439956665,-3.387911558151245
1763701037136288500,4.94028857421875,1.4443483352661133,-1.9209619760513306,-3.6701231002807617
1763701037145875200,4.949875244140625,1.6239374876022339,-2.352220058441162,-3.8484904766082764
1763701037155460900,4.9594609375,1.7546586990356445,-2.724836826324463,-3.931565761566162
1763701037165047800,4.9690478515625,1.835290551185608,-3.0351474285125732,-3.9437825679779053
1763701037174635300,4.97863525390625,1.8694980144500732,-3.2672693729400635,-3.896136522293091
1763701037184222000,4.988221923828125,1.8707196712493896,-3.386995315551758,-3.8032877445220947
1763701037193808000,4.997807861328125,1.8304038047790527,-3.3479011058807373,-3.6774532794952393
1763701037203394600,5.00739453125,1.7338899374008179,-3.1866374015808105,-3.52351975440979
1763701037212982000,5.01698193359375,1.5799564123153687,-2.9459636211395264,-3.343930721282959
1763701037222568700,5.026568603515625,1.3734900951385498,-2.6539785861968994,-3.147237777709961
1763701037232154400,5.036154296875,1.1375503540039062,-2.3302295207977295,-2.9578752517700195
1763701037241741300,5.0457412109375,0.9017632603645325,-1.9796032905578613,-2.8039417266845703
1763701037251328800,5.055328857421875,0.6745280623435974,-1.6460806131362915,-2.702540874481201
1763701037260915500,5.06491552734375,0.47417017817497253,-1.371199369430542,-2.6463429927825928
1763701037270501000,5.074501220703125,0.32634514570236206,-1.1696197986602783,-2.612135648727417
1763701037280088000,5.084088134765625,0.23960483074188232,-1.047450304031372,-2.5767064094543457
1763701037289675500,5.093675537109375,0.20539739727973938,-1.024238109588623,-2.5388338565826416
1763701037299262200,5.10326220703125,0.2041756957769394,-1.0828794240951538,-2.5070698261260986
1763701037308847900,5.112847900390625,0.23838314414024353,-1.1891669034957886,-2.4863009452819824
1763701037318434600,5.1224345703125,0.3104631304740906,-1.3125580549240112,-2.4753057956695557
1763701037328022300,5.132022216796875,0.4106420576572418,-1.409071922302246,-2.4606454372406006
1763701037337609000,5.14160888671875,0.515707790851593,-1.487260341644287,-2.417886257171631
1763701037347194600,5.151194580078125,0.5865660905838013,-1.569113850593567,-2.3189289569854736
1763701037356781600,5.160781494140625,0.6048914790153503,-1.6375287771224976,-2.152778387069702
1763701037366369000,5.170369140625,0.5706840753555298,-1.6558542251586914,-1.927833914756775
1763701037375955700,5.179955810546875,0.47294849157333374,-1.6020996570587158,-1.6676130294799805
1763701037385541400,5.189541259765625,0.305576354265213,-1.5251328945159912,-1.3866232633590698
1763701037395128000,5.199128173828125,0.10277505218982697,-1.4530528783798218,-1.0946383476257324
1763701037404715800,5.2087158203125,-0.07070557028055191,-1.3956332206726074,-0.7953231334686279
1763701037414302500,5.218302490234375,-0.15622419118881226,-1.356539011001587,-0.497229665517807
1763701037423888100,5.22788818359375,-0.12079504877328873,-1.330883502960205,-0.21623992919921875
1763701037433475000,5.23747509765625,0.04046862944960594,-1.3492088317871094,0.026877280324697495
1763701037443062300,5.247062255859375,0.3239017724990845,-1.4005200862884521,0.2113531529903412
1763701037452649200,5.256649169921875,0.7087355256080627,-1.4787085056304932,0.33352261781692505
1763701037462235000,5.26623486328125,1.1607625484466553,-1.5874392986297607,0.41171106696128845
1763701037471821800,5.27582177734375,1.645927906036377,-1.6986135244369507,0.4727957844734192
1763701037481409300,5.2854091796875,2.1370491981506348,-1.7902406454086304,0.5485408306121826
1763701037490995700,5.29499560546875,2.606179714202881,-1.867207407951355,0.6511631608009338
1763701037500581600,5.30458154296875,3.0362162590026855,-1.9087449312210083,0.7843278646469116
1763701037510168300,5.314168212890625,3.4063897132873535,-1.9111883640289307,0.9333745837211609
1763701037519756000,5.323756103515625,3.7008180618286133,-1.8879761695861816,1.0750911235809326
1763701037529342700,5.3333427734375,3.9182796478271484,-1.8501036167144775,1.1813786029815674
1763701037538928400,5.342928466796875,4.067326545715332,-1.8158961534500122,1.2290246486663818
1763701037548515300,5.352515380859375,4.163840293884277,-1.804900884628296,1.1826002597808838
1763701037558102500,5.3621025390625,4.222481727600098,-1.8268914222717285,1.0286667346954346
1763701037567689200,5.371689208984375,4.26401948928833,-1.8830894231796265,0.7965448498725891
1763701037577275100,5.381275146484375,4.2970051765441895,-1.9808249473571777,0.5522059202194214
1763701037586861800,5.39086181640625,4.315330505371094,-2.1188764572143555,0.35917818546295166
1763701037596449500,5.400449462890625,4.305556774139404,-2.2923569679260254,0.2480039894580841
1763701037606036000,5.410035888671875,4.255467414855957,-2.4695026874542236,0.2089097648859024
1763701037615622000,5.419621826171875,4.147958278656006,-2.633209705352783,0.21257483959197998
1763701037625208600,5.42920849609375,3.968369245529175,-2.7895867824554443,0.2357870489358902
1763701037634796000,5.438796142578125,3.7069265842437744,-2.9227514266967773,0.25533416867256165
1763701037644383000,5.448383056640625,3.3746256828308105,-3.0070483684539795,0.25411245226860046
1763701037653968600,5.45796875,2.9959003925323486,-3.0388123989105225,0.2345653474330902
1763701037663555300,5.467555419921875,2.606179714202881,-3.0021615028381348,0.2235700935125351
1763701037673143000,5.47714306640625,2.2408931255340576,-2.887322187423706,0.24189551174640656
1763701037682729500,5.4867294921875,1.9220309257507324,-2.699181318283081,0.3054236173629761
1763701037692315400,5.4963154296875,1.654479742050171,-2.4633941650390625,0.4178195297718048
1763701037701902000,5.505902099609375,1.4467917680740356,-2.1824045181274414,0.5644228458404541
1763701037711489500,5.515489501953125,1.3075186014175415,-1.867207407951355,0.7293516397476196
1763701037721076200,5.525076171875,1.2317734956741333,-1.5312414169311523,0.9064973592758179
1763701037730662100,5.534662109375,1.220778226852417,-1.1855018138885498,1.0983033180236816
1763701037740248800,5.544248779296875,1.2781978845596313,-0.8226585388183594,1.3194301128387451
1763701037749836300,5.553836181640625,1.3979239463806152,-0.42927291989326477,1.5833160877227783
1763701037759423000,5.563423095703125,1.5652960538864136,-0.031000498682260513,1.8887397050857544
1763701037769009000,5.5730087890625,1.7534370422363281,0.34039464592933655,2.2149322032928467
1763701037778595600,5.582595703125,1.9366912841796875,0.6629219651222229,2.525242567062378
1763701037788183000,5.59218310546875,2.094289779663086,0.9562813639640808,2.776911735534668
1763701037797769700,5.601769775390625,2.2079074382781982,1.2152806520462036,2.9381752014160156
1763701037807355600,5.611355712890625,2.2543318271636963,1.4131951332092285,2.9894864559173584
1763701037816942300,5.6209423828125,2.2225677967071533,1.531699538230896,2.9320669174194336
1763701037826529800,5.63052978515625,2.111393451690674,1.53047776222229,2.7756898403167725
1763701037836116700,5.64011669921875,1.9342478513717651,1.397313117980957,2.5411245822906494
1763701037845702400,5.649702392578125,1.70701265335083,1.155417561531067,2.2491395473480225
1763701037855289000,5.6592890625,1.4529001712799072,0.8389987349510193,1.9095085859298706
1763701037864876500,5.66887646484375,1.206117868423462,0.51998370885849,1.5210096836090088
1763701037874463200,5.678463134765625,0.9909469485282898,0.2585411071777344,1.0897514820098877
1763701037884049200,5.688049072265625,0.8150229454040527,0.08017370104789734,0.6389462351799011
1763701037893635800,5.6976357421875,0.6879667043685913,-0.028557108715176582,0.20280128717422485
1763701037903223300,5.707223388671875,0.6109999418258667,-0.09697200357913971,-0.18569757044315338
1763701037912810000,5.71681005859375,0.5719057321548462,-0.14217470586299896,-0.49234288930892944
1763701037922396000,5.72639599609375,0.5584670901298523,-0.17149536311626434,-0.6878139972686768
1763701037931982600,5.735982666015625,0.5621321797370911,-0.2020377367734909,-0.763559103012085
1763701037941570000,5.745570068359375,0.5535803437232971,-0.2655658423900604,-0.735460102558136
1763701037951156700,5.75515673828125,0.5328115224838257,-0.35474956035614014,-0.6487197875976562
1763701037960742700,5.76474267578125,0.5059342384338379,-0.4634803533554077,-0.5607577562332153
1763701037970329300,5.774329345703125,0.4631749391555786,-0.5844281315803528,-0.5192201733589172
1763701037979916800,5.783916748046875,0.39476004242897034,-0.7127060294151306,-0.5375455617904663
1763701037989503500,5.79350341796875,0.3239017724990845,-0.8373188972473145,-0.6108472347259521
1763701037999089400,5.80308935546875,0.2848075330257416,-0.9252808690071106,-0.7281299233436584
1763701038008676000,5.812676025390625,0.279920756816864,-0.9790354371070862,-0.8845068216323853
1763701038018263600,5.822263671875,0.30068957805633545,-0.9998042583465576,-1.0836430788040161
1763701038027850200,5.831850341796875,0.33856210112571716,-1.001025915145874,-1.3292036056518555
1763701038037436200,5.841436279296875,0.3874298632144928,-0.9851438999176025,-1.6224102973937988
1763701038047022800,5.85102294921875,0.4411844313144684,-0.9643751382827759,-1.9595980644226074
1763701038056610300,5.8606103515625,0.5047125220298767,-0.9472714066505432,-2.3299241065979004
1763701038066197000,5.870197021484375,0.5682406425476074,-0.9558232426643372,-2.7062060832977295
1763701038075783000,5.879782958984375,0.6244385838508606,-0.9900307059288025,-3.045837163925171
1763701038085369600,5.88936962890625,0.6586460471153259,-1.0437852144241333,-3.2999496459960938
1763701038094957000,5.89895703125,0.6635328531265259,-1.1341906785964966,-3.430670976638794
1763701038104543700,5.908543701171875,0.6415423154830933,-1.2416998147964478,-3.4294493198394775
1763701038114129700,5.918129638671875,0.6097782850265503,-1.3296617269515991,-3.3023929595947266
1763701038123716400,5.92771630859375,0.5816792845726013,-1.3724210262298584,-3.0714926719665527
1763701038133303800,5.9373037109375,0.5633538961410522,-1.371199369430542,-2.766069173812866
1763701038142890500,5.946890380859375,0.5511369109153748,-1.3211098909378052,-2.426438093185425
1763701038152476400,5.956476318359375,0.5474718809127808,-1.2197092771530151,-2.0927627086639404
1763701038162063000,5.96606298828125,0.5340332388877869,-1.088987946510315,-1.8019994497299194
1763701038171650600,5.975650634765625,0.49493899941444397,-0.9533798694610596,-1.5833160877227783
1763701038181237200,5.9852373046875,0.43018919229507446,-0.8153283596038818,-1.4428212642669678
1763701038190823200,5.9948232421875,0.3483356535434723,-0.6858287453651428,-1.3707412481307983
1763701038200409900,6.004409912109375,0.26281702518463135,-0.5856497883796692,-1.3414205312728882
1763701038209997300,6.013997314453125,0.1882936656475067,-0.5160132050514221,-1.3401988744735718
1763701038219584000,6.023583984375,0.12843063473701477,-0.4769189953804016,-1.346307396888733
1763701038229170000,6.033169921875,0.07834116369485855,-0.45981526374816895,-1.3499724864959717
1763701038238756600,6.042756591796875,0.03436015918850899,-0.45615020394325256,-1.3426423072814941
1763701038248344000,6.052343994140625,-0.012064233422279358,-0.47203221917152405,-1.3194301128387451
1763701038257931000,6.061930908203125,-0.059710320085287094,-0.5013529062271118,-1.2778924703598022
1763701038267516700,6.0715166015625,-0.10124793648719788,-0.5257867574691772,-1.2192511558532715
1763701038277103400,6.081103271484375,-0.13179029524326324,-0.5404471158981323,-1.1447277069091797
1763701038286690800,6.09069091796875,-0.14278554916381836,-0.5331169366836548,-1.0592091083526611
1763701038296277500,6.100277587890625,-0.13301199674606323,-0.4891359508037567,-0.9736905097961426
1763701038305863400,6.109863525390625,-0.10124793648719788,-0.40850409865379333,-0.893058717250824
1763701038315450000,6.1194501953125,-0.06459710001945496,-0.3071034550666809,-0.8234221339225769
1763701038325037800,6.129037841796875,-0.041384901851415634,-0.2044811248779297,-0.7562289237976074
1763701038334624300,6.138624267578125,-0.029167955741286278,-0.09208522737026215,-0.6865923404693604
1763701038344210200,6.148210205078125,-0.026724567636847496,0.03008422814309597,-0.6108472347259521
1763701038353796900,6.157796875,-0.029167955741286278,0.15591876208782196,-0.517998456954956
1763701038363384300,6.16738427734375,-0.03405473381280899,0.2670929729938507,-0.38605546951293945
1763701038372971300,6.17697119140625,-0.030389651656150818,0.3746020793914795,-0.1979145109653473
1763701038382557000,6.186556884765625,-0.01572931744158268,0.5077667832374573,0.043981000781059265
1763701038392144000,6.196143798828125,0.0050394898280501366,0.6629219651222229,0.3115321099758148
1763701038401731000,6.20573095703125,0.006261184345930815,0.7974610924720764,0.5534276366233826
1763701038411317800,6.21531787109375,-0.01817270554602146,0.9318475127220154,0.7061394453048706
1763701038420903700,6.224903564453125,-0.05115845799446106,1.0845593214035034,0.7183563709259033
1763701038430490400,6.234490478515625,-0.0841442123055458,1.21650230884552,0.5949652194976807
1763701038440078000,6.244078125,-0.13545538485050201,1.2592616081237793,0.34940463304519653
1763701038449664500,6.25366455078125,-0.2160872220993042,1.1627477407455444,-0.026877280324697495
1763701038459250400,6.26325048828125,-0.3064926266670227,0.8890882134437561,-0.5216635465621948
1763701038468837000,6.272837158203125,-0.3993414044380188,0.4955498278141022,-1.060430884361267
1763701038478424600,6.282424560546875,-0.5141806602478027,0.1253764033317566,-1.5149011611938477
1763701038488011500,6.292011474609375,-0.6791094541549683,-0.2667875289916992,-1.7286977767944336
1763701038497597200,6.30159716796875,-0.8990144729614258,-0.8067765235900879,-1.6077499389648438
1763701038507184000,6.31118408203125,-1.0859336853027344,-1.3431004285812378,-1.1422843933105469
1763701038516771300,6.320771240234375,-1.1470184326171875,-1.6265335083007812,-0.3897205591201782
1763701038526358000,6.33035791015625,-1.0676082372665405,-1.5972129106521606,0.5326588153839111
1763701038535944000,6.33994384765625,-0.8867974877357483,-1.3040062189102173,1.4672551155090332
1763701038545530600,6.349530517578125,-0.6620057225227356,-0.8348754644393921,2.2454745769500732
1763701038555118300,6.359118408203125,-0.42133188247680664,-0.2777827978134155,2.759807825088501
1763701038564704800,6.368704833984375,-0.1757712960243225,0.3196258246898651,2.9992599487304688
1763701038574290700,6.378290771484375,0.06001574173569679,0.8915315866470337,3.0126986503601074
1763701038583877400,6.38787744140625,0.27747735381126404,1.3447802066802979,2.8709821701049805
1763701038593464800,6.39746484375,0.48638713359832764,1.6538689136505127,2.6278648376464844
1763701038603051800,6.4070517578125,0.6855233311653137,1.8517835140228271,2.3212196826934814
1763701038612637400,6.416637451171875,0.8455653190612793,1.9165332317352295,1.9864752292633057
1763701038622224400,6.426224365234375,0.940857470035553,1.8395664691925049,1.641957402229309
1763701038631811800,6.435811767578125,0.9713998436927795,1.6685292720794678,1.3011046648025513
1763701038641398500,6.4453984375,0.9665130972862244,1.4583978652954102,0.9810206890106201
1763701038650984200,6.454984130859375,0.9713998436927795,1.2507097721099854,0.7281299233436584
1763701038660571100,6.464571044921875,1.0141592025756836,1.0943328142166138,0.5961869359016418
1763701038670158600,6.47415869140625,1.0911259651184082,0.9550597071647644,0.6132906675338745
1763701038679745300,6.483745361328125,1.2010784149169922,0.8377770185470581,0.758672297000885
1763701038689331000,6.4933310546875,1.331952452659607,0.7754706144332886,0.9834640622138977
1763701038698917600,6.502917724609375,1.4626737833023071,0.7950177192687988,1.2363548278808594
1763701038708505300,6.51250537109375,1.5530791282653809,0.8451071977615356,1.4660334587097168
1763701038718092000,6.522092041015625,1.5237585306167603,0.8438854813575745,1.6321839094161987
1763701038727677700,6.531677734375,1.308740258216858,0.8121214509010315,1.7054855823516846
1763701038737264600,6.5412646484375,0.9213103652000427,0.7950177192687988,1.660282850265503
1763701038746852000,6.55085205078125,0.411863774061203,0.8524373769760132,1.477028727531433
1763701038756438800,6.560438720703125,-0.14522893726825714,0.9880454540252686,1.2180293798446655
1763701038766024400,6.5700244140625,-0.6339067220687866,1.161526083946228,1.0103414058685303
1763701038785198800,6.58919873046875,-0.9478822350502014,1.7088452577590942,1.1044118404388428
1763701038794785500,6.59878564453125,-0.7267554998397827,1.9983868598937988,1.4403778314590454
1763701038804371200,6.60837109375,-0.3455868363380432,2.2659378051757812,1.864305853843689
1763701038813958100,6.617958251953125,0.10521844029426575,2.478512763977051,2.2552480697631836
1763701038823545600,6.627545654296875,0.5535803437232971,2.5970170497894287,2.5179123878479004
1763701038833132300,6.63713232421875,0.9579612016677856,2.638554811477661,2.603430986404419
1763701038842718000,6.646718017578125,1.308740258216858,2.6275594234466553,2.5179123878479004
1763701038852305000,6.656304931640625,1.60561203956604,2.575026512145996,2.3041157722473145
1763701038861892400,6.665892333984375,1.8572810888290405,2.4724042415618896,2.013352632522583
1763701038871479000,6.67547900390625,2.088181257247925,2.3380179405212402,1.6871601343154907
1763701038881065000,6.68506494140625,2.331298589706421,2.2121832370758057,1.3573026657104492
1763701038890651600,6.694651611328125,2.595184564590454,2.094900608062744,1.0640959739685059
1763701038900239000,6.704239013671875,2.8456318378448486,1.9458539485931396,0.8026533126831055
1763701038909825800,6.71382568359375,3.0508766174316406,1.7283923625946045,0.5338805317878723
1763701038919411700,6.72341162109375,3.144947052001953,1.4302988052368164,0.23090025782585144
1763701038928998400,6.732998291015625,3.0789756774902344,1.0259180068969727,-0.13927318155765533
1763701038938585900,6.7425859375,2.8016510009765625,0.5285356044769287,-0.582748293876648
1763701038948172500,6.752172607421875,2.3044211864471436,-0.0016798300202935934,-1.060430884361267
1763701038957758200,6.76175830078125,1.669140100479126,-0.4793623983860016,-1.5246747732162476
1763701038967345200,6.77134521484375,1.0092723369598389,-0.7505785822868347,-1.9034000635147095
1763701038976932600,6.7809326171875,0.39231663942337036,-0.7603521347045898,-2.1281919479370117
1763701038986519300,6.790519287109375,-0.14400723576545715,-0.5770979523658752,-2.161330223083496
1763701038996105200,6.800105224609375,-0.5239542126655579,-0.2655658423900604,-2.007244110107422
1763701039005692000,6.80969189453125,-0.705986738204956,0.11560284346342087,-1.6847167015075684
1763701039015279400,6.819279296875,-0.7096518278121948,0.42224815487861633,-1.2424633502960205
1763701039024866000,6.828865966796875,-0.585038959980011,0.4931064546108246,-0.7782194018363953
1763701039034452000,6.838451904296875,-0.4005630910396576,0.3306210935115814,-0.42637139558792114
1763701039044038700,6.84803857421875,-0.19654010236263275,0.07040014863014221,-0.2748812735080719
1763701039053626000,6.857626220703125,0.031916771084070206,-0.16783028841018677,-0.3042019307613373
1763701039063212800,6.867212890625,0.2835858464241028,-0.43049460649490356,-0.4190412163734436
1763701039072798700,6.876798828125,0.48638713359832764,-0.8312104344367981,-0.5925218462944031
1763701039082385400,6.886385498046875,0.5169295072555542,-1.4054068326950073,-0.809983491897583
1763701039091972900,6.895972900390625,0.30435463786125183,-2.1591923236846924,-1.022558331489563
1763701039101559600,6.9055595703125,-0.21120044589042664,-3.0363690853118896,-1.235133171081543
1763701039111145500,6.9151455078125,-0.9991934299468994,-3.821918487548828,-1.5393351316452026
1763701039120732200,6.924732177734375,-1.7994033098220825,-4.221412658691406,-1.9620413780212402
1763701039130319600,6.934319580078125,-2.314958333969116,-4.066257476806641,-2.4056692123413086
1763701039149492200,6.9534921875,-2.387038469314575,-2.352220058441162,-2.687880754470825
1763701039159079000,6.963078857421875,-2.184237003326416,-1.190388560295105,-2.311598777770996
1763701039168666400,6.972666259765625,-1.964332103729248,-0.07375980913639069,-1.6712781190872192
1763701039178253000,6.982253173828125,-1.8128420114517212,0.7937960028648376,-0.9797990322113037
1763701039187839000,6.9918388671875,-1.7908514738082886,1.3472236394882202,-0.4569137394428253
1763701039197425700,7.00142578125,-1.8873653411865234,1.618439793586731,-0.18691925704479218
1763701039207013000,7.01101318359375,-2.053515672683716,1.6050012111663818,-0.12094775587320328
1763701039216599800,7.020599853515625,-2.218444585800171,1.3521103858947754,-0.16004198789596558
1763701039226185700,7.030185791015625,-2.305184841156006,0.9660549163818359,-0.2235700935125351
1763701039235772400,7.0397724609375,-2.2831943035125732,0.5444176197052002,-0.2724378705024719
1763701039245359900,7.04935986328125,-2.181793689727783,0.1620272397994995,-0.2907632887363434
1763701039254946600,7.058946533203125,-2.0315253734588623,-0.15927842259407043,-0.284654825925827
1763701039264532500,7.068532470703125,-1.8543795347213745,-0.3987305462360382,-0.2773246467113495
1763701039274119200,7.078119140625,-1.6833423376083374,-0.534338653087616,-0.28343313932418823
1763701039283706600,7.08770654296875,-1.5489559173583984,-0.5770979523658752,-0.29565006494522095
1763701039293293300,7.097293212890625,-1.4524420499801636,-0.5270084738731384,-0.3017585575580597
1763701039302879200,7.106879150390625,-1.4011309146881104,-0.39384377002716064,-0.3029802441596985
1763701039312466000,7.1164658203125,-1.4047960042953491,-0.19470755755901337,-0.3151971995830536
1763701039322053400,7.126053466796875,-1.4878711700439453,0.06062658876180649,-0.37506023049354553
1763701039331640000,7.13564013671875,-1.6332528591156006,0.3465031087398529,-0.4862344264984131
1763701039341226000,7.14522607421875,-1.7468703985214233,0.6592568755149841,-0.601073682308197
1763701039350812700,7.154812744140625,-1.7297667264938354,0.9904888272285461,-0.6658235192298889
1763701039360400100,7.164400146484375,-1.5196353197097778,1.3301198482513428,-0.6572716236114502
1763701039369986800,7.17398681640625,-1.1140327453613281,1.5659070014953613,-0.5864133834838867
1763701039379572700,7.18357275390625,-0.5190674662590027,1.5353646278381348,-0.499673068523407
1763701039389159400,7.193159423828125,0.28602921962738037,1.2287192344665527,-0.42759308218955994
1763701039398747000,7.202746826171875,1.2024527788162231,0.6728482842445374,-0.3701734244823456
1763701039408333600,7.21233349609375,2.0026626586914062,0.09116895496845245,-0.31886225938796997
1763701039417919500,7.22191943359375,2.4351425170898438,-0.25212720036506653,-0.2993151545524597
1763701039427506200,7.231506103515625,2.322746753692627,-0.3449759781360626,-0.3054236173629761
1763701039437093600,7.24109375,1.757102131843567,-0.2557922899723053,-0.25411245226860046
1763701039446680300,7.250680419921875,1.0337063074111938,0.08261708915233612,-0.0525328628718853
1763701039456266200,7.260266357421875,0.435075968503952,0.5883986353874207,0.37139514088630676
1763701039465853000,7.26985302734375,0.15775130689144135,1.123653531074524,1.0335536003112793
1763701039475440400,7.2794404296875,0.2432699203491211,1.5475815534591675,1.7983343601226807
1763701039485027000,7.289027099609375,0.598783016204834,1.6917414665222168,2.4397239685058594
1763701039494613000,7.298613037109375,1.0691354274749756,1.572015404701233,2.791571855545044
1763701039504199700,7.30819970703125,1.5286452770233154,1.2446012496948242,2.8160059452056885
1763701039513787100,7.317787109375,1.9147007465362549,0.7913526296615601,2.552119731903076
1763701039523374000,7.3273740234375,2.2237894535064697,0.3318427801132202,2.08298921585083
1763701039532959700,7.336959716796875,2.4632415771484375,-0.05787777900695801,1.4977974891662598
1763701039542546400,7.34654638671875,2.6428306102752686,-0.3229855000972748,0.8955020904541016
1763701039552134000,7.3561337890625,2.7552266120910645,-0.48302745819091797,0.3762819170951843
1763701039561720800,7.365720947265625,2.802872657775879,-0.5770979523658752,0.004886778071522713
1763701039571306500,7.375306396484375,2.815089702606201,-0.5954233407974243,-0.2113531529903412
1763701039580893400,7.3848935546875,2.7930991649627686,-0.5661026835441589,-0.2993151545524597
1763701039590481000,7.39448095703125,2.7356793880462646,-0.4769189953804016,-0.29687178134918213
1763701039600067600,7.404067626953125,2.65871262550354,-0.2973299026489258,-0.2492256760597229
1763701039609653200,7.4136533203125,2.597627878189087,0.0032069480512291193,-0.19913621246814728
1763701039619240200,7.423240234375,2.574415683746338,0.3953709006309509,-0.1832541823387146
1763701039628827600,7.43282763671875,2.5438733100891113,0.8206732869148254,-0.20035789906978607
1763701039638414300,7.442414306640625,2.4546897411346436,1.2323843240737915,-0.23090025782585144
1763701039648000000,7.452,2.276322364807129,1.5878974199295044,-0.25289076566696167
1763701039657587000,7.4615869140625,2.0124363899230957,1.8505617380142212,-0.2748812735080719
1763701039667174400,7.47117431640625,1.6972391605377197,1.9996085166931152,-0.31886225938796997
1763701039676761000,7.480760986328125,1.3734900951385498,1.932415246963501,-0.4043808877468109
1763701039686346800,7.4903466796875,1.0666919946670532,1.5756804943084717,-0.5241069197654724
1763701039695933700,7.49993359375,0.8174663186073303,0.9868237376213074,-0.660936713218689
1763701039705521200,7.509521240234375,0.6562026739120483,0.35383328795433044,-0.7831062078475952
1763701039715107800,7.51910791015625,0.575570821762085,-0.22158484160900116,-0.836860716342926
1763701039724693800,7.52869384765625,0.5743491649627686,-0.733474850654602,-0.7879929542541504
1763701039734280400,7.538280517578125,0.6427640318870544,-1.0669974088668823,-0.6499415040016174
1763701039743868000,7.547867919921875,0.7209524512290955,-1.1512943506240845,-0.4581354558467865
1763701039753454600,7.55745458984375,0.7233958840370178,-1.0523371696472168,-0.24556060135364532
1763701039763040500,7.56704052734375,0.6158867478370667,-0.848314106464386,-0.04153761267662048
1763701039772627200,7.576627197265625,0.411863774061203,-0.6186355352401733,0.13438639044761658
1763701039782214700,7.586214599609375,0.14309096336364746,-0.4109475016593933,0.28221142292022705
1763701039791801300,7.59580126953125,-0.13056860864162445,-0.23991025984287262,0.3970507085323334
1763701039801387300,7.60538720703125,-0.3712424337863922,-0.11651911586523056,0.4679090082645416
1763701039810974000,7.614973876953125,-0.5703786015510559,-0.07864658534526825,0.49234288930892944
1763701039820561400,7.6245615234375,-0.7328640222549438,-0.164165198802948,0.4862344264984131
1763701039830148000,7.634148193359375,-0.8538117408752441,-0.33886751532554626,0.4605788290500641
1763701039839734000,7.643734130859375,-0.9466605186462402,-0.5795413255691528,0.42514967918395996
1763701039849320700,7.65332080078125,-1.0443960428237915,-0.8532009124755859,0.37506023049354553
1763701039858908200,7.662908203125,-1.154348611831665,-1.071884274482727,0.2980934679508209
1763701039868494800,7.672494873046875,-1.2581926584243774,-1.181836724281311,0.1966928243637085
1763701039878080800,7.682080810546875,-1.335159420967102,-1.2111574411392212,0.0659715011715889
1763701039887667500,7.69166748046875,-1.3852488994598389,-1.1989405155181885,-0.09651386737823486
1763701039897255000,7.7012548828125,-1.4023525714874268,-1.1537377834320068,-0.284654825925827
1763701039906841600,7.710841552734375,-1.3828054666519165,-1.071884274482727,-0.49356457591056824
1763701039916427500,7.720427490234375,-1.3559281826019287,-0.9863656163215637,-0.7159129977226257
1763701039926014200,7.73001416015625,-1.3388245105743408,-0.9240592122077942,-0.9333745837211609
1763701039935601700,7.7396015625,-1.3229424953460693,-0.8959602117538452,-1.1190721988677979
1763701039945188400,7.749188232421875,-1.297286868095398,-0.89107346534729,-1.2534586191177368
1763701039954774300,7.758774169921875,-1.2447539567947388,-0.8641961812973022,-1.3169866800308228
1763701039964361000,7.76836083984375,-1.1128109693527222,-0.7676823139190674,-1.298661231994629
1763701039973948400,7.777948486328125,-0.8134958148002625,-0.5954233407974243,-1.1826002597808838
1763701039983535000,7.78753515625,-0.30160582065582275,-0.40972578525543213,-0.971247136592865
1763701039993121000,7.79712109375,0.2848075330257416,-0.32909396290779114,-0.7085828185081482
1763701040002707700,7.806707763671875,0.69651859998703,-0.42927291989326477,-0.4446968138217926
1763701040012295200,7.816295166015625,0.728282630443573,-0.6760551929473877,-0.21746163070201874
1763701040021881900,7.8258818359375,0.4155288338661194,-0.9130639433860779,-0.05741964280605316
1763701040031467800,7.8354677734375,-0.041384901851415634,-0.9497147798538208,-0.0012216945178806782
1763701040041054500,7.845054443359375,-0.4799732267856598,-0.6833853721618652,-0.023212196305394173
1763701040050642000,7.854641845703125,-0.7939487099647522,-0.1776038408279419,-0.03176405653357506
1763701040060228600,7.864228515625,-0.918561577796936,0.46134239435195923,0.08551861345767975
1763701040069814500,7.873814453125,-0.812274158000946,1.10532808303833,0.4043808877468109
1763701040079401200,7.883401123046875,-0.5117372870445251,1.6208832263946533,0.8991671800613403
1763701040088988700,7.89298876953125,-0.12079504877328873,1.8725522756576538,1.453816533088684
1763701040098575400,7.902575439453125,0.2664821147918701,1.822462797164917,1.927833914756775
1763701040108161300,7.912161376953125,0.6012263894081116,1.586675763130188,2.1856114864349365
1763701040117748000,7.921748046875,0.8724426031112671,1.2751436233520508,2.1623992919921875
1763701040127335400,7.93133544921875,1.1045645475387573,0.9709417223930359,1.8850746154785156
1763701040136922000,7.940922119140625,1.2940798997879028,0.7021689414978027,1.4415994882583618
1763701040146508000,7.950508056640625,1.434574842453003,0.47233763337135315,0.9272661209106445
1763701040156094700,7.9600947265625,1.5286452770233154,0.3184041380882263,0.4202629029750824
1763701040165682200,7.96968212890625,1.590951681137085,0.23655059933662415,-0.03176405653357506
1763701040194441700,7.998441650390625,1.8071916103363037,0.21089501678943634,-0.9981244206428528
1763701040204029200,8.008029296875,1.8658329248428345,0.13392825424671173,-1.1911520957946777
1763701040213615900,8.017615966796875,1.9269176721572876,-0.017561858519911766,-1.3035480976104736
1763701040223201500,8.027201416015625,2.007549524307251,-0.2032594233751297,-1.3401988744735718
1763701040232788500,8.03678857421875,2.0894031524658203,-0.3718532621860504,-1.313321590423584
1763701040242376000,8.0463759765625,2.166369915008545,-0.4781406819820404,-1.2278029918670654
1763701040251962600,8.055962646484375,2.244558334350586,-0.4915793240070343,-1.0799779891967773
1763701040261548300,8.06554833984375,2.328855276107788,-0.3584146201610565,-0.8527427911758423
1763701040271135200,8.07513525390625,2.4021568298339844,-0.15439164638519287,-0.5167768001556396
1763701040280722700,8.08472265625,2.4779019355773926,0.09605573117733002,-0.11361759155988693
1763701040290309400,8.094309326171874,2.521883010864258,0.5175403356552124,0.16370706260204315
1763701040299895300,8.103895263671875,2.4583547115325928,1.0185878276824951,0.11239589750766754
1763701040309482000,8.11348193359375,2.303199529647827,1.3545538187026978,-0.32252734899520874
1763701040319069400,8.1230693359375,2.163926362991333,1.4241904020309448,-1.0091196298599243
1763701040328656100,8.13265625,2.126053810119629,1.184738278388977,-1.6541743278503418
1763701040338242000,8.142241943359375,2.23356294631958,0.8023478984832764,-2.015795946121216
1763701040347828700,8.151828857421876,2.521883010864258,0.6006155610084534,-2.0842108726501465
1763701040357416200,8.161416259765625,2.8969430923461914,0.649483323097229,-2.0646636486053467
1763701040367003000,8.1710029296875,3.213361978530884,0.7864658236503601,-2.1833207607269287
1763701040376588800,8.1805888671875,3.4442622661590576,0.8402203917503357,-2.499739646911621
1763701040386175500,8.190175537109376,3.625072956085205,0.7119424939155579,-2.9200026988983154
1763701040395763000,8.199762939453125,3.783893346786499,0.4540122151374817,-3.295062780380249
1763701040405349600,8.209349609375,3.908506155014038,0.12904147803783417,-3.521076202392578
1763701040414935600,8.218935546875,3.978142738342285,-0.21303297579288483,-3.584604501724243
1763701040424522200,8.228522216796875,4.006241798400879,-0.506239652633667,-3.544288396835327
1763701040434109700,8.238109619140625,4.020902156829834,-0.6943806409835815,-3.4636566638946533
1763701040443696400,8.2476962890625,4.038005828857422,-0.7689039707183838,-3.3683645725250244
1763701040453282300,8.2572822265625,4.035562515258789,-0.7737907767295837,-3.265742063522339
1763701040462869000,8.266868896484375,3.9500439167022705,-0.7591304183006287,-3.1521246433258057
1763701040472456400,8.27645654296875,3.786336660385132,-0.733474850654602,-3.026289939880371
1763701040482043100,8.286043212890625,3.549328088760376,-0.7041541934013367,-2.8686914443969727
1763701040491629000,8.295629150390624,3.2353525161743164,-0.6992673873901367,-2.6622250080108643
1763701040501215700,8.3052158203125,2.8566272258758545,-0.7395833134651184,-2.4117777347564697
1763701040510803200,8.31480322265625,2.45591139793396,-0.8067765235900879,-2.1245267391204834
1763701040520390000,8.324389892578125,2.0613040924072266,-0.8874083757400513,-1.8068861961364746
1763701040529975800,8.333975830078124,1.6825788021087646,-0.9998042583465576,-1.4660334587097168
1763701040539562500,8.3435625,1.3392826318740845,-1.1219737529754639,-1.1178505420684814
1763701040549150000,8.35314990234375,1.0434798002243042,-1.213600754737854,-0.786771297454834
1763701040558736600,8.362736572265625,0.8003626465797424,-1.2856807708740234,-0.49234288930892944
1763701040568322600,8.372322509765626,0.6073349118232727,-1.3455437421798706,-0.25289076566696167
1763701040577909200,8.3819091796875,0.4546230733394623,-1.3785295486450195,-0.07696675509214401
1763701040587496700,8.39149658203125,0.31534990668296814,-1.404185175895691,0.025655584409832954
1763701040597083400,8.40108349609375,0.17241163551807404,-1.4200671911239624,0.047646086663007736
1763701040606669300,8.41066943359375,0.01969982497394085,-1.4347275495529175,-0.023212196305394173
1763701040616256000,8.420256103515625,-0.14522893726825714,-1.4554963111877441,-0.18936264514923096
1763701040625843700,8.42984375,-0.31260108947753906,-1.4774868488311768,-0.4349232614040375
1763701040635430100,8.43943017578125,-0.4359922409057617,-1.514137625694275,-0.712247908115387
1763701040645016000,8.44901611328125,-0.49829864501953125,-1.5935478210449219,-0.9529217481613159
1763701040654602800,8.458602783203125,-0.5056288242340088,-1.7340426445007324,-1.1215155124664307
1763701040664190500,8.4681904296875,-0.46897798776626587,-1.9014147520065308,-1.2314680814743042
1763701040673777200,8.477777099609375,-0.40422818064689636,-2.0748953819274902,-1.3108782768249512
1763701040683362800,8.48736279296875,-0.3223746418952942,-2.2862486839294434,-1.4086138010025024
1763701040692949500,8.496949462890624,-0.22219568490982056,-2.4658377170562744,-1.5527737140655518
1763701040702537200,8.506537109375,-0.12934690713882446,-2.5611298084259033,-1.7323628664016724
1763701040712124000,8.5161240234375,-0.0719272643327713,-2.566016674041748,-1.9314990043640137
1763701040721709600,8.52570947265625,-0.07803573459386826,-2.47072434425354,-2.1356747150421143
1763701040731296500,8.535296630859374,-0.14645062386989594,-2.2728099822998047,-2.337254285812378
1763701040740884000,8.544884033203125,-0.2722851634025574,-1.9979286193847656,-2.540055513381958
1763701040750470700,8.554470703125,-0.43232715129852295,-1.6595193147659302,-2.742856979370117
1763701040760056600,8.564056640625,-0.5972558856010437,-1.2734638452529907,-2.91878080368042
1763701040769643300,8.573643310546874,-0.7279772162437439,-0.8898517489433289,-3.034841775894165
1763701040779230700,8.583230712890625,-0.8025006055831909,-0.5416688323020935,-3.0592758655548096
1763701040788817400,8.5928173828125,-0.8281561732292175,-0.26434415578842163,-2.9786438941955566
1763701040798403300,8.6024033203125,-0.8293778896331787,-0.08842013776302338,-2.821045398712158
1763701040807990000,8.611989990234376,-0.8257128000259399,-0.011453386396169662,-2.647564649581909
1763701040817577500,8.621577392578125,-0.8281561732292175,-0.04443913698196411,-2.5217301845550537
1763701040827164200,8.6311640625,-0.8354863524436951,-0.15805672109127045,-2.487522840499878
1763701040836750000,8.64075,-0.8415948152542114,-0.2985515892505646,-2.5559375286102295
1763701040846336800,8.650336669921876,-0.8428165316581726,-0.4512633979320526,-2.707427740097046
1763701040855924200,8.65992431640625,-0.8379297256469727,-0.6015318632125854,-2.910228967666626
1763701040865511000,8.669510986328126,-0.8159392476081848,-0.7310314774513245,-3.130134105682373
1763701040875096800,8.679096923828125,-0.7756233215332031,-0.8104416131973267,-3.343930721282959
1763701040884683500,8.68868359375,-0.7230904698371887,-0.8104416131973267,-3.5394017696380615
1763701040894271000,8.69827099609375,-0.6888830065727234,-0.770125687122345,-3.7104389667510986
1763701040903857700,8.707857666015625,-0.6901046633720398,-0.7029324769973755,-3.861929178237915
1763701040913443600,8.717443603515624,-0.7267554998397827,-0.5929799675941467,-3.9938721656799316
1763701040923030300,8.7270302734375,-0.797613799571991,-0.4268295168876648,-4.095272541046143
1763701040932617700,8.73661767578125,-0.9051229357719421,-0.2166980654001236,-4.150249004364014
1763701040942204400,8.746204345703125,-1.0492829084396362,0.04107947647571564,-4.149027347564697
1763701040951790300,8.755790283203124,-1.2129899263381958,0.29885703325271606,-4.078168869018555
1763701040961377000,8.765376953125,-1.3693668842315674,0.462564080953598,-3.923013925552368
1763701040970964500,8.774964599609374,-1.4732109308242798,0.5212054252624512,-3.679896593093872
1763701040980551200,8.78455126953125,-1.4842060804367065,0.4772244095802307,-3.3549258708953857
1763701040990137000,8.79413720703125,-1.3938007354736328,0.34161633253097534,-2.96764874458313
1763701040999723800,8.803723876953125,-1.2154333591461182,0.13026317954063416,-2.559602737426758
1763701041009311200,8.813311279296874,-0.9747595191001892,-0.10308047384023666,-2.16988205909729
1763701041018898000,8.82289794921875,-0.7035433053970337,-0.35108447074890137,-1.8203247785568237
1763701041028483800,8.83248388671875,-0.429883748292923,-0.6149705052375793,-1.5283398628234863
1763701041038070800,8.84207080078125,-0.18310146033763885,-0.8605310916900635,-1.3023263216018677
1763701041047658200,8.851658203125,0.016034740954637527,-1.0975397825241089,-1.1496145725250244
1763701041057244700,8.86124462890625,0.16752485930919647,-1.3137797117233276,-1.0628741979599
1763701041066830600,8.87083056640625,0.2835858464241028,-1.488482117652893,-1.035996913909912
1763701041076417500,8.88041748046875,0.37887802720069885,-1.621646761894226,-1.054322361946106
1763701041086005000,8.8900048828125,0.4815003573894501,-1.7108304500579834,-1.1019684076309204
1763701041095591700,8.899591796875,0.6146650314331055,-1.7621415853500366,-1.155722975730896
1763701041105177300,8.90917724609375,0.7918107509613037,-1.7939057350158691,-1.1850436925888062
1763701041114764300,8.918764404296875,1.0104941129684448,-1.8427734375,-1.1691616773605347
1763701041124351700,8.928351806640626,1.258650779724121,-1.9185185432434082,-1.1031901836395264
1763701041133938400,8.9379384765625,1.5225367546081543,-2.005258798599243,-1.0054545402526855
1763701041143524000,8.947524169921875,1.7790926694869995,-2.1017727851867676,-0.893058717250824
1763701041153111000,8.957111083984374,2.0148797035217285,-2.1995081901550293,-0.7892146706581116
1763701041162698500,8.966698486328125,2.2237894535064697,-2.2984654903411865,-0.707361102104187
1763701041172285200,8.97628515625,2.4143738746643066,-2.4059746265411377,-0.6462764143943787
1763701041181871000,8.98587109375,2.6135098934173584,-2.485384702682495,-0.6206207871437073
1763701041191457800,8.995457763671874,2.823641538619995,-2.508596897125244,-0.6560499668121338
1763701041201045200,9.005045166015625,3.048433303833008,-2.476832866668701,-0.7782194018363953
1763701041210632000,9.0146318359375,3.278111696243286,-2.4291868209838867,-0.9797990322113037
1763701041220217900,9.0242177734375,3.4735829830169678,-2.438960313796997,-1.225359559059143
1763701041229804500,9.033804443359376,3.6055259704589844,-2.531809091567993,-1.4721418619155884
1763701041239392000,9.04339208984375,3.6605021953582764,-2.7175066471099854,-1.6712781190872192
1763701041248978700,9.052978759765624,3.62995982170105,-3.0094916820526123,-1.7665703296661377
1763701041258564600,9.062564697265625,3.5212290287017822,-3.3662264347076416,-1.7177025079727173
1763701041268151300,9.0721513671875,3.363630533218384,-3.7510602474212646,-1.494132399559021
1763701041277738800,9.08173876953125,3.1803762912750244,-4.0992431640625,-1.1044118404388428
1763701041287325400,9.091325439453126,2.967801332473755,-4.3374738693237305,-0.6120689511299133
1763701041296911400,9.100911376953125,2.713688850402832,-4.3997802734375,-0.1172826737165451
1763701041306498000,9.110498046875,2.400935173034668,-4.310596466064453,0.31886225938796997
1763701041316085500,9.12008544921875,2.056417226791382,-4.107795238494873,0.6804838180541992
1763701041325672200,9.129672119140626,1.7290031909942627,-3.7938196659088135,0.9736905097961426
1763701041335258000,9.139258056640625,1.4614521265029907,-3.419981002807617,1.2216944694519043
1763701041344844800,9.1488447265625,1.2806413173675537,-3.031482219696045,1.4171656370162964
1763701041354432300,9.158432373046875,1.1974133253097534,-2.6564218997955322,1.5442218780517578
1763701041364019000,9.16801904296875,1.2097829580307007,-2.320456027984619,1.595533013343811
1763701041373604900,9.17760498046875,1.3111836910247803,-2.033357858657837,1.5747642517089844
1763701041383191600,9.187191650390625,1.4846643209457397,-1.7914623022079468,1.4953540563583374
1763701041392779300,9.196779296875,1.6972391605377197,-1.6228684186935425,1.382958173751831
1763701041402366000,9.206365966796875,1.9208091497421265,-1.542236566543579,1.2632321119308472
1763701041411951600,9.21595166015625,2.1443793773651123,-1.5483450889587402,1.1606098413467407
1763701041421538600,9.22553857421875,2.3642842769622803,-1.6143165826797485,1.0873081684112549
1763701041431126000,9.2351259765625,2.574415683746338,-1.6888399124145508,1.0433270931243896
1763701041440712700,9.244712646484375,2.745453119277954,-1.7535897493362427,1.0262234210968018
1763701041450298400,9.25429833984375,2.863957405090332,-1.7890188694000244,1.0408837795257568
1763701041459885300,9.26388525390625,2.9348156452178955,-1.779245376586914,1.0848647356033325
1763701041469472800,9.27347265625,2.9519193172454834,-1.7279342412948608,1.1496145725250244
1763701041479059500,9.2830595703125,2.9311506748199463,-1.5996562242507935,1.2424633502960205
1763701041488645400,9.292645263671876,2.893278121948242,-1.3638691902160645,1.3988401889801025
1763701041498232000,9.302232177734375,2.834636688232422,-1.0584455728530884,1.6309621334075928
1763701041507819500,9.311819580078126,2.77966046333313,-0.6748335361480713,1.9205037355422974
1763701041517406200,9.32140625,2.7466747760772705,-0.23258009552955627,2.2173755168914795
1763701041526992100,9.3309921875,2.7149107456207275,0.12659808993339539,2.473931312561035
1763701041536578800,9.340578857421875,2.652604103088379,0.29885703325271606,2.6388602256774902
1763701041546166300,9.350166259765626,2.536543130874634,0.30985227227211,2.6547422409057617
1763701041555753000,9.3597529296875,2.3471806049346924,0.18035265803337097,2.4959218502044678
1763701041565339000,9.3693388671875,2.0808510780334473,-0.04321744292974472,2.1770596504211426
1763701041574925600,9.378925537109374,1.7473286390304565,-0.3058817684650421,1.7274760007858276
1763701041584513000,9.388512939453125,1.3979239463806152,-0.4366030693054199,1.2168077230453491
1763701041594099700,9.398099609375,1.055696725845337,-0.47203221917152405,0.7195780873298645
1763701041603685600,9.407685546875,0.7014053463935852,-0.44637662172317505,0.2883199155330658
1763701041613272300,9.417272216796874,0.33978378772735596,-0.34131091833114624,-0.045202698558568954
1763701041622859800,9.42685986328125,0.00015271181473508477,-0.20936790108680725,-0.2516690790653229
1763701041632446500,9.436446533203124,-0.27839362621307373,-0.031000498682260513,-0.32252734899520874
1763701041642032400,9.446032470703125,-0.49829864501953125,0.14125843346118927,-0.2870981991291046
1763701041651619000,9.455619140625,-0.6839962005615234,0.2560977041721344,-0.2113531529903412
1763701041661206500,9.46520654296875,-0.8415948152542114,0.3342861533164978,-0.17225892841815948
1763701041670793200,9.474793212890624,-0.9943066239356995,0.37948885560035706,-0.23334364593029022
1763701041680379100,9.484379150390625,-1.148240089416504,0.3721587061882019,-0.4312581717967987
1763701041689965800,9.4939658203125,-1.2826265096664429,0.31229567527770996,-0.7281299233436584
1763701041699553300,9.50355322265625,-1.3974658250808716,0.2426590770483017,-1.0714260339736938
1763701041709140200,9.51314013671875,-1.5061966180801392,0.17913095653057098,-1.4086138010025024
1763701041718726000,9.522725830078125,-1.589271903038025,0.10216420143842697,-1.706707239151001
1763701041728312800,9.532312744140626,-1.6295877695083618,0.0007635590736754239,-1.9595980644226074
1763701041737900000,9.541900146484375,-1.6320312023162842,-0.12995775043964386,-2.1711039543151855
1763701041747487000,9.551487060546876,-1.5953803062438965,-0.2655658423900604,-2.360466480255127
1763701041757072600,9.56107275390625,-1.5281871557235718,-0.35352784395217896,-2.5449423789978027
1763701041766659600,9.57065966796875,-1.436560034751892,-0.3596363365650177,-2.739191770553589
1763701041776247000,9.5802470703125,-1.335159420967102,-0.319320410490036,-2.935884714126587
1763701041785833700,9.589833740234376,-1.2313153743743896,-0.2435753494501114,-3.1105868816375732
1763701041795419600,9.599419677734375,-1.1238062381744385,-0.16050012409687042,-3.2303130626678467
1763701041805006300,9.60900634765625,-1.0211838483810425,-0.09452861547470093,-3.265742063522339
1763701041814593800,9.61859375,-0.918561577796936,-0.02733541466295719,-3.2009923458099365
1763701041824180500,9.628180419921875,-0.8257128000259399,0.04718795046210289,-3.0397286415100098
1763701041833766400,9.637766357421874,-0.7548545002937317,0.13148486614227295,-2.8039417266845703
1763701041843353000,9.64735302734375,-0.7206470370292664,0.2157817929983139,-2.5156216621398926
1763701041852940500,9.6569404296875,-0.7206470370292664,0.30252209305763245,-2.216306686401367
1763701041862527200,9.66652734375,-0.7340856790542603,0.3990359604358673,-1.9449377059936523
1763701041872113200,9.676113037109374,-0.742637574672699,0.4772244095802307,-1.7286977767944336
1763701041881699800,9.685699951171875,-0.7316423058509827,0.5273138880729675,-1.5784293413162231
1763701041891287300,9.695287353515624,-0.6925480961799622,0.5358657836914062,-1.4868022203445435
1763701041900874000,9.7048740234375,-0.6106945276260376,0.4943281412124634,-1.4330476522445679
1763701041910460000,9.7144599609375,-0.4885250926017761,0.43202173709869385,-1.3988401889801025
1763701041920046600,9.724046630859375,-0.3480302393436432,0.36482852697372437,-1.3658545017242432
1763701041929634000,9.733634033203124,-0.2038702666759491,0.2573194205760956,-1.3157650232315063
1763701041939220700,9.743220703125,-0.059710320085287094,0.08994726091623306,-1.2607887983322144
1763701041948806700,9.752806640625,0.06490252166986465,-0.0847550556063652,-1.226581335067749
1763701041958393300,9.762393310546875,0.16141638159751892,-0.24479703605175018,-1.2216944694519043
1763701041967980800,9.771980712890626,0.2286095917224884,-0.376740038394928,-1.2339115142822266
1763701041977567500,9.7815673828125,0.2786990702152252,-0.4769189953804016,-1.243685007095337
1763701041987153400,9.7911533203125,0.31168481707572937,-0.5392253994941711,-1.2375766038894653
1763701041996740000,9.800739990234375,0.3324536085128784,-0.5722111463546753,-1.1972606182098389
1763701042006327600,9.81032763671875,0.3483356535434723,-0.580763041973114,-1.1178505420684814
1763701042015914500,9.81991455078125,0.3642176687717438,-0.5697677731513977,-1.0005677938461304
1763701042025500200,9.829500244140625,0.3874298632144928,-0.5428904891014099,-0.8588512539863586
1763701042035086800,9.8390869140625,0.4020902216434479,-0.49524441361427307,-0.6927008032798767
1763701042044674300,9.84867431640625,0.4020902216434479,-0.40972578525543213,-0.4984513521194458
1763701042054261200,9.85826123046875,0.40575528144836426,-0.2826695740222931,-0.2736595869064331
1763701042063847000,9.867846923828125,0.42041563987731934,-0.1104106456041336,-0.01832541823387146
1763701042073433900,9.877433837890624,0.4399627447128296,0.09239064902067184,0.2504473626613617
1763701042083021300,9.887021240234375,0.4546230733394623,0.28664007782936096,0.49112120270729065
1763701042092608000,9.89660791015625,0.4912739098072052,0.5016583204269409,0.6719319820404053
1763701042102194000,9.90619384765625,0.575570821762085,0.7559235095977783,0.7757760286331177
1763701042111780600,9.915780517578124,0.7148439884185791,0.985602080821991,0.786771297454834
1763701042121368000,9.9253681640625,0.9139801859855652,1.1334271430969238,0.7110261917114258
1763701042130954800,9.934954833984374,1.1925265789031982,1.1749646663665771,0.5522059202194214
1763701042140540700,9.944540771484375,1.521315097808838,1.0955545902252197,0.2858765125274658
1763701042150127400,9.95412744140625,1.786422848701477,0.8451071977615356,-0.15026842057704926
1763701042159714800,9.96371484375,1.9403563737869263,0.41858309507369995,-0.8234221339225769
1763701042169301500,9.973301513671874,1.9941108226776123,-0.3486410677433014,-1.767791986465454
1763701042178887400,9.982887451171875,1.9256960153579712,-1.5397932529449463,-2.8589179515838623
1763701042188474000,9.99247412109375,1.8133001327514648,-2.667417287826538,-3.84726881980896
1763701042198061600,10.0020615234375,1.6728051900863647,-3.7180745601654053,-4.426352024078369
1763701042207648300,10.011648193359376,1.401589035987854,-5.053539276123047,-4.346941947937012
1763701042217234200,10.021234130859375,1.0288194417953491,-6.258130073547363,-3.590712785720825
1763701042226820900,10.03082080078125,0.626882016658783,-6.942278861999512,-2.2981600761413574
1763701042236408300,10.040408203125,0.3067980408668518,-6.964269638061523,-0.7415685653686523
1763701042245995000,10.0499951171875,0.22127941250801086,-6.331431865692139,0.790436327457428
1763701042255581000,10.059580810546874,0.3568875193595886,-5.313760280609131,2.091541051864624
1763701042265167600,10.069167724609375,0.6012263894081116,-3.991734027862549,3.0163638591766357
1763701042274755000,10.078755126953125,0.8846595287322998,-2.4401819705963135,3.578495979309082
1763701042284341800,10.088341796875,1.172979474067688,-0.9802571535110474,3.9071316719055176
1763701042293927700,10.097927734375,1.471225619316101,0.18157434463500977,4.12214994430542
1763701042303514400,10.107514404296875,1.785201072692871,1.0393565893173218,4.261423110961914
1763701042313101800,10.117101806640624,2.0576388835906982,1.5646852254867554,4.320064544677734
1763701042322688800,10.126688720703125,2.23356294631958,1.7919204235076904,4.282192230224609
1763701042332274400,10.1362744140625,2.3129732608795166,1.8004722595214844,4.1465840339660645
1763701042341861000,10.145861083984375,2.314194917678833,1.6355435848236084,3.9498910903930664
1763701042351448800,10.15544873046875,2.248223304748535,1.3215680122375488,3.7422029972076416
1763701042361035500,10.165035400390625,2.143157720565796,0.8780929446220398,3.561392307281494
1763701042370621200,10.17462109375,2.0319833755493164,0.35138988494873047,3.4208972454071045
1763701042380208000,10.1842080078125,1.9208091497421265,-0.2020377367734909,3.3280484676361084
1763701042389795600,10.193795654296874,1.8059699535369873,-0.7212579250335693,3.277959108352661
1763701042399382300,10.20338232421875,1.6911306381225586,-1.1341906785964966,3.2449734210968018
1763701042408968200,10.21296826171875,1.5604093074798584,-1.3883031606674194,3.2058792114257812
1763701042418555000,10.222554931640625,1.386928677558899,-1.487260341644287,3.140976667404175
1763701042428142300,10.232142333984376,1.1534323692321777,-1.4652698040008545,3.057901382446289
1763701042437729000,10.24172900390625,0.8431219458580017,-1.3589824438095093,2.9955949783325195
1763701042447315000,10.25131494140625,0.43263256549835205,-1.3211098909378052,2.9894864559173584
1763701042456901600,10.260901611328125,-0.08047912269830704,-1.4225105047225952,3.0298023223876953
1763701042466489000,10.270489013671876,-0.6742226481437683,-1.5886609554290771,3.0737833976745605
1763701042476075800,10.28007568359375,-1.305838704109192,-1.6961700916290283,3.05423641204834
1763701042485661700,10.28966162109375,-1.8898086547851562,-1.5165810585021973,2.8893074989318848
1763701042495248400,10.299248291015624,-2.32351016998291,-0.9655967950820923,2.5215775966644287
1763701042504835800,10.3088359375,-2.562962293624878,-0.19226416945457458,1.9314990043640137
1763701042514422500,10.318422607421875,-2.628933906555176,0.6617003083229065,1.1740484237670898
1763701042524008400,10.328008544921875,-2.56540584564209,1.5060439109802246,0.3787252902984619
1763701042533595100,10.33759521484375,-2.3711564540863037,2.247612476348877,-0.30908870697021484
1763701042543182600,10.3471826171875,-2.027860164642334,2.7155215740203857,-0.8014315962791443
1763701042552769300,10.356769287109374,-1.5465126037597656,2.816922187805176,-1.0970816612243652
1763701042562355200,10.366355224609375,-0.9857547879219055,2.5884652137756348,-1.2412415742874146
1763701042571942000,10.37594189453125,-0.44820916652679443,2.0777969360351562,-1.2913310527801514
1763701042581529600,10.385529541015625,0.007482878863811493,1.3960914611816406,-1.2937744855880737
1763701042591116000,10.395115966796874,0.3434488773345947,0.6641436815261841,-1.2717839479446411
1763701042600702000,10.404701904296875,0.5523586273193359,-0.0004581354442052543,-1.2375766038894653
1763701042610288600,10.41428857421875,0.6586460471153259,-0.4891359508037567,-1.1984822750091553
1763701042619876400,10.42387646484375,0.7026270627975464,-0.7579087615013123,-1.1935955286026
1763701042629463000,10.433463134765624,0.6635328531265259,-0.867861270904541,-1.2534586191177368
1763701042639048700,10.443048583984375,0.5071559548377991,-0.8666395545005798,-1.3670761585235596
1763701042648635600,10.4526357421875,0.26281702518463135,-0.733474850654602,-1.5002409219741821
1763701042658223000,10.46222314453125,-0.03527642786502838,-0.5037962794303894,-1.6297404766082764
1763701042667809800,10.471809814453126,-0.3590254783630371,-0.2655658423900604,-1.7164808511734009
1763701042677395500,10.4813955078125,-0.6766660213470459,-0.031000498682260513,-1.7250326871871948
1763701042686982400,10.490982421875,-0.9600991606712341,0.18279604613780975,-1.6346272230148315
1763701042696569900,10.50056982421875,-1.2081031799316406,0.36482852697372437,-1.4525947570800781
1763701042706156500,10.510156494140626,-1.4047960042953491,0.5615213513374329,-1.2168077230453491
1763701042715742500,10.519742431640625,-1.5184135437011719,0.7791357040405273,-0.9407047629356384
1763701042725329200,10.5293291015625,-1.5208569765090942,0.9672766327857971,-0.6120689511299133
1763701042734916600,10.53891650390625,-1.3547065258026123,1.1541959047317505,-0.22967857122421265
1763701042744503300,10.54850341796875,-1.029735803604126,1.391204595565796,0.16004198789596558
1763701042754089200,10.558089111328124,-0.6510104537010193,1.5524682998657227,0.48012593388557434
1763701042763676000,10.567676025390625,-0.3370349705219269,1.6172181367874146,0.6120689511299133
1763701042773263400,10.577263427734374,-0.30160582065582275,1.6135530471801758,0.4703523814678192
1763701042782850000,10.58685009765625,-0.60825115442276,1.3227897882461548,0.13316470384597778
1763701042792436000,10.59643603515625,-1.03828763961792,0.6826218366622925,-0.24067382514476776
1763701042802022700,10.606022705078125,-1.3608149290084839,-0.1104106456041336,-0.5057815313339233
1763701042811610000,10.615610107421874,-1.4890929460525513,-0.8922951221466064,-0.5216635465621948
1763701042821196800,10.62519677734375,-1.4170129299163818,-1.5104725360870361,-0.2101314514875412
1763701042830782700,10.63478271484375,-1.1824475526809692,-1.796349048614502,0.3823903799057007
1763701042840369400,10.644369384765625,-0.8709154725074768,-1.644858956336975,1.1019684076309204
1763701042849956900,10.653956787109376,-0.5667135715484619,-1.1256388425827026,1.770235300064087
1763701042859543800,10.663543701171875,-0.31382277607917786,-0.39506545662879944,2.277238607406616
1763701042878716400,10.68271630859375,0.12354385852813721,1.286138892173767,2.7817983627319336
1763701042888303900,10.692303955078126,0.35200074315071106,1.9275285005569458,2.806232213973999
1763701042897890600,10.701890625,0.6097782850265503,2.3074755668640137,2.6938364505767822
1763701042907476200,10.711476318359376,0.8968765139579773,2.401546001434326,2.4543843269348145
1763701042917063200,10.721063232421875,1.2035218477249146,2.209739923477173,2.1074230670928955
1763701042926650600,10.730650634765626,1.5164283514022827,1.8029156923294067,1.6932686567306519
1763701042936237300,10.7402373046875,1.8365123271942139,1.2898039817810059,1.2632321119308472
1763701042945823200,10.7498232421875,2.172478199005127,0.7656970620155334,0.8588512539863586
1763701042955410000,10.759409912109374,2.5145528316497803,0.30130040645599365,0.5033381581306458
1763701042964997400,10.768997314453125,2.846853733062744,-0.011453386396169662,0.2101314514875412
1763701042974584000,10.778583984375,3.1119613647460938,-0.1751604527235031,-0.0036650835536420345
1763701042984170000,10.788169921875,3.2536778450012207,-0.23624517023563385,-0.1698155403137207
1763701042993756700,10.797756591796874,3.2768900394439697,-0.18371231853961945,-0.32252734899520874
1763701043003344100,10.80734423828125,3.162050724029541,-0.09452861547470093,-0.4679090082645416
1763701043012930800,10.816930908203124,2.8944997787475586,-0.0590994730591774,-0.5937435626983643
1763701043022516700,10.826516845703125,2.508444309234619,-0.09086353331804276,-0.7000309824943542
1763701043032103400,10.836103515625,2.045422077178955,-0.1751604527235031,-0.7769976854324341
1763701043041691000,10.84569091796875,1.5530791282653809,-0.28877803683280945,-0.8124268651008606
1763701043051277600,10.855277587890624,1.055696725845337,-0.43171629309654236,-0.8014315962791443
1763701043060863500,10.864863525390625,0.5584670901298523,-0.6003101468086243,-0.7611156702041626
1763701043070450200,10.8744501953125,0.08811471611261368,-0.7676823139190674,-0.6902574300765991
1763701043080037600,10.88403759765625,-0.3089359998703003,-0.9093988537788391,-0.5632011890411377
1763701043089624300,10.893624267578126,-0.6290199756622314,-1.0303466320037842,-0.3640649616718292
1763701043099210200,10.903210205078125,-0.9063445925712585,-1.1293038129806519,-0.09529217332601547
1763701043108797000,10.912796875,-1.1848909854888916,-1.228261113166809,0.19913621246814728
1763701043118384600,10.922384521484375,-1.4988664388656616,-1.3259966373443604,0.45080527663230896
1763701043127971000,10.93197119140625,-1.8788135051727295,-1.3687559366226196,0.6071822047233582
1763701043137557000,10.941556884765625,-2.3137366771698,-1.278350591659546,0.6303943991661072
1763701043147144000,10.95114404296875,-2.742551565170288,-1.0132428407669067,0.46302223205566406
1763701043156731400,10.9607314453125,-3.089512825012207,-0.5783196687698364,0.09773556143045425
1763701043166318000,10.970318115234376,-3.29475736618042,-0.06642963737249374,-0.390942245721817
1763701043175903700,10.97990380859375,-3.3375167846679688,0.44423866271972656,-0.8600729703903198
1763701043185490700,10.98949072265625,-3.228785991668701,0.8817580342292786,-1.180156946182251
1763701043195078100,10.999078125,-2.9832253456115723,1.1859599351882935,-1.3182083368301392
1763701043204664800,11.008664794921875,-2.6142735481262207,1.2983558177947998,-1.336533784866333
1763701043214250800,11.018250732421874,-2.1341476440429688,1.201841950416565,-1.3401988744735718
1763701043223837400,11.02783740234375,-1.5672813653945923,0.9220739603042603,-1.3866232633590698
1763701043233425000,11.0374248046875,-0.9478822350502014,0.5150969624519348,-1.4806936979293823
1763701043243011600,11.047011474609375,-0.3199312388896942,0.05085303261876106,-1.5845377445220947
1763701043252597500,11.056597412109374,0.26281702518463135,-0.402395635843277,-1.6883817911148071
1763701043262184200,11.06618408203125,0.7319477200508118,-0.8079982399940491,-1.799556016921997
1763701043271771600,11.075771728515624,1.0263761281967163,-1.1537377834320068,-1.9156169891357422
1763701043281358300,11.0853583984375,1.1338852643966675,-1.4005200862884521,-2.025569438934326
1763701043290944300,11.0949443359375,1.078908920288086,-1.4909254312515259,-2.1074230670928955
1763701043300531000,11.104531005859375,0.917645275592804,-1.4212888479232788,-2.1330785751342773
1763701043310118400,11.114118408203124,0.6989619731903076,-1.2294827699661255,-2.068328857421875
1763701043319705000,11.123705078125,0.4643966257572174,-0.969261884689331,-1.8862963914871216
1763701043329291000,11.133291015625,0.254265159368515,-0.6577298045158386,-1.5882028341293335
1763701043338877700,11.142877685546875,0.07467607408761978,-0.34131091833114624,-1.2009257078170776
1763701043348465200,11.152465087890626,-0.10246963053941727,-0.06765133142471313,-0.7598940134048462
1763701043358052000,11.162052001953125,-0.30038413405418396,0.17057909071445465,-0.30664533376693726
1763701043367637800,11.1716376953125,-0.5031854510307312,0.35138988494873047,0.11972606182098389
1763701043377224700,11.181224609375,-0.6607840061187744,0.4674508571624756,0.5070032477378845
1763701043386812200,11.190812255859376,-0.7047650218009949,0.5419742465019226,0.8710681796073914
1763701043396398800,11.20039892578125,-0.5825955867767334,0.566408097743988,1.2546802759170532
1763701043405984500,11.209984619140625,-0.2710634768009186,0.5407525300979614,1.7042638063430786
1763701043415571500,11.219571533203125,0.18707197904586792,0.3880407214164734,2.2454745769500732
1763701043425159000,11.229158935546875,0.6928535103797913,0.05329642444849014,2.785463571548462
1763701043434745600,11.23874560546875,1.1558756828308105,-0.35597124695777893,3.0908870697021484
1763701043444331500,11.24833154296875,1.5408622026443481,-0.6601731777191162,2.9491705894470215
1763701043453918200,11.257918212890624,1.8218519687652588,-0.7921161651611328,2.35787034034729
1763701043463505700,11.267505615234375,1.9916675090789795,-0.8214368224143982,1.534448266029358
1763701043473092400,11.27709228515625,2.0258748531341553,-0.9032903909683228,0.7843278646469116
1763701043482678300,11.28667822265625,1.9550166130065918,-1.0364550352096558,0.3506263196468353
1763701043492265000,11.296264892578124,1.8670547008514404,-1.057223916053772,0.342074453830719
1763701043501852400,11.305852294921875,1.7998614311218262,-0.8128849864006042,0.7256865501403809
1763701043511439000,11.315439208984374,1.7094560861587524,-0.36696648597717285,1.3524158000946045
1763701043521025000,11.32502490234375,1.5775130987167358,0.1620272397994995,1.9876970052719116
1763701043530611700,11.33461181640625,1.411362648010254,0.6226060390472412,2.4201767444610596
1763701043540199200,11.34419921875,1.2391036748886108,0.9929322004318237,2.5765538215637207
1763701043549785900,11.353785888671876,1.094791054725647,1.2555965185165405,2.5130255222320557
1763701043559371800,11.363371826171875,0.992168664932251,1.391204595565796,2.3212196826934814
1763701043568958500,11.37295849609375,0.9506310224533081,1.437628984451294,2.0695505142211914
1763701043578546000,11.3825458984375,0.9848384857177734,1.443737506866455,1.809329628944397
1763701043588132900,11.3921328125,1.093569278717041,1.485275149345398,1.5759859085083008
1763701043597718500,11.401718505859375,1.2794195413589478,1.650203824043274,1.3878449201583862
1763701043607305500,11.411305419921876,1.5005463361740112,1.8762173652648926,1.2461284399032593
1763701043616893000,11.420892822265625,1.7216730117797852,2.0875704288482666,1.1288456916809082
1763701043626479600,11.430479736328126,1.9305827617645264,2.262272834777832,1.0054545402526855
1763701043636065500,11.4400654296875,2.111393451690674,2.3502347469329834,0.8759549856185913
1763701043645652200,11.44965234375,2.2372281551361084,2.287928342819214,0.7476770281791687
1763701043655239700,11.45923974609375,2.293426036834717,2.0545847415924072,0.6022953987121582
1763701043664826400,11.468826416015625,2.2922043800354004,1.6868547201156616,0.4337015450000763
1763701043674412300,11.478412353515624,2.250666618347168,1.1908466815948486,0.2223484069108963
1763701043683999000,11.4879990234375,2.198133945465088,0.6213843822479248,-0.042759306728839874
1763701043693586400,11.49758642578125,2.15170955657959,0.0325276181101799,-0.34451785683631897
1763701043703173000,11.507173095703125,2.1358275413513184,-0.5551074743270874,-0.6340594291687012
1763701043712759000,11.516759033203124,2.189582109451294,-1.1525160074234009,-0.8429692387580872
1763701043722345700,11.526345703125,2.3178598880767822,-1.718160629272461,-0.9187142848968506
1763701043731933200,11.53593310546875,2.5072226524353027,-2.1653008460998535,-0.8661814332008362
1763701043741520000,11.545519775390625,2.7234625816345215,-2.4976017475128174,-0.7195780873298645
1763701043751105800,11.555105712890626,2.9140467643737793,-2.7346105575561523,-0.5241069197654724
1763701043760692500,11.5646923828125,2.980018377304077,-2.8103554248809814,-0.3151971995830536
1763701043770280000,11.574280029296874,2.819976329803467,-2.737053871154785,-0.15026842057704926
1763701043779866600,11.58386669921875,2.308086395263672,-2.6222145557403564,-0.10262233763933182
1763701043789452500,11.59345263671875,1.4529001712799072,-2.3742105960845947,-0.21379654109477997
1763701043799039200,11.603039306640625,0.39476004242897034,-1.8525470495224,-0.48012593388557434
1763701043808627000,11.612626953125,-0.705986738204956,-1.0828794240951538,-0.8429692387580872
1763701043818213600,11.622213623046875,-1.6381396055221558,-0.14095300436019897,-1.178935170173645
1763701043827799300,11.63179931640625,-2.226996421813965,0.8304468393325806,-1.346307396888733
1763701043837386200,11.64138623046875,-2.4224674701690674,1.6783028841018677,-1.2681188583374023
1763701043846973700,11.6509736328125,-2.264868974685669,2.2720463275909424,-0.9541434049606323
1763701043856560400,11.660560302734375,-1.8226155042648315,2.537154197692871,-0.5143333673477173
1763701043866146300,11.670146240234375,-1.2154333591461182,2.4895079135894775,-0.11117420345544815
1763701043875733000,11.67973291015625,-0.585038959980011,2.175532579421997,0.12583453953266144
1763701043885320400,11.689320556640626,-0.026724567636847496,1.702736735343933,0.12827792763710022
1763701043894907100,11.6989072265625,0.4143071472644806,1.1945117712020874,-0.10017894953489304
1763701043904493000,11.7084931640625,0.7392778992652893,0.7388197779655457,-0.5008947253227234
1763701043914079700,11.718079833984374,0.9530744552612305,0.3746020793914795,-0.9907942414283752
1763701043923667200,11.727667236328125,1.0740221738815308,0.09972081333398819,-1.4806936979293823
1763701043933254000,11.73725390625,1.1387720108032227,-0.10063708573579788,-1.8985133171081543
1763701043942839800,11.74683984375,1.1803096532821655,-0.2655658423900604,-2.193094253540039
1763701043952426500,11.756426513671874,1.230551838874817,-0.41827765107154846,-2.3421411514282227
1763701043962014000,11.766013916015625,1.3014100790023804,-0.5489989519119263,-2.358023166656494
1763701043971600600,11.7756005859375,1.3808202743530273,-0.6491779088973999,-2.2639527320861816
1763701043981186600,11.7851865234375,1.4296879768371582,-0.7432484030723572,-2.0866541862487793
1763701043990773200,11.794773193359376,1.4125843048095703,-0.8177717924118042,-1.8691926002502441
1763701044000360700,11.804360595703125,1.3062968254089355,-0.8092198967933655,-1.6578394174575806
1763701044009947400,11.813947509765624,1.1106730699539185,-0.7151494026184082,-1.470920205116272
1763701044019533300,11.823533203125,0.8284615874290466,-0.5441122055053711,-1.290109395980835
1763701044029120000,11.8331201171875,0.4411844313144684,-0.3498627543449402,-1.0750911235809326
1763701044038707700,11.842707763671875,-0.05482354015111923,-0.21425467729568481,-0.7953231334686279
1763701044048294400,11.85229443359375,-0.6302416324615479,0.02764083817601204,-0.4605788290500641
1763701044057880000,11.861880126953125,-1.0688300132751465,0.5761816501617432,-0.04031591862440109
1763701044067467000,11.871467041015626,-1.2032164335250854,1.113879919052124,0.4862344264984131
1763701044077054500,11.881054443359375,-0.9869764447212219,1.3936480283737183,1.0579874515533447
1763701044086641200,11.89064111328125,-0.48730340600013733,1.4131951332092285,1.558882236480713
1763701044096227000,11.90022705078125,0.11010521650314331,1.2775870561599731,1.8520889282226562
1763701044105813800,11.909813720703125,0.6574243903160095,1.068677306175232,1.8435369729995728
1763701044115401200,11.919401123046875,1.0569185018539429,0.8658760190010071,1.5515520572662354
1763701044124988000,11.92898779296875,1.2781978845596313,0.6862868666648865,1.0897514820098877
1763701044134573800,11.93857373046875,1.3820419311523438,0.4869979918003082,0.5961869359016418
1763701044144160500,11.948160400390625,1.4614521265029907,0.3733803927898407,0.17470231652259827
1763701044153748000,11.957748046875,1.5982818603515625,0.43446511030197144,-0.11606097966432571
1763701044163334700,11.967334716796875,1.7827577590942383,0.6201626658439636,-0.2748812735080719
1763701044172920600,11.976920654296874,2.0173230171203613,0.8842014074325562,-0.3567348122596741
1763701044182507300,11.98650732421875,2.3325202465057373,1.152974247932434,-0.4068242609500885
1763701044192094700,11.9960947265625,2.722240924835205,1.3374500274658203,-0.43981003761291504
1763701044201681400,12.005681396484375,3.1425037384033203,1.411973476409912,-0.46424391865730286
1763701044211267300,12.015267333984376,3.523672342300415,1.391204595565796,-0.4960079789161682
1763701044220854000,12.02485400390625,3.8144357204437256,1.3264548778533936,-0.5558710098266602
1763701044230441700,12.034441650390624,3.991581439971924,1.2617050409317017,-0.6450546979904175
1763701044240028200,12.044028076171875,4.066104888916016,1.2323843240737915,-0.7513421177864075
1763701044249614000,12.053614013671876,4.056331157684326,1.2507097721099854,-0.8441908955574036
1763701044259200800,12.06320068359375,3.972034215927124,1.2836954593658447,-0.9077190160751343
1763701044268788500,12.07278857421875,3.841312885284424,1.3154596090316772,-0.948034942150116
1763701044278375200,12.082375244140625,3.673940896987915,1.359440565109253,-0.9846857786178589
1763701044287960800,12.0919609375,3.4735829830169678,1.4449591636657715,-1.0286667346954346
1763701044297547800,12.1015478515625,3.2475695610046387,1.5671286582946777,-1.0897514820098877
1763701044307135200,12.11113525390625,3.0068955421447754,1.6819679737091064,-1.1630531549453735
1763701044316722000,12.120721923828125,2.76011323928833,1.7259489297866821,-1.2534586191177368
1763701044326307800,12.130307861328125,2.525547981262207,1.6941848993301392,-1.3658545017242432
1763701044335894500,12.13989453125,2.3093080520629883,1.6074445247650146,-1.5075709819793701
1763701044345482000,12.14948193359375,2.0991766452789307,1.462062954902649,-1.674943208694458
1763701044355068700,12.159068603515625,1.8804932832717896,1.2592616081237793,-1.8594191074371338
1763701044364654600,12.168654541015625,1.6654750108718872,1.0295830965042114,-2.051225185394287
1763701044374241300,12.1782412109375,1.4675605297088623,0.8023478984832764,-2.230966806411743
1763701044383828700,12.187828857421875,1.2806413173675537,0.5749599933624268,-2.3934521675109863
1763701044393415400,12.19741552734375,1.102121114730835,0.32939937710762024,-2.5217301845550537
1763701044403001300,12.20700146484375,0.9359707236289978,0.0850604772567749,-2.609692096710205
1763701044412588000,12.216588134765624,0.7685985565185547,-0.1385096162557602,-2.664668560028076
1763701044422175500,12.226175537109375,0.5890094637870789,-0.3620797097682953,-2.6976542472839355
1763701044431762200,12.23576220703125,0.388651579618454,-0.6051968932151794,-2.7147579193115234
1763701044441348000,12.24534814453125,0.1650814712047577,-0.8519791960716248,-2.7184231281280518
1763701044450934800,12.254934814453126,-0.07681404054164886,-1.0914313793182373,-2.713536262512207
1763701044460522500,12.2645224609375,-0.3077143132686615,-1.3357702493667603,-2.722088098526001
1763701044470109200,12.274109130859374,-0.510515570640564,-1.5263545513153076,-2.7526304721832275
1763701044479694800,12.28369482421875,-0.6925480961799622,-1.6656277179718018,-2.8076066970825195
1763701044489281800,12.29328173828125,-0.8550334572792053,-1.7719151973724365,-2.889460325241089
