time,seconds_elapsed,z,y,x
1763701032376518400,0.180518310546875,6.916752815246582,2.525325298309326,-0.0023928226437419653
1763701032395692500,0.199692626953125,8.266902923583984,3.4133615493774414,-0.524327278137207
1763701032414865200,0.218865234375,8.539983749389648,2.9204399585723877,-0.9002995491027832
1763701032424452600,0.22845263671875,8.286046028137207,2.570788860321045,-1.1994023323059082
1763701032434039300,0.238039306640625,8.094619750976562,2.422433853149414,-1.532303810119629
1763701032443625200,0.247625244140625,8.259724617004395,2.5348963737487793,-1.6639090776443481
1763701032453212000,0.2572119140625,8.657232284545898,2.767000198364258,-1.7404793500900269
1763701032462799400,0.26679931640625,9.026025772094727,2.9898319244384766,-2.152343988418579
1763701032472386000,0.276385986328125,9.136096000671387,3.0616166591644287,-2.6862425804138184
1763701032481971700,0.2859716796875,9.310771942138672,3.078366279602051,-3.2679975032806396
1763701032491558700,0.29555859375,9.315557479858398,3.2482566833496094,-3.9071803092956543
1763701032501146000,0.30514599609375,9.451948165893555,3.45882511138916,-4.252045631408691
1763701032510732800,0.31473291015625,10.065109252929688,3.516551971435547,-4.168296813964844
1763701032520318500,0.324318359375,10.0073823928833,3.3272199630737305,-4.050749778747559
1763701032529905200,0.3339052734375,10.675578117370605,3.1453654766082764,-3.81864595413208
1763701032539491600,0.34349169921875,11.333903312683105,3.2171499729156494,-3.5742788314819336
1763701032549078000,0.353078125,10.630114555358887,3.595515012741089,-3.5742788314819336
1763701032558664000,0.362663818359375,11.221441268920898,3.379862070083618,-3.5742788314819336
1763701032568250600,0.372250732421875,11.207083702087402,3.1956145763397217,-3.538386583328247
1763701032577838000,0.381838134765625,9.428020477294922,3.2865419387817383,-3.19860577583313
1763701032587424800,0.3914248046875,9.3490571975708,3.5668013095855713,-2.8537402153015137
1763701032597010700,0.4010107421875,10.261321067810059,3.5931222438812256,-3.098107099533081
1763701032606597400,0.410597412109375,9.444769859313965,3.6888351440429688,-3.1579277515411377
1763701032616184800,0.420184814453125,9.772886276245117,3.442075490951538,-3.5910286903381348
1763701032625771500,0.429771484375,9.859027862548828,3.1956145763397217,-3.998107433319092
1763701032635357400,0.439357421875,9.894919395446777,3.0999016761779785,-4.2281174659729
1763701032644944100,0.448944091796875,9.916455268859863,3.040081262588501,-4.185046672821045
1763701032654531600,0.458531494140625,10.110572814941406,2.9276185035705566,-3.8688950538635254
1763701032664118300,0.4681181640625,10.495817184448242,2.8172495365142822,-3.442673683166504
1763701032673704000,0.477703857421875,10.835897445678711,2.71435809135437,-3.1435706615448
1763701032683291000,0.487290771484375,10.890932083129883,2.604288339614868,-2.9781668186187744
1763701032692878300,0.49687841796875,10.634900093078613,2.5133609771728516,-3.0789644718170166
1763701032702465000,0.506465087890625,10.268499374389648,2.3769702911376953,-3.279961585998535
1763701032712050700,0.51605078125,9.90688419342041,2.353041887283325,-3.1483564376831055
1763701032721637600,0.5256376953125,9.69631576538086,2.4990041255950928,-2.8058836460113525
1763701032731225000,0.53522509765625,9.751350402832031,2.5444676876068115,-2.4323041439056396
1763701032740811800,0.544811767578125,9.729815483093262,2.549253463745117,-2.0398812294006348
1763701032750397400,0.5543974609375,9.720243453979492,2.5420749187469482,-1.896012783050537
1763701032759984400,0.563984375,9.674779891967773,2.453540563583374,-1.9800606966018677
1763701032769571800,0.57357177734375,9.681958198547363,2.360220432281494,-2.166700839996338
1763701032779158300,0.583158203125,9.715457916259766,2.2881367206573486,-2.396411895751953
1763701032788744200,0.592744140625,9.720243453979492,2.2498514652252197,-2.621636390686035
1763701032798331000,0.602330810546875,9.713065147399902,2.204387903213501,-2.7652056217193604
1763701032807918300,0.61191845703125,3.82582426071167,2.077568292617798,-3.4857444763183594
1763701032817505000,0.621505126953125,12.35384464263916,2.3192434310913086,-2.8896324634552
1763701032827091000,0.631091064453125,10.062716484069824,2.321636199951172,-2.676671266555786
1763701032836677600,0.640677734375,9.126524925231934,1.672882080078125,-3.1172497272491455
1763701032846265000,0.65026513671875,10.44078254699707,2.1134605407714844,-3.02123761177063
1763701032855851800,0.659851806640625,9.887741088867188,2.420041084289551,-2.691028118133545
1763701032865437700,0.669437744140625,9.66520881652832,2.2091734409332275,-2.2121646404266357
1763701032875024400,0.6790244140625,9.765707015991211,2.02492618560791,-1.800299882888794
1763701032884611800,0.68861181640625,9.286844253540039,2.1708884239196777,-1.4485549926757812
1763701032894198500,0.698198486328125,9.191130638122559,2.2857437133789062,-1.189831018447876
1763701032903784400,0.707784423828125,9.480961799621582,1.929213285446167,-1.0558329820632935
1763701032913371100,0.71737109375,9.65803050994873,1.7590237855911255,-0.9840483069419861
1763701032922958600,0.72695849609375,9.55753231048584,1.7733806371688843,-1.379163146018982
1763701032932545300,0.736545166015625,9.717850685119629,1.7880367040634155,-1.5418751239776611
1763701032942131200,0.746131103515625,9.909276962280273,1.7566308975219727,-1.9848463535308838
1763701032951718000,0.7557177734375,10.129715919494629,1.735095500946045,-2.33180570602417
1763701032961305300,0.765305419921875,10.139286994934082,1.6872390508651733,-2.2265214920043945
1763701032970892000,0.77489208984375,10.048359870910645,1.5340983867645264,-1.903191328048706
1763701032980477700,0.784477783203125,9.902098655700684,1.4814562797546387,-1.5634105205535889
1763701032990064600,0.794064697265625,9.940383911132812,1.3091731071472168,-1.189831018447876
1763701032999652000,0.803652099609375,9.732208251953125,1.3283156156539917,-0.8404789566993713
1763701033009238500,0.813238525390625,9.308379173278809,1.6106687784194946,-0.3089732229709625
1763701033018824400,0.822824462890625,8.707481384277344,1.770987868309021,-0.07896314561367035
1763701033028411100,0.8324111328125,9.485747337341309,0.001794616924598813,-0.5721837282180786
1763701033037998600,0.84199853515625,11.760125160217285,1.074377417564392,-0.9361918568611145
1763701033047585300,0.851585205078125,9.090632438659668,1.6992031335830688,-1.3695918321609497
1763701033057171200,0.861171142578125,9.298808097839355,1.8454644680023193,-2.0063817501068115
1763701033066758000,0.8707578125,9.497711181640625,1.1581261157989502,-2.2408783435821533
1763701033076345300,0.880345458984375,10.08185863494873,1.2804591655731201,-1.5251253843307495
1763701033085932000,0.88993212890625,10.306784629821777,1.589133381843567,-1.4365909099578857
1763701033095518000,0.89951806640625,10.359426498413086,1.7638094425201416,-1.8146568536758423
1763701033105104600,0.909104736328125,9.734601020812988,1.6345969438552856,-1.9561325311660767
1763701033114692000,0.918692138671875,9.435198783874512,1.5245270729064941,-1.6567305326461792
1763701033124278800,0.92827880859375,9.437591552734375,1.526919960975647,-1.659123420715332
1763701033133864700,0.93786474609375,9.78245735168457,1.3594223260879517,-1.6208382844924927
1763701033143451400,0.947451416015625,10.251749038696289,1.2302099466323853,-1.383948802947998
1763701033153038800,0.957038818359375,10.400104522705078,1.2203395366668701,-1.012762188911438
1763701033162625500,0.96662548828125,10.400104522705078,1.129412293434143,-0.7396813035011292
1763701033172211500,0.97621142578125,10.318748474121094,0.9858429431915283,-0.8189435601234436
1763701033181798100,0.985798095703125,10.19910717010498,0.8231309652328491,-0.9696913957595825
1763701033191385600,0.995385498046875,10.404890060424805,0.6819544434547424,-1.3405789136886597
1763701033200972300,1.00497216796875,10.459924697875977,0.6601199507713318,-1.3648061752319336
1763701033210558000,1.014557861328125,10.560423851013184,0.6891329288482666,-1.2759727239608765
1763701033220145000,1.024144775390625,10.450353622436523,0.7465606927871704,-0.9936196208000183
1763701033229732400,1.033732421875,10.194321632385254,0.8662018179893494,-0.7301099896430969
1763701033239319000,1.043319091796875,9.79681396484375,0.9858429431915283,-0.5506483316421509
1763701033248904700,1.05290478515625,9.626923561096191,1.062413215637207,-0.385543555021286
1763701033258491400,1.062491455078125,9.457033157348633,1.1772687435150146,-0.521934449672699
1763701033268079000,1.0720791015625,9.629316329956055,1.2179467678070068,-0.8045865893363953
1763701033277665800,1.081665771484375,9.981060981750488,1.062413215637207,-0.5386841893196106
1763701033287251500,1.09125146484375,10.136894226074219,1.0121639966964722,-0.014356935396790504
1763701033296838100,1.100838134765625,10.139286994934082,0.8638089895248413,0.35443684458732605
1763701033306425600,1.110425537109375,10.321141242980957,0.8207381963729858,0.10049854964017868
1763701033316012300,1.12001220703125,10.510174751281738,0.7393822073936462,-0.05742774158716202
1763701033325598200,1.12959814453125,10.45513916015625,0.6337988972663879,0.09810572862625122
1763701033335185000,1.139184814453125,10.33071231842041,0.5739783048629761,0.19621145725250244
1763701033344772400,1.1487724609375,10.282855987548828,0.5979065299034119,-0.08374879509210587
1763701033354359000,1.158359130859375,10.06750202178955,0.7513462901115417,-0.2515454888343811
1763701033363945000,1.167945068359375,9.818349838256836,1.1892328262329102,1.1204391717910767
1763701033373531600,1.17753173828125,6.773183822631836,1.4575281143188477,-1.3214362859725952
1763701033383119000,1.187119140625,8.57348346710205,0.8685946464538574,-1.1491531133651733
1763701033392705800,1.196705810546875,8.403593063354492,1.1509476900100708,-0.8237292170524597
1763701033402291700,1.206291748046875,8.286046028137207,1.5293127298355103,-0.3640081584453583
1763701033411878400,1.21587841796875,8.283653259277344,1.3570295572280884,-0.09810572862625122
1763701033421465900,1.2254658203125,8.125726699829102,1.2804591655731201,0.04546362906694412
1763701033431052500,1.235052490234375,8.135297775268555,1.2756736278533936,0.02153540402650833
1763701033440638500,1.244638427734375,8.307580947875977,1.2083754539489746,-0.579362154006958
1763701033450225200,1.25422509765625,8.609375953674316,1.0049854516983032,-1.4054841995239258
1763701033459812600,1.2638125,9.035597801208496,0.9260223507881165,-1.745265007019043
1763701033469399300,1.2733994140625,9.404091835021973,0.9547362327575684,-1.5442678928375244
1763701033478985200,1.282985107421875,9.909276962280273,0.97148597240448,-1.776371717453003
1763701033488572000,1.292572021484375,9.995418548583984,0.9619147181510925,-2.3820550441741943
1763701033498159400,1.302159423828125,9.966704368591309,0.8733802437782288,-2.6024937629699707
1763701033507746000,1.31174609375,10.019645690917969,0.8805587291717529,-2.674278497695923
1763701033517331700,1.321331787109375,10.062716484069824,0.882951557636261,-2.3820550441741943
1763701033526918700,1.330918701171875,10.146465301513672,1.0217353105545044,-1.8792630434036255
1763701033536506000,1.340506103515625,10.036395072937012,1.1126625537872314,-1.3286148309707642
1763701033546092500,1.350092529296875,9.870991706848145,1.3307085037231445,-1.067797064781189
1763701033555678500,1.359678466796875,9.969097137451172,1.5652050971984863,-0.8763712644577026
1763701033565265200,1.36926513671875,9.528818130493164,1.5987045764923096,-0.6846463680267334
1763701033574852600,1.3788525390625,9.088239669799805,1.318744421005249,-0.490827739238739
1763701033584439300,1.388439208984375,8.748159408569336,1.0049854516983032,-0.27308088541030884
1763701033594025200,1.398025146484375,8.520841598510742,0.9403793215751648,-2.1475582122802734
1763701033603612000,1.40761181640625,9.171988487243652,2.032104730606079,-2.92073917388916
1763701033613199400,1.417199462890625,9.27009391784668,1.8885352611541748,-3.4642090797424316
1763701033622786000,1.4267861328125,9.057132720947266,1.83828604221344,-3.9406797885894775
1763701033632372000,1.4363720703125,9.27727222442627,1.8813568353652954,-4.1659040451049805
1763701033641958700,1.445958740234375,9.559925079345703,1.960319995880127,-4.1057844161987305
1763701033651546000,1.455546142578125,10.270892143249512,2.11824631690979,-3.0933215618133545
1763701033661132800,1.4651328125,10.057930946350098,1.5125629901885986,-4.632504463195801
1763701033670718700,1.47471875,10.562816619873047,1.3833506107330322,-3.6248271465301514
1763701033680305400,1.484305419921875,10.474282264709473,1.3929219245910645,-2.6503500938415527
1763701033689892900,1.493892822265625,10.383355140686035,1.5149558782577515,-2.1547367572784424
1763701033699479600,1.5034794921875,10.072287559509277,1.6010974645614624,-1.7907286882400513
1763701033709065500,1.5130654296875,9.815957069396973,1.8693926334381104,-0.5051847100257874
1763701033718652200,1.522652099609375,9.55753231048584,1.0336993932724,-0.9002995491027832
1763701033728239600,1.532239501953125,8.985347747802734,0.31316065788269043,-3.04307222366333
1763701033737826300,1.541826416015625,8.772088050842285,0.45194438099861145,-3.897608995437622
1763701033747412000,1.551411865234375,8.932705879211426,1.057627558708191,-4.340580463409424
1763701033756999000,1.5609990234375,9.15284538269043,1.5699907541275024,-5.018048286437988
1763701033766586400,1.57058642578125,7.781160354614258,1.9100706577301025,-6.6245293617248535
1763701033776173000,1.580173095703125,7.658827304840088,0.7896314859390259,-6.3514485359191895
1763701033785758700,1.5897587890625,7.924729347229004,1.4072787761688232,-5.578267574310303
1763701033795345700,1.599345703125,8.374878883361816,1.5532410144805908,-5.223830699920654
1763701033804933000,1.60893310546875,8.877371788024902,1.1940184831619263,-4.994120121002197
1763701033814519800,1.618519775390625,9.150452613830566,0.9116654396057129,-5.142475128173828
1763701033824105500,1.62810546875,9.375378608703613,0.8638089895248413,-5.164010524749756
1763701033833692200,1.637692138671875,9.607781410217285,0.8566305041313171,-5.097011566162109
1763701033843279600,1.647279541015625,9.713065147399902,0.6939185857772827,-5.173581600189209
1763701033852866300,1.6568662109375,9.03799057006836,0.5787639617919922,-5.19033145904541
1763701033862452200,1.6664521484375,7.766504287719727,0.6122635006904602,-5.187938690185547
1763701033872039000,1.676038818359375,6.947859764099121,0.4567300081253052,-5.642873764038086
1763701033881626400,1.68562646484375,6.81386137008667,-0.06999006122350693,-6.224628925323486
1763701033891213000,1.695213134765625,7.697112083435059,-0.8982058167457581,-6.619743824005127
1763701033900799000,1.704799072265625,9.713065147399902,-1.5230315923690796,-7.426424026489258
1763701033910385700,1.7143857421875,10.158429145812988,-1.2143574953079224,-7.599006652832031
1763701033919973000,1.72397314453125,9.150452613830566,-1.1473584175109863,-7.196712970733643
1763701033929559800,1.733559814453125,6.55992317199707,-1.3363914489746094,-6.042774677276611
1763701033939145700,1.743145751953125,7.189534664154053,-1.1282159090042114,-6.246164321899414
1763701033948732400,1.752732421875,8.46580696105957,-0.08195417374372482,-6.653243541717529
1763701033958319900,1.76231982421875,9.026025772094727,-0.08434699475765228,-6.665207386016846
1763701033967906600,1.771906494140625,6.703791618347168,-0.8742775917053223,-6.7896342277526855
1763701033977492500,1.781492431640625,4.427021026611328,-1.4799607992172241,-7.325925827026367
1763701033987079200,1.7910791015625,4.067798614501953,-1.2957134246826172,-6.803991317749023
1763701033996666600,1.80066650390625,4.896014213562012,-0.10348957777023315,-6.5288166999816895
1763701034006253300,1.81025341796875,5.317450046539307,0.45194438099861145,-7.158428192138672
1763701034015839200,1.819839111328125,5.5737810134887695,0.21984058618545532,-7.8287177085876465
1763701034025426000,1.829426025390625,5.813063621520996,0.09511470049619675,-7.5942206382751465
1763701034035013400,1.839013427734375,5.992525100708008,0.12652049958705902,-7.290033340454102
1763701034044600000,1.84860009765625,6.284748554229736,0.392123818397522,-6.7896342277526855
1763701034054185700,1.858185791015625,6.531209468841553,0.07357929646968842,-6.5288166999816895
1763701034063772700,1.867772705078125,6.196214199066162,0.14327025413513184,-5.9662041664123535
1763701034073360100,1.877360107421875,5.896812438964844,-0.22791635990142822,-6.004489421844482
1763701034082946800,1.88694677734375,6.2536420822143555,-0.6565307378768921,-6.361020088195801
1763701034092532500,1.896532470703125,6.730112552642822,-0.12741780281066895,-6.547959327697754
1763701034102119400,1.906119384765625,7.184749126434326,-0.24227328598499298,-7.184749126434326
1763701034111707000,1.915706787109375,7.493722438812256,-0.6158527135848999,-7.46710205078125
1763701034121293300,1.925293212890625,8.180761337280273,-0.6876373887062073,-7.64447021484375
1763701034130879200,1.934879150390625,7.7955169677734375,-0.3236292600631714,-7.65164852142334
1763701034140466000,1.9444658203125,6.550352096557617,0.1983051747083664,-8.19511890411377
1763701034150053400,1.954053466796875,4.7835516929626465,1.0648061037063599,-8.4200439453125
1763701034159640000,1.96364013671875,3.6559338569641113,0.1983051747083664,-7.981858253479004
1763701034169226000,1.97322607421875,3.2440693378448486,-1.0827522277832031,-7.270890712738037
1763701034178812700,1.982812744140625,5.090131759643555,-1.4799607992172241,-7.438388347625732
1763701034188400000,1.992400146484375,5.434698581695557,-0.6684948205947876,-8.39611530303955
1763701034197986800,2.00198681640625,5.353342533111572,0.2868396043777466,-8.999405860900879
1763701034207572700,2.01157275390625,4.527519702911377,0.8350951075553894,-9.657731056213379
1763701034217159400,2.021159423828125,3.596113443374634,0.9547362327575684,-9.684052467346191
1763701034226747000,2.030746826171875,3.1651060581207275,0.7250252366065979,-9.176474571228027
1763701034236333600,2.04033349609375,3.330509901046753,0.11216355860233307,-9.078369140625
1763701034245919500,2.04991943359375,3.7827534675598145,0.3251247704029083,-9.078369140625
1763701034255506200,2.059506103515625,3.895515203475952,1.3211371898651123,-9.38016414642334
1763701034265093600,2.06909375,3.002394199371338,1.3546366691589355,-9.588339805603027
1763701034274680300,2.078680419921875,3.160320520401001,0.9786644577980042,-10.009775161743164
1763701034284266200,2.088266357421875,3.2608189582824707,0.5309075117111206,-10.357033729553223
1763701034293853000,2.09785302734375,2.9425735473632812,0.047258246690034866,-9.734301567077637
1763701034303440400,2.1074404296875,3.6870405673980713,0.18394823372364044,-9.159725189208984
1763701034313027000,2.117027099609375,3.7420754432678223,0.14805589616298676,-8.649754524230957
1763701034322612700,2.12661279296875,3.9074792861938477,-0.08434699475765228,-8.298009872436523
1763701034332199700,2.13619970703125,5.298307418823242,0.2676970362663269,-7.309175968170166
1763701034341787100,2.145787109375,5.30548620223999,-0.13698910176753998,-6.605386734008789
1763701034351373800,2.155373779296875,3.5458641052246094,-0.14416755735874176,-7.634898662567139
1763701034360959500,2.16495947265625,2.9282166957855225,0.41605204343795776,-9.26291561126709
1763701034370546400,2.17454638671875,3.0239295959472656,0.6170491576194763,-9.138189315795898
1763701034380134000,2.1841337890625,3.7037904262542725,0.5763711333274841,-8.563612937927246
1763701034389720600,2.193720458984375,4.151547431945801,0.5093721151351929,-8.491828918457031
1763701034399306200,2.20330615234375,4.47487735748291,0.4782654345035553,-8.367402076721191
1763701034408893200,2.21289306640625,4.393222332000732,0.636191725730896,-8.147261619567871
1763701034418480600,2.222480712890625,4.340580463409424,0.6675975322723389,-8.005785942077637
1763701034428067000,2.232067138671875,4.369294166564941,0.7465606927871704,-6.8997039794921875
1763701034437653000,2.241653076171875,4.297509670257568,0.9690931439399719,-5.458626747131348
1763701034447239700,2.25123974609375,4.319045066833496,0.40408793091773987,-5.384449005126953
1763701034456827100,2.2608271484375,4.249652862548828,-0.587138831615448,-6.1935224533081055
1763701034466413800,2.270413818359375,4.695017337799072,-1.0683952569961548,-6.305984973907471
1763701034475999700,2.279999755859375,5.236093997955322,-1.058824062347412,-6.890132904052734
1763701034485586400,2.28958642578125,5.274379253387451,-1.042074203491211,-7.914859294891357
1763701034495174000,2.299173828125,5.121238708496094,-1.262213945388794,-8.64496898651123
1763701034504760600,2.308760498046875,5.044668197631836,-1.6070795059204102,-9.087940216064453
1763701034514346500,2.318346435546875,4.453341960906982,-2.0521445274353027,-8.772088050842285
1763701034523933200,2.32793310546875,3.612863063812256,-2.2654049396514893,-8.075178146362305
1763701034533520600,2.337520751953125,2.8037898540496826,-2.41375994682312,-7.704290866851807
1763701034543107300,2.347107421875,2.367997169494629,-2.35872483253479,-7.323532581329346
1763701034552693200,2.356693359375,2.4852454662323,-1.877468466758728,-6.7345991134643555
1763701034562280000,2.366280029296875,2.274677038192749,-1.3244273662567139,-6.631708145141602
1763701034571867400,2.375867431640625,2.305783748626709,-0.9245268702507019,-6.598208427429199
1763701034581454000,2.3854541015625,2.511566400527954,-0.6469594240188599,-6.641279220581055
1763701034591040000,2.3950400390625,2.4756741523742676,-0.357128769159317,-6.3442702293396
1763701034600626700,2.404626708984375,2.212463617324829,0.09511470049619675,-5.880062580108643
1763701034610214100,2.414214111328125,1.8532410860061646,0.6074778437614441,-5.551946640014648
1763701034619800800,2.42380078125,1.6115660667419434,1.1126625537872314,-5.303092956542969
1763701034629386800,2.43338671875,1.5131611824035645,1.843071699142456,-5.144867897033691
1763701034638973400,2.442973388671875,1.6402798891067505,2.9108686447143555,-4.970191955566406
1763701034648561000,2.452560791015625,1.726421594619751,4.0935211181640625,-4.622933387756348
1763701034658147600,2.462147705078125,1.7934205532073975,5.2283172607421875,-4.153641223907471
1763701034667733500,2.4717333984375,1.6498512029647827,6.049354553222656,-3.976572036743164
1763701034677320200,2.4813203125,1.2643076181411743,6.700501441955566,-3.8832521438598633
1763701034686907600,2.49090771484375,1.0585249662399292,7.107580661773682,-4.314259052276611
1763701034696494300,2.500494384765625,0.8117650747299194,6.760322093963623,-5.705087184906006
1763701034706080000,2.510080078125,0.6203392744064331,6.454041004180908,-6.813562393188477
1763701034715667000,2.5196669921875,0.857228696346283,6.609574317932129,-7.471887588500977
1763701034725254100,2.529254150390625,0.9529415965080261,6.829713821411133,-7.563114166259766
1763701034734841000,2.538841064453125,1.0079765319824219,7.031010150909424,-7.46710205078125
1763701034744426800,2.5484267578125,1.4030914306640625,7.03579568862915,-7.220641613006592
1763701034754013400,2.558013427734375,1.939382791519165,6.868298530578613,-6.918846607208252
1763701034763601200,2.56760107421875,2.1765713691711426,6.856334209442139,-6.62213659286499
1763701034782773500,2.5867734375,2.478066921234131,7.045367240905762,-6.935596466064453
1763701034792360200,2.596360107421875,2.6168506145477295,6.659823417663574,-8.02492904663086
1763701034801947600,2.60594775390625,3.6008989810943604,5.2354960441589355,-9.880562782287598
1763701034811534300,2.615534423828125,4.764409065246582,3.0831520557403564,-12.164511680603027
1763701034821120300,2.625120361328125,5.906383514404297,0.8973084688186646,-14.84118366241455
1763701034830707000,2.63470703125,7.6253275871276855,-1.077966570854187,-17.271095275878906
1763701034840294400,2.64429443359375,9.447162628173828,-2.5046870708465576,-18.26471519470215
1763701034849881000,2.653881103515625,10.747363090515137,-2.9237301349639893,-17.927026748657227
1763701034859467000,2.663467041015625,10.814361572265625,-2.6985056400299072,-16.725231170654297
1763701034869053700,2.6730537109375,10.809576034545898,-2.217548370361328,-14.963217735290527
1763701034878641200,2.68264111328125,10.838290214538574,-1.8583258390426636,-13.16530990600586
1763701034888227800,2.692227783203125,10.654043197631836,-1.6669000387191772,-11.580364227294922
1763701034897813800,2.701813720703125,10.378568649291992,-1.534995675086975,-10.275378227233887
1763701034907400400,2.711400390625,10.01456069946289,-1.5541383028030396,-9.119047164916992
1763701034916988000,2.72098779296875,9.933204650878906,-1.8559330701828003,-8.173583030700684
1763701034926574600,2.73057470703125,9.842277526855469,-2.1047866344451904,-7.330711364746094
1763701034936160500,2.740160400390625,9.291629791259766,-2.116750717163086,-6.425925254821777
1763701034945747200,2.749747314453125,8.566305160522461,-2.145763635635376,-5.609374523162842
1763701034955334700,2.759334716796875,7.730611801147461,-2.030609130859375,-4.860121726989746
1763701034964921300,2.76892138671875,6.823432922363281,-1.7147564888000488,-4.201796531677246
1763701034974507300,2.77850732421875,6.102894306182861,-1.2861422300338745,-3.5479576587677
1763701034984094000,2.788093994140625,5.327021598815918,-0.6708876490592957,-2.9159533977508545
1763701034993681400,2.797681396484375,4.721338272094727,-0.1657029688358307,-2.3533411026000977
1763701035003268000,2.80726806640625,4.462913513183594,-0.16809579730033875,-1.7883358001708984
1763701035012854000,2.81685400390625,4.170690059661865,-0.17766708135604858,-1.2951152324676514
1763701035022440700,2.826440673828125,3.7971103191375732,-0.1537388563156128,-0.9505487680435181
1763701035032028200,2.836028076171875,3.5147573947906494,-0.373878538608551,-0.6942176818847656
1763701035041614800,2.84561474609375,3.385545015335083,-0.620638370513916,-0.6248258352279663
1763701035051200500,2.855200439453125,3.098107099533081,-0.9747761487960815,-0.8213363885879517
1763701035060787500,2.864787353515625,2.760719060897827,-1.1018948554992676,-1.1635099649429321
1763701035070375000,2.874375,2.456531524658203,-0.7666005492210388,-1.5897315740585327
1763701035079961600,2.883961669921875,2.501995086669922,-0.618245542049408,-2.231307029724121
1763701035089547300,2.89354736328125,3.0837502479553223,-0.9077770709991455,-3.030808925628662
1763701035099134000,2.903134033203125,3.895515203475952,-1.3148560523986816,-3.840181350708008
1763701035108721400,2.912721435546875,4.819443702697754,-1.9181464910507202,-4.374079704284668
1763701035118308400,2.922308349609375,5.626423358917236,-2.6841487884521484,-4.769194602966309
1763701035137480700,2.941480712890625,6.725327014923096,-4.137489318847656,-5.925526142120361
1763701035147068200,2.951068115234375,7.012465953826904,-5.016253471374512,-6.380162239074707
1763701035156654800,2.96065478515625,7.6636128425598145,-6.074479579925537,-6.607779502868652
1763701035166240800,2.97024072265625,8.575876235961914,-6.864409923553467,-7.493422985076904
1763701035175827500,2.979827392578125,9.753743171691895,-8.02074146270752,-9.506983757019043
1763701035185415000,2.989414794921875,11.051251411437988,-9.567401885986328,-11.771790504455566
1763701035195001600,2.999001708984375,11.894123077392578,-10.273584365844727,-14.05095386505127
1763701035204587500,3.00858740234375,12.272488594055176,-9.86411190032959,-16.377973556518555
1763701035214174200,3.01817431640625,12.35145092010498,-8.638388633728027,-18.71456527709961
1763701035223761700,3.02776171875,12.301201820373535,-6.878767013549805,-20.51755714416504
1763701035233348400,3.037348388671875,11.915658950805664,-4.9393839836120605,-20.941085815429688
1763701035242934300,3.046934326171875,10.713863372802734,-3.0672996044158936,-19.763219833374023
1763701035252521000,3.05652099609375,9.614959716796875,-1.3962119817733765,-17.589340209960938
1763701035262108400,3.0661083984375,8.70508861541748,-0.1824527233839035,-15.176178932189941
1763701035271695000,3.075695068359375,7.9127655029296875,0.4902295470237732,-12.844372749328613
1763701035281281000,3.085281005859375,7.378866672515869,0.7872386574745178,-10.656136512756348
1763701035290867700,3.09486767578125,6.900003433227539,0.6601199507713318,-8.369794845581055
1763701035300455200,3.104455078125,6.385247230529785,1.3761720657348633,-6.701099872589111
1763701035310041900,3.114041748046875,5.169095039367676,2.09431791305542,-5.549553871154785
1763701035319627800,3.123627685546875,4.635196685791016,2.101496458053589,-4.8074798583984375
1763701035329214500,3.13321435546875,4.54426908493042,2.048854351043701,-4.316651821136475
1763701035338802000,3.142802001953125,4.3310089111328125,2.443969249725342,-4.0435709953308105
1763701035348388600,3.152388671875,4.302295207977295,2.8268208503723145,-3.9239299297332764
1763701035357974500,3.161974609375,4.225724697113037,2.8914270401000977,-3.6248271465301514
1763701035367561200,3.171561279296875,4.299902439117432,2.99222469329834,-3.3828530311584473
1763701035377148700,3.181148681640625,4.328616142272949,3.104687452316284,-3.191427230834961
1763701035386735400,3.1907353515625,4.34536600112915,3.403790235519409,-3.1722846031188965
1763701035396321000,3.200321044921875,4.35254430770874,3.822833299636841,-3.1579277515411377
1763701035405908000,3.209907958984375,4.369294166564941,4.256233215332031,-3.129213809967041
1763701035415495400,3.219495361328125,4.776372909545898,4.646562576293945,-3.5048868656158447
1763701035425082000,3.22908203125,5.576174259185791,4.622634410858154,-4.649254322052002
1763701035434667800,3.238667724609375,6.437889099121094,3.9951164722442627,-6.725028038024902
1763701035444254700,3.248254638671875,7.524828910827637,3.1238300800323486,-9.523733139038086
1763701035453842200,3.25784228515625,8.394021987915039,1.6441682577133179,-13.019048690795898
1763701035463428900,3.267428955078125,9.497711181640625,-0.7570292353630066,-17.654245376586914
1763701035473014500,3.2770146484375,11.036894798278809,-2.983550786972046,-21.927528381347656
1763701035482601500,3.2866015625,12.202796936035156,-3.290131092071533,-24.47020149230957
1763701035492188700,3.296188720703125,12.18365478515625,-2.3802602291107178,-25.703102111816406
1763701035501775400,3.305775390625,11.127821922302246,-0.9604191780090332,-25.453950881958008
1763701035511361300,3.315361328125,11.760125160217285,-0.9675976634025574,-25.006492614746094
1763701035520948000,3.324947998046875,12.976277351379395,-1.207179069519043,-23.78046989440918
1763701035530535400,3.334535400390625,12.346665382385254,-1.3076776266098022,-20.859729766845703
1763701035540122000,3.3441220703125,10.876575469970703,-1.26699960231781,-16.727624893188477
1763701035549708000,3.3537080078125,8.961420059204102,-1.333998680114746,-12.894621849060059
1763701035559294700,3.363294677734375,7.1488566398620605,-1.5879368782043457,-9.600303649902344
1763701035568882200,3.372882080078125,5.779563903808594,-2.2989044189453125,-7.191927433013916
1763701035578468900,3.38246875,4.821836948394775,-3.3643085956573486,-5.578267574310303
1763701035588054800,3.3920546875,3.7851462364196777,-3.8790645599365234,-4.232903480529785
1763701035597641500,3.401641357421875,3.0957143306732178,-4.618745803833008,-3.4618160724639893
1763701035607229000,3.41122900390625,3.033500909805298,-5.705685615539551,-2.7915267944335938
1763701035616815600,3.420815673828125,2.8037898540496826,-6.311368942260742,-1.8026927709579468
1763701035626401500,3.430401611328125,2.1933209896087646,-6.576972007751465,-0.2754737138748169
1763701035635988200,3.43998828125,1.5777673721313477,-6.689733982086182,1.5035899877548218
1763701035645575700,3.44957568359375,1.0199406147003174,-6.481259346008301,2.724527597427368
1763701035655162400,3.459162353515625,0.9505487680435181,-6.500401973724365,3.3445677757263184
1763701035664748300,3.468748291015625,1.410269856452942,-6.713662147521973,3.5958142280578613
1763701035674335000,3.4783349609375,2.0781664848327637,-6.809374809265137,3.4378879070281982
1763701035683922400,3.48792236328125,2.6623141765594482,-6.79741096496582,2.848954439163208
1763701035693509000,3.497509033203125,3.423830032348633,-6.806982040405273,2.0685951709747314
1763701035703095000,3.507094970703125,4.187439441680908,-6.579364776611328,1.2903295755386353
1763701035712681700,3.516681640625,4.819443702697754,-6.045466423034668,0.3281157910823822
1763701035722269200,3.526269287109375,5.805884838104248,-6.112764358520508,-1.292722463607788
1763701035731856000,3.53585595703125,7.057929515838623,-7.0271220207214355,-3.4378879070281982
1763701035741441800,3.54544189453125,8.175975799560547,-7.086942672729492,-5.1065826416015625
1763701035751028500,3.555028564453125,8.90638542175293,-5.473282814025879,-6.813562393188477
1763701035760616000,3.564615966796875,9.528818130493164,-2.945265531539917,-9.241379737854004
1763701035770202600,3.57420263671875,11.041680335998535,-0.8335995674133301,-12.379866600036621
1763701035779788500,3.58378857421875,13.170095443725586,0.7561319470405579,-15.058930397033691
1763701035789375200,3.593375244140625,14.501103401184082,2.494218587875366,-16.09562110900879
1763701035798962700,3.602962646484375,14.60668659210205,4.194019794464111,-15.23599910736084
1763701035808549400,3.61254931640625,14.070395469665527,5.252245903015137,-13.004692077636719
1763701035818135000,3.622135009765625,13.103096961975098,5.556134223937988,-10.220343589782715
1763701035827722000,3.631721923828125,11.580364227294922,5.292923450469971,-7.383353233337402
1763701035837309400,3.641309326171875,9.631709098815918,4.964807987213135,-4.620540618896484
1763701035846896000,3.650896240234375,7.33340311050415,4.799703121185303,-2.221735715866089
1763701035856482000,3.66048193359375,5.463412284851074,4.452444553375244,-0.5578267574310303
1763701035866068700,3.67006884765625,3.7301113605499268,4.241876125335693,0.4334000051021576
1763701035875656200,3.67965625,2.4349961280822754,4.0767717361450195,0.8425726890563965
1763701035885243000,3.689242919921875,1.5466607809066772,3.70558500289917,0.7731808423995972
1763701035894828500,3.69882861328125,0.8548358678817749,3.3296127319335938,0.4980062246322632
1763701035904415500,3.70841552734375,0.4668995141983032,2.908475875854492,0.2799602448940277
1763701035914002700,3.718002685546875,0.1534397453069687,2.5899314880371094,0.0933200865983963
1763701035923589600,3.727589599609375,-0.042771704494953156,2.353041887283325,-0.21774685382843018
1763701035933175300,3.73717529296875,0.055334024131298065,2.2785654067993164,-0.6367899179458618
1763701035942762000,3.746761962890625,0.5102694034576416,2.4559333324432373,-1.3070793151855469
1763701035952349700,3.756349609375,1.532303810119629,2.7789642810821533,-2.3844478130340576
1763701035961936100,3.76593603515625,2.566601276397705,3.4830524921417236,-3.6320056915283203
1763701035971522000,3.77552197265625,3.200998544692993,4.292125701904297,-5.140082359313965
1763701035981108700,3.785108642578125,4.309473514556885,4.66570520401001,-7.682755470275879
1763701035990696200,3.7946962890625,6.344569206237793,4.483551502227783,-11.561222076416016
1763701036000283000,3.804282958984375,9.12413215637207,3.650550127029419,-16.01905059814453
1763701036009868800,3.813868896484375,11.989835739135742,2.6856443881988525,-20.230119705200195
1763701036019455500,3.82345556640625,14.053645133972168,2.4655046463012695,-23.172393798828125
1763701036029043000,3.83304296875,14.276178359985352,3.157329559326172,-24.240190505981445
1763701036038629600,3.842629638671875,13.141382217407227,4.167698860168457,-23.9554443359375
1763701036048215600,3.852215576171875,12.636197090148926,4.416552543640137,-23.081466674804688
1763701036057802200,3.86180224609375,13.234702110290527,3.6888351440429688,-22.049562454223633
1763701036067389700,3.8713896484375,13.536497116088867,2.932404041290283,-20.493629455566406
1763701036076976400,3.880976318359375,12.633804321289062,2.74546480178833,-18.00838279724121
1763701036086562300,3.890562255859375,11.034502029418945,2.7622146606445312,-15.130714416503906
1763701036096149000,3.90014892578125,9.439984321594238,2.5899314880371094,-12.255439758300781
1763701036105736400,3.909736328125,8.161619186401367,1.9579271078109741,-9.638588905334473
1763701036115323100,3.9193232421875,7.290332317352295,1.062413215637207,-7.184749126434326
1763701036124909000,3.928908935546875,6.289534091949463,0.5428716540336609,-4.919942378997803
1763701036134495700,3.938495849609375,5.3007001876831055,0.2964109182357788,-3.098107099533081
1763701036144083200,3.948083251953125,4.651946544647217,0.07597211748361588,-1.9175482988357544
1763701036153670000,3.957669921875,4.275974273681641,-0.048454657196998596,-1.1874382495880127
1763701036163255800,3.967255859375,4.015156269073486,-0.14656038582324982,-0.7157530784606934
1763701036172842500,3.976842529296875,3.7660038471221924,-0.2566302418708801,-0.4860421121120453
1763701036182430000,3.986429931640625,3.4669008255004883,-0.2805584669113159,-0.34247273206710815
1763701036192016600,3.9960166015625,3.1387851238250732,-0.251844584941864,-0.17946170270442963
1763701036201602600,4.0056025390625,2.722134828567505,-0.09631111472845078,-0.10049854964017868
1763701036211189200,4.015189208984375,2.3009979724884033,0.08554340898990631,-0.05503492057323456
1763701036220776700,4.024776611328125,2.001596212387085,0.1504487246274948,0.05503492057323456
1763701036230363400,4.03436328125,1.7647067308425903,-0.0364905446767807,0.34725838899612427
1763701036239949300,4.04394921875,1.695314884185791,-0.39541393518447876,0.3400799036026001
1763701036249536000,4.053535888671875,1.6307085752487183,-0.49621158838272095,0.07417750358581543
1763701036259123500,4.06312353515625,1.5035899877548218,-0.8766704201698303,-0.27308088541030884
1763701036268710100,4.072710205078125,1.8891334533691406,-1.4656038284301758,-0.8883354067802429
1763701036278296000,4.082296142578125,2.478066921234131,-2.145763635635376,-1.4724832773208618
1763701036287882800,4.0918828125,2.736790895462036,-2.6458635330200195,-2.1547367572784424
1763701036297470200,4.10147021484375,2.956930637359619,-3.1606194972991943,-2.722134828567505
1763701036307057000,4.111056884765625,3.292224884033203,-3.7902309894561768,-3.301496982574463
1763701036316642800,4.120642822265625,3.8162529468536377,-4.563711166381836,-3.7827534675598145
1763701036326229500,4.1302294921875,4.769194602966309,-5.396712303161621,-4.091427803039551
1763701036335817000,4.13981689453125,6.296712875366211,-6.33290433883667,-4.261617183685303
1763701036345403600,4.149403564453125,7.704290866851807,-7.5203423500061035,-4.366901397705078
1763701036354989300,4.1589892578125,8.990134239196777,-8.688637733459473,-4.543970108032227
1763701036364576300,4.168576171875,10.507781982421875,-9.990931510925293,-4.967798709869385
1763701036374163700,4.178163818359375,12.061620712280273,-11.580663681030273,-5.547161102294922
1763701036383750400,4.18775048828125,13.26102352142334,-12.495320320129395,-6.258128643035889
1763701036393336300,4.19733642578125,14.046466827392578,-12.14327621459961,-7.182356357574463
1763701036402923000,4.206923095703125,14.381462097167969,-10.929516792297363,-8.63061237335205
1763701036412510500,4.216510498046875,14.273785591125488,-9.354142189025879,-10.265807151794434
1763701036422097200,4.22609716796875,13.873885154724121,-7.601698398590088,-11.434103012084961
1763701036431682800,4.235682861328125,12.911670684814453,-5.810969829559326,-11.685648918151855
1763701036441269800,4.245269775390625,11.726625442504883,-4.4033918380737305,-10.97468090057373
1763701036450857200,4.254857177734375,10.914860725402832,-3.6131622791290283,-10.02173900604248
1763701036460444000,4.26444384765625,10.445568084716797,-3.4097721576690674,-9.119047164916992
1763701036470029600,4.274029541015625,9.78963565826416,-3.431307554244995,-8.034500122070312
1763701036479616500,4.283616455078125,8.681160926818848,-3.445664644241333,-6.80159854888916
1763701036489204000,4.293203857421875,7.3884382247924805,-3.1319057941436768,-5.657230854034424
1763701036498790400,4.302790283203125,6.464210510253906,-2.444866418838501,-4.812265396118164
1763701036508376300,4.312376220703125,5.927918910980225,-1.755434513092041,-4.493721008300781
1763701036517963000,4.321962890625,5.805884838104248,-1.3435698747634888,-4.618147850036621
1763701036527550500,4.331550537109375,5.815456390380859,-1.0947163105010986,-4.852943420410156
1763701036537137400,4.341137451171875,5.700600624084473,-0.8192426562309265,-5.025226593017578
1763701036546723000,4.35072314453125,5.616852283477783,-0.3523431420326233,-5.113760948181152
1763701036556310000,4.36031005859375,5.638387680053711,0.3323032557964325,-5.199902534484863
1763701036565897200,4.369897216796875,5.793920993804932,0.8638089895248413,-5.226223945617676
1763701036575484000,4.37948388671875,6.073881149291992,1.0719845294952393,-5.327021598815918
1763701036585069800,4.38906982421875,6.751648426055908,1.0408778190612793,-5.635695457458496
1763701036594656500,4.398656494140625,7.6253275871276855,0.9475577473640442,-6.2174506187438965
1763701036604244000,4.408243896484375,8.650053977966309,1.0217353105545044,-6.892525672912598
1763701036613830700,4.41783056640625,9.751350402832031,0.97148597240448,-7.541578769683838
1763701036623416600,4.42741650390625,10.89571762084961,0.23180469870567322,-8.247760772705078
1763701036633003300,4.437003173828125,11.800803184509277,-1.2598211765289307,-9.116654396057129
1763701036642590700,4.4465908203125,12.988241195678711,-3.297309637069702,-10.416853904724121
1763701036652177400,4.456177490234375,14.481961250305176,-5.528616905212402,-12.030513763427734
1763701036661763300,4.465763427734375,15.67687702178955,-7.226025104522705,-13.627124786376953
1763701036671350000,4.47535009765625,16.686946868896484,-8.56181812286377,-15.058930397033691
1763701036680937500,4.4849375,17.422142028808594,-9.346963882446289,-15.868002891540527
1763701036690524200,4.494524169921875,17.702102661132812,-9.318249702453613,-15.860824584960938
1763701036700110000,4.504110107421875,17.30937957763672,-8.674281120300293,-14.865111351013184
1763701036709696800,4.51369677734375,16.907384872436523,-7.929814338684082,-13.931312561035156
1763701036719284200,4.5232841796875,16.98395538330078,-7.546663284301758,-13.605589866638184
1763701036728871000,4.532870849609375,17.453248977661133,-7.532306671142578,-13.763814926147461
1763701036738456800,4.542456787109375,17.635103225708008,-7.3384881019592285,-13.804492950439453
1763701036748043500,4.55204345703125,17.460426330566406,-6.79741096496582,-13.730315208435059
1763701036757631000,4.561630859375,16.816457748413086,-6.093621730804443,-13.481163024902344
1763701036767217700,4.5712177734375,15.72951889038086,-5.458925724029541,-13.009477615356445
1763701036776803600,4.580803466796875,14.364712715148926,-4.920241355895996,-12.260225296020508
1763701036786390300,4.590390380859375,12.954741477966309,-4.580460548400879,-11.400603294372559
1763701036795977700,4.599977783203125,11.513364791870117,-4.554139614105225,-10.474282264709473
1763701036805564400,4.609564453125,10.285248756408691,-4.841278553009033,-9.562018394470215
1763701036815150300,4.619150390625,9.104989051818848,-5.296213626861572,-8.508578300476074
1763701036824737000,4.628737060546875,8.08504867553711,-5.8923258781433105,-7.5101728439331055
1763701036834324500,4.638324462890625,7.414759159088135,-6.723233222961426,-6.856633186340332
1763701036843911200,4.6479111328125,6.828218460083008,-7.326523780822754,-6.3825554847717285
1763701036853497000,4.6574970703125,6.289534091949463,-7.752446174621582,-5.906383514404297
1763701036863083800,4.667083740234375,5.937490463256836,-8.219346046447754,-5.494519233703613
1763701036872671200,4.676671142578125,5.899205207824707,-8.997611045837402,-5.166403293609619
1763701036882258000,4.6862578125,5.631208896636963,-9.73968505859375,-4.584648132324219
1763701036891843800,4.69584375,5.176273345947266,-9.833005905151367,-4.00528621673584
1763701036901430500,4.705430419921875,4.764409065246582,-9.643972396850586,-3.445066452026367
1763701036911018000,4.71501806640625,4.539483547210693,-9.531510353088379,-2.942274570465088
1763701036920604700,4.724604736328125,4.299902439117432,-9.509974479675293,-2.1571295261383057
1763701036930190600,4.734190673828125,3.9672999382019043,-9.442975044250488,-0.9433703422546387
1763701036939777300,4.74377734375,3.76361083984375,-9.236893653869629,0.17228323221206665
1763701036949364700,4.75336474609375,3.6894333362579346,-9.143573760986328,0.8736793398857117
1763701036958951400,4.762951416015625,3.6655051708221436,-9.08135986328125,1.1371889114379883
1763701036968537300,4.772537353515625,3.708575963973999,-8.983254432678223,0.8808578252792358
1763701036978124000,4.7821240234375,3.8210387229919434,-8.947361946105957,0.1818545162677765
1763701036987711500,4.79171142578125,3.862015724182129,-8.899505615234375,-0.6894320249557495
1763701036997298200,4.801298095703125,3.7109687328338623,-8.755637168884277,-1.599302887916565
1763701037006884000,4.810884033203125,3.5793635845184326,-8.693424224853516,-2.533101797103882
1763701037016470800,4.820470703125,3.5147573947906494,-8.836993217468262,-3.421138286590576
1763701037026058200,4.830058349609375,3.536292791366577,-9.155537605285645,-4.175475597381592
1763701037035645000,4.83964501953125,3.6343984603881836,-9.526723861694336,-4.738088130950928
1763701037045230800,4.84923095703125,3.7133617401123047,-9.823433876037598,-5.152046203613281
1763701037054817500,4.858817626953125,3.6726837158203125,-9.971789360046387,-5.389235019683838
1763701037064405000,4.868405029296875,3.5554354190826416,-10.01994514465332,-5.360520839691162
1763701037073991700,4.87799169921875,3.574577808380127,-9.947860717773438,-5.204688549041748
1763701037083577600,4.88757763671875,3.7301113605499268,-9.780363082885742,-4.963013172149658
1763701037093164300,4.897164306640625,3.9218363761901855,-9.60090160369873,-4.47697114944458
1763701037102751700,4.906751708984375,4.139583110809326,-9.306285858154297,-3.7851462364196777
1763701037112338400,4.91633837890625,4.342973232269287,-8.856135368347168,-3.0332016944885254
1763701037121924400,4.92592431640625,4.752444744110107,-8.43021297454834,-2.3772692680358887
1763701037131511000,4.935510986328125,5.310271739959717,-7.941778182983398,-1.8290138244628906
1763701037141098500,4.945098388671875,5.860919952392578,-7.383951663970947,-1.3959128856658936
1763701037150685200,4.954685302734375,6.454638957977295,-6.8141608238220215,-1.0845468044281006
1763701037160271000,4.96427099609375,7.05553674697876,-6.256333827972412,-0.8237292170524597
1763701037169857800,4.97385791015625,7.496115207672119,-5.68175745010376,-0.6415755748748779
1763701037179445200,4.9834453125,7.941479206085205,-5.095216751098633,-0.6798607110977173
1763701037189032000,4.993031982421875,8.537590980529785,-4.539782524108887,-0.7899305820465088
1763701037198617900,5.002617919921875,9.002098083496094,-3.9580278396606445,-0.9170492887496948
1763701037208204500,5.01220458984375,9.289237022399902,-3.4887354373931885,-0.9290133714675903
1763701037217792000,5.0217919921875,9.396913528442383,-3.179762125015259,-0.9529415965080261
1763701037227378700,5.031378662109375,9.514460563659668,-3.0744779109954834,-1.0917253494262695
1763701037236964400,5.04096435546875,9.591031074523926,-3.024228811264038,-1.379163146018982
1763701037246551300,5.05055126953125,9.54796028137207,-2.794517755508423,-1.599302887916565
1763701037256138800,5.060138671875,9.444769859313965,-2.516651153564453,-1.7261223793029785
1763701037265725400,5.069725341796875,9.392127990722656,-2.3946173191070557,-1.8529419898986816
1763701037275311400,5.079311279296875,9.531210899353027,-2.578864574432373,-2.025524377822876
1763701037284898000,5.08889794921875,9.701101303100586,-2.9404799938201904,-2.2432711124420166
1763701037294485500,5.098485595703125,9.859027862548828,-3.1534411907196045,-2.4083759784698486
1763701037304072200,5.108072265625,10.004989624023438,-3.2012975215911865,-2.5953152179718018
1763701037313657900,5.117657958984375,10.194321632385254,-3.1606194972991943,-2.8848466873168945
1763701037323244800,5.127244873046875,10.500602722167969,-3.055335521697998,-3.325425386428833
1763701037332832300,5.136832275390625,10.85025405883789,-2.9500513076782227,-3.7133617401123047
1763701037342419000,5.1464189453125,11.070393562316895,-2.7370901107788086,-3.873680830001831
1763701037352004600,5.156004638671875,11.214262008666992,-2.475973129272461,-4.029214382171631
1763701037361591600,5.165591552734375,11.329117774963379,-2.2199411392211914,-4.3070807456970215
1763701037371179000,5.175178955078125,11.451151847839355,-2.0018951892852783,-4.740480899810791
1763701037380765700,5.184765625,11.455937385559082,-1.7650058269500732,-5.310271739959717
1763701037390351400,5.194351318359375,11.353046417236328,-1.750648856163025,-5.97098970413208
1763701037399938000,5.20393798828125,11.252547264099121,-2.030609130859375,-6.73938512802124
1763701037409525800,5.21352587890625,11.142477989196777,-2.6291139125823975,-7.64447021484375
1763701037419112400,5.223112548828125,11.048858642578125,-3.3379876613616943,-8.542078018188477
1763701037428698000,5.232697998046875,10.747363090515137,-4.005884170532227,-9.411270141601562
1763701037438285000,5.24228515625,10.311570167541504,-4.463212490081787,-10.150951385498047
1763701037447872500,5.25187255859375,9.78245735168457,-4.822135925292969,-10.71834945678711
1763701037457459200,5.261459228515625,9.219844818115234,-5.190929412841797,-11.127821922302246
1763701037467044900,5.271044921875,8.779266357421875,-5.648257732391357,-11.261819839477539
1763701037476631800,5.2806318359375,8.307580947875977,-6.0502519607543945,-11.132607460021973
1763701037486219300,5.29021923828125,7.807481288909912,-6.304190158843994,-10.864312171936035
1763701037495806000,5.299805908203125,7.445865631103516,-6.799803733825684,-10.529316902160645
1763701037505391600,5.3093916015625,7.232904434204102,-7.534699440002441,-10.150951385498047
1763701037514978600,5.318978515625,7.002894401550293,-8.406285285949707,-9.75105094909668
1763701037524566000,5.32856591796875,6.7779693603515625,-9.334999084472656,-9.320343017578125
1763701037534152700,5.338152587890625,6.464210510253906,-10.225728034973145,-8.958727836608887
1763701037543738400,5.34773828125,6.002096652984619,-10.881660461425781,-8.589934349060059
1763701037553325300,5.3573251953125,5.590530872344971,-11.346166610717773,-8.19511890411377
1763701037562912800,5.366912841796875,5.341378211975098,-11.918350219726562,-7.943572998046875
1763701037572499200,5.376499267578125,5.25762939453125,-12.502498626708984,-7.699504852294922
1763701037582085000,5.386085205078125,5.264808177947998,-12.967004776000977,-7.469494819641113
1763701037591671800,5.395671875,5.315057277679443,-13.357034683227539,-7.287640571594238
1763701037601259500,5.405259521484375,5.484947681427002,-13.59183120727539,-7.1488566398620605
1763701037610846200,5.41484619140625,5.6359944343566895,-13.570295333862305,-7.041179656982422
1763701037620432000,5.424431884765625,5.62163782119751,-13.254143714904785,-6.961917400360107
1763701037630018800,5.434018798828125,5.494519233703613,-12.634103775024414,-6.8518476486206055
1763701037639606000,5.44360595703125,5.262415409088135,-11.789137840270996,-6.73938512802124
1763701037649193000,5.45319287109375,4.9654059410095215,-10.840982437133789,-6.626922130584717
1763701037658778600,5.462778564453125,4.740480899810791,-10.003194808959961,-6.636493682861328
1763701037668365300,5.472365234375,4.6184468269348145,-9.327820777893066,-6.775277137756348
1763701037677953000,5.481953125,4.589733123779297,-8.79631519317627,-6.998108863830566
1763701037687539500,5.49153955078125,4.527519702911377,-8.40867805480957,-7.191927433013916
1763701037697125400,5.50112548828125,4.496412754058838,-8.183453559875488,-7.414460182189941
1763701037706712000,5.510712158203125,4.434199333190918,-7.989634990692139,-7.5702924728393555
1763701037716299500,5.520299560546875,4.359723091125488,-7.8317084312438965,-7.694719314575195
1763701037725886500,5.529886474609375,4.340580463409424,-7.8388872146606445,-7.7593255043029785
1763701037735472000,5.53947216796875,4.436592102050781,-8.01356315612793,-7.8526458740234375
1763701037745058800,5.549058837890625,4.522733688354492,-8.219346046447754,-7.859824180603027
1763701037754646500,5.558646484375,4.4605207443237305,-8.43739128112793,-7.65164852142334
1763701037764233000,5.56823291015625,4.3310089111328125,-8.717351913452148,-7.323532581329346
1763701037773819000,5.57781884765625,4.158725738525391,-9.138788223266602,-6.866204738616943
1763701037783405600,5.587405517578125,4.086941242218018,-9.655936241149902,-6.368198394775391
1763701037792993000,5.596992919921875,3.8763725757598877,-9.993324279785156,-5.752943992614746
1763701037802580000,5.606580078125,3.529114246368408,-10.170692443847656,-4.991727352142334
1763701037812165600,5.61616552734375,3.200998544692993,-10.314262390136719,-4.1608195304870605
1763701037821752300,5.62575244140625,2.8755745887756348,-10.438689231872559,-3.3469607830047607
1763701037831339800,5.63533984375,2.5929224491119385,-10.563414573669434,-2.5689942836761475
1763701037840926700,5.6449267578125,2.3297119140625,-10.546365737915039,-1.9872392416000366
1763701037850512400,5.654512451171875,1.994417667388916,-10.223334312438965,-1.6040884256362915
1763701037860099000,5.66409912109375,1.8029918670654297,-9.773184776306152,-1.4796617031097412
1763701037869686800,5.673686767578125,1.8915263414382935,-9.404391288757324,-1.6184453964233398
1763701037879273200,5.683273193359375,2.186142683029175,-9.057432174682617,-1.9489539861679077
1763701037888859100,5.692859130859375,2.674278497695923,-8.75802993774414,-2.3772692680358887
1763701037898445800,5.70244580078125,3.392723321914673,-8.707780838012695,-2.825026273727417
1763701037908033300,5.712033203125,4.185046672821045,-8.832207679748535,-3.184248685836792
1763701037917620200,5.7216201171875,4.8074798583984375,-8.81067180633545,-3.3062827587127686
1763701037927206000,5.731205810546875,5.0638108253479,-8.537890434265137,-3.19860577583313
1763701037936792800,5.740792724609375,5.0566325187683105,-8.001599311828613,-2.8704898357391357
1763701037946380000,5.750380126953125,5.023132801055908,-7.527521133422852,-2.525923490524292
1763701037955966700,5.759966796875,5.116453170776367,-7.273881912231445,-2.2648067474365234
1763701037965552600,5.769552734375,5.288736343383789,-7.106084823608398,-1.939382791519165
1763701037975139300,5.779139404296875,5.377270698547363,-6.8309102058410645,-1.596909999847412
1763701037984727000,5.78872705078125,5.494519233703613,-6.668198585510254,-1.4413765668869019
1763701037994313500,5.7983134765625,5.7221360206604,-6.74237585067749,-1.5107684135437012
1763701038003899400,5.8078994140625,5.9566330909729,-6.9481587409973145,-1.7189439535140991
1763701038013486000,5.817486083984375,6.200999736785889,-7.175477027893066,-1.9489539861679077
1763701038023073500,5.827073486328125,6.509674072265625,-7.374380111694336,-2.1020946502685547
1763701038032660500,5.836660400390625,6.80668306350708,-7.410272598266602,-2.1332013607025146
1763701038042246100,5.84624609375,7.022037029266357,-7.257132053375244,-2.025524377822876
1763701038051832800,5.855832763671875,7.319046497344971,-6.99840784072876,-1.9298114776611328
1763701038061420300,5.865420166015625,7.666005611419678,-6.677769660949707,-1.7620147466659546
1763701038071007000,5.875007080078125,8.015656471252441,-6.2276201248168945,-1.4820544719696045
1763701038080593000,5.884593017578125,8.247760772705078,-5.5142598152160645,-1.1180464029312134
1763701038090179600,5.8941796875,8.307580947875977,-4.743172645568848,-0.7636095285415649
1763701038099767000,5.90376708984375,8.427521705627441,-4.06331205368042,-0.5027918815612793
1763701038109353700,5.913353759765625,8.662017822265625,-3.541377544403076,-0.4334000051021576
1763701038118939600,5.922939697265625,8.90638542175293,-3.172583818435669,-0.5027918815612793
1763701038128526300,5.9325263671875,9.01406192779541,-2.945265531539917,-0.6774678826332092
1763701038138113800,5.94211376953125,9.109774589538574,-2.8615167140960693,-0.8548358678817749
1763701038147700700,5.95170068359375,9.148059844970703,-2.8782665729522705,-0.9649057388305664
1763701038157286400,5.961286376953125,9.042776107788086,-2.8639094829559326,-1.0390832424163818
1763701038166873000,5.970873046875,8.788837432861328,-2.828017234802246,-1.0654042959213257
1763701038176460800,5.980460693359375,8.57348346710205,-2.8758738040924072,-1.0462616682052612
1763701038186047200,5.990047119140625,8.432307243347168,-2.976372241973877,-1.0558329820632935
1763701038195633200,5.999633056640625,8.197511672973633,-3.0433712005615234,-1.0845468044281006
1763701038205219800,6.0092197265625,8.025228500366211,-3.096013307571411,-1.1324033737182617
1763701038214807300,6.018807373046875,7.8888373374938965,-3.0912277698516846,-1.1778669357299805
1763701038224394000,6.02839404296875,7.814659595489502,-3.0026934146881104,-1.2376874685287476
1763701038233980000,6.03797998046875,7.783553123474121,-2.921337366104126,-1.3142578601837158
1763701038243566600,6.047566650390625,7.725826263427734,-2.7777678966522217,-1.3719847202301025
1763701038253154000,6.057154052734375,7.658827304840088,-2.602792739868164,-1.4126626253128052
1763701038262741000,6.066740966796875,7.58943510055542,-2.373081922531128,-1.5083755254745483
1763701038272326700,6.07632666015625,7.453044414520264,-2.1047866344451904,-1.6567305326461792
1763701038281913300,6.085913330078125,7.273582458496094,-1.7889339923858643,-1.7883358001708984
1763701038291501000,6.0955009765625,7.1488566398620605,-1.4799607992172241,-1.9489539861679077
1763701038301087500,6.10508740234375,7.014858722686768,-1.113858938217163,-2.0303099155426025
1763701038310673400,6.11467333984375,6.8018975257873535,-0.6565307378768921,-1.9872392416000366
1763701038320260000,6.124260009765625,6.5527448654174805,-0.18005990982055664,-1.7955143451690674
1763701038329847800,6.133847900390625,6.406782627105713,0.1624128371477127,-1.6328023672103882
1763701038339434500,6.1434345703125,6.351747512817383,0.3849453330039978,-1.5442678928375244
1763701038349020200,6.153020263671875,6.370890140533447,0.516550600528717,-1.5275181531906128
1763701038358606800,6.16260693359375,6.514459609985352,0.41605204343795776,-1.5825530290603638
1763701038368194300,6.1721943359375,6.864110946655273,-0.13220344483852386,-1.77397882938385
1763701038377781200,6.18178125,7.3262248039245605,-1.0082756280899048,-2.001596212387085
1763701038387367000,6.191366943359375,7.70668363571167,-2.0497517585754395,-2.214557409286499
1763701038396953900,6.200953857421875,7.857730388641357,-3.2156546115875244,-2.4011974334716797
1763701038406541300,6.210541259765625,8.16401195526123,-4.587639331817627,-2.5689942836761475
1763701038416127700,6.220127685546875,8.72901725769043,-6.222834587097168,-2.865704298019409
1763701038425713700,6.229713623046875,9.629316329956055,-8.286344528198242,-3.387638568878174
1763701038435300400,6.23930029296875,10.115358352661133,-10.137192726135254,-3.746861219406128
1763701038444888000,6.24888818359375,10.158429145812988,-10.900802612304688,-3.9717864990234375
1763701038454474800,6.258474853515625,10.773683547973633,-11.671590805053711,-4.711467742919922
1763701038464060400,6.268060302734375,12.20518970489502,-12.79202938079834,-5.702694416046143
1763701038473647400,6.2776474609375,13.648959159851074,-12.904791831970215,-6.4594244956970215
1763701038483234600,6.287234619140625,13.529317855834961,-10.998908042907715,-6.452246189117432
1763701038492821500,6.296821533203125,11.922837257385254,-8.102097511291504,-5.975775241851807
1763701038502407200,6.3064072265625,10.603793144226074,-5.904289722442627,-5.865705490112305
1763701038511994000,6.315994140625,10.280463218688965,-4.812564373016357,-6.346662998199463
1763701038521581600,6.32558154296875,10.266106605529785,-4.506283283233643,-7.014858722686768
1763701038531168000,6.33516796875,10.06750202178955,-4.446462631225586,-7.457530975341797
1763701038540754000,6.34475390625,9.631709098815918,-4.269094467163086,-7.526922702789307
1763701038550340600,6.354340576171875,8.8438720703125,-4.12552547454834,-7.378567695617676
1763701038559928300,6.36392822265625,7.83619499206543,-3.8862431049346924,-6.966702938079834
1763701038569515000,6.373514892578125,6.689435005187988,-3.680161237716675,-6.291627883911133
1763701038579100700,6.3831005859375,5.568995475769043,-3.682554006576538,-5.501697540283203
1763701038588687600,6.3926875,5.023132801055908,-4.2092742919921875,-4.896014213562012
1763701038598275000,6.402275146484375,4.934299468994141,-4.989932537078857,-4.450650215148926
1763701038607861800,6.41186181640625,4.699802875518799,-5.387141227722168,-3.9095730781555176
1763701038617447400,6.421447509765625,4.232903480529785,-5.322535037994385,-3.1627132892608643
1763701038627034400,6.431034423828125,3.78753924369812,-4.966004371643066,-2.4562325477600098
1763701038636621800,6.440621826171875,3.6272199153900146,-4.554139614105225,-2.0159530639648438
1763701038646208500,6.45020849609375,3.895515203475952,-4.223630905151367,-1.963310956954956
1763701038655794200,6.459794189453125,4.5011982917785645,-4.19491720199585,-2.0781664848327637
1763701038665381000,6.469381103515625,4.989633560180664,-4.429712772369385,-2.3533411026000977
1763701038674968600,6.478968505859375,5.56660270690918,-4.79102897644043,-2.7795627117156982
1763701038684555300,6.48855517578125,6.296712875366211,-5.095216751098633,-3.334996461868286
1763701038694141000,6.498140869140625,7.098607540130615,-5.42781925201416,-4.089034557342529
1763701038703727900,6.507727783203125,8.159226417541504,-6.088836193084717,-4.974977493286133
1763701038713315300,6.5173154296875,9.296415328979492,-6.93619441986084,-5.733801364898682
1763701038722902000,6.526902099609375,10.392926216125488,-7.604091167449951,-6.3993048667907715
1763701038732488000,6.536488037109375,11.5014009475708,-7.812565803527832,-7.06271505355835
1763701038742074600,6.54607470703125,12.209976196289062,-7.039085865020752,-7.39771032333374
1763701038751662000,6.555662109375,11.874980926513672,-4.997110843658447,-7.488637447357178
1763701038761248800,6.565248779296875,11.4080810546875,-2.8064818382263184,-7.977072715759277
1763701038770834400,6.57483447265625,11.692827224731445,-1.5134602785110474,-9.068798065185547
1763701038790008800,6.5940087890625,13.730315208435059,-2.650649309158325,-12.097513198852539
1763701038799595500,6.603595458984375,14.671293258666992,-3.953242063522339,-13.304094314575195
1763701038809181200,6.61318115234375,14.53490161895752,-4.3672003746032715,-13.742280006408691
1763701038818768100,6.62276806640625,13.424034118652344,-3.9508492946624756,-13.481163024902344
1763701038828355600,6.63235546875,11.92762279510498,-3.4265220165252686,-12.844372749328613
1763701038837942300,6.6419423828125,10.46231746673584,-3.04097843170166,-11.982358932495117
1763701038847528200,6.651528076171875,9.104989051818848,-2.7203402519226074,-10.965109825134277
1763701038857115000,6.661114990234375,7.817052364349365,-2.4711875915527344,-9.844670295715332
1763701038866702300,6.670702392578125,6.789933204650879,-2.3802602291107178,-8.805587768554688
1763701038876289000,6.6802890625,6.172286033630371,-2.6123640537261963,-7.926823139190674
1763701038885875000,6.689875,5.731707572937012,-3.1845479011535645,-6.988537788391113
1763701038895461600,6.699461669921875,5.200201988220215,-3.751945972442627,-5.860919952392578
1763701038905049000,6.709049072265625,4.66869592666626,-4.3121657371521,-4.362115859985352
1763701038914635800,6.7186357421875,4.110869407653809,-4.59721040725708,-2.4131617546081543
1763701038924221700,6.7282216796875,3.464508056640625,-4.501497745513916,-0.05742774158716202
1763701038933808400,6.737808349609375,2.5929224491119385,-3.649054527282715,2.777169704437256
1763701038943395800,6.747395751953125,1.7575281858444214,-2.3467607498168945,5.659623622894287
1763701038952982500,6.756982421875,1.1015957593917847,-1.2454642057418823,7.8526458740234375
1763701038962568400,6.766568359375,1.1566306352615356,-0.7977072596549988,8.889336585998535
1763701038972155100,6.776155029296875,1.9298114776611328,-1.1473584175109863,8.286046028137207
1763701038981742600,6.78574267578125,3.040679454803467,-2.013859272003174,6.856633186340332
1763701038991329300,6.795329345703125,4.029513359069824,-2.8878378868103027,5.317151069641113
1763701039000915200,6.804915283203125,4.608875751495361,-3.4025938510894775,4.132105827331543
1763701039010502000,6.814501953125,4.659124851226807,-4.0202412605285645,3.4857444763183594
1763701039020089300,6.82408935546875,4.448556423187256,-5.2268218994140625,3.2656047344207764
1763701039029676000,6.833676025390625,4.297509670257568,-6.850052833557129,3.004487991333008
1763701039039262000,6.843261962890625,4.647160530090332,-8.700602531433105,2.568695068359375
1763701039048848600,6.8528486328125,5.439484119415283,-10.781161308288574,1.7428722381591797
1763701039058436000,6.86243603515625,6.129215240478516,-13.096217155456543,0.5003990530967712
1763701039068022800,6.872022705078125,7.153642177581787,-15.9834566116333,-0.6487540602684021
1763701039077608700,6.881608642578125,8.72183895111084,-19.016958236694336,-1.812264084815979
1763701039087195400,6.8911953125,9.739386558532715,-20.946470260620117,-3.248854875564575
1763701039096782800,6.900782958984375,9.964311599731445,-20.98954200744629,-4.237689018249512
1763701039106369500,6.91036962890625,9.985847473144531,-19.174884796142578,-4.970191955566406
1763701039115955500,6.91995556640625,10.469496726989746,-16.50299835205078,-7.105785846710205
1763701039125542100,6.929542236328125,11.601900100708008,-14.195120811462402,-10.071989059448242
1763701039135129600,6.939129638671875,12.863814353942871,-12.363714218139648,-12.59312629699707
1763701039154302200,6.95830224609375,13.818849563598633,-8.490034103393555,-14.333605766296387
1763701039163889000,6.967888916015625,13.620245933532715,-7.211668491363525,-13.299307823181152
1763701039173476400,6.977476318359375,12.767802238464355,-6.462116718292236,-11.522936820983887
1763701039183063000,6.98706298828125,11.336296081542969,-5.461318492889404,-9.451948165893555
1763701039192649000,6.99664892578125,9.655637741088867,-4.252345085144043,-7.495816230773926
1763701039202235600,7.006235595703125,7.8433732986450195,-3.0984063148498535,-5.781657695770264
1763701039211823000,7.015822998046875,6.265605926513672,-2.1960129737854004,-4.632504463195801
1763701039221409800,7.025409912109375,5.293521881103516,-1.7147564888000488,-4.146462440490723
1763701039230995700,7.03499560546875,4.635196685791016,-1.568495273590088,-4.132105827331543
1763701039240582400,7.04458251953125,4.096512317657471,-1.3100703954696655,-4.134498596191406
1763701039250169900,7.054169921875,3.5793635845184326,-0.8455637097358704,-4.1368913650512695
1763701039259756500,7.063756591796875,3.1651060581207275,-0.4097708761692047,-4.168296813964844
1763701039269342500,7.073342529296875,3.040679454803467,-0.13698910176753998,-4.273581027984619
1763701039278929200,7.08292919921875,3.1268210411071777,-0.0364905446767807,-4.326223373413086
1763701039288516600,7.0925166015625,3.3640096187591553,-0.2590230405330658,-4.467400074005127
1763701039298103300,7.102103271484375,3.6176488399505615,-0.6278168559074402,-4.579862594604492
1763701039307689200,7.111689208984375,3.835395574569702,-0.9388837814331055,-4.805087089538574
1763701039317276000,7.12127587890625,3.9768712520599365,-0.9604191780090332,-5.080261707305908
1763701039326863400,7.13086328125,4.122833251953125,-0.5991029739379883,-5.398806095123291
1763701039336450000,7.140449951171875,4.4605207443237305,-0.2997010350227356,-6.02602481842041
1763701039346036000,7.150035888671875,5.176273345947266,-0.6326025128364563,-7.177570819854736
1763701039355622700,7.15962255859375,6.452246189117432,-1.6669000387191772,-8.927620887756348
1763701039365210000,7.169210205078125,8.068299293518066,-2.739482879638672,-11.278569221496582
1763701039374796800,7.178796875,9.449555397033691,-3.5533416271209717,-13.763814926147461
1763701039384382700,7.1883828125,11.19751262664795,-4.850849628448486,-16.112369537353516
1763701039393969400,7.197969482421875,12.806087493896484,-6.713662147521973,-17.89113426208496
1763701039403556900,7.207556884765625,14.3599271774292,-8.123632431030273,-18.752849578857422
1763701039413143600,7.2171435546875,15.2889404296875,-7.63519811630249,-17.826528549194336
1763701039422729500,7.2267294921875,14.561223030090332,-3.775874137878418,-15.293426513671875
1763701039432316200,7.236316162109375,13.131811141967773,1.3259228467941284,-13.078869819641113
1763701039441903600,7.245903564453125,12.770195007324219,4.579264163970947,-12.068799018859863
1763701039451490300,7.255490234375,12.777374267578125,5.71914529800415,-11.790932655334473
1763701039461076200,7.265076171875,12.652947425842285,5.32403039932251,-12.099905967712402
1763701039470663000,7.274662841796875,11.975479125976562,4.1629133224487305,-12.068799018859863
1763701039480250400,7.28425048828125,10.699506759643555,2.5277180671691895,-11.321640014648438
1763701039489837000,7.293837158203125,9.361021041870117,0.8733802437782288,-10.141380310058594
1763701039499423000,7.303423095703125,7.682755470275879,0.22941187024116516,-8.54447078704834
1763701039509009700,7.313009765625,5.841777324676514,0.497408002614975,-6.861418724060059
1763701039518597000,7.32259716796875,4.417449474334717,1.069591760635376,-5.49930477142334
1763701039528184000,7.33218408203125,3.588934898376465,1.5652050971984863,-4.711467742919922
1763701039537769700,7.341769775390625,3.5243287086486816,1.6896319389343262,-4.249652862548828
1763701039547356700,7.351356689453125,3.6870405673980713,1.7374883890151978,-3.864109516143799
1763701039556944100,7.360944091796875,4.022335052490234,1.7303098440170288,-3.605684518814087
1763701039566530800,7.37053076171875,4.771587371826172,1.6226328611373901,-3.6966118812561035
1763701039576116500,7.380116455078125,5.55942440032959,1.4694921970367432,-4.153641223907471
1763701039585703400,7.389703369140625,6.220142364501953,1.191625714302063,-4.824229717254639
1763701039595291000,7.399290771484375,6.873682022094727,0.6747759580612183,-5.745765209197998
1763701039604877600,7.408877685546875,7.532007694244385,-0.0077766734175384045,-6.885347366333008
1763701039614463200,7.418463134765625,8.065905570983887,-0.8359923958778381,-8.012965202331543
1763701039624050200,7.42805029296875,8.645268440246582,-2.0832512378692627,-9.049654960632324
1763701039633637600,7.4376376953125,9.23898696899414,-3.744767427444458,-9.717552185058594
1763701039643224300,7.447224365234375,9.507282257080078,-5.30339241027832,-9.973882675170898
1763701039652810000,7.45681005859375,9.480961799621582,-6.792625427246094,-9.746265411376953
1763701039662397000,7.46639697265625,9.171988487243652,-7.905886173248291,-9.320343017578125
1763701039671984400,7.475984375,8.511270523071289,-8.786744117736816,-8.882157325744629
1763701039681571000,7.485571044921875,8.041977882385254,-10.012765884399414,-8.589934349060059
1763701039691157000,7.495156982421875,8.027621269226074,-11.79153060913086,-8.879764556884766
1763701039700743700,7.50474365234375,8.338987350463867,-13.359427452087402,-9.013762474060059
1763701039710331100,7.5143310546875,7.974978923797607,-13.584651947021484,-8.9850492477417
1763701039719917800,7.523917724609375,6.768397808074951,-12.844970703125,-8.475078582763672
1763701039729503700,7.533503662109375,5.758028507232666,-11.829815864562988,-7.888537883758545
1763701039739090400,7.54309033203125,5.047060966491699,-10.637592315673828,-7.141678333282471
1763701039748678000,7.552677978515625,4.295116424560547,-9.260822296142578,-6.081059455871582
1763701039758264600,7.5622646484375,3.699004650115967,-8.142775535583496,-4.8553361892700195
1763701039767850500,7.5718505859375,3.3209388256073,-7.381558895111084,-3.562314748764038
1763701039777437200,7.581437255859375,3.0454649925231934,-6.957729816436768,-2.475374937057495
1763701039787024600,7.591024658203125,2.8348965644836426,-6.754340171813965,-1.6998014450073242
1763701039796611300,7.600611328125,2.6096723079681396,-6.567400932312012,-1.0701899528503418
1763701039806197200,7.610197265625,2.281855583190918,-6.34726095199585,-0.5721837282180786
1763701039815784000,7.619783935546875,1.8388842344284058,-5.976074695587158,-0.26590242981910706
1763701039825371400,7.629371337890625,1.5131611824035645,-5.581258773803711,-0.14356936514377594
1763701039834958000,7.6389580078125,1.3863415718078613,-5.231607437133789,-0.1579262912273407
1763701039844544000,7.6485439453125,1.4126626253128052,-4.96121883392334,-0.263509601354599
1763701039854130700,7.658130615234375,1.5873386859893799,-4.719244480133057,-0.3640081584453583
1763701039863718100,7.66771826171875,1.817348837852478,-4.307379722595215,-0.5961119532585144
1763701039873304800,7.677304931640625,1.8867406845092773,-3.8790645599365234,-0.8691928386688232
1763701039882890800,7.686890869140625,1.8460626602172852,-3.460021495819092,-1.1467602252960205
1763701039892477400,7.6964775390625,1.9202401638031006,-3.124727249145508,-1.4676976203918457
1763701039902065000,7.70606494140625,2.152343988418579,-2.928515911102295,-1.939382791519165
1763701039911651600,7.715651611328125,2.722134828567505,-2.9883363246917725,-2.441875457763672
1763701039921237500,7.725237548828125,3.5458641052246094,-3.428914785385132,-2.8298118114471436
1763701039930824200,7.73482421875,4.287938117980957,-3.82373046875,-3.222533941268921
1763701039940411600,7.74441162109375,5.023132801055908,-4.096811294555664,-3.6559338569641113
1763701039949998300,7.753998291015625,5.90159797668457,-4.297808647155762,-4.398007869720459
1763701039959584300,7.763584228515625,7.237690448760986,-4.625924587249756,-5.767300605773926
1763701039969171000,7.7731708984375,9.109774589538574,-5.157430171966553,-8.077570915222168
1763701039978758400,7.78275830078125,11.19033432006836,-5.980860233306885,-10.83559799194336
1763701039988345000,7.792344970703125,13.306487083435059,-6.842874526977539,-12.813265800476074
1763701039997931000,7.801930908203125,15.087943077087402,-7.11565637588501,-13.466805458068848
1763701040007517700,7.811517578125,16.023836135864258,-6.246762752532959,-13.215559005737305
1763701040017105200,7.821105224609375,16.435701370239258,-4.1159539222717285,-13.294522285461426
1763701040026691800,7.83069189453125,16.684553146362305,-1.1904292106628418,-13.897812843322754
1763701040036277800,7.84027783203125,17.019847869873047,1.7928223609924316,-14.910574913024902
1763701040045864400,7.849864501953125,17.347963333129883,4.172484397888184,-16.275081634521484
1763701040055452000,7.859451904296875,17.467605590820312,5.599205017089844,-17.14666748046875
1763701040065038600,7.86903857421875,16.888242721557617,5.934499263763428,-16.983657836914062
1763701040074624500,7.87862451171875,15.485151290893555,5.855535984039307,-15.621542930603027
1763701040084211200,7.888211181640625,13.323236465454102,5.481956481933594,-13.301701545715332
1763701040093798700,7.897798583984375,10.890932083129883,4.823631286621094,-10.792527198791504
1763701040103385300,7.90738525390625,8.848658561706543,4.122235298156738,-8.609076499938965
1763701040112971300,7.91697119140625,7.050751209259033,3.7725839614868164,-6.8997039794921875
1763701040122558000,7.926557861328125,5.564209938049316,3.6553356647491455,-5.580660820007324
1763701040132145400,7.9361455078125,4.369294166564941,3.6553356647491455,-4.555934429168701
1763701040141732400,7.945732421875,3.481257915496826,3.6074793338775635,-3.804288864135742
1763701040151318000,7.955318115234375,3.0215368270874023,3.6314074993133545,-3.2656047344207764
1763701040160905000,7.964905029296875,2.643171787261963,3.8132619857788086,-2.8226335048675537
1763701040170492400,7.974492431640625,2.257927179336548,3.9783668518066406,-2.4370899200439453
1763701040199251700,8.003251708984376,1.7288143634796143,4.316053867340088,-1.6064813137054443
1763701040208839200,8.012839111328125,1.9728822708129883,4.3208394050598145,-1.9968105554580688
1763701040218425900,8.02242578125,2.3033909797668457,4.43330192565918,-2.5857439041137695
1763701040228011500,8.032011474609375,2.767897605895996,4.653740882873535,-3.3613176345825195
1763701040237598500,8.041598388671876,3.4525439739227295,4.732704162597656,-4.591826438903809
1763701040247186000,8.05118603515625,4.362115859985352,4.502694129943848,-6.4115681648254395
1763701040256772600,8.060772705078126,5.631208896636963,4.0528435707092285,-8.910871505737305
1763701040266358300,8.070358154296875,6.847361087799072,3.3678979873657227,-12.037692070007324
1763701040275945200,8.0799453125,8.010870933532715,2.1780667304992676,-15.774682998657227
1763701040285532700,8.08953271484375,8.889336585998535,0.7800601720809937,-19.6507568359375
1763701040295119400,8.099119384765626,9.042776107788086,0.11934202909469604,-22.722543716430664
1763701040304705300,8.108705322265624,8.132905006408691,0.3083750307559967,-24.853052139282227
1763701040314292000,8.1182919921875,6.602993965148926,1.1437692642211914,-26.05036163330078
1763701040323879400,8.12787939453125,4.891228675842285,1.5053845643997192,-26.746971130371094
1763701040333466000,8.137466064453125,4.292723655700684,0.602692186832428,-27.48426055908203
1763701040343052000,8.147052001953124,5.252843856811523,-1.439282774925232,-28.238298416137695
1763701040352638700,8.156638671875,6.433103561401367,-3.620340585708618,-28.235904693603516
1763701040362226200,8.16622607421875,6.840182781219482,-4.8197431564331055,-27.0006103515625
1763701040371812900,8.175812744140625,6.246463298797607,-4.788636207580566,-24.750160217285156
1763701040381398800,8.185398681640624,5.1188459396362305,-4.338486671447754,-21.98016929626465
1763701040390985500,8.1949853515625,4.242474555969238,-3.9795632362365723,-19.15275001525879
1763701040400573000,8.204572998046874,3.75643253326416,-3.852743625640869,-16.435401916503906
1763701040410159600,8.21415966796875,3.6487553119659424,-3.8790645599365234,-14.156237602233887
1763701040419745500,8.22374560546875,3.835395574569702,-4.017848491668701,-12.363116264343262
1763701040429332200,8.233332275390625,4.153940200805664,-4.13270378112793,-10.996216773986816
1763701040438919700,8.242919677734376,4.513162612915039,-4.235595226287842,-9.80399227142334
1763701040448506400,8.25250634765625,4.771587371826172,-4.331307888031006,-8.597112655639648
1763701040458092300,8.26209228515625,4.8792643547058105,-4.230809688568115,-7.323532581329346
1763701040467679000,8.271678955078125,5.0255255699157715,-4.168596267700195,-6.011667728424072
1763701040477266400,8.281266357421876,5.140381336212158,-4.003491401672363,-4.826622486114502
1763701040486853000,8.29085302734375,4.989633560180664,-3.617947816848755,-3.7061831951141357
1763701040496439000,8.30043896484375,4.577768802642822,-3.1534411907196045,-2.659921407699585
1763701040506025700,8.310025634765625,4.1347975730896,-2.7514469623565674,-1.8457635641098022
1763701040515613200,8.31961328125,3.6631124019622803,-2.492722988128662,-1.3815559148788452
1763701040525200000,8.329199951171875,3.1722846031188965,-2.3515465259552,-1.0845468044281006
1763701040534785800,8.338785888671875,2.775076150894165,-2.3563320636749268,-0.9888339638710022
1763701040544372500,8.34837255859375,2.5522444248199463,-2.4400808811187744,-1.1180464029312134
1763701040553960000,8.3579599609375,2.3895325660705566,-2.6530420780181885,-1.4174482822418213
1763701040563546600,8.367546630859374,2.3321046829223633,-3.064906597137451,-1.843370795249939
1763701040573132500,8.377132568359375,2.39192533493042,-3.620340585708618,-2.4011974334716797
1763701040582719200,8.38671923828125,2.39192533493042,-4.147060871124268,-3.0260233879089355
1763701040592307000,8.396306884765625,2.322533369064331,-4.601995944976807,-3.583850145339966
1763701040601893400,8.405893310546874,2.305783748626709,-4.9995036125183105,-3.974179267883301
1763701040611479300,8.415479248046875,2.3033909797668457,-5.300999641418457,-4.180261135101318
1763701040621066000,8.42506591796875,2.4996023178100586,-5.715256690979004,-4.316651821136475
1763701040630653700,8.43465380859375,2.971287488937378,-6.349654197692871,-4.543970108032227
1763701040640240400,8.444240478515624,3.660719633102417,-7.173084259033203,-5.013262748718262
1763701040649826000,8.453825927734375,4.350151538848877,-8.195417404174805,-5.592624664306641
1763701040659412700,8.463412841796876,4.881657123565674,-8.909076690673828,-5.887240886688232
1763701040669000400,8.47300048828125,5.231308460235596,-9.203393936157227,-6.061916828155518
1763701040678587100,8.482587158203126,5.511268615722656,-9.270393371582031,-6.191129684448242
1763701040688172800,8.4921728515625,5.903990745544434,-9.119645118713379,-6.279664039611816
1763701040697759700,8.501759765625,6.380461692810059,-8.760422706604004,-6.305984973907471
1763701040707347200,8.51134716796875,6.9670023918151855,-8.466105461120605,-6.358626842498779
1763701040716934000,8.520933837890626,7.58943510055542,-8.049455642700195,-6.4064836502075195
1763701040726519800,8.530519775390625,8.044370651245117,-7.51077127456665,-6.325127601623535
1763701040736106500,8.5401064453125,8.3267240524292,-6.9720869064331055,-6.08823823928833
1763701040745694000,8.54969384765625,8.551948547363281,-6.416653156280518,-5.745765209197998
1763701040755280600,8.55928076171875,8.870193481445312,-5.925825119018555,-5.484947681427002
1763701040764866600,8.568866455078124,9.298808097839355,-5.772684574127197,-5.360520839691162
1763701040774453200,8.578453369140625,9.756135940551758,-5.911468505859375,-5.262115955352783
1763701040784040700,8.588040771484375,10.06750202178955,-6.265905380249023,-5.142475128173828
1763701040793627400,8.59762744140625,10.065109252929688,-6.555436611175537,-4.91037130355835
1763701040803213300,8.60721337890625,9.93559741973877,-6.739983081817627,-4.560719966888428
1763701040812800000,8.616800048828125,9.725028991699219,-6.847660064697266,-4.2281174659729
1763701040822387500,8.626387451171874,9.519247055053711,-6.876374244689941,-3.9789650440216064
1763701040831974100,8.63597412109375,9.39452075958252,-6.802196502685547,-3.8473596572875977
1763701040841560000,8.64556005859375,9.217452049255371,-6.591329097747803,-3.835395574569702
1763701040851146800,8.655146728515625,9.071489334106445,-6.330511569976807,-3.9071803092956543
1763701040860734200,8.664734130859374,8.990134239196777,-6.021538257598877,-3.990929126739502
1763701040870321000,8.67432080078125,9.040383338928223,-5.849255084991455,-4.206582069396973
1763701040879906800,8.68390673828125,9.432806015014648,-5.830112457275391,-4.467400074005127
1763701040889493500,8.693493408203125,9.866206169128418,-5.732006549835205,-4.711467742919922
1763701040899081000,8.7030810546875,10.342677116394043,-5.5932230949401855,-4.874478816986084
1763701040908667600,8.712667724609375,10.88136100769043,-5.470890045166016,-5.094618320465088
1763701040918253600,8.722253662109376,11.405688285827637,-5.312963485717773,-5.38205623626709
1763701040927840300,8.73184033203125,11.745768547058105,-4.944169998168945,-5.549553871154785
1763701040937427700,8.741427734375,12.092727661132812,-4.371985912322998,-5.6309099197387695
1763701040947014400,8.751014404296875,12.356237411499023,-3.962813377380371,-5.664409637451172
1763701040956600300,8.760600341796875,12.322737693786621,-3.3858439922332764,-5.678766250610352
1763701040966187000,8.77018701171875,12.317952156066895,-2.954836845397949,-5.755336761474609
1763701040975774500,8.7797744140625,12.334701538085938,-2.7610182762145996,-5.920740604400635
1763701040985361200,8.789361083984375,12.193225860595703,-2.4879374504089355,-6.112166404724121
1763701040994947000,8.798947021484375,11.851052284240723,-2.2366909980773926,-6.2413787841796875
1763701041004533800,8.80853369140625,11.542078971862793,-2.085644006729126,-6.325127601623535
1763701041014121500,8.81812158203125,11.051251411437988,-1.9803597927093506,-6.368198394775391
1763701041023708000,8.8277080078125,10.582258224487305,-1.8655043840408325,-6.437889099121094
1763701041033293800,8.8372939453125,10.294820785522461,-1.8128622770309448,-6.445067882537842
1763701041042880800,8.846880859375,9.930811882019043,-1.8439689874649048,-6.372983932495117
1763701041052468200,8.85646826171875,9.619745254516602,-1.9923239946365356,-6.433103561401367
1763701041062055000,8.866054931640624,9.3490571975708,-2.1382861137390137,-6.550352096557617
1763701041071640600,8.875640625,8.970991134643555,-2.1577277183532715,-6.6939215660095215
1763701041081227500,8.8852275390625,8.62612533569336,-2.0808584690093994,-6.8279194831848145
1763701041090815000,8.89481494140625,8.372486114501953,-2.061715841293335,-6.9837517738342285
1763701041100401700,8.904401611328124,8.132905006408691,-2.102393865585327,-7.089035987854004
1763701041109987300,8.9139873046875,7.939086437225342,-2.241476535797119,-7.175177574157715
1763701041119574300,8.92357421875,7.7114691734313965,-2.3922245502471924,-7.230212688446045
1763701041129161700,8.93316162109375,7.5463643074035645,-2.569293260574341,-7.2110700607299805
1763701041138748400,8.94274853515625,7.244868755340576,-2.7299115657806396,-7.129714012145996
1763701041148334300,8.952334228515625,6.916752815246582,-2.849552631378174,-7.043572425842285
1763701041157921000,8.961921142578126,6.670292377471924,-3.151048421859741,-6.98614501953125
1763701041167508500,8.971508544921875,6.526423931121826,-3.8045880794525146,-7.112964630126953
1763701041177095200,8.98109521484375,6.581458568572998,-4.800600528717041,-7.385746002197266
1763701041186681000,8.99068115234375,6.641279220581055,-5.729613780975342,-7.811967849731445
1763701041196267800,9.000267822265625,6.6846489906311035,-6.433403015136719,-8.29561710357666
1763701041205855200,9.009855224609375,6.586244106292725,-6.878767013549805,-8.654839515686035
1763701041215442000,9.01944189453125,6.366104602813721,-7.063014030456543,-8.623434066772461
1763701041225027800,9.02902783203125,6.117250919342041,-7.05344295501709,-8.386544227600098
1763701041234614500,9.038614501953125,6.004489421844482,-6.888338088989258,-8.223832130432129
1763701041244202000,9.048201904296874,5.9901323318481445,-6.811768054962158,-8.190332412719727
1763701041253788700,9.05778857421875,6.244070529937744,-6.957729816436768,-8.561220169067383
1763701041263374600,9.06737451171875,6.514459609985352,-7.369594573974609,-9.274879455566406
1763701041272961300,9.076961181640625,6.579065799713135,-7.858029365539551,-10.191629409790039
1763701041282548700,9.086548828125,6.564708709716797,-8.226524353027344,-11.151749610900879
1763701041292135400,9.096135498046875,6.433103561401367,-8.298309326171875,-11.994322776794434
1763701041301721300,9.105721435546876,5.911169052124023,-7.977670669555664,-12.597911834716797
1763701041311308000,9.11530810546875,5.25045108795166,-7.647161960601807,-13.07647705078125
1763701041320895500,9.1248955078125,4.817050933837891,-7.575377464294434,-13.701302528381348
1763701041330482200,9.134482177734375,4.350151538848877,-7.651947498321533,-14.208880424499512
1763701041340068000,9.144068115234376,3.75643253326416,-7.774280548095703,-14.615959167480469
1763701041349654800,9.15365478515625,3.129213809967041,-7.791030406951904,-14.752349853515625
1763701041359242200,9.1632421875,2.470888376235962,-7.683054447174072,-14.749957084655762
1763701041368829200,9.1728291015625,1.8987047672271729,-7.441379547119141,-14.563316345214844
1763701041378414800,9.182414794921876,1.4844473600387573,-7.173084259033203,-14.141880989074707
1763701041388001500,9.19200146484375,1.1877373456954956,-6.897909641265869,-13.462019920349121
1763701041397589200,9.20158935546875,1.0633105039596558,-6.699305057525635,-12.681660652160645
1763701041407176000,9.211176025390625,1.1063814163208008,-6.596114635467529,-12.015857696533203
1763701041416761600,9.22076171875,1.1853444576263428,-6.593721866607666,-11.479866027832031
1763701041426348500,9.2303486328125,1.3767703771591187,-6.653841495513916,-11.063215255737305
1763701041435936000,9.23993603515625,1.6546368598937988,-6.68016242980957,-10.670493125915527
1763701041445522700,9.249522705078125,2.011167526245117,-6.783053874969482,-10.438389778137207
1763701041455108600,9.259108642578125,2.336890459060669,-6.806982040405273,-10.196415901184082
1763701041464695300,9.2686953125,2.588136672973633,-6.668198585510254,-9.923633575439453
1763701041474282800,9.27828271484375,3.07417893409729,-6.723233222961426,-9.684052467346191
1763701041483869400,9.287869384765624,3.505186080932617,-6.878767013549805,-9.219844818115234
1763701041493455400,9.297455322265625,3.7444684505462646,-6.9960150718688965,-8.664410591125488
1763701041503042000,9.3070419921875,4.206582069396973,-7.651947498321533,-8.298009872436523
1763701041512629500,9.31662939453125,4.685445785522461,-8.688637733459473,-7.984251022338867
1763701041522216200,9.32621630859375,4.620839595794678,-9.648757934570312,-7.373782157897949
1763701041531802000,9.335802001953125,3.8668015003204346,-10.326226234436035,-6.55992317199707
1763701041541388800,9.345388916015626,2.9832515716552734,-10.668699264526367,-5.702694416046143
1763701041550976300,9.354976318359375,1.934597134590149,-10.548758506774902,-4.745266437530518
1763701041560563000,9.36456298828125,0.9912267923355103,-10.192228317260742,-3.9167516231536865
1763701041570148900,9.37414892578125,0.3209373354911804,-9.840184211730957,-3.2608189582824707
1763701041579735600,9.383735595703126,0.5174478888511658,-9.837791442871094,-3.16749906539917
1763701041589323000,9.393322998046875,1.0920244455337524,-9.682257652282715,-3.8832521438598633
1763701041598909700,9.40290966796875,1.8963119983673096,-9.811470031738281,-4.613361835479736
1763701041608495600,9.41249560546875,2.830111026763916,-10.211370468139648,-4.9965128898620605
1763701041618082300,9.422082275390625,3.270390272140503,-10.29751205444336,-5.01086950302124
1763701041627669800,9.431669677734375,3.4429726600646973,-10.051051139831543,-4.694717884063721
1763701041637256400,9.44125634765625,3.122035264968872,-9.569794654846191,-4.108177185058594
1763701041646842400,9.45084228515625,2.612065076828003,-9.122037887573242,-3.468994617462158
1763701041656429000,9.460428955078125,2.4349961280822754,-8.983254432678223,-3.0188448429107666
1763701041666016500,9.4700166015625,2.370389938354492,-8.791529655456543,-2.5522444248199463
1763701041675603200,9.479603271484375,2.23639178276062,-8.387142181396484,-2.0685951709747314
1763701041685189000,9.489189208984374,2.3297119140625,-7.999206066131592,-1.872084617614746
1763701041694775800,9.49877587890625,2.7870402336120605,-7.8795647621154785,-1.9055840969085693
1763701041704363300,9.50836328125,3.4980075359344482,-7.905886173248291,-2.1260228157043457
1763701041713950200,9.5179501953125,4.35254430770874,-8.195417404174805,-2.590529680252075
1763701041723536000,9.527535888671874,5.25762939453125,-8.542675971984863,-3.2033913135528564
1763701041733122800,9.537122802734375,6.04038143157959,-8.681459426879883,-3.7540395259857178
1763701041742710300,9.546710205078124,6.732505798339844,-8.722137451171875,-4.252045631408691
1763701041752297000,9.556296875,7.357331275939941,-8.643174171447754,-4.757230281829834
1763701041761882600,9.565882568359376,7.8194451332092285,-8.26241683959961,-5.2477593421936035
1763701041771469600,9.575469482421875,8.020442008972168,-7.532306671142578,-5.518447399139404
1763701041781057000,9.58505712890625,8.20229721069336,-6.802196502685547,-5.681159019470215
1763701041790643700,9.594643798828125,8.449056625366211,-6.20847749710083,-5.824728488922119
1763701041800229600,9.604229736328126,8.551948547363281,-5.554937839508057,-5.868098258972168
1763701041809816300,9.61381640625,8.681160926818848,-4.929812908172607,-5.913562297821045
1763701041819403800,9.62340380859375,8.805587768554688,-4.393820762634277,-6.006882190704346
1763701041828990500,9.632990478515625,8.870193481445312,-3.8479578495025635,-5.899205207824707
1763701041838576400,9.642576416015626,8.724231719970703,-3.253939628601074,-5.671587944030762
1763701041848163000,9.6521630859375,8.523234367370605,-2.708376169204712,-5.403591632843018
1763701041857750500,9.66175048828125,8.389236450195312,-2.3515465259552,-5.2477593421936035
1763701041867337200,9.671337158203125,8.08504867553711,-2.068894386291504,-5.137689113616943
1763701041876923100,9.680923095703125,7.747361660003662,-1.7410775423049927,-5.032404899597168
1763701041886509800,9.690509765625,7.409973621368408,-1.5134602785110474,-4.9654059410095215
1763701041896097300,9.70009716796875,7.096214771270752,-1.4009976387023926,-4.958227634429932
1763701041905684000,9.70968408203125,6.914360046386719,-1.3004990816116333,-4.998905658721924
1763701041915270000,9.719269775390625,6.856932163238525,-1.200000524520874,-4.9486565589904785
1763701041924856600,9.728856689453124,6.718148708343506,-1.1665010452270508,-4.805087089538574
1763701041934444000,9.738444091796875,6.610172748565674,-1.2717852592468262,-4.634897232055664
1763701041944030700,9.74803076171875,6.500102519989014,-1.211964726448059,-4.357329845428467
1763701041953616600,9.75761669921875,6.330212116241455,-0.9317052960395813,-4.033999919891357
1763701041963203300,9.767203369140624,6.2871413230896,-0.6349952816963196,-3.79471755027771
1763701041972790800,9.776790771484375,6.413960933685303,-0.5392823815345764,-3.722932815551758
1763701041982377500,9.78637744140625,6.710970401763916,-0.532103955745697,-3.7301113605499268
1763701041991963400,9.79596337890625,6.871289253234863,-0.47706902027130127,-3.7612180709838867
1763701042001550000,9.805550048828126,6.909574508666992,-0.28534409403800964,-3.73250412940979
1763701042011137500,9.815137451171875,6.892824649810791,0.001794616924598813,-3.691826343536377
1763701042020724500,9.824724365234376,6.7779693603515625,0.4208376705646515,-3.5192439556121826
1763701042030310100,9.83431005859375,6.62213659286499,0.8925228714942932,-3.253640651702881
1763701042039897000,9.84389697265625,6.485745906829834,1.4144573211669922,-2.975774049758911
1763701042049484500,9.853484619140625,6.337390899658203,1.8167506456375122,-2.7891337871551514
1763701042059071200,9.8630712890625,6.323033809661865,1.8837496042251587,-2.7963123321533203
1763701042068657000,9.872656982421875,6.313462734222412,1.7303098440170288,-2.896811008453369
1763701042078243800,9.882243896484376,6.184250354766846,1.5963118076324463,-3.0092735290527344
1763701042087831300,9.891831298828125,6.131608009338379,1.3642079830169678,-3.2512478828430176
1763701042097418000,9.90141796875,6.200999736785889,0.9188438653945923,-3.593421459197998
1763701042107004000,9.91100390625,6.110072612762451,0.1743769496679306,-3.9646079540252686
1763701042116590600,9.920590576171875,5.951847076416016,-0.8120641708374023,-4.433900356292725
1763701042126178000,9.930177978515625,6.200999736785889,-2.8447670936584473,-5.281258583068848
1763701042135764700,9.9397646484375,6.7779693603515625,-6.330511569976807,-6.387341022491455
1763701042145350700,9.9493505859375,6.847361087799072,-9.394820213317871,-7.4240312576293945
1763701042154937300,9.958937255859375,6.916752815246582,-11.303095817565918,-8.69791030883789
1763701042164524800,9.96852490234375,8.082655906677246,-13.790434837341309,-10.804491996765137
1763701042174111500,9.978111572265625,10.526924133300781,-17.16371726989746,-13.177274703979492
1763701042183697400,9.987697509765624,13.366307258605957,-18.506988525390625,-14.172987937927246
1763701042193284000,9.9972841796875,13.15095329284668,-15.866209030151367,-13.174881935119629
1763701042202871600,10.00687158203125,10.43360424041748,-11.662019729614258,-11.661720275878906
1763701042212458200,10.016458251953125,9.519247055053711,-8.509176254272461,-11.09910774230957
1763701042222044200,10.026044189453126,9.294022560119629,-6.100800514221191,-11.436495780944824
1763701042231630800,10.035630859375,9.27727222442627,-4.374378681182861,-12.458828926086426
1763701042241218300,10.04521826171875,10.019645690917969,-4.422534465789795,-14.055739402770996
1763701042250805000,10.054804931640625,10.23021411895752,-5.566901683807373,-15.690934181213379
1763701042260391000,10.064390869140626,10.469496726989746,-6.787839412689209,-16.483257293701172
1763701042269977600,10.0739775390625,10.383355140686035,-7.663911819458008,-16.349260330200195
1763701042279565000,10.08356494140625,9.160024642944336,-8.090133666992188,-15.109179496765137
1763701042289151700,10.09315185546875,7.381259441375732,-8.228917121887207,-13.232309341430664
1763701042298737700,10.102737548828125,6.090929985046387,-8.662317276000977,-11.335997581481934
1763701042308324400,10.112324462890625,5.023132801055908,-8.98086166381836,-9.435198783874512
1763701042317911800,10.121911865234376,3.87876558303833,-8.683852195739746,-7.4240312576293945
1763701042327498800,10.131498779296875,2.8899314403533936,-7.941778182983398,-5.578267574310303
1763701042337084400,10.14108447265625,2.032702922821045,-7.118049144744873,-3.9622151851654053
1763701042346671400,10.15067138671875,1.2810574769973755,-6.39511775970459,-2.6001009941101074
1763701042356258800,10.1602587890625,0.6131607890129089,-5.8683977127075195,-1.561017632484436
1763701042365845500,10.169845458984375,0.3233301639556885,-5.669793128967285,-1.0031908750534058
1763701042375431400,10.179431396484375,0.36640095710754395,-5.789434432983398,-0.893121063709259
1763701042385018000,10.18901806640625,0.5772684812545776,-6.258726596832275,-1.1156535148620605
1763701042394605600,10.19860546875,0.9840483069419861,-6.7902326583862305,-1.6351951360702515
1763701042404192300,10.208192138671874,1.4892330169677734,-7.1850481033325195,-2.252842426300049
1763701042413778200,10.217778076171875,2.025524377822876,-7.57298469543457,-2.834597587585449
1763701042423364900,10.22736474609375,2.734398126602173,-8.157132148742676,-3.263211965560913
1763701042432952300,10.236952392578125,3.4597225189208984,-8.726922988891602,-3.397209882736206
1763701042442539000,10.2465390625,3.804288864135742,-8.959325790405273,-3.332603693008423
1763701042452125000,10.256125,4.237689018249512,-9.303893089294434,-3.387638568878174
1763701042461711600,10.265711669921876,5.226522922515869,-10.161121368408203,-3.7420754432678223
1763701042471299000,10.275299072265625,6.437889099121094,-10.953444480895996,-4.548755645751953
1763701042480885800,10.2848857421875,7.419544696807861,-10.649556159973145,-5.7170515060424805
1763701042490471700,10.2944716796875,8.049156188964844,-9.33739185333252,-7.189534664154053
1763701042500058400,10.304058349609376,8.451449394226074,-7.632805347442627,-8.625826835632324
1763701042509645800,10.313645751953125,8.72901725769043,-6.151049613952637,-9.559625625610352
1763701042519232500,10.323232421875,9.126524925231934,-4.506283283233643,-9.758230209350586
1763701042528818400,10.332818359375,9.478569030761719,-3.1989047527313232,-9.358628273010254
1763701042538405000,10.342405029296875,9.495318412780762,-2.593221426010132,-8.673981666564941
1763701042547992600,10.35199267578125,9.353842735290527,-2.468794822692871,-7.457530975341797
1763701042557579300,10.361579345703126,8.935098648071289,-2.3850460052490234,-5.868098258972168
1763701042567165200,10.371165283203124,8.135297775268555,-1.817647933959961,-3.9502511024475098
1763701042576751900,10.380751953125,7.266404151916504,-0.9508479237556458,-2.111665964126587
1763701042586339600,10.390339599609375,6.440282344818115,0.06640082597732544,-0.6894320249557495
1763701042595926000,10.399926025390625,5.844170093536377,0.9906286001205444,0.32572299242019653
1763701042605512000,10.409511962890624,5.616852283477783,1.5460625886917114,0.8784649968147278
1763701042615098600,10.4190986328125,5.7149577140808105,1.7446668148040771,1.012762188911438
1763701042624686300,10.428686279296874,5.592923641204834,2.1445672512054443,1.194616675376892
1763701042634273000,10.43827294921875,5.121238708496094,2.893819808959961,1.628016710281372
1763701042643858700,10.447858642578124,4.773980140686035,3.4540395736694336,1.896012783050537
1763701042653445600,10.457445556640625,4.498805522918701,3.801297903060913,1.8242281675338745
1763701042663033000,10.467033203125,4.685445785522461,3.8587255477905273,1.3334003686904907
1763701042672619800,10.476619873046875,5.298307418823242,3.7510485649108887,0.7851449251174927
1763701042682205700,10.486205810546876,5.461019515991211,3.6074793338775635,0.2919243574142456
1763701042691792400,10.49579248046875,5.401198863983154,3.4372897148132324,-0.09092725813388824
1763701042701379800,10.5053798828125,5.408377170562744,2.9898319244384766,-0.40707895159721375
1763701042710966500,10.514966552734375,5.492125988006592,2.4248266220092773,-0.9098708033561707
1763701042720552400,10.524552490234376,6.011667728424072,1.409671664237976,-2.1068804264068604
1763701042730139100,10.53413916015625,7.46500825881958,-0.5584250092506409,-4.53200626373291
1763701042739726600,10.5437265625,10.124930381774902,-3.2419755458831787,-8.015357971191406
1763701042749313300,10.553313232421875,12.796516418457031,-6.01675271987915,-11.64018440246582
1763701042758899200,10.562899169921875,14.951252937316895,-8.351249694824219,-14.615959167480469
1763701042768486000,10.57248583984375,15.636198997497559,-8.451748847961426,-15.32931900024414
1763701042778073300,10.5820732421875,14.261820793151855,-5.724828243255615,-14.472389221191406
1763701042787660000,10.591659912109375,12.38973617553711,-2.8304100036621094,-13.979168891906738
1763701042797246000,10.601245849609375,11.692827224731445,-1.3028919696807861,-14.319249153137207
1763701042806832600,10.61083251953125,11.668898582458496,-0.6469594240188599,-15.056537628173828
1763701042816420000,10.620420166015625,12.08315658569336,-0.2949153780937195,-16.157833099365234
1763701042826006800,10.6300068359375,13.363914489746094,-0.6493522524833679,-17.500804901123047
1763701042835592700,10.6395927734375,14.912967681884766,-1.3268201351165771,-18.65235137939453
1763701042845179400,10.649179443359374,15.55215072631836,-1.5086746215820312,-19.200607299804688
1763701042854766800,10.658766845703125,15.119050025939941,-1.293320655822754,-18.985252380371094
1763701042864353800,10.668353759765624,14.254642486572266,-1.3698909282684326,-18.183059692382812
1763701042873939500,10.677939453125,12.940384864807129,-1.8080766201019287,-16.85444450378418
1763701042883526400,10.6875263671875,11.161620140075684,-2.3156540393829346,-15.0182523727417
1763701042893113900,10.69711376953125,9.260522842407227,-2.665006160736084,-12.997513771057129
1763701042902700500,10.706700439453124,7.453044414520264,-2.8304100036621094,-11.022537231445312
1763701042912286500,10.716286376953125,5.892026424407959,-2.9117660522460938,-9.24855899810791
1763701042921873200,10.725873046875,4.716552734375,-2.962015390396118,-7.72104024887085
1763701042931460600,10.735460693359375,3.9768712520599365,-3.0290143489837646,-6.480959892272949
1763701042941047300,10.74504736328125,3.6343984603881836,-3.213261604309082,-5.544768333435059
1763701042950633200,10.75463330078125,3.457329511642456,-3.4576287269592285,-4.888835906982422
1763701042960220000,10.764219970703126,3.675076484680176,-3.931706666946411,-4.285545349121094
1763701042969807400,10.773807373046875,3.5769708156585693,-4.2260236740112305,-3.200998544692993
1763701042979394000,10.78339404296875,3.1890344619750977,-3.931706666946411,-1.8864415884017944
1763701042988980000,10.79297998046875,3.01196551322937,-3.7495529651641846,-0.5171487927436829
1763701042998566700,10.802566650390625,2.6623141765594482,-3.38105845451355,1.0558329820632935
1763701043008154000,10.812154052734375,2.1837496757507324,-2.756232500076294,2.753241539001465
1763701043017740800,10.82174072265625,1.8508483171463013,-2.38265323638916,4.206283092498779
1763701043027326700,10.83132666015625,1.7790635824203491,-2.248655080795288,5.123332500457764
1763701043036913400,10.840913330078125,2.032702922821045,-2.428116798400879,5.374578952789307
1763701043046500900,10.8505009765625,2.542673110961914,-3.093620538711548,4.843372344970703
1763701043056087600,10.860087646484375,3.4310085773468018,-4.06331205368042,3.7516467571258545
1763701043065673500,10.869673583984374,4.608875751495361,-5.183751106262207,2.2648067474365234
1763701043075260200,10.87926025390625,5.84656286239624,-6.368796348571777,0.5697908997535706
1763701043084847600,10.88884765625,7.048357963562012,-7.7476606369018555,-1.0845468044281006
1763701043094434300,10.898434326171875,8.20947551727295,-9.277571678161621,-2.588136672973633
1763701043104020200,10.908020263671874,9.274879455566406,-10.898409843444824,-3.9000017642974854
1763701043113607000,10.91760693359375,10.42642593383789,-12.636496543884277,-5.0347981452941895
1763701043123194600,10.927194580078124,11.185548782348633,-13.685151100158691,-5.767300605773926
1763701043132781300,10.93678125,11.173583984375,-13.263714790344238,-6.4666032791137695
1763701043142367000,10.946366943359376,10.744970321655273,-11.463415145874023,-7.313961505889893
1763701043151954000,10.955953857421875,10.668399810791016,-9.275178909301758,-8.398508071899414
1763701043161541400,10.965541259765626,10.749755859375,-7.175477027893066,-9.418449401855469
1763701043171128000,10.975128173828125,10.759326934814453,-5.200500965118408,-9.952347755432129
1763701043180713700,10.984713623046876,10.596614837646484,-3.696911096572876,-9.978668212890625
1763701043190300700,10.99430078125,10.613365173339844,-2.906980514526367,-9.79681396484375
1763701043199888100,11.00388818359375,10.73300552368164,-2.6458635330200195,-9.710372924804688
1763701043209474800,11.013474853515625,10.701899528503418,-2.5357937812805176,-9.59791088104248
1763701043219060700,11.023060791015626,10.294820785522461,-2.210369825363159,-9.176474571228027
1763701043228647400,11.0326474609375,9.439984321594238,-1.5565310716629028,-8.508578300476074
1763701043238235000,11.04223486328125,8.511270523071289,-0.9029914736747742,-7.756932735443115
1763701043247821600,11.051821533203125,7.89840841293335,-0.388235479593277,-6.976573467254639
1763701043257407500,11.061407470703125,7.52004337310791,0.25334009528160095,-6.0834527015686035
1763701043266994200,11.070994140625,7.1010003089904785,1.129412293434143,-5.0826544761657715
1763701043276581600,11.08058154296875,6.794719219207764,2.0656042098999023,-4.158426761627197
1763701043286168300,11.090168212890624,6.663113594055176,3.047259569168091,-3.4139597415924072
1763701043295754200,11.099754150390625,6.761219501495361,3.8898322582244873,-2.9925239086151123
1763701043305341000,11.1093408203125,7.0770721435546875,4.497908592224121,-2.8298118114471436
1763701043314928400,11.118928466796875,7.342974662780762,4.919344425201416,-2.8513472080230713
1763701043324515000,11.12851513671875,7.567899703979492,5.237888813018799,-2.9566314220428467
1763701043334101000,11.13810107421875,7.766504287719727,5.419743061065674,-3.1818559169769287
1763701043343688000,11.14768798828125,7.951050758361816,5.505885124206543,-3.3445677757263184
1763701043353275100,11.157275146484375,8.001299858093262,5.441278457641602,-3.4091739654541016
1763701043362862000,11.166862060546874,7.862515926361084,5.32403039932251,-3.562314748764038
1763701043372447700,11.17644775390625,7.778767108917236,5.240281581878662,-4.026821613311768
1763701043382034700,11.18603466796875,8.113762855529785,5.108377456665039,-5.018048286437988
1763701043391622100,11.1956220703125,8.968598365783691,4.924129962921143,-6.4905314445495605
1763701043401208800,11.205208740234376,10.56520938873291,4.342374801635742,-8.487042427062988
1763701043410794800,11.214794677734375,12.3370943069458,3.753441333770752,-10.5723876953125
1763701043420381400,11.22438134765625,12.73190975189209,3.2889347076416016,-11.977572441101074
1763701043429969000,11.233968994140625,12.099905967712402,2.6952157020568848,-13.062119483947754
1763701043439555600,11.2435556640625,11.64975643157959,2.4894328117370605,-14.309678077697754
1763701043449141500,11.2531416015625,11.506186485290527,3.0664021968841553,-15.50668716430664
1763701043458728200,11.262728271484375,11.80319595336914,4.325624942779541,-16.586448669433594
1763701043468315600,11.272315673828125,12.142976760864258,5.592026710510254,-17.04347801208496
1763701043477902300,11.28190234375,12.59312629699707,6.5521464347839355,-17.053049087524414
1763701043487488300,11.29148828125,13.672887802124023,6.911369323730469,-17.251951217651367
1763701043497075000,11.301074951171875,15.262619018554688,6.489933013916016,-17.46730613708496
1763701043506662400,11.310662353515625,15.94008731842041,5.608776092529297,-16.98844337463379
1763701043516249000,11.3202490234375,15.473187446594238,4.500301361083984,-15.734004974365234
1763701043525835000,11.3298349609375,13.828421592712402,3.5356945991516113,-14.242379188537598
1763701043545009200,11.349009033203124,9.844670295715332,2.1062822341918945,-11.132607460021973
1763701043554595800,11.358595947265625,7.824231147766113,1.4551352262496948,-9.681659698486328
1763701043564181800,11.368181640625,6.375676155090332,0.7322037220001221,-8.642576217651367
1763701043573768400,11.3777685546875,5.609673500061035,-0.08195417374372482,-8.082356452941895
1763701043583356200,11.387356201171874,5.228915691375732,-0.9556335210800171,-7.728219032287598
1763701043592942800,11.39694287109375,5.2767720222473145,-2.1071794033050537,-7.364210605621338
1763701043602528500,11.406528564453126,5.0015974044799805,-3.086441993713379,-6.583851337432861
1763701043612115500,11.416115478515625,4.450949192047119,-3.891028642654419,-5.446662425994873
1763701043621703000,11.425702880859374,4.070191383361816,-4.898705959320068,-4.201796531677246
1763701043631289600,11.43528955078125,3.6415770053863525,-5.863611698150635,-2.777169704437256
1763701043640875500,11.44487548828125,2.916252613067627,-6.4956159591674805,-1.158724308013916
1763701043650462200,11.454462158203125,1.932204246520996,-6.629614353179932,0.5434698462486267
1763701043660049700,11.464049560546876,1.2116655111312866,-6.5027947425842285,1.989332914352417
1763701043669636400,11.47363623046875,0.6562315821647644,-6.292226314544678,2.887239694595337
1763701043679222300,11.48322216796875,0.5892325639724731,-6.163013935089111,3.1289145946502686
1763701043688809000,11.49280908203125,1.1590235233306885,-6.160621166229248,2.635993242263794
1763701043698396400,11.502396484375,2.2531416416168213,-6.273083686828613,1.5634105205535889
1763701043707983000,11.511983154296875,3.622434377670288,-6.306583404541016,0.14835500717163086
1763701043717569000,11.521569091796875,5.099703311920166,-6.1797637939453125,-1.1754741668701172
1763701043727155700,11.53115576171875,6.691827774047852,-6.0502519607543945,-2.3150558471679688
1763701043736743200,11.5407431640625,8.427521705627441,-5.842076301574707,-3.605684518814087
1763701043746329900,11.550329833984375,10.208678245544434,-5.281857013702393,-5.3007001876831055
1763701043755915800,11.559915771484375,12.530913352966309,-5.463711261749268,-6.21266508102417
1763701043765502500,11.56950244140625,14.503496170043945,-4.800600528717041,-7.081857681274414
1763701043775090000,11.57908984375,15.363118171691895,-3.7567315101623535,-7.036394119262695
1763701043784676600,11.588676513671874,15.516258239746094,-1.8702900409698486,-6.725028038024902
1763701043794262500,11.598262451171875,15.549757957458496,1.2035897970199585,-6.768098831176758
1763701043803849200,11.60784912109375,15.69123363494873,4.560121536254883,-6.990930557250977
1763701043813437000,11.61743701171875,16.06451416015625,6.693323135375977,-7.780860900878906
1763701043823023600,11.627023681640624,16.69412612915039,7.265506744384766,-9.004191398620605
1763701043832609300,11.636609375,16.9695987701416,6.82014274597168,-9.926026344299316
1763701043842196200,11.6461962890625,16.246667861938477,6.166603088378906,-10.076774597167969
1763701043851783700,11.65578369140625,14.51336669921875,5.343173027038574,-9.404091835021973
1763701043861370400,11.665370361328126,12.114262580871582,4.538586139678955,-7.977072715759277
1763701043870956300,11.674956298828125,9.46181869506836,3.9759738445281982,-6.207879066467285
1763701043880543000,11.68454296875,7.005287170410156,3.715156316757202,-4.386044025421143
1763701043890130400,11.69413037109375,4.958227634429932,3.698406457901001,-2.7029922008514404
1763701043899717000,11.703717041015626,3.3879377841949463,3.7965121269226074,-1.3070793151855469
1763701043909303000,11.713302978515625,2.2770698070526123,4.026223182678223,-0.12921242415905
1763701043918889700,11.7228896484375,1.5203397274017334,4.289732933044434,0.797109067440033
1763701043928477200,11.732477294921875,1.202094316482544,4.445266246795654,1.40279221534729
1763701043938064000,11.74206396484375,1.3073785305023193,4.567300319671631,1.6112669706344604
1763701043947649800,11.75164990234375,1.726421594619751,4.625027179718018,1.470090389251709
1763701043957236500,11.761236572265625,2.2292134761810303,4.737489700317383,1.2616157531738281
1763701043966824000,11.770823974609375,2.6192433834075928,4.904987335205078,1.1084750890731812
1763701043976410600,11.78041064453125,2.7942185401916504,5.2115678787231445,1.1132607460021973
1763701043985996500,11.78999658203125,2.868396043777466,5.67338228225708,1.0414760112762451
1763701043995583200,11.799583251953125,3.1411778926849365,6.3391852378845215,0.8808578252792358
1763701044005170700,11.809170654296874,3.4692938327789307,7.29182767868042,0.5578267574310303
1763701044014757400,11.81875732421875,3.8234314918518066,8.507980346679688,0.1459621787071228
1763701044024343300,11.82834326171875,4.094119548797607,10.179067611694336,-0.2587239444255829
1763701044033930000,11.837929931640625,4.01037073135376,12.460923194885254,-1.2113664150238037
1763701044043517700,11.847517578125,4.443770885467529,14.54357624053955,-2.1236300468444824
1763701044053104400,11.8571044921875,6.789933204650879,15.242579460144043,-3.514458179473877
1763701044062690000,11.86668994140625,9.310771942138672,15.082260131835938,-7.730611801147461
1763701044072277000,11.876277099609375,11.522936820983887,13.734502792358398,-12.825230598449707
1763701044081864400,11.885864501953124,13.055240631103516,11.670693397521973,-16.983657836914062
1763701044091451100,11.895451171875,13.656137466430664,10.732109069824219,-20.313867568969727
1763701044101037000,11.905037109375,12.947563171386719,10.856834411621094,-22.327428817749023
1763701044110623700,11.914623779296875,11.355439186096191,11.38833999633789,-22.971397399902344
1763701044120211200,11.924211181640626,9.815957069396973,12.214162826538086,-22.897218704223633
1763701044129798000,11.9337978515625,8.61894702911377,12.84616756439209,-22.995325088500977
1763701044139383800,11.9433837890625,8.542376518249512,12.372089385986328,-23.541187286376953
1763701044148970500,11.952970458984375,9.432806015014648,10.748858451843262,-24.185155868530273
1763701044158558000,11.962557861328126,10.390533447265625,8.596813201904297,-24.149263381958008
1763701044168144600,11.97214453125,10.685149192810059,6.805785655975342,-23.364118576049805
1763701044177730600,11.98173046875,10.378568649291992,5.3694939613342285,-22.145572662353516
1763701044187317200,11.991317138671874,9.799206733703613,4.060021877288818,-20.699411392211914
1763701044196904700,12.00090478515625,9.073882102966309,2.8292136192321777,-18.97568130493164
1763701044206491400,12.010491455078125,8.135297775268555,1.8167506456375122,-16.97169303894043
1763701044216077300,12.020077392578125,7.3884382247924805,1.0432707071304321,-14.975181579589844
1763701044225664000,12.0296640625,6.840182781219482,0.49980083107948303,-13.074084281921387
1763701044235251700,12.039251708984375,6.488138675689697,0.11694920808076859,-11.376675605773926
1763701044244838400,12.04883837890625,6.153143405914307,-0.18484555184841156,-9.79681396484375
1763701044254424000,12.058424072265625,5.734100341796875,-0.4145565330982208,-8.432007789611816
1763701044264011000,12.068010986328124,5.4418768882751465,-0.7881359457969666,-7.357032299041748
1763701044273598500,12.077598388671875,5.36769962310791,-1.3651052713394165,-6.516852378845215
1763701044283185200,12.08718505859375,5.386841773986816,-1.9061822891235352,-5.831906795501709
1763701044292770800,12.096770751953125,5.3007001876831055,-2.263011932373047,-5.152046203613281
1763701044302357800,12.106357666015626,4.929513931274414,-2.435295343399048,-4.433900356292725
1763701044311945200,12.1159453125,4.278367042541504,-2.578864574432373,-3.7109687328338623
1763701044321532000,12.125531982421874,3.691826343536377,-2.739482879638672,-3.030808925628662
1763701044331117800,12.135117919921875,3.1962127685546875,-2.897409200668335,-2.3844478130340576
1763701044340704500,12.14470458984375,2.7559335231781006,-2.945265531539917,-1.8481563329696655
1763701044350292000,12.1542919921875,2.39192533493042,-2.959622621536255,-1.4246268272399902
1763701044359878700,12.163878662109376,2.20528507232666,-3.048156976699829,-1.2113664150238037
1763701044369464600,12.173464599609375,2.202892303466797,-3.220440149307251,-1.1108678579330444
1763701044379051300,12.18305126953125,2.2172493934631348,-3.3930225372314453,-1.0941181182861328
1763701044388638700,12.192638671875,2.1693928241729736,-3.5533416271209717,-1.103689432144165
1763701044398225400,12.202225341796876,2.1981067657470703,-3.7639100551605225,-1.2137593030929565
1763701044407811300,12.211811279296874,2.4278175830841064,-4.0441694259643555,-1.3983057737350464
1763701044417398000,12.22139794921875,2.6886353492736816,-4.355236530303955,-1.599302887916565
1763701044426985500,12.2309853515625,2.9306094646453857,-4.7096734046936035,-1.9055840969085693
1763701044436572200,12.240572265625,3.270390272140503,-5.097609519958496,-2.293520450592041
1763701044446158000,12.250157958984374,3.6415770053863525,-5.401497840881348,-2.7269206047058105
1763701044455744800,12.259744873046875,3.957728624343872,-5.669793128967285,-3.222533941268921
1763701044465332500,12.26933251953125,4.4150567054748535,-5.897111415863037,-3.801896095275879
1763701044474919200,12.278919189453125,4.9486565589904785,-6.143871307373047,-4.436293125152588
1763701044484504800,12.2885048828125,5.554638862609863,-6.34008264541626,-5.116153717041016
1763701044494091800,12.298091796875,6.296712875366211,-6.498009204864502,-5.755336761474609
1763701044503679200,12.30767919921875,7.105785846710205,-6.593721866607666,-6.4115681648254395
1763701044513266000,12.317265869140625,7.927122116088867,-6.624828815460205,-7.086643218994141
1763701044522851800,12.326851806640626,8.678768157958984,-6.512365818023682,-7.639684677124023
1763701044532438500,12.3364384765625,9.471389770507812,-6.308976173400879,-7.991429328918457
1763701044542026000,12.34602587890625,10.203892707824707,-6.067001819610596,-8.15683364868164
1763701044551612700,12.35561279296875,10.76411247253418,-5.822933673858643,-8.065607070922852
1763701044561198600,12.365198486328126,11.17597770690918,-5.56450891494751,-7.71386194229126
1763701044570785300,12.374785400390625,11.527722358703613,-5.3177490234375,-7.316354274749756
1763701044580372700,12.384372802734376,12.123833656311035,-5.0856451988220215,-6.885347366333008
1763701044589959400,12.39395947265625,12.73190975189209,-4.886742115020752,-6.480959892272949
1763701044599545300,12.40354541015625,13.162917137145996,-4.676173686981201,-6.267699718475342
1763701044609132000,12.413132080078125,13.383056640625,-4.420141696929932,-6.243771553039551
1763701044618719500,12.422719482421876,13.325629234313965,-4.101597309112549,-6.449853420257568
1763701044628306200,12.43230615234375,13.25862979888916,-3.7495529651641846,-6.736992359161377
1763701044637892000,12.44189208984375,13.141382217407227,-3.500699520111084,-6.928418159484863
1763701044647478800,12.451478759765624,12.885350227355957,-3.3092737197875977,-6.971787929534912
1763701044657066500,12.46106640625,12.511770248413086,-3.07208514213562,-6.854240417480469
1763701044666653200,12.470653076171875,12.049656867980957,-2.8328030109405518,-6.586244106292725
1763701044676238800,12.48023876953125,11.668898582458496,-2.8399813175201416,-6.384948253631592
1763701044685825800,12.48982568359375,11.652149200439453,-3.045764207839966,-6.255735874176025
