time,seconds_elapsed,z,y,x
1763691412423369000,0.123368896484375,-0.014247894287109375,-0.031355977058410645,-0.03700798749923706
1763691412433347800,0.133347900390625,-0.05694103240966797,-0.07759213447570801,-0.14347690343856812
1763691412483360300,0.1833603515625,-0.040703773498535156,-0.10301017761230469,-0.21988427639007568
1763691412523382800,0.2233828125,0.04367351531982422,-0.10585379600524902,-0.09316569566726685
1763691412533391400,0.233391357421875,-0.0344085693359375,-0.06963586807250977,-0.07682287693023682
1763691412543354000,0.24335400390625,-0.09377765655517578,-0.05010068416595459,-0.11891746520996094
1763691412553404400,0.253404296875,-0.11836814880371094,-0.01830577850341797,-0.06652835011482239
1763691412563404300,0.263404296875,-0.1283550262451172,0.0028314590454101562,-0.030472368001937866
1763691412573408000,0.273407958984375,-0.07941627502441406,0.02711772918701172,-0.03280189633369446
1763691412583409400,0.283409423828125,-0.060219764709472656,0.044388413429260254,-0.047823041677474976
1763691412593416400,0.29341650390625,-0.06447696685791016,0.022451043128967285,-0.054590314626693726
1763691412603420200,0.303420166015625,-0.10463237762451172,-0.03754925727844238,-0.056596726179122925
1763691412613427000,0.313427001953125,-0.19291114807128906,-0.03368222713470459,-0.07571080327033997
1763691412623431700,0.323431640625,-0.34613037109375,-0.03162252902984619,-0.0992211401462555
1763691412633446100,0.333446044921875,-0.5348548889160156,-0.00709986686706543,-0.13488200306892395
1763691412643455000,0.343455078125,-0.7034826278686523,-0.009729981422424316,-0.22788363695144653
1763691412653459000,0.353458984375,-0.8028659820556641,0.01841890811920166,-0.305583655834198
1763691412663466000,0.363466064453125,-0.8910732269287109,0.0354001522064209,-0.404132604598999
1763691412673483300,0.373483154296875,-0.9315452575683594,0.03669166564941406,-0.45312634110450745
1763691412683494400,0.383494384765625,-0.8656272888183594,0.030939221382141113,-0.3241042494773865
1763691412693482000,0.39348193359375,-0.7519931793212891,-0.03735232353210449,-0.06794154644012451
1763691412703483100,0.403483154296875,-0.6660041809082031,-0.10999751091003418,0.020378053188323975
1763691412713494000,0.413493896484375,-0.6438608169555664,-0.11615538597106934,-0.1246577799320221
1763691412723499300,0.423499267578125,-0.553746223449707,-0.1262645721435547,-0.2540706396102905
1763691412733497000,0.4334970703125,-0.45313262939453125,-0.17272496223449707,-0.3821609318256378
1763691412743499300,0.443499267578125,-0.3327369689941406,-0.21359634399414062,-0.5205571055412292
1763691412753511700,0.45351171875,-0.19242095947265625,-0.3449733257293701,-0.4544253647327423
1763691412763518000,0.46351806640625,-0.07830047607421875,-0.26077961921691895,-0.4839327931404114
1763691412773533700,0.47353369140625,0.001773834228515625,-0.14071297645568848,-0.5814779996871948
1763691412783544000,0.4835439453125,-0.077056884765625,-0.15333807468414307,-0.4179935157299042
1763691412793525000,0.49352490234375,-0.26033496856689453,-0.20411038398742676,0.06689071655273438
1763691412803522800,0.503522705078125,-0.5284585952758789,-0.23683667182922363,0.4917752742767334
1763691412813540900,0.513540771484375,-0.8488225936889648,-0.5016192197799683,0.953853964805603
1763691412823547400,0.52354736328125,-1.3971500396728516,-1.8780566453933716,-0.8664093017578125
1763691412833545700,0.533545654296875,-0.6436576843261719,-3.0693488121032715,0.251336932182312
1763691412843548700,0.543548583984375,1.0579795837402344,-2.0845837593078613,0.9130892753601074
1763691412853552000,0.55355224609375,2.2376317977905273,-0.2538517117500305,0.7749371528625488
1763691412863555000,0.56355517578125,2.2013702392578125,0.7064404487609863,0.47676801681518555
1763691412873569000,0.573569091796875,2.159062385559082,1.3130311965942383,0.8434100151062012
1763691412883573000,0.583572998046875,2.0862483978271484,1.847557544708252,0.7729640007019043
1763691412893575400,0.593575439453125,1.7330570220947266,1.815416693687439,1.1489955186843872
1763691412903579100,0.6035791015625,1.187657356262207,1.4781303405761719,1.4123972654342651
1763691412913584000,0.613584228515625,0.46515560150146484,0.9571521878242493,1.3625061511993408
1763691412923588000,0.623588134765625,-0.12055587768554688,0.5894514322280884,0.7811734676361084
1763691412933592000,0.633592041015625,-0.2418651580810547,0.22142785787582397,0.24804115295410156
1763691412943596000,0.643595947265625,0.19277572631835938,-0.05224287509918213,0.10789084434509277
1763691412953606100,0.653606201171875,1.133143424987793,0.079525887966156,0.011764287948608398
1763691412963610600,0.663610595703125,1.7574644088745117,0.07730609178543091,0.06342220306396484
1763691412973621500,0.67362158203125,1.7912912368774414,0.1136617660522461,0.033399343490600586
1763691412983626800,0.683626708984375,1.528116226196289,0.1903730034828186,0.1414656639099121
1763691412993625900,0.6936259765625,1.2321643829345703,0.35372114181518555,0.2094278335571289
1763691413003630300,0.70363037109375,1.0549087524414062,0.6487225890159607,0.23656105995178223
1763691413013631700,0.7136318359375,0.9241361618041992,0.8797635436058044,0.19350719451904297
1763691413023636000,0.723635986328125,0.8728342056274414,0.8554438948631287,0.2562974691390991
1763691413033632300,0.73363232421875,0.7683925628662109,0.7121366262435913,0.28319859504699707
1763691413043635700,0.7436357421875,0.6683521270751953,0.5043466091156006,0.2966146469116211
1763691413053639200,0.75363916015625,0.17682933807373047,0.29741740226745605,0.005573868751525879
1763691413063642600,0.763642578125,0.02408599853515625,0.1974043846130371,-0.21357035636901855
1763691413073662700,0.773662841796875,0.039215087890625,0.24537360668182373,-0.4045509099960327
1763691413083668000,0.78366796875,0.11915016174316406,0.3372436761856079,-0.6448124647140503
1763691413093660700,0.79366064453125,0.46135807037353516,0.2873361110687256,-0.5977339744567871
1763691413103664400,0.803664306640625,0.5955028533935547,0.18585646152496338,-0.46734607219696045
1763691413113649200,0.813649169921875,0.6138954162597656,0.0887836217880249,-0.14881408214569092
1763691413123651000,0.823651123046875,0.7541379928588867,0.09243500232696533,0.18189597129821777
1763691413133655600,0.833655517578125,0.8024148941040039,0.2602205276489258,0.38505351543426514
1763691413143657500,0.843657470703125,0.703394889831543,0.48777490854263306,0.4397028684616089
1763691413153676500,0.853676513671875,0.6059274673461914,0.5978458523750305,0.38366401195526123
1763691413163680300,0.86368017578125,0.5057163238525391,0.5057118535041809,0.38144350051879883
1763691413173676500,0.873676513671875,0.43564414978027344,0.4125922918319702,0.5464639663696289
1763691413183679700,0.8836796875,0.29269981384277344,0.5439544320106506,0.7469465732574463
1763691413193692700,0.893692626953125,-0.09655094146728516,0.6177138090133667,0.8234113454818726
1763691413203696600,0.903696533203125,-0.4040794372558594,0.5373903512954712,0.9813296794891357
1763691413213692400,0.9136923828125,-0.5912208557128906,0.31209760904312134,1.0056833028793335
1763691413223695600,0.923695556640625,-0.4665994644165039,0.3670739531517029,0.8355859518051147
1763691413233699300,0.93369921875,-0.2688741683959961,0.5845395922660828,0.7710069417953491
1763691413243702500,0.94370263671875,-0.059166908264160156,0.44430011510849,0.425159215927124
1763691413253707500,0.95370751953125,-0.16566181182861328,0.30875396728515625,0.2973552942276001
1763691413263711000,0.9637109375,-0.4088096618652344,-0.1562366485595703,-0.254156231880188
1763691413273722600,0.97372265625,-0.10441303253173828,-0.4665297865867615,-0.21384143829345703
1763691413283727000,0.98372705078125,-0.21904373168945312,-0.5746277570724487,-0.2260228395462036
1763691413293724700,0.993724609375,-0.3168020248413086,-0.5557339191436768,-0.18120646476745605
1763691413303728400,1.003728271484375,-0.054706573486328125,-0.5151529312133789,-0.1737511157989502
1763691413313739300,1.0137392578125,0.26323986053466797,-0.43481335043907166,-0.5667680501937866
1763691413323743500,1.023743408203125,0.5380268096923828,-0.2626684606075287,-1.1848530769348145
1763691413333744600,1.03374462890625,0.7804365158081055,-0.19195038080215454,-1.376114845275879
1763691413343748600,1.04374853515625,0.8014755249023438,-0.314100444316864,-1.3729064464569092
1763691413353752600,1.053752685546875,0.5216169357299805,-0.45191940665245056,-1.108545184135437
1763691413363756500,1.063756591796875,0.24614524841308594,-0.32754719257354736,-0.7135181427001953
1763691413373781500,1.073781494140625,-0.14313125610351562,-0.09474903345108032,-0.47746944427490234
1763691413383787500,1.08378759765625,-0.47896289825439453,-0.11066842079162598,-0.354142427444458
1763691413393780500,1.093780517578125,-0.5809288024902344,-0.1401423215866089,-0.31815099716186523
1763691413403785200,1.10378515625,-0.5885839462280273,-0.20740479230880737,-0.4869800806045532
1763691413413791500,1.11379150390625,-0.43251895904541016,-0.19346195459365845,-0.5594871044158936
1763691413423796500,1.12379638671875,-0.34705352783203125,0.06263762712478638,-0.6950510740280151
1763691413433826800,1.133826904296875,-0.34717750549316406,0.07731282711029053,-0.7824236154556274
1763691413443834400,1.14383447265625,-0.42903709411621094,0.12018841505050659,-0.6494797468185425
1763691413453838300,1.15383837890625,-0.42648792266845703,0.18624728918075562,-0.4766068458557129
1763691413463845400,1.163845458984375,-0.4690074920654297,0.19792938232421875,-0.28080058097839355
1763691413473881300,1.17388134765625,-0.4511079788208008,0.19538289308547974,-0.022002696990966797
1763691413483891500,1.183891357421875,-0.3246593475341797,0.3179231286048889,-0.05118727684020996
1763691413493875700,1.193875732421875,-0.9375085830688477,0.004584968090057373,-2.0696921348571777
1763691413503883000,1.203883056640625,-2.503782272338867,-1.4754343032836914,-2.8001182079315186
1763691413513883400,1.21388330078125,-2.274935722351074,0.4092070460319519,-2.3327152729034424
1763691413523890000,1.223889892578125,-1.0655488967895508,1.085856556892395,-1.1677405834197998
1763691413533893400,1.233893310546875,2.151522636413574,1.2259109020233154,1.5662705898284912
1763691413543899600,1.243899658203125,3.3702592849731445,0.5710493326187134,2.7052342891693115
1763691413553895200,1.253895263671875,3.084341049194336,-0.40862154960632324,2.7294790744781494
1763691413563900400,1.263900390625,1.5354976654052734,-0.792014479637146,1.7464382648468018
1763691413573869000,1.273869140625,-0.1190176010131836,-0.5507631301879883,0.4359865188598633
1763691413583870500,1.283870361328125,-0.31255245208740234,-0.19428890943527222,0.02124309539794922
1763691413593899300,1.293899169921875,0.5708932876586914,0.04223978519439697,-0.07423436641693115
1763691413603903500,1.303903564453125,1.8416128158569336,0.3513319492340088,-0.04072308540344238
1763691413613909200,1.3139091796875,2.119656562805176,0.7305901050567627,-0.19456708431243896
1763691413623913500,1.32391357421875,0.6761322021484375,0.7273373603820801,-0.8072589039802551
1763691413633880000,1.333880126953125,-0.8642969131469727,0.26510608196258545,-0.9518394470214844
1763691413643880400,1.34388037109375,-1.2095069885253906,0.29546332359313965,-0.540946364402771
1763691413653884000,1.3538837890625,-1.3125638961791992,0.8525289297103882,1.0937669277191162
1763691413663884800,1.363884765625,-2.718170166015625,1.4787957668304443,1.4906429052352905
1763691413673892900,1.373892822265625,-0.8219423294067383,1.2132545709609985,1.340877890586853
1763691413683894500,1.38389453125,0.9180078506469727,0.350652813911438,1.6958861351013184
1763691413693900500,1.393900634765625,1.0026302337646484,-0.18668800592422485,1.0198960304260254
1763691413703902700,1.40390283203125,0.5787954330444336,0.11760836839675903,0.34227919578552246
1763691413713912000,1.413912109375,0.13461017608642578,0.589497447013855,0.20905685424804688
1763691413723914800,1.423914794921875,-0.03038311004638672,0.8042013645172119,0.45354557037353516
1763691413733913900,1.433913818359375,0.24799442291259766,0.7060521245002747,0.4503570795059204
1763691413743916300,1.443916259765625,0.6819067001342773,0.5290888547897339,0.3335297703742981
1763691413753924000,1.453924072265625,1.0851144790649414,0.3699478805065155,-0.025853335857391357
1763691413763926800,1.4639267578125,1.3486366271972656,0.24804159998893738,-0.3216472864151001
1763691413773954300,1.473954345703125,1.1745719909667969,-0.588438868522644,-0.44171807169914246
1763691413783959600,1.48395947265625,0.17074108123779297,-1.524212121963501,-0.23802679777145386
1763691413793964000,1.493964111328125,-0.007442474365234375,0.11323228478431702,-0.03646808862686157
1763691413803969300,1.50396923828125,0.07752513885498047,1.132777452468872,-0.24878835678100586
1763691413813997300,1.513997314453125,0.1338491439819336,0.950088381767273,-0.41247591376304626
1763691413824005000,1.524005126953125,-0.11867237091064453,0.28018632531166077,-0.15714675188064575
1763691413834001700,1.534001708984375,-0.08827686309814453,0.022142231464385986,0.35943835973739624
1763691413844008200,1.54400830078125,0.09021759033203125,0.2745234966278076,0.4832790493965149
1763691413854010400,1.55401025390625,0.49239444732666016,0.1209145188331604,0.3811616897583008
1763691413864016100,1.56401611328125,0.6313304901123047,0.07544291019439697,-0.21848762035369873
1763691413874023700,1.574023681640625,0.41765308380126953,-0.18600064516067505,-0.8478933572769165
1763691413884029700,1.58402978515625,0.3248281478881836,-0.3000902533531189,-1.050284504890442
1763691413893998600,1.59399853515625,0.1712179183959961,-0.10236659646034241,-1.0287991762161255
1763691413904001000,1.6040009765625,-0.014441490173339844,0.11229926347732544,-0.760051429271698
1763691413914010000,1.614010009765625,-0.04155731201171875,0.11693495512008667,-0.7941882014274597
1763691413924013300,1.624013427734375,1.1807641983032227,-0.833807110786438,-2.150575637817383
1763691413934060500,1.634060546875,2.3609533309936523,-0.6455739736557007,-1.3160792589187622
1763691413944068000,1.644068115234375,-0.5319156646728516,-0.272212952375412,2.1314125061035156
1763691413954051300,1.65405126953125,-4.143655300140381,1.1881113052368164,3.9387803077697754
1763691413964056300,1.664056396484375,-0.3592720031738281,0.5214179158210754,1.0450059175491333
1763691413974065200,1.674065185546875,1.4193658828735352,-0.540051281452179,-0.7316793203353882
1763691413984070700,1.684070556640625,0.08590030670166016,-0.4741256833076477,-1.0118216276168823
1763691413994084400,1.69408447265625,0.10215377807617188,-0.5413333177566528,-2.165358543395996
1763691414004090600,1.704090576171875,3.520557403564453,-0.8104351758956909,-1.9679875373840332
1763691414014093600,1.714093505859375,1.679682731628418,-0.475591242313385,-0.8967511653900146
1763691414024099300,1.724099365234375,-21.360214233398438,0.14574211835861206,4.275414943695068
1763691414034106000,1.734106201171875,10.594708442687988,-0.7312184572219849,1.973154902458191
1763691414044112100,1.744112060546875,-6.506477355957031,0.28379055857658386,1.6200127601623535
1763691414054111700,1.75411181640625,2.407708168029785,0.6223909854888916,1.0720770359039307
1763691414064117000,1.764116943359375,1.2957706451416016,0.5604296326637268,0.3326987326145172
1763691414074111200,1.774111328125,-0.5209856033325195,0.9032978415489197,-0.7254437804222107
1763691414084115500,1.784115478515625,1.7772865295410156,0.35338571667671204,-0.07607626914978027
1763691414094111500,1.794111572265625,0.8400783538818359,0.02896466851234436,0.03644300997257233
1763691414104114700,1.80411474609375,0.2654533386230469,0.09029975533485413,0.5640275478363037
1763691414114115300,1.814115234375,0.25111865997314453,0.25242289900779724,0.9094719290733337
1763691414124118500,1.824118408203125,-0.12997913360595703,0.3970852792263031,0.5060847997665405
1763691414134118700,1.83411865234375,-0.10928916931152344,0.3232971131801605,0.45718419551849365
1763691414144121300,1.844121337890625,0.06857585906982422,0.21788153052330017,0.27993565797805786
1763691414154131200,1.854131103515625,-0.21146297454833984,0.13852426409721375,0.23937344551086426
1763691414164134700,1.864134765625,-0.40911388397216797,0.06043723225593567,0.4511377513408661
1763691414174139400,1.874139404296875,-0.5586767196655273,0.14500001072883606,0.44117599725723267
1763691414184143000,1.88414306640625,-0.33660125732421875,0.15069788694381714,0.5532935261726379
1763691414194168000,1.89416796875,-0.2884702682495117,0.016001641750335693,0.6367111206054688
1763691414204173800,1.904173828125,-0.4176816940307617,-0.0780448317527771,0.8258587121963501
1763691414214157000,1.914156982421875,-0.4993305206298828,-0.05679050087928772,0.8767135143280029
1763691414224160500,1.924160400390625,-0.35686779022216797,-0.12338656187057495,0.7220077514648438
1763691414234163200,1.9341630859375,-0.0812540054321289,-0.4505426585674286,0.14854155480861664
1763691414244166400,1.94416650390625,0.10797595977783203,-0.6190354824066162,-0.2516855001449585
1763691414254188000,1.95418798828125,0.07779788970947266,-0.7212682962417603,0.21353602409362793
1763691414264193300,1.964193359375,-0.19945430755615234,-0.4746238589286804,1.1777087450027466
1763691414274196200,1.9741962890625,-0.5084009170532227,-0.4948217272758484,2.192564010620117
1763691414284201200,1.984201171875,-1.0014667510986328,-0.44099029898643494,1.7757576704025269
1763691414294195500,1.994195556640625,-1.1013984680175781,0.19032207131385803,0.8037588000297546
1763691414304199400,2.004199462890625,-0.8672552108764648,-0.2778030335903168,0.09317322075366974
1763691414314203100,2.014203125,-0.8434762954711914,-0.7184646725654602,0.4713185429573059
1763691414324206800,2.024206787109375,-0.5809831619262695,-0.44012191891670227,0.6927595138549805
1763691414334239000,2.034239013671875,-0.07131290435791016,-0.46129852533340454,1.219675064086914
1763691414344245500,2.04424560546875,0.05091094970703125,-0.41552186012268066,1.6209032535552979
1763691414354249500,2.05424951171875,0.012182235717773438,-0.05725833773612976,1.1498937606811523
1763691414364255700,2.064255859375,-0.033570289611816406,-0.8766875267028809,1.3431870937347412
1763691414374244900,2.074244873046875,0.9188947677612305,-1.0753695964813232,1.434877872467041
1763691414384249600,2.08424951171875,0.9444169998168945,-0.766002357006073,1.494887351989746
1763691414394249500,2.09424951171875,0.3883476257324219,-0.36061882972717285,1.0763872861862183
1763691414404253700,2.104253662109375,0.08324527740478516,-0.02059394121170044,1.43838369846344
1763691414414251000,2.1142509765625,-0.08983516693115234,0.00952419638633728,1.1331490278244019
1763691414424254500,2.12425439453125,-0.30611228942871094,0.328026682138443,0.887622058391571
1763691414434264000,2.13426416015625,-0.36228179931640625,0.08224555850028992,1.1349265575408936
1763691414444268000,2.14426806640625,0.01653289794921875,0.1367107629776001,1.176851511001587
1763691414454286300,2.154286376953125,-0.027589797973632812,-0.017376303672790527,1.147910475730896
1763691414464291800,2.164291748046875,0.30433177947998047,-0.04934999346733093,1.3220285177230835
1763691414474278400,2.1742783203125,0.5177421569824219,-0.3770676255226135,1.3772120475769043
1763691414484282000,2.1842822265625,0.546351432800293,-0.5619069337844849,1.3263680934906006
1763691414494301200,2.19430126953125,0.20122051239013672,-0.6136938333511353,1.047342300415039
1763691414504306200,2.20430615234375,0.06855583190917969,-0.6318853497505188,0.7616748809814453
1763691414514305800,2.214305908203125,0.9098348617553711,-0.6235123872756958,1.1483352184295654
1763691414524310300,2.224310302734375,2.0415639877319336,-0.6289932727813721,0.4067802429199219
1763691414534307000,2.23430712890625,0.8758602142333984,-0.4279148280620575,-0.08599567413330078
1763691414544310800,2.244310791015625,-0.2072000503540039,0.1582992970943451,0.34154367446899414
1763691414554318600,2.254318603515625,-0.7429561614990234,0.4869966208934784,0.5551133155822754
1763691414564322800,2.26432275390625,0.11237716674804688,1.1831574440002441,1.6376762390136719
1763691414574332000,2.274331787109375,1.1025972366333008,0.9111008644104004,0.9725704193115234
1763691414584336600,2.284336669921875,1.240987777709961,0.5822652578353882,-0.1753840446472168
1763691414594352400,2.294352294921875,1.5359034538269043,0.5192458033561707,-0.24417781829833984
1763691414604358100,2.304358154296875,1.4616398811340332,0.6194687485694885,-0.0004420280456542969
1763691414614356700,2.314356689453125,1.1861376762390137,0.6251503825187683,0.056176185607910156
1763691414624361700,2.32436181640625,1.03413724899292,0.41431885957717896,-0.32919836044311523
1763691414634367500,2.334367431640625,0.9857592582702637,-0.21380841732025146,-0.4424929618835449
1763691414644372700,2.344372802734375,0.5395722389221191,-0.5514798164367676,-0.35094356536865234
1763691414654387200,2.35438720703125,0.10176706314086914,-0.3448479175567627,-0.5544600486755371
1763691414664393200,2.364393310546875,0.14439916610717773,-0.35432863235473633,-0.6895012855529785
1763691414674380000,2.374380126953125,0.9441051483154297,-0.16577410697937012,-0.017648696899414062
1763691414684384000,2.384384033203125,1.4416680335998535,0.2525743246078491,0.9038419723510742
1763691414704409600,2.40440966796875,1.5557622909545898,0.45796841382980347,-1.4349446296691895
1763691414714400800,2.41440087890625,0.7717885971069336,0.33223915100097656,-1.399979591369629
1763691414724405000,2.424405029296875,0.5400629043579102,0.27550208568573,-0.7943201065063477
1763691414734407700,2.43440771484375,0.8412437438964844,1.4547653198242188,-0.18493080139160156
1763691414744411600,2.44441162109375,1.0665392875671387,1.0798251628875732,-0.023471832275390625
1763691414754406000,2.454406005859375,0.9036798477172852,0.8108665943145752,-0.7221994400024414
1763691414764408800,2.464408935546875,0.6750659942626953,0.7562790513038635,-0.7311458587646484
1763691414774409700,2.47440966796875,0.3071589469909668,0.437613844871521,-0.8133888244628906
1763691414784412700,2.48441259765625,0.009455204010009766,0.043110013008117676,-0.7981610298156738
1763691414794430500,2.494430419921875,-0.4761219024658203,-0.4523963928222656,-1.2305617332458496
1763691414804434700,2.5044345703125,-0.6237678527832031,-0.7460778951644897,-2.084991931915283
1763691414814457900,2.514457763671875,-0.6024765968322754,-0.22094160318374634,-1.1625595092773438
1763691414824464100,2.524464111328125,-0.3570594787597656,0.0733078122138977,-0.7805953025817871
1763691414834456800,2.534456787109375,-0.22650623321533203,0.03424429893493652,0.1649775505065918
1763691414844461800,2.5444619140625,-0.2879481315612793,0.06532162427902222,0.505763053894043
1763691414854448400,2.554448486328125,-0.6058135032653809,0.048487842082977295,0.969151496887207
1763691414864451300,2.564451416015625,-0.29151391983032227,-0.22387617826461792,0.9627580642700195
1763691414874476300,2.574476318359375,0.25852298736572266,-0.039791226387023926,0.29647254943847656
1763691414884481300,2.584481201171875,0.3058891296386719,0.34509503841400146,0.0718240737915039
1763691414894495000,2.594494873046875,0.2976832389831543,0.49647384881973267,-0.13960504531860352
1763691414904501000,2.6045009765625,0.17370223999023438,0.2924647331237793,-0.11436748504638672
1763691414914506500,2.614506591796875,0.19681549072265625,-0.11418795585632324,0.2632436752319336
1763691414924512300,2.62451220703125,0.15948104858398438,-0.3108707666397095,0.7288355827331543
1763691414934478800,2.634478759765625,0.0377345085144043,-0.2278149127960205,0.8004317283630371
1763691414944480800,2.644480712890625,0.11763858795166016,-0.09393250942230225,0.5402493476867676
1763691414954520600,2.6545205078125,0.1584320068359375,-0.05493509769439697,0.02231597900390625
1763691414964526300,2.6645263671875,0.02614307403564453,-0.06408512592315674,-0.3840017318725586
1763691414974528000,2.674528076171875,-0.08795547485351562,0.034945666790008545,-0.41777610778808594
1763691414984533200,2.684533203125,0.06133079528808594,0.05915111303329468,-0.2927827835083008
1763691414994508800,2.6945087890625,0.3640313148498535,-0.246371328830719,0.33574581146240234
1763691415004511000,2.704510986328125,0.5483608245849609,-0.49875885248184204,1.0119891166687012
1763691415014500400,2.714500244140625,0.3654136657714844,-0.42533910274505615,0.4781970977783203
1763691415024501200,2.724501220703125,0.03621482849121094,-0.057843565940856934,-0.07622814178466797
1763691415034525200,2.734525146484375,-0.0612335205078125,0.20884013175964355,-0.38951587677001953
1763691415044528600,2.744528564453125,0.0021491050720214844,0.24047672748565674,-0.27132320404052734
1763691415054526200,2.754526123046875,-0.016714096069335938,0.18917632102966309,-0.021942138671875
1763691415064529000,2.76452880859375,-0.1467576026916504,0.10332626104354858,0.2620067596435547
1763691415074534400,2.774534423828125,-0.2342076301574707,0.08568722009658813,0.48520660400390625
1763691415084537600,2.78453759765625,-0.38381361961364746,0.0823407769203186,0.3233509063720703
1763691415094565600,2.794565673828125,-0.5976231098175049,-0.06422644853591919,0.0721883773803711
1763691415104571100,2.804571044921875,-0.9044253826141357,-0.4853411316871643,0.3094968795776367
1763691415114559700,2.814559814453125,-1.1122071743011475,-0.9177806377410889,0.9898529052734375
1763691415124563500,2.8245634765625,-1.311455249786377,-0.8422096967697144,1.3358807563781738
1763691415134586000,2.834586181640625,-1.2160351276397705,-0.23817455768585205,0.8841648101806641
1763691415144592000,2.844591796875,-0.8634045124053955,0.3034159541130066,0.10577011108398438
1763691415154584600,2.85458447265625,-0.8166162967681885,0.3777339458465576,0.3036832809448242
1763691415164588800,2.8645888671875,-0.33184194564819336,0.18121498823165894,0.43094539642333984
1763691415174610200,2.874610107421875,-0.1441516876220703,-0.13149768114089966,0.19518184661865234
1763691415184616400,2.884616455078125,-0.41809964179992676,-0.2722988724708557,0.12733078002929688
1763691415194613800,2.89461376953125,-0.38829469680786133,-0.3376253843307495,0.7514667510986328
1763691415204619000,2.904618896484375,-0.49892663955688477,-0.6678999066352844,0.9056882858276367
1763691415214617600,2.91461767578125,-0.38210177421569824,-0.7304903864860535,0.7203025817871094
1763691415224622000,2.9246220703125,-0.6736693382263184,-0.710383415222168,0.7452144622802734
1763691415234618600,2.93461865234375,-1.14259672164917,-0.8162125945091248,0.8989629745483398
1763691415244622300,2.944622314453125,-1.283756136894226,-0.7026182413101196,1.259692668914795
1763691415254612700,2.95461279296875,-0.719149112701416,-0.9564913511276245,0.1987447738647461
1763691415264615200,2.964615234375,0.10185074806213379,-1.6871229410171509,-0.858642578125
1763691415274656800,2.97465673828125,-0.4293251037597656,-1.840031385421753,-1.0365896224975586
1763691415284663000,2.9846630859375,-0.895953893661499,-1.5757044553756714,-1.4276142120361328
1763691415294665700,2.994665771484375,-1.1788793802261353,-1.5028061866760254,-1.5513381958007812
1763691415304671700,3.004671630859375,-0.8926408290863037,-1.050829529762268,-1.5069952011108398
1763691415314660900,3.014660888671875,-0.6280815601348877,-0.7547951936721802,-0.45027923583984375
1763691415324665300,3.024665283203125,-0.5732097625732422,-0.7565723657608032,0.06880760192871094
1763691415334673200,3.034673095703125,-0.6933958530426025,-0.8872777223587036,0.5914239883422852
1763691415344678000,3.044677978515625,-0.8087787628173828,-0.868515133857727,0.5116596221923828
1763691415354678000,3.054677978515625,-0.7623870372772217,-0.9391112327575684,0.2911348342895508
1763691415364682200,3.06468212890625,-0.4949932098388672,-1.1097532510757446,-0.14020729064941406
1763691415374669600,3.074669677734375,-0.05850648880004883,-1.3940409421920776,0.35764598846435547
1763691415384672000,3.084672119140625,-0.07364249229431152,-1.5908571481704712,1.311582088470459
1763691415394717400,3.094717529296875,-0.3860607147216797,-1.908756136894226,2.220273494720459
1763691415404724500,3.104724365234375,-0.7111880779266357,-2.2871456146240234,2.9032654762268066
1763691415414704600,3.11470458984375,-0.6461257934570312,-2.8711822032928467,2.8681187629699707
1763691415424708900,3.124708984375,-0.48481225967407227,-3.1486690044403076,3.1661376953125
1763691415434718000,3.134718017578125,0.3011291027069092,-3.140312910079956,2.8965625762939453
1763691415444722700,3.14472265625,0.536217451095581,-2.795562982559204,2.7429022789001465
1763691415454715100,3.154715087890625,0.4528379440307617,-2.4478631019592285,2.962566375732422
1763691415464718800,3.16471875,0.3625500202178955,-2.1996653079986572,3.010554313659668
1763691415474727200,3.17472705078125,0.38490915298461914,-1.873058557510376,3.0599794387817383
1763691415484731100,3.184731201171875,0.5829834938049316,-1.5620160102844238,3.2728233337402344
1763691415494717000,3.194717041015625,0.8766794204711914,-1.4340932369232178,3.4174699783325195
1763691415504718800,3.20471875,0.6127448081970215,-1.3884353637695312,3.182990074157715
1763691415514738400,3.214738525390625,0.12703824043273926,-1.5263185501098633,2.7967443466186523
1763691415524742100,3.2247421875,-0.3949458599090576,-1.8555042743682861,2.5128588676452637
1763691415534746400,3.234746337890625,-1.0164755582809448,-2.0532772541046143,2.111668109893799
1763691415544750000,3.24475,-1.3958756923675537,-1.85630202293396,1.8037428855895996
1763691415554776000,3.254776123046875,-1.8765358924865723,-1.6316733360290527,1.5105977058410645
1763691415564782300,3.2647822265625,-1.8833057880401611,-1.531151294708252,1.2116236686706543
1763691415574751000,3.2747509765625,-2.102329969406128,-1.7509548664093018,0.6913485527038574
1763691415584753200,3.284753173828125,-2.5771713256835938,-2.285398244857788,-0.07134246826171875
1763691415594777900,3.29477783203125,-2.9786713123321533,-2.5572762489318848,-0.7960138320922852
1763691415604782600,3.304782470703125,-3.315521717071533,-2.5016822814941406,-1.3708515167236328
1763691415614803500,3.314803466796875,-2.9938454627990723,-1.877321481704712,-1.8443965911865234
1763691415624809700,3.324809814453125,-2.732142925262451,-1.1296463012695312,-2.307126998901367
1763691415634797000,3.334797119140625,-2.8394129276275635,-1.1916685104370117,-2.327977180480957
1763691415644801500,3.344801513671875,-2.4180262088775635,-1.1904282569885254,-2.129751205444336
1763691415654808800,3.354808837890625,-1.8340789079666138,-0.8177485466003418,-2.298159599304199
1763691415664813600,3.3648134765625,-1.9912734031677246,-0.9709196090698242,-2.8002567291259766
1763691415674826200,3.374826171875,-2.1129918098449707,-1.0211048126220703,-3.190070152282715
1763691415684831700,3.384831787109375,-2.17681622505188,-0.683624267578125,-3.51324462890625
1763691415694823700,3.39482373046875,-2.1846773624420166,-0.2801647186279297,-3.892787456512451
1763691415704828000,3.404827880859375,-2.1147403717041016,-0.036037445068359375,-4.121889591217041
1763691415714813400,3.4148134765625,-2.1215038299560547,0.05889177322387695,-4.392579078674316
1763691415724815600,3.424815673828125,-2.1783089637756348,0.2559995651245117,-4.890285968780518
1763691415734820900,3.43482080078125,-2.269071340560913,0.29828596115112305,-5.143366813659668
1763691415744823300,3.4448232421875,-2.2536895275115967,0.30339527130126953,-5.322219371795654
1763691415754827300,3.4548271484375,-2.1969950199127197,0.3677682876586914,-5.407739639282227
1763691415764829700,3.46482958984375,-2.19529390335083,0.544158935546875,-5.576043605804443
1763691415774867500,3.474867431640625,-2.041011333465576,0.9430141448974609,-5.4884114265441895
1763691415784873700,3.484873779296875,-1.6663471460342407,1.4012842178344727,-5.180381774902344
1763691415794850300,3.494850341796875,-1.2741988897323608,1.818577766418457,-4.869502067565918
1763691415804853500,3.504853515625,-1.1300569772720337,2.313370704650879,-4.632236480712891
1763691415814871000,3.51487109375,-0.5751304626464844,2.507312774658203,-4.391505718231201
1763691415824875500,3.52487548828125,-0.243780255317688,2.3547658920288086,-4.212559223175049
1763691415834880000,3.5348798828125,-0.6710416078567505,2.5106124877929688,-4.356505393981934
1763691415844884500,3.544884521484375,-3.6515274047851562,3.22375226020813,-4.865538597106934
1763691415854887000,3.554886962890625,-0.29918375611305237,2.907104253768921,-4.5547099113464355
1763691415864891100,3.56489111328125,1.2155565023422241,2.0859947204589844,-4.454963684082031
1763691415874897400,3.5748974609375,0.2957099378108978,2.0637192726135254,-5.203681945800781
1763691415884902000,3.58490185546875,0.7163456082344055,2.702873706817627,-5.140793800354004
1763691415894897400,3.5948974609375,1.5468642711639404,2.881701707839966,-4.566330432891846
1763691415904901000,3.604901123046875,1.3629413843154907,2.7437565326690674,-3.904076099395752
1763691415914916900,3.614916748046875,1.1955335140228271,2.8212954998016357,-3.1681928634643555
1763691415924921600,3.624921630859375,0.7617398500442505,2.9238579273223877,-2.5825204849243164
1763691415934914600,3.63491455078125,0.2876942753791809,2.8623030185699463,-2.229433059692383
1763691415944918000,3.64491796875,0.008565187454223633,2.7701380252838135,-2.0700016021728516
1763691415954925300,3.65492529296875,0.03371089696884155,3.1397156715393066,-2.416475296020508
1763691415964929000,3.664928955078125,0.8533423542976379,3.4464669227600098,-2.7984323501586914
1763691415974960600,3.674960693359375,0.3628844618797302,3.4902658462524414,-2.4443130493164062
1763691415984967400,3.684967529296875,0.7312885522842407,3.2467293739318848,-1.6222362518310547
1763691415994939600,3.694939697265625,0.2971036434173584,2.963099956512451,-0.6919775009155273
1763691416004942800,3.70494287109375,0.4133111238479614,2.7561120986938477,-0.03995704650878906
1763691416014969600,3.714969482421875,0.6517903804779053,2.639974594116211,0.4278898239135742
1763691416024975000,3.72497509765625,1.955333948135376,2.616034507751465,1.0130877494812012
1763691416035007700,3.7350078125,-0.06021010875701904,3.412752389907837,0.6966538429260254
1763691416045016000,3.74501611328125,0.9398068785667419,3.253417730331421,0.6517844200134277
1763691416054968300,3.75496826171875,0.5027573108673096,2.8519978523254395,1.3524870872497559
1763691416064971000,3.764970947265625,0.45629358291625977,2.4187827110290527,1.2593798637390137
1763691416075008000,3.775008056640625,0.955464243888855,1.8955588340759277,1.223717212677002
1763691416085014000,3.785013916015625,1.741063117980957,1.471684217453003,1.2455945014953613
1763691416095015400,3.795015380859375,2.3291797637939453,1.0229003429412842,2.5111489295959473
1763691416105021200,3.805021240234375,2.976212978363037,0.7832841873168945,3.4546566009521484
1763691416115012900,3.815012939453125,2.7372002601623535,1.0274848937988281,3.9493255615234375
1763691416125017000,3.82501708984375,2.4365181922912598,0.6913323402404785,4.282448768615723
1763691416135016000,3.835015869140625,1.4778752326965332,-0.475506067276001,3.4266767501831055
1763691416145019400,3.845019287109375,0.579401969909668,-1.8658194541931152,0.9156584739685059
1763691416155030800,3.85503076171875,0.18283402919769287,-3.144662857055664,-0.764155387878418
1763691416165035300,3.86503515625,0.43248748779296875,-3.2103357315063477,0.22667884826660156
1763691416175034400,3.875034423828125,1.0790588855743408,-3.0497241020202637,1.5032782554626465
1763691416185038000,3.8850380859375,-0.4370795488357544,-6.753925323486328,1.9257025718688965
1763691416195037700,3.89503759765625,2.541621208190918,-16.076866149902344,5.066043376922607
1763691416205041000,3.905041015625,5.1039814949035645,-3.9752554893493652,3.004815101623535
1763691416215046100,3.915046142578125,0.6115350723266602,1.2538115978240967,1.096672534942627
1763691416225049600,3.925049560546875,1.653961420059204,0.1700730323791504,3.3629608154296875
1763691416235071500,3.935071533203125,1.434239387512207,-1.4776768684387207,4.60029935836792
1763691416245077000,3.945076904296875,1.3000819683074951,-3.8881874084472656,1.0817008018493652
1763691416255095000,3.955094970703125,-0.39899709820747375,-4.204745769500732,-2.81394100189209
1763691416265101600,3.9651015625,-3.2624082565307617,-3.7942981719970703,-4.841668128967285
1763691416275108000,3.975108154296875,-3.0769927501678467,-3.712714672088623,-5.664594650268555
1763691416285115000,3.985114990234375,-2.2623589038848877,-3.2002110481262207,-4.996608734130859
1763691416295098000,3.99509814453125,-1.3197654485702515,-2.688845634460449,-2.392695903778076
1763691416305102300,4.005102294921875,-0.025251172482967377,-1.8874874114990234,-0.22438287734985352
1763691416315094800,4.0150947265625,0.657268762588501,-0.33326148986816406,1.4986205101013184
1763691416325097700,4.02509765625,0.33645209670066833,0.3953251838684082,2.478732109069824
1763691416335096600,4.0350966796875,1.9125632047653198,1.5862860679626465,3.651949882507324
1763691416345099000,4.04509912109375,4.1230082511901855,2.542663097381592,5.364793300628662
1763691416355127300,4.055127197265625,1.8989671468734741,3.916630983352661,4.320845603942871
1763691416365132500,4.065132568359375,-0.9068170189857483,5.439809322357178,2.6451101303100586
1763691416375142700,4.075142578125,-2.7035560607910156,3.072230815887451,-0.9286561012268066
1763691416385148400,4.0851484375,-1.425419807434082,0.4888949394226074,-2.7615227699279785
1763691416395136300,4.09513623046875,-0.12424154579639435,-1.2600111961364746,-2.8590612411499023
1763691416405140000,4.105139892578125,0.017073333263397217,-1.713533878326416,-1.6134729385375977
1763691416415125500,4.11512548828125,0.30274999141693115,-0.8225536346435547,-0.47137451171875
1763691416425127400,4.12512744140625,-0.2912331223487854,0.15855979919433594,0.998507022857666
1763691416435138000,4.135137939453125,0.10327157378196716,1.6889276504516602,0.8036222457885742
1763691416445140700,4.145140625,0.7224303483963013,2.4885854721069336,-0.04508066177368164
1763691416455184600,4.1551845703125,1.0136176347732544,2.850043296813965,0.08314132690429688
1763691416465191700,4.165191650390625,0.5541948676109314,2.7599191665649414,-0.33843135833740234
1763691416475189800,4.175189697265625,0.8188904523849487,3.875082492828369,0.49076080322265625
1763691416485195800,4.18519580078125,0.5511108040809631,3.513381004333496,-0.1728501319885254
1763691416495171000,4.195171142578125,0.832221269607544,3.1186418533325195,-0.6865568161010742
1763691416505174000,4.205174072265625,1.3927500247955322,2.3255510330200195,-1.2986507415771484
1763691416515186200,4.215186279296875,1.0627846717834473,0.44112586975097656,-1.4217801094055176
1763691416525190100,4.225190185546875,0.9880722761154175,0.31284141540527344,-0.32007503509521484
1763691416535200300,4.2352001953125,0.9218868017196655,-1.8627519607543945,1.96663236618042
1763691416545204700,4.245204833984375,0.49862080812454224,-3.891291618347168,0.5098719596862793
1763691416555233500,4.255233642578125,-0.6610860824584961,-3.942667007446289,0.2336573600769043
1763691416565240600,4.265240478515625,-0.9854198098182678,-4.905613899230957,-0.02996540069580078
1763691416575202300,4.275202392578125,-1.0586237907409668,-5.333270072937012,-0.4885115623474121
1763691416585204700,4.285204833984375,-0.8845556974411011,-5.436422348022461,-1.0111744403839111
1763691416595216600,4.295216552734375,-0.48863717913627625,-5.394441604614258,-0.9221947193145752
1763691416605220000,4.30522021484375,-0.6606075763702393,-4.211041450500488,-0.09161090850830078
1763691416615231200,4.315231201171875,-0.1871129274368286,-1.8963842391967773,-0.08179616928100586
1763691416625235500,4.3252353515625,0.5004760026931763,0.7286796569824219,0.08913278579711914
1763691416635250700,4.335250732421875,0.36712127923965454,3.590327262878418,1.2590703964233398
1763691416645256000,4.345255859375,0.34202706813812256,3.870147705078125,0.8584511280059814
1763691416655250700,4.355250732421875,1.7470054626464844,3.6290817260742188,0.8916897773742676
1763691416665255000,4.3652548828125,1.4963047504425049,4.777017116546631,-0.4361538887023926
1763691416675283200,4.375283203125,1.019512414932251,4.748587131500244,-1.7319459915161133
1763691416685290000,4.3852900390625,1.037770390510559,4.0844526290893555,-1.920975923538208
1763691416695293400,4.39529345703125,1.6638528108596802,2.6636600494384766,-1.331587791442871
1763691416705299700,4.4052998046875,2.100566864013672,1.3248887062072754,-0.5145120620727539
1763691416715280600,4.41528076171875,2.1419677734375,0.31441307067871094,0.09138298034667969
1763691416735291600,4.435291748046875,1.4248156547546387,-1.5534420013427734,-0.0342257022857666
1763691416745296000,4.4452958984375,1.2841109037399292,-1.4206247329711914,-0.35092639923095703
1763691416755279600,4.455279541015625,1.5981125831604004,-1.3132143020629883,-0.4852275848388672
1763691416765281500,4.465281494140625,1.8257371187210083,-0.9386453628540039,-0.5589430332183838
1763691416775332000,4.47533203125,1.8644487857818604,-0.5800600051879883,-0.508246660232544
1763691416785339100,4.485339111328125,1.8384703397750854,-0.36922454833984375,-0.3399169445037842
1763691416795324400,4.495324462890625,1.7138139009475708,-0.29672813415527344,-0.1292734146118164
1763691416805329200,4.5053291015625,1.5875157117843628,-0.13254833221435547,0.058548927307128906
1763691416815320000,4.515320068359375,1.6047379970550537,-0.09058761596679688,0.21491765975952148
1763691416825323300,4.5253232421875,1.4452475309371948,-0.13593196868896484,0.1471419334411621
1763691416835352800,4.535352783203125,1.3221558332443237,-0.24878597259521484,0.09211373329162598
1763691416845358800,4.54535888671875,1.2962874174118042,-0.4951000213623047,0.07080364227294922
1763691416855344400,4.555344482421875,1.1485521793365479,-0.7731695175170898,0.2076890468597412
1763691416865348400,4.565348388671875,1.053077220916748,-0.9762077331542969,0.3279445171356201
1763691416875355000,4.57535498046875,1.057984709739685,-1.2231101989746094,0.405728816986084
1763691416885358800,4.58535888671875,1.0734738111495972,-0.5927343368530273,0.4453244209289551
1763691416905362000,4.60536181640625,0.5758951306343079,0.8570079803466797,0.6522867679595947
1763691416915366100,4.6153662109375,-0.32492244243621826,1.134119987487793,0.7454688549041748
1763691416925369600,4.62536962890625,-1.1622724533081055,1.3603291511535645,0.45675039291381836
1763691416935380200,4.635380126953125,-1.7146306037902832,1.3454480171203613,0.4316890239715576
1763691416945384700,4.645384765625,-0.8222321271896362,1.7915825843811035,0.5709271430969238
1763691416965408800,4.66540869140625,1.9912335872650146,2.2258734703063965,0.6965711116790771
1763691416975417900,4.67541796875,1.6649432182312012,1.6521821022033691,0.595975399017334
1763691416995416800,4.695416748046875,-1.8819392919540405,0.23990821838378906,0.10328936576843262
1763691417005421600,4.705421630859375,-3.1370248794555664,-0.5780544281005859,-0.08003711700439453
1763691417015410700,4.71541064453125,-2.985102653503418,0.8719348907470703,-0.2598683834075928
1763691417025414000,4.725413818359375,-2.4679911136627197,1.1970806121826172,0.08373498916625977
1763691417035424500,4.735424560546875,-1.0219922065734863,1.3092880249023438,0.9147496223449707
1763691417045428500,4.745428466796875,-0.46242523193359375,2.2436327934265137,1.24430251121521
1763691417055428400,4.755428466796875,0.07333925366401672,2.0309395790100098,1.2343509197235107
1763691417065432000,4.76543212890625,0.4544922113418579,4.947659969329834,0.5829083919525146
1763691417075452000,4.775451904296875,0.09567093849182129,6.474788665771484,0.2154465913772583
1763691417085457000,4.785456787109375,-0.022174745798110962,6.567182540893555,0.19877564907073975
1763691417095456000,4.7954560546875,-0.38644129037857056,6.526496887207031,0.7047767043113708
1763691417105460500,4.80546044921875,-0.42420464754104614,5.294250011444092,1.8423664569854736
1763691417115459300,4.815459228515625,-0.9297500848770142,3.683962821960449,2.502237319946289
1763691417125463300,4.82546337890625,-0.9895074367523193,1.9262032508850098,2.9697604179382324
1763691417135487700,4.83548779296875,-0.5118669867515564,-0.9050331115722656,3.6241393089294434
1763691417145493800,4.84549365234375,-0.9184772372245789,-2.8647842407226562,3.1455016136169434
1763691417155508200,4.85550830078125,0.018022246658802032,-10.496736526489258,1.3874849081039429
1763691417165515000,4.865514892578125,1.9870930910110474,-19.25516128540039,-1.196332335472107
1763691417175496400,4.875496337890625,-1.0365287065505981,-14.871551513671875,-4.117419719696045
1763691417185501000,4.8855009765625,-4.3621439933776855,-9.686946868896484,-7.304435729980469
1763691417195493400,4.895493408203125,-4.173496723175049,-6.195537567138672,-8.6924467086792
1763691417205496600,4.90549658203125,-2.8029425144195557,-3.284107208251953,-7.40056037902832
1763691417215535600,4.91553564453125,0.09649547934532166,-1.978501319885254,-4.542669773101807
1763691417225542100,4.925542236328125,1.191716194152832,-0.6389627456665039,1.48783540725708
1763691417235539700,4.935539794921875,1.1772083044052124,-1.528010368347168,5.661365509033203
1763691417245545500,4.94554541015625,1.3688219785690308,-1.1106948852539062,3.960493564605713
1763691417255540500,4.95554052734375,0.8093724250793457,-1.5158958435058594,2.235476493835449
1763691417265545200,4.965545166015625,0.5321467518806458,-2.3833484649658203,0.7218243479728699
1763691417275544600,4.975544677734375,0.868557870388031,-2.307570457458496,-0.6151508092880249
1763691417285548800,4.985548828125,0.9033254384994507,-1.3574132919311523,-1.5245072841644287
1763691417295555600,4.9955556640625,0.5480080842971802,-0.2990427017211914,-1.922723650932312
1763691417305560000,5.00556005859375,0.13941311836242676,0.3559703826904297,-1.57344651222229
1763691417325584600,5.025584716796875,0.10415694117546082,0.7875595092773438,0.277778685092926
1763691417335563300,5.035563232421875,0.3146362006664276,0.8087882995605469,1.0576727390289307
1763691417345566200,5.045566162109375,0.4653915762901306,1.044698715209961,1.4067206382751465
1763691417355571200,5.0555712890625,0.35862037539482117,1.5759286880493164,0.9908791184425354
1763691417365574400,5.065574462890625,-0.15420103073120117,2.1579861640930176,-0.08386517316102982
1763691417375596800,5.0755966796875,-0.2159920334815979,2.5179896354675293,-0.8429856896400452
1763691417385602000,5.08560205078125,0.27375277876853943,2.4791951179504395,-1.8003844022750854
1763691417395608000,5.095608154296875,0.9132872223854065,4.14572811126709,-1.02204430103302
1763691417405613300,5.10561328125,1.0228708982467651,1.044076919555664,0.1686623990535736
1763691417415608800,5.11560888671875,-0.4737358093261719,-1.4858646392822266,0.02272312343120575
1763691417425613000,5.125613037109375,-0.8997196555137634,-2.314889907836914,-0.7555249929428101
1763691417435621000,5.13562109375,-0.4806998372077942,-2.1593713760375977,-1.6399288177490234
1763691417445625600,5.14562548828125,0.2741047143936157,-1.8668012619018555,-1.9055595397949219
1763691417455628500,5.155628662109375,0.7643531560897827,-1.222123146057129,-1.860234022140503
1763691417465633000,5.165633056640625,0.9744039177894592,-0.37848377227783203,-1.6598405838012695
1763691417475639000,5.17563916015625,0.9113227128982544,0.25319957733154297,-1.3533563613891602
1763691417485643500,5.1856435546875,0.7575863003730774,0.5206289291381836,-1.0188933610916138
1763691417495656000,5.195656005859375,0.6407562494277954,0.6011295318603516,-0.7099906802177429
1763691417505661400,5.205661376953125,0.5925403833389282,0.556915283203125,-0.5746015310287476
1763691417515671600,5.215671630859375,0.6426839828491211,0.4454517364501953,-0.54008948802948
1763691417525677600,5.225677490234375,0.8043642044067383,0.24310302734375,-0.4057486057281494
1763691417535657700,5.23565771484375,0.9612240195274353,0.03145408630371094,-0.2586909532546997
1763691417545661000,5.245660888671875,1.11765456199646,-0.05090808868408203,-0.1762528270483017
1763691417555682000,5.25568212890625,1.2064458131790161,-0.03291511535644531,-0.21528823673725128
1763691417565687000,5.26568701171875,1.2555487155914307,-0.019766807556152344,-0.30863088369369507
1763691417575697400,5.275697509765625,1.192562460899353,-0.04951953887939453,-0.36517250537872314
1763691417585703000,5.285702880859375,1.0031630992889404,-0.1602182388305664,-0.3949223458766937
1763691417595694800,5.29569482421875,0.7219764590263367,-0.31357383728027344,-0.3512575626373291
1763691417605699000,5.305698974609375,0.46539318561553955,-0.3425579071044922,-0.25970259308815
1763691417615714300,5.31571435546875,0.32520627975463867,-0.2620201110839844,-0.1305868774652481
1763691417625719600,5.325719482421875,0.32894372940063477,-0.03872108459472656,-0.06507006287574768
1763691417635725000,5.33572509765625,0.4322347640991211,0.12650299072265625,-0.06271210312843323
1763691417645730600,5.34573046875,0.5636317729949951,0.18590641021728516,-0.1614966094493866
1763691417655698000,5.355697998046875,0.6517131328582764,0.14443397521972656,-0.4371042251586914
1763691417665699300,5.36569921875,0.6971477270126343,0.04040718078613281,-0.8024500608444214
1763691417675713800,5.3757138671875,0.7279720306396484,-0.08767223358154297,-1.1982380151748657
1763691417685716500,5.385716552734375,0.7101035118103027,-0.20618057250976562,-1.5137815475463867
1763691417695741400,5.395741455078125,0.8249638080596924,-0.36284637451171875,-1.801020622253418
1763691417705746700,5.40574658203125,0.994975745677948,-0.5334529876708984,-2.0442087650299072
1763691417715732700,5.415732666015625,1.1193232536315918,-0.655731201171875,-2.3240151405334473
1763691417725735700,5.425735595703125,1.2367370128631592,-0.7155332565307617,-2.7027275562286377
1763691417735760600,5.4357607421875,1.423669695854187,-0.7177743911743164,-3.127775192260742
1763691417745766100,5.44576611328125,1.645552158355713,-0.733922004699707,-3.5738086700439453
1763691417755775200,5.455775146484375,1.8928228616714478,-0.9023494720458984,-3.968149185180664
1763691417765781000,5.465781005859375,2.2554421424865723,-1.2462100982666016,-4.232763767242432
1763691417775766000,5.47576611328125,2.6550240516662598,-1.7359323501586914,-4.267064571380615
1763691417785769700,5.485769775390625,3.051372766494751,-2.2130556106567383,-4.21962308883667
1763691417795787000,5.495787109375,3.288715362548828,-2.695981979370117,-4.0085625648498535
1763691417805792000,5.5057919921875,3.3688955307006836,-3.2221689224243164,-3.6003475189208984
1763691417815789300,5.515789306640625,3.465090274810791,-3.7763843536376953,-3.00417423248291
1763691417825793500,5.52579345703125,3.479588031768799,-4.21519660949707,-2.3367199897766113
1763691417835815700,5.535815673828125,3.516275405883789,-4.310015678405762,-1.8450065851211548
1763691417845821400,5.545821533203125,3.718143939971924,-4.2478532791137695,-1.5168325901031494
1763691417855816200,5.555816162109375,4.021075248718262,-4.10074520111084,-1.3439815044403076
1763691417865821000,5.565821044921875,4.101225852966309,-3.7934398651123047,-1.4077811241149902
1763691417875828700,5.575828857421875,3.5204973220825195,-3.2754344940185547,-1.752640962600708
1763691417885834000,5.585833984375,2.6139352321624756,-2.902308464050293,-2.558483123779297
1763691417895832800,5.595832763671875,1.2530640363693237,-2.996906280517578,-3.168429136276245
1763691417905837000,5.605837158203125,0.411336213350296,-3.1314525604248047,-2.774229049682617
1763691417915840300,5.61584033203125,0.6024128794670105,-2.81552791595459,-1.382328748703003
1763691417925844500,5.625844482421875,1.1326216459274292,-2.3952550888061523,0.5019583106040955
1763691417935841000,5.635841064453125,0.5228444933891296,-2.197103500366211,2.5929853916168213
1763691417945844500,5.645844482421875,-1.2866685390472412,-1.8439273834228516,4.297562122344971
1763691417955844900,5.655844970703125,-3.9141364097595215,-0.46488475799560547,4.665824890136719
1763691417965848000,5.66584814453125,-5.766613960266113,-0.4508218765258789,4.012341499328613
1763691417975851300,5.675851318359375,-5.502355575561523,-0.48070430755615234,2.5399436950683594
1763691417985854500,5.6858544921875,-3.661879301071167,-0.04727649688720703,0.5110248327255249
1763691417995876900,5.695876953125,-1.7261183261871338,0.37429332733154297,-1.5547187328338623
1763691418005881900,5.7058818359375,-0.8722934722900391,0.5012092590332031,-2.8472836017608643
1763691418015886600,5.715886474609375,-1.0645663738250732,0.44385814666748047,-2.9934937953948975
1763691418025891600,5.7258916015625,-1.6620382070541382,0.09358978271484375,-2.2706689834594727
1763691418035889200,5.73588916015625,-3.0814833641052246,-0.34560298919677734,-1.2157230377197266
1763691418045893400,5.745893310546875,-4.137427806854248,-0.6897096633911133,0.07621878385543823
1763691418055885000,5.755885009765625,-4.380764007568359,-0.4873332977294922,1.0310790538787842
1763691418065888000,5.765887939453125,-4.278291702270508,-0.11905288696289062,1.8975611925125122
1763691418075900400,5.775900390625,-3.9807705879211426,0.5240449905395508,2.036398410797119
1763691418085904400,5.785904296875,-3.5058953762054443,1.2369661331176758,1.7524192333221436
1763691418095931100,5.79593115234375,-2.8381543159484863,1.8629412651062012,1.268589735031128
1763691418105937400,5.8059375,-2.1377997398376465,2.3510680198669434,0.8203743100166321
1763691418115922200,5.815922119140625,-1.7694978713989258,2.674870491027832,0.3437037169933319
1763691418125926400,5.825926513671875,-1.7716007232666016,2.779745101928711,0.12721332907676697
1763691418135932400,5.835932373046875,-1.95973801612854,2.5099573135375977,0.10085438191890717
1763691418145936600,5.8459365234375,-2.242934226989746,2.005126476287842,0.34822699427604675
1763691418155927300,5.85592724609375,-2.616034746170044,1.6099047660827637,0.4661072790622711
1763691418165930000,5.865929931640625,-2.917459487915039,1.4048705101013184,0.49993500113487244
1763691418175946200,5.8759462890625,-3.124690532684326,1.336524486541748,0.5981816053390503
1763691418185950500,5.885950439453125,-3.216338634490967,1.3891263008117676,0.7307947874069214
1763691418195965200,5.895965087890625,-3.027731418609619,1.5468735694885254,1.0482512712478638
1763691418205970400,5.905970458984375,-2.5535407066345215,1.8316731452941895,1.6656700372695923
1763691418215960300,5.915960205078125,-1.922042965888977,2.2131009101867676,2.026329755783081
1763691418225963800,5.9259638671875,-1.3359618186950684,2.6377344131469727,2.2085955142974854
1763691418235965000,5.93596484375,-0.7046432495117188,3.162714958190918,2.2469136714935303
1763691418245968100,5.945968017578125,-0.011653661727905273,3.404660224914551,2.1807401180267334
1763691418256003000,5.956003173828125,0.381075382232666,3.570094108581543,1.8267109394073486
1763691418266009600,5.966009521484375,0.9894618988037109,3.8516578674316406,1.4044017791748047
1763691418275976700,5.975976806640625,1.9065308570861816,3.8088865280151367,1.0091251134872437
1763691418285979400,5.9859794921875,2.408994197845459,2.830585479736328,-0.02007719874382019
1763691418295990800,5.99599072265625,3.356323480606079,1.2877678871154785,-1.0989210605621338
1763691418305994000,6.005993896484375,4.945405960083008,0.33047962188720703,-2.186716079711914
1763691418316017000,6.016016845703125,5.539028167724609,-0.36643505096435547,-3.6151037216186523
1763691418326022400,6.0260224609375,5.275684356689453,-1.0096168518066406,-5.010265827178955
1763691418336026400,6.0360263671875,4.780792236328125,-1.5027446746826172,-6.034106254577637
1763691418346031600,6.046031494140625,4.238093852996826,-2.0317649841308594,-6.287473201751709
1763691418356023300,6.056023193359375,3.7644991874694824,-2.8011341094970703,-5.454867362976074
1763691418366027000,6.066027099609375,3.44160532951355,-3.5904226303100586,-3.6685681343078613
1763691418376010000,6.076010009765625,3.1661341190338135,-4.128389358520508,-1.36177659034729
1763691418386011600,6.08601171875,3.2941935062408447,-4.306484222412109,0.8187682628631592
1763691418396039700,6.096039794921875,3.8724822998046875,-3.9390859603881836,2.4050216674804688
1763691418406044000,6.1060439453125,4.356542587280273,-2.9217405319213867,3.1014020442962646
1763691418416063200,6.116063232421875,4.207693099975586,-1.516860008239746,3.078078508377075
1763691418426069000,6.126069091796875,3.0432441234588623,-0.2469921112060547,2.8451671600341797
1763691418436072000,6.136072021484375,1.4529476165771484,0.38170814514160156,2.9448320865631104
1763691418446077400,6.146077392578125,-0.3070552349090576,0.2060222625732422,3.5172505378723145
1763691418456063200,6.156063232421875,-1.7794761657714844,-0.3522481918334961,4.202824592590332
1763691418466067000,6.16606689453125,-3.0770864486694336,-1.1420669555664062,4.644341468811035
1763691418476089300,6.17608935546875,-4.505560874938965,-2.161775588989258,4.671141147613525
1763691418486094800,6.1860947265625,-5.138686180114746,-3.447908401489258,4.492650985717773
1763691418496099800,6.196099853515625,-3.5715646743774414,-4.985223770141602,4.60138463973999
1763691418506105000,6.20610498046875,-0.15101909637451172,-5.8863935470581055,4.736212730407715
1763691418516103700,6.216103759765625,0.960395336151123,-4.450849533081055,3.3762214183807373
1763691418526108400,6.2261083984375,-2.4887187480926514,-1.9790773391723633,1.6832932233810425
1763691418536116700,6.23611669921875,-5.434512138366699,0.6480245590209961,0.9699676036834717
1763691418546121700,6.246121826171875,-7.19603157043457,3.325385093688965,0.49856963753700256
1763691418556117800,6.25611767578125,-7.580282211303711,5.179335117340088,-0.16387002170085907
1763691418566121700,6.266121826171875,-6.551685333251953,5.964614391326904,-0.9973287582397461
1763691418576113200,6.276113037109375,-4.888820648193359,5.24939489364624,-1.7415087223052979
1763691418586116000,6.2861162109375,-3.8832802772521973,3.1126022338867188,-2.3766021728515625
1763691418596142000,6.29614208984375,-3.385185956954956,0.4104909896850586,-2.623117446899414
1763691418606147300,6.306147216796875,-2.916444778442383,-1.886092185974121,-3.070624828338623
1763691418616150500,6.316150634765625,-2.3242735862731934,-3.4461669921875,-3.4672698974609375
1763691418626155500,6.326155517578125,-1.8182590007781982,-4.382214546203613,-3.277045488357544
1763691418636153000,6.336153076171875,-1.1129560470581055,-4.162650108337402,-2.237443208694458
1763691418646157300,6.3461572265625,-0.5398902297019958,-2.9721126556396484,-0.6907989978790283
1763691418656162000,6.356162109375,0.14385473728179932,-1.4269561767578125,0.89459228515625
1763691418666166300,6.366166259765625,0.5290337800979614,0.1833353042602539,2.105726718902588
1763691418676161500,6.37616162109375,0.39966094493865967,1.604970932006836,2.9195950031280518
1763691418686165000,6.3861650390625,-0.13400602340698242,2.566673755645752,3.354825019836426
1763691418696191000,6.39619091796875,-0.6977413296699524,2.984318256378174,3.502897024154663
1763691418706196700,6.40619677734375,-1.0048344135284424,2.9744925498962402,3.360696315765381
1763691418716188200,6.416188232421875,-0.9180651903152466,2.4812979698181152,2.81843900680542
1763691418726192400,6.4261923828125,-0.7297725677490234,1.7641220092773438,1.8109633922576904
1763691418736216800,6.436216796875,-0.6519530415534973,1.0576906204223633,0.2778158485889435
1763691418746223000,6.44622314453125,-0.628764271736145,0.2855491638183594,-0.9484134316444397
1763691418756230400,6.45623046875,-0.6278379559516907,-0.3181114196777344,-1.9510109424591064
1763691418766236700,6.466236572265625,-0.4136955142021179,-0.7634754180908203,-2.6007843017578125
1763691418776221700,6.4762216796875,0.02492980659008026,-1.0989112854003906,-2.7459194660186768
1763691418786226000,6.486225830078125,0.4653705060482025,-1.1145153045654297,-2.5207455158233643
1763691418796235800,6.49623583984375,0.7430763244628906,-0.8205251693725586,-2.2132298946380615
1763691418806240500,6.506240478515625,0.7577566504478455,-0.3656196594238281,-1.7581740617752075
1763691418816236500,6.516236572265625,0.5973451733589172,0.0063610076904296875,-1.187832236289978
1763691418826240300,6.526240234375,0.3312232196331024,0.36737537384033203,-0.6208575963973999
1763691418836246500,6.53624658203125,0.10943719744682312,0.6936311721801758,-0.17628392577171326
1763691418846250800,6.546250732421875,0.10367891192436218,0.9422588348388672,0.12436246871948242
1763691418856249600,6.55624951171875,0.25926390290260315,1.0657329559326172,0.20379063487052917
1763691418866253300,6.56625341796875,0.47420769929885864,1.0978050231933594,0.06296264380216599
1763691418876283400,6.576283447265625,0.7536218166351318,1.0290288925170898,-0.3005412817001343
1763691418886289700,6.58628955078125,1.0817389488220215,0.745025634765625,-0.6675290465354919
1763691418896255000,6.5962548828125,1.2093925476074219,0.36102294921875,-1.0298775434494019
1763691418906257200,6.606257080078125,1.1147233247756958,-0.02248859405517578,-1.2896132469177246
1763691418916294000,6.6162939453125,0.9956988096237183,-0.2240743637084961,-1.4214167594909668
1763691418926299400,6.62629931640625,0.9571536183357239,-0.3252887725830078,-1.524922490119934
1763691418936307200,6.63630712890625,0.8115149736404419,-0.27368831634521484,-1.6117877960205078
1763691418946313000,6.64631298828125,0.5488938093185425,-0.23194217681884766,-1.7927464246749878
1763691418956304600,6.6563046875,0.3227190375328064,-0.18087291717529297,-2.037830352783203
1763691418966309000,6.66630908203125,0.3493801951408386,-0.13014793395996094,-2.3123018741607666
1763691418976302000,6.676302001953125,0.757882833480835,-0.07979965209960938,-2.553873062133789
1763691418986305300,6.68630517578125,1.3530389070510864,-0.038928985595703125,-2.7533490657806396
1763691418996303000,6.69630322265625,1.7620023488998413,-0.1309814453125,-2.7912135124206543
1763691419006305800,6.706305908203125,1.8487229347229004,-0.41725635528564453,-2.6022024154663086
1763691419016329000,6.716328857421875,1.8866333961486816,-0.8400230407714844,-2.2283380031585693
1763691419026333700,6.726333740234375,1.9674053192138672,-1.2558822631835938,-1.8078689575195312
1763691419036353300,6.736353271484375,1.9493768215179443,-1.4550409317016602,-1.6772229671478271
1763691419046359300,6.746359375,1.8962016105651855,-1.4907903671264648,-1.8537447452545166
1763691419056362800,6.75636279296875,2.0945229530334473,-1.5258541107177734,-2.228325366973877
1763691419066368500,6.766368408203125,2.4990034103393555,-1.703023910522461,-2.7276532649993896
1763691419076375000,6.776375,2.8588693141937256,-2.0644359588623047,-3.1986677646636963
1763691419086381000,6.786381103515625,2.955933094024658,-2.547062873840332,-3.592167854309082
1763691419096347600,6.79634765625,2.920490264892578,-2.882793426513672,-3.8224236965179443
1763691419106349600,6.806349609375,2.8040952682495117,-3.1003332138061523,-3.889834403991699
1763691419116376800,6.816376953125,2.5553159713745117,-3.2719039916992188,-3.8088619709014893
1763691419126381600,6.826381591796875,2.208413600921631,-3.546420097351074,-3.571139097213745
1763691419136365000,6.836364990234375,1.6089686155319214,-3.8583173751831055,-3.1469879150390625
1763691419146367200,6.8463671875,0.7472721338272095,-4.099757194519043,-2.547950267791748
1763691419156404700,6.85640478515625,0.574092447757721,-4.091314315795898,-1.4058761596679688
1763691419166410500,6.866410400390625,1.091517686843872,-3.8833017349243164,0.3328881859779358
1763691419176396500,6.876396484375,1.536921739578247,-3.502513885498047,2.4028279781341553
1763691419186400500,6.886400390625,1.2286808490753174,-2.889955520629883,4.431891441345215
1763691419196406300,6.89640625,0.2982666492462158,-2.0762720108032227,6.172770023345947
1763691419206410200,6.90641015625,-1.0726890563964844,-1.4954280853271484,7.3393073081970215
1763691419216421600,6.916421630859375,-2.526458978652954,-1.3009929656982422,7.816221714019775
1763691419226426400,6.92642626953125,-3.861114025115967,-1.1535148620605469,7.298915386199951
1763691419236442600,6.936442626953125,-4.334164619445801,-1.0309209823608398,6.1039276123046875
1763691419246448600,6.94644873046875,-4.051870346069336,-0.765106201171875,4.075850963592529
1763691419256452900,6.956452880859375,-3.569340705871582,-0.5911664962768555,1.8235453367233276
1763691419266458600,6.966458740234375,-3.061037540435791,-0.7104244232177734,-0.1002630889415741
1763691419276443600,6.976443603515625,-2.409907341003418,-1.1366519927978516,-1.5255526304244995
1763691419286447400,6.986447265625,-1.7639870643615723,-1.4210233688354492,-2.498138427734375
1763691419296453000,6.996453125,-1.7959054708480835,-1.433699607849121,-3.4301562309265137
1763691419306457000,7.00645703125,-2.2367911338806152,-1.2198944091796875,-3.720099449157715
1763691419316466400,7.016466552734375,-2.5166101455688477,-0.721156120300293,-3.47328782081604
1763691419326471000,7.026470947265625,-2.6888365745544434,-0.21022796630859375,-2.4828524589538574
1763691419336479700,7.036479736328125,-2.959381103515625,0.2502288818359375,-1.1548292636871338
1763691419346484700,7.046484619140625,-3.24940824508667,0.792628288269043,0.14446181058883667
1763691419356490200,7.056490234375,-3.474163770675659,1.4544472694396973,1.2374074459075928
1763691419366495200,7.0664951171875,-3.568479537963867,2.0889382362365723,2.0541040897369385
1763691419376480000,7.07647998046875,-3.499155044555664,2.7561960220336914,2.4480104446411133
1763691419386483000,7.08648291015625,-3.3826208114624023,3.252995491027832,2.5295822620391846
1763691419396483000,7.096483154296875,-3.3640384674072266,3.4766902923583984,2.447131395339966
1763691419406485800,7.10648583984375,-3.2943360805511475,3.442978858947754,2.3603148460388184
1763691419416523300,7.116523193359375,-3.1514651775360107,3.29022216796875,2.210221767425537
1763691419426529500,7.126529541015625,-3.010131597518921,3.112699508666992,1.9123724699020386
1763691419436512300,7.13651220703125,-3.0073940753936768,2.9803247451782227,1.641057014465332
1763691419446516000,7.146515869140625,-3.1205642223358154,2.9254941940307617,1.2474699020385742
1763691419456542000,7.1565419921875,-3.212740421295166,2.8704843521118164,1.018210530281067
1763691419466548000,7.1665478515625,-3.1475563049316406,2.8714256286621094,0.8178209662437439
1763691419476547600,7.176547607421875,-2.9070663452148438,2.8655433654785156,0.7855100035667419
1763691419486552800,7.186552734375,-2.476588487625122,2.8672971725463867,0.7267569899559021
1763691419496551700,7.1965517578125,-1.8888171911239624,2.790895462036133,0.7227468490600586
1763691419506556400,7.206556396484375,-1.2914092540740967,2.5648460388183594,0.6638637781143188
1763691419516545500,7.216545654296875,-0.5430657863616943,2.269561290740967,0.6083479523658752
1763691419526548500,7.226548583984375,0.36174869537353516,1.9322113990783691,0.4515448212623596
1763691419536576500,7.236576416015625,1.4036126136779785,1.6036372184753418,0.25658345222473145
1763691419546582300,7.246582275390625,2.6572749614715576,1.2436113357543945,-0.026519861072301865
1763691419556582400,7.25658251953125,3.9460887908935547,0.67919921875,-0.3035549521446228
1763691419566587400,7.26658740234375,5.0750274658203125,-0.15200233459472656,-0.5260988473892212
1763691419576572000,7.276572021484375,5.812160015106201,-1.302328109741211,-0.7839385271072388
1763691419586575000,7.2865751953125,6.2627973556518555,-2.4889230728149414,-1.2958604097366333
1763691419596590600,7.296590576171875,6.254266262054443,-3.468184471130371,-2.026599645614624
1763691419606594800,7.3065947265625,5.934083461761475,-4.174180030822754,-2.7524588108062744
1763691419616594000,7.316593994140625,5.507165908813477,-4.589031219482422,-2.8591787815093994
1763691419626597600,7.32659765625,5.248800277709961,-4.633079528808594,-2.2403509616851807
1763691419636591000,7.336591064453125,4.794942378997803,-4.226334571838379,-1.1984775066375732
1763691419646593800,7.34659375,4.111309051513672,-3.45013427734375,-0.06826931238174438
1763691419656602000,7.35660205078125,3.514578342437744,-2.246211051940918,0.9739785194396973
1763691419666605600,7.36660546875,3.1058082580566406,-0.5514459609985352,1.5912363529205322
1763691419676609800,7.37660986328125,2.5580332279205322,1.4540324211120605,1.8405272960662842
1763691419686613200,7.38661328125,1.6587800979614258,3.19046688079834,1.7665784358978271
1763691419696637200,7.39663720703125,0.38349127769470215,4.199644088745117,1.9315903186798096
1763691419706642400,7.406642333984375,-0.6317403316497803,4.128942489624023,2.5799059867858887
1763691419716632600,7.416632568359375,-1.0931835174560547,2.8154096603393555,3.3188724517822266
1763691419726636500,7.426636474609375,-1.1059839725494385,1.1252098083496094,3.5535948276519775
1763691419736663800,7.436663818359375,-0.6073048114776611,-0.729466438293457,3.3499274253845215
1763691419746670000,7.446670166015625,0.4581587314605713,-2.7638654708862305,2.7313005924224854
1763691419756651800,7.45665185546875,1.5581390857696533,-5.290000915527344,1.7241926193237305
1763691419766655500,7.466655517578125,1.5706307888031006,-8.143512725830078,0.12295226007699966
1763691419776677400,7.476677490234375,0.7826149463653564,-10.05338191986084,-1.412831425666809
1763691419786683100,7.48668310546875,0.5109899044036865,-9.61237621307373,-1.837249755859375
1763691419796679000,7.496678955078125,-1.0762050151824951,-6.116922378540039,-1.7951713800430298
1763691419806683600,7.50668359375,-4.133351802825928,-1.2483291625976562,-0.955980658531189
1763691419816692200,7.516692138671875,-5.250552177429199,3.1212158203125,0.8759797811508179
1763691419826697200,7.526697265625,-4.2669548988342285,6.340307235717773,2.9080028533935547
1763691419836677000,7.536677001953125,-3.560096263885498,8.02725601196289,4.378046989440918
1763691419846679600,7.546679443359375,-3.5339956283569336,7.705156326293945,5.088069438934326
1763691419856697300,7.556697265625,-3.726436138153076,6.4460344314575195,4.54344367980957
1763691419866701300,7.566701416015625,-4.373437881469727,4.384380340576172,2.6906299591064453
1763691419876715500,7.576715576171875,-4.867990493774414,1.5450615882873535,0.6373114585876465
1763691419886720500,7.586720458984375,-4.662450790405273,-1.4333019256591797,-1.1853656768798828
1763691419896717300,7.59671728515625,-3.512002468109131,-3.909425735473633,-2.5876505374908447
1763691419906721300,7.60672119140625,-2.246321201324463,-5.440944671630859,-3.5708343982696533
1763691419916738600,7.616738525390625,-1.6539509296417236,-5.672646522521973,-4.311975479125977
1763691419926744000,7.626744140625,-1.1191484928131104,-4.631317138671875,-3.8364336490631104
1763691419936731000,7.63673095703125,-0.5748816728591919,-2.7916250228881836,-2.3345487117767334
1763691419946734600,7.646734619140625,-0.29557085037231445,-0.9594192504882812,-0.9341577887535095
1763691419956732700,7.656732666015625,-0.14156663417816162,0.780879020690918,0.3423573970794678
1763691419966735600,7.666735595703125,-0.29733431339263916,2.159972667694092,1.7076921463012695
1763691419976740600,7.67674072265625,-0.7603551149368286,2.968993663787842,2.9643490314483643
1763691419986743800,7.686743896484375,-1.1585679054260254,3.043753147125244,3.760512113571167
1763691419996754200,7.696754150390625,-1.3402550220489502,2.4589972496032715,3.9448776245117188
1763691420006758000,7.7067578125,-1.228688359260559,1.5892620086669922,3.290008306503296
1763691420016779800,7.71677978515625,-1.0764729976654053,0.5115556716918945,1.9287688732147217
1763691420026785300,7.726785400390625,-1.133998155593872,-0.47283935546875,0.29269304871559143
1763691420036803600,7.736803466796875,-1.2441381216049194,-1.1110010147094727,-1.2559853792190552
1763691420046810600,7.746810546875,-1.1233601570129395,-1.3132219314575195,-2.4337754249572754
1763691420056775700,7.756775634765625,-0.693689227104187,-1.0571784973144531,-3.11328125
1763691420066778400,7.7667783203125,-0.17594313621520996,-0.6406154632568359,-3.170759916305542
1763691420076787000,7.776786865234375,0.06757217645645142,-0.20261287689208984,-2.809432029724121
1763691420086790400,7.786790283203125,-0.06157946586608887,0.17582225799560547,-2.317439317703247
1763691420096793300,7.79679345703125,-0.22314000129699707,0.43314456939697266,-1.7863622903823853
1763691420106796800,7.806796875,-0.16476315259933472,0.6176538467407227,-1.204445242881775
1763691420116833000,7.8168330078125,0.16586673259735107,0.7582206726074219,-0.5810690522193909
1763691420126839600,7.826839599609375,0.6631848216056824,0.8405323028564453,-0.08393919467926025
1763691420136818000,7.83681787109375,1.0590934753417969,0.8408870697021484,0.16351255774497986
1763691420146821600,7.846821533203125,1.1273362636566162,0.7978067398071289,0.1846904754638672
1763691420156835600,7.856835693359375,0.9794690608978271,0.7114753723144531,-0.09994062781333923
1763691420166840600,7.866840576171875,0.8530948758125305,0.5246305465698242,-0.5467854738235474
1763691420176834600,7.87683447265625,0.8082499504089355,0.3568592071533203,-0.875143826007843
1763691420186838300,7.88683837890625,0.8462753295898438,0.2796974182128906,-1.140986442565918
1763691420196843800,7.89684375,0.9231900572776794,0.25945091247558594,-1.357896327972412
1763691420206847700,7.90684765625,1.0037567615509033,0.29123592376708984,-1.4591459035873413
1763691420216872200,7.9168720703125,0.9539875984191895,0.3463010787963867,-1.4934498071670532
1763691420226878200,7.926878173828125,0.8172875642776489,0.4675931930541992,-1.532456398010254
1763691420236860700,7.936860595703125,0.6810827255249023,0.5975933074951172,-1.5228880643844604
1763691420246864100,7.946864013671875,0.7034790515899658,0.7028179168701172,-1.4121094942092896
1763691420256870700,7.95687060546875,0.8016936779022217,0.7451801300048828,-1.2295122146606445
1763691420266874600,7.96687451171875,0.8123735189437866,0.6054849624633789,-1.090861439704895
1763691420276904400,7.976904541015625,0.8126693367958069,0.38446903228759766,-1.0397348403930664
1763691420286911000,7.986910888671875,0.8073639273643494,0.09189987182617188,-1.060971975326538
1763691420296904700,7.99690478515625,0.988154947757721,-0.038036346435546875,-1.1924136877059937
1763691420306910000,8.006909912109375,1.3485469818115234,-0.02948474884033203,-1.2745245695114136
1763691420316903700,8.016903564453125,1.5599058866500854,0.08893966674804688,-1.2585673332214355
1763691420326907600,8.02690771484375,1.539108157157898,0.19309234619140625,-1.188541054725647
1763691420336923600,8.036923583984375,1.3915207386016846,0.11115646362304688,-1.137953758239746
1763691420346929000,8.046928955078124,1.1462576389312744,-0.00354766845703125,-1.195001244544983
1763691420356919000,8.0569189453125,0.8207554817199707,-0.12732791900634766,-1.2355166673660278
1763691420366922800,8.0669228515625,0.8712204694747925,-0.2603721618652344,-1.244349718093872
1763691420376930600,8.0769306640625,0.9939283132553101,-0.45974063873291016,-1.2688764333724976
1763691420386934500,8.0869345703125,0.8210592865943909,-0.5199756622314453,-1.5404366254806519
1763691420396931000,8.09693115234375,0.7320411205291748,-0.5132503509521484,-2.034655809402466
1763691420406934300,8.106934326171874,0.7372095584869385,-0.5830726623535156,-2.5865793228149414
1763691420416953000,8.116953125,1.0716276168823242,-0.7961502075195312,-2.9692883491516113
1763691420426957800,8.126957763671875,1.739473581314087,-1.1137218475341797,-3.069905996322632
1763691420436945700,8.136945556640624,2.5184783935546875,-1.4205093383789062,-3.1403467655181885
1763691420446948900,8.146948974609375,2.773996114730835,-1.5440731048583984,-3.214677333831787
1763691420456985300,8.1569853515625,2.6941823959350586,-1.9333629608154297,-3.4182393550872803
1763691420466991900,8.166991943359376,2.5841522216796875,-2.5016613006591797,-3.613753318786621
1763691420476986000,8.176986083984374,2.5269248485565186,-2.924020767211914,-3.706355333328247
1763691420486991400,8.186991455078125,2.3593649864196777,-2.8808536529541016,-3.62564754486084
1763691420496994600,8.19699462890625,2.257258415222168,-2.6401357650756836,-3.523106098175049
1763691420506999600,8.20699951171875,1.9438610076904297,-2.383512496948242,-3.382063388824463
1763691420516997400,8.216997314453126,1.7209821939468384,-2.2164688110351562,-3.124486207962036
1763691420527001600,8.227001708984375,1.9435524940490723,-2.3206024169921875,-2.898592472076416
1763691420537028000,8.237028076171875,2.192023754119873,-2.5522356033325195,-2.416757106781006
1763691420547034600,8.24703466796875,2.3869516849517822,-3.065410614013672,-1.8454124927520752
1763691420557004800,8.2570048828125,2.3418190479278564,-3.579465866088867,-1.3275219202041626
1763691420567007500,8.267007568359375,1.9061357975006104,-3.8099708557128906,-0.498216450214386
1763691420577034500,8.277034423828125,1.2964589595794678,-3.669419288635254,1.0527158975601196
1763691420587039700,8.287039794921874,0.853975772857666,-2.950892448425293,2.864950180053711
1763691420597041700,8.297041748046874,0.24256443977355957,-1.8583593368530273,4.117038726806641
1763691420607046700,8.307046630859375,-0.7861673831939697,-0.7322587966918945,4.3588457107543945
1763691420617050000,8.317050048828126,-1.695528268814087,-0.2295846939086914,3.9405698776245117
1763691420627055000,8.32705517578125,-2.0051169395446777,-0.3261537551879883,3.035891532897949
1763691420637060000,8.33706005859375,-1.951242446899414,-0.9128904342651367,1.7598552703857422
1763691420647064800,8.34706494140625,-1.9127438068389893,-1.5190706253051758,0.30372387170791626
1763691420657049600,8.357049560546875,-1.811984896659851,-2.0772504806518555,-1.0827473402023315
1763691420667052300,8.36705224609375,-1.8319761753082275,-2.444784164428711,-2.3011634349823
1763691420677087200,8.377087158203125,-2.4224588871002197,-2.4973554611206055,-3.092548131942749
1763691420687093200,8.38709326171875,-3.0834808349609375,-2.376152992248535,-3.401474952697754
1763691420697093400,8.39709326171875,-3.5018470287323,-2.0365028381347656,-3.331902503967285
1763691420707099000,8.407098876953125,-3.449202537536621,-1.5797863006591797,-2.809093475341797
1763691420717095000,8.417094970703126,-3.3712542057037354,-0.9787654876708984,-2.1526689529418945
1763691420727099400,8.427099365234374,-3.2922725677490234,-0.2591276168823242,-1.3743852376937866
1763691420737113300,8.43711328125,-3.090505838394165,0.5255041122436523,-0.7692545652389526
1763691420747118800,8.447118896484374,-2.898388147354126,1.155914306640625,-0.35133448243141174
1763691420757126400,8.45712646484375,-2.709273338317871,1.5042595863342285,0.16748885810375214
1763691420767132000,8.4671318359375,-2.637908697128296,1.8722014427185059,0.4406721889972687
1763691420777132500,8.477132568359375,-2.739450693130493,2.3514885902404785,0.6088358163833618
1763691420787137800,8.4871376953125,-2.916693925857544,2.720364570617676,0.8347458839416504
1763691420797131800,8.4971318359375,-2.9017179012298584,2.8671951293945312,1.0486713647842407
1763691420807135700,8.5071357421875,-2.72379732131958,2.7307939529418945,1.1281189918518066
1763691420817148700,8.517148681640625,-2.625204563140869,2.4253835678100586,1.0467911958694458
1763691420827153400,8.5271533203125,-2.9051449298858643,2.0073561668395996,0.7847690582275391
1763691420837157600,8.53715771484375,-3.558032512664795,1.5582451820373535,0.5051980018615723
1763691420847162600,8.54716259765625,-4.2036566734313965,1.1984562873840332,0.30034592747688293
1763691420857137200,8.55713720703125,-4.525616645812988,0.9329419136047363,0.41020485758781433
1763691420867138800,8.567138916015624,-4.439980506896973,0.8944072723388672,0.8190722465515137
1763691420877144000,8.57714404296875,-3.951965808868408,1.070676326751709,1.5470976829528809
1763691420887146200,8.587146240234375,-3.358086109161377,1.4498190879821777,2.2222204208374023
1763691420897188400,8.597188232421875,-2.684307336807251,1.9683775901794434,2.682159662246704
1763691420907194600,8.607194580078126,-1.9701963663101196,2.529719352722168,3.040743350982666
1763691420917193200,8.617193115234375,-1.23294997215271,2.7808399200439453,3.3732409477233887
1763691420927198500,8.627198486328124,-0.5090184211730957,2.6945390701293945,3.649750232696533
1763691420937170400,8.63717041015625,0.25218939781188965,2.4762778282165527,3.7382404804229736
1763691420947172400,8.64717236328125,0.879023551940918,2.206005573272705,3.6406383514404297
1763691420957192700,8.657192626953124,1.4470350742340088,1.8531794548034668,3.3830714225769043
1763691420967196400,8.667196533203125,1.9786040782928467,1.4446873664855957,3.001352548599243
1763691420977194500,8.677194580078124,2.4890310764312744,0.9461183547973633,2.4571521282196045
1763691420987197700,8.68719775390625,2.921821117401123,0.4534597396850586,1.706865668296814
1763691420997205800,8.697205810546874,3.5290300846099854,-0.10401725769042969,0.9203619956970215
1763691421007209500,8.70720947265625,4.26498556137085,-0.7253246307373047,0.2006973922252655
1763691421017225700,8.717225830078124,4.977766036987305,-1.481358528137207,-0.5742982625961304
1763691421027230700,8.727230712890625,5.2526655197143555,-2.2138166427612305,-1.717647910118103
1763691421037238000,8.737238037109375,4.933699607849121,-2.7603673934936523,-3.1911702156066895
1763691421047243300,8.7472431640625,4.061695098876953,-2.9924726486206055,-4.6643524169921875
1763691421067255800,8.767255859375,2.921973943710327,-2.451848030090332,-5.348819732666016
1763691421077263000,8.77726318359375,2.515369176864624,-1.8877544403076172,-4.252908229827881
1763691421087268900,8.787268798828125,2.108529806137085,-1.1802654266357422,-2.9041261672973633
1763691421097274000,8.797274169921875,1.8589236736297607,-0.25150108337402344,-1.653112530708313
1763691421107279600,8.807279541015625,1.7023210525512695,0.8518390655517578,-0.5452165603637695
1763691421117273000,8.817273193359375,1.2032921314239502,1.7540221214294434,0.566964328289032
1763691421127277600,8.827277587890626,0.49425816535949707,1.8616271018981934,1.7561842203140259
1763691421137281800,8.83728173828125,-0.4220614433288574,1.0265655517578125,2.887113094329834
1763691421147286000,8.8472861328125,-0.5242021083831787,-0.4705381393432617,3.916592597961426
1763691421157295000,8.857295166015625,0.5490448474884033,-2.373549461364746,4.667405128479004
1763691421167299800,8.8672998046875,1.3526721000671387,-4.626203536987305,4.930084228515625
1763691421177303000,8.877302978515624,0.8145935535430908,-7.332549095153809,5.0923075675964355
1763691421187307800,8.887307861328125,0.8384213447570801,-9.623713493347168,5.70306396484375
1763691421197324800,8.89732470703125,2.748220682144165,-10.211098670959473,6.3541436195373535
1763691421207330800,8.907330810546876,3.5925018787384033,-6.935635566711426,4.808830261230469
1763691421217315600,8.917315673828124,-0.8313965797424316,-2.01169490814209,2.261869430541992
1763691421227319300,8.9273193359375,-5.882570266723633,2.2494139671325684,1.1780949831008911
1763691421237333200,8.937333251953126,-7.295472145080566,5.616654872894287,1.2991423606872559
1763691421247338000,8.947337890625,-6.9106621742248535,7.780031204223633,1.6505043506622314
1763691421257337000,8.957337158203124,-6.142382621765137,8.56473445892334,1.2889820337295532
1763691421267341300,8.96734130859375,-5.145961761474609,7.740189552307129,0.09143742173910141
1763691421277327000,8.9773271484375,-4.551910877227783,5.106132984161377,-1.5801916122436523
1763691421287329500,8.98732958984375,-4.287367820739746,1.5775237083435059,-3.1657519340515137
1763691421297360000,8.99735986328125,-3.7605528831481934,-2.109952926635742,-4.581431865692139
1763691421307364900,9.00736474609375,-2.471824884414673,-5.18167781829834,-5.226256370544434
1763691421317359900,9.01735986328125,-1.3875672817230225,-6.648784637451172,-5.225583553314209
1763691421327364000,9.027364013671875,-1.2566041946411133,-6.040361404418945,-5.1435394287109375
1763691421337374000,9.0373740234375,-1.1728806495666504,-4.441908836364746,-3.8996410369873047
1763691421347378400,9.04737841796875,-0.9073431491851807,-2.508371353149414,-1.9960235357284546
1763691421357388800,9.057388916015626,-0.4772442579269409,-0.69317626953125,0.04537010192871094
1763691421367394000,9.06739404296875,-0.1495366096496582,0.8796148300170898,1.932305097579956
1763691421377401600,9.077401611328124,0.191320538520813,2.065429210662842,3.737121105194092
1763691421387406800,9.08740673828125,0.317452073097229,2.7488656044006348,5.246150970458984
1763691421397406500,9.097406494140625,-0.1260535717010498,2.893828868865967,5.7945237159729
1763691421407411200,9.1074111328125,-0.7735743522644043,2.5654149055480957,5.469041347503662
1763691421417405000,9.117405029296876,-1.1023714542388916,1.8081326484680176,4.412117004394531
1763691421427408600,9.12740869140625,-1.263713002204895,0.6224021911621094,2.807163715362549
1763691421437427000,9.137427001953125,-1.53793203830719,-0.6373996734619141,0.9164199829101562
1763691421447432000,9.147431884765625,-1.8271987438201904,-1.5646390914916992,-1.0969769954681396
1763691421457424600,9.157424560546875,-1.8532435894012451,-1.9353694915771484,-2.9411373138427734
1763691421467428600,9.1674287109375,-1.553804636001587,-1.7943038940429688,-4.193365573883057
1763691421477439000,9.17743896484375,-1.0205248594284058,-1.3393449783325195,-4.5616865158081055
1763691421487443500,9.187443359375,-0.5891425609588623,-0.6530437469482422,-4.160909175872803
1763691421497449700,9.19744970703125,-0.4755787253379822,0.20194339752197266,-3.2116644382476807
1763691421507454500,9.207454345703125,-0.5133897066116333,0.972325325012207,-2.022311210632324
1763691421517439700,9.217439697265625,-0.5836552381515503,1.4866628646850586,-0.6068021059036255
1763691421527442400,9.2274423828125,-0.35239577293395996,1.8031110763549805,0.6863981485366821
1763691421537470200,9.23747021484375,-0.06463798880577087,1.8696579933166504,1.6592848300933838
1763691421547475500,9.247475341796875,0.09367996454238892,1.7014713287353516,2.1735758781433105
1763691421557481500,9.2574814453125,0.16426530480384827,1.442626953125,2.123178482055664
1763691421567486700,9.26748681640625,0.15710781514644623,1.069406509399414,1.430875301361084
1763691421577473300,9.277473388671876,0.12077251076698303,0.5770530700683594,0.3052207827568054
1763691421587476700,9.287476806640624,0.03910906985402107,0.0372467041015625,-0.7675173282623291
1763691421597493200,9.2974931640625,-0.14702890813350677,-0.4831886291503906,-1.6769037246704102
1763691421607497700,9.307497802734375,-0.23583978414535522,-0.8076324462890625,-2.291569948196411
1763691421617492500,9.317492431640625,0.001782238483428955,-0.8696813583374023,-2.501728057861328
1763691421627496200,9.32749609375,0.5009998083114624,-0.6459856033325195,-2.351919174194336
1763691421637510400,9.337510498046875,0.9963563680648804,-0.14660930633544922,-1.8778126239776611
1763691421647515100,9.34751513671875,1.300339937210083,0.3652782440185547,-1.2547760009765625
1763691421657493800,9.35749365234375,1.3359323740005493,0.6892690658569336,-0.7304723858833313
1763691421667496000,9.367495849609375,1.1995859146118164,0.8163909912109375,-0.35991543531417847
1763691421677535500,9.377535400390625,0.9216052889823914,0.8330774307250977,-0.234555184841156
1763691421687541200,9.387541259765625,0.6718744039535522,0.7823896408081055,-0.3677937984466553
1763691421697537500,9.39753759765625,0.6200096607208252,0.711979866027832,-0.7142539024353027
1763691421707542500,9.40754248046875,0.6797040104866028,0.5071830749511719,-1.0988271236419678
1763691421717541600,9.417541748046874,0.7922330498695374,0.24009323120117188,-1.380141019821167
1763691421727545900,9.4275458984375,0.7838800549507141,0.04958915710449219,-1.544343113899231
1763691421737547300,9.43754736328125,0.7478562593460083,0.012280464172363281,-1.5579925775527954
1763691421747551200,9.44755126953125,0.6683400869369507,0.03255939483642578,-1.373509407043457
1763691421757566000,9.45756591796875,0.6318430304527283,0.11987781524658203,-1.0591602325439453
1763691421767571200,9.4675712890625,0.7398419380187988,0.2071075439453125,-0.7108895778656006
1763691421777578800,9.477578857421875,0.8831256628036499,0.203399658203125,-0.40105971693992615
1763691421787584300,9.487584228515624,0.9998488426208496,0.013413429260253906,-0.21665307879447937
1763691421797590000,9.497590087890625,1.0946018695831299,-0.2859325408935547,-0.15846304595470428
1763691421807595500,9.507595458984374,1.120875358581543,-0.6229190826416016,-0.22694750130176544
1763691421817599200,9.51759912109375,1.0467911958694458,-0.8066473007202148,-0.4030868113040924
1763691421827604500,9.5276044921875,1.041650652885437,-0.8522634506225586,-0.6979966163635254
1763691421837604600,9.5376044921875,1.225625991821289,-0.793879508972168,-1.1560475826263428
1763691421847609300,9.547609375,1.6915935277938843,-0.7699699401855469,-1.7427103519439697
1763691421857614800,9.55761474609375,2.201223134994507,-0.8847675323486328,-2.416348695755005
1763691421867619600,9.56761962890625,2.642674446105957,-1.1516733169555664,-3.082761287689209
1763691421877624000,9.5776240234375,2.9139580726623535,-1.5791101455688477,-3.6563987731933594
1763691421887628800,9.58762890625,2.8855931758880615,-2.2234010696411133,-3.981172561645508
1763691421897636600,9.59763671875,2.692930221557617,-2.8785390853881836,-4.085203170776367
1763691421907641600,9.6076416015625,2.5020947456359863,-3.329216957092285,-3.941119909286499
1763691421917635600,9.617635498046875,2.540426015853882,-3.508758544921875,-3.6561508178710938
1763691421927639600,9.6276396484375,2.8817639350891113,-3.3364696502685547,-3.324216842651367
1763691421937647600,9.637647705078125,3.372668743133545,-3.046457290649414,-2.95015811920166
1763691421947652000,9.647652099609376,3.634669780731201,-2.9152040481567383,-2.476508617401123
1763691421957661200,9.6576611328125,3.6687746047973633,-2.9230575561523438,-2.0302178859710693
1763691421967666000,9.667666015625,3.5301032066345215,-3.0025901794433594,-1.7774231433868408
1763691421977655800,9.67765576171875,3.101747989654541,-3.158670425415039,-1.8716518878936768
1763691421987659000,9.687658935546875,2.2020158767700195,-3.355006217956543,-2.0011613368988037
1763691421997674800,9.6976748046875,1.6587895154953003,-3.3466367721557617,-1.6621463298797607
1763691422007679200,9.70767919921875,1.565505027770996,-2.77347469329834,-1.1222681999206543
1763691422017701000,9.717701171875,2.1361448764801025,-1.847738265991211,-0.32424110174179077
1763691422027707400,9.727707275390625,2.5719480514526367,-1.149007797241211,0.8517740368843079
1763691422037666800,9.737666748046875,2.4016053676605225,-0.9270715713500977,2.17761492729187
1763691422047668500,9.74766845703125,1.5718741416931152,-0.8771467208862305,3.0172078609466553
1763691422057672700,9.757672607421876,-0.29921096563339233,-0.8896284103393555,3.0120184421539307
1763691422067674600,9.767674560546874,-2.8535828590393066,-1.0012588500976562,2.1067185401916504
1763691422077682400,9.777682373046876,-4.652408599853516,-1.1469898223876953,0.6583048701286316
1763691422087684900,9.787684814453126,-4.9433441162109375,-1.1712818145751953,-0.9490082263946533
1763691422097693700,9.797693603515626,-4.1267900466918945,-1.2298946380615234,-2.305476427078247
1763691422107697000,9.80769677734375,-2.417980432510376,-1.4319782257080078,-3.140831708908081
1763691422117712600,9.817712646484376,-0.4978715181350708,-1.6640853881835938,-3.3983139991760254
1763691422127717000,9.827717041015624,0.3790555000305176,-1.7841529846191406,-3.257725238800049
1763691422137723100,9.83772314453125,0.0746927261352539,-1.8160734176635742,-2.6435203552246094
1763691422147728000,9.847727783203124,-0.5092415809631348,-1.8355827331542969,-1.7638988494873047
1763691422157739000,9.857739013671875,-1.3594560623168945,-1.6987924575805664,-0.8580909371376038
1763691422167744300,9.867744140625,-2.1654109954833984,-1.119460105895996,-0.153382807970047
1763691422177758700,9.8777587890625,-2.9377851486206055,-0.19881820678710938,0.06681618094444275
1763691422187765000,9.887764892578126,-3.0892562866210938,0.6855039596557617,0.08336228132247925
1763691422197768400,9.8977685546875,-2.803900957107544,1.4859156608581543,0.00759124755859375
1763691422207774200,9.907774169921876,-2.5698561668395996,2.241340160369873,-0.03648799657821655
1763691422217746200,9.91774609375,-2.418630599975586,2.666384220123291,0.06959611177444458
1763691422227748600,9.92774853515625,-2.542027711868286,2.8162546157836914,0.2152223140001297
1763691422237752300,9.93775244140625,-2.78739070892334,2.8035402297973633,0.2793934941291809
1763691422247754800,9.947754638671874,-3.1568639278411865,2.577625274658203,0.2986961305141449
1763691422257796600,9.957796630859375,-3.4873344898223877,2.2066407203674316,0.2871044874191284
1763691422267803000,9.967802978515625,-3.7603206634521484,1.848808765411377,0.29852670431137085
1763691422277778400,9.9777783203125,-4.077084541320801,1.5852675437927246,0.3401986360549927
1763691422287782000,9.987781982421875,-4.284943103790283,1.4683709144592285,0.5298969149589539
1763691422297782800,9.99778271484375,-4.270400524139404,1.564237117767334,0.8354372382164001
1763691422307785700,10.00778564453125,-4.0505218505859375,1.7948203086853027,1.2170616388320923
1763691422317791700,10.017791748046875,-3.686337947845459,2.129570484161377,1.665986180305481
1763691422327795000,10.027794921875,-3.161842107772827,2.4857540130615234,2.0944888591766357
1763691422337828000,10.037828125,-2.6028482913970947,2.776797294616699,2.292651414871216
1763691422347834400,10.04783447265625,-2.1134581565856934,2.998453140258789,2.4379258155822754
1763691422357842200,10.05784228515625,-1.5627250671386719,3.137126922607422,2.527085065841675
1763691422367848400,10.067848388671875,-1.0026428699493408,3.030658721923828,2.532132148742676
1763691422377815000,10.07781494140625,-0.25371408462524414,2.769380569458008,2.3563039302825928
1763691422387817500,10.0878173828125,0.6167340278625488,2.3612427711486816,1.9640369415283203
1763691422397827300,10.097827392578125,1.4873418807983398,1.8423972129821777,1.489227294921875
1763691422407830500,10.10783056640625,2.323563575744629,1.0582647323608398,0.9780312776565552
1763691422417842000,10.117842041015624,3.1878294944763184,0.1562643051147461,0.522158682346344
1763691422427846000,10.127845947265625,4.158413887023926,-0.7779359817504883,0.07377861440181732
1763691422437878000,10.1378779296875,4.9860992431640625,-1.6390085220336914,-0.45493456721305847
1763691422447884800,10.147884765625,5.4211273193359375,-2.296931266784668,-1.1244614124298096
1763691422457851600,10.1578515625,5.4933671951293945,-2.6644773483276367,-2.015334129333496
1763691422467854300,10.167854248046876,5.188526153564453,-2.6836681365966797,-3.0911619663238525
1763691422477895400,10.1778955078125,4.579523086547852,-2.398069381713867,-4.039488315582275
1763691422487902200,10.187902099609374,3.957573652267456,-1.96148681640625,-4.23851203918457
1763691422497904000,10.197904052734375,3.427321434020996,-1.470200538635254,-3.682587146759033
1763691422507910400,10.207910400390626,3.165644645690918,-1.0678768157958984,-2.817324638366699
1763691422517943600,10.217943603515625,2.8358805179595947,-0.8839902877807617,-2.113828420639038
1763691422527952600,10.22795263671875,2.2190911769866943,-0.8557701110839844,-1.5326789617538452
1763691422537923800,10.237923828125,1.6138207912445068,-0.8707866668701172,-0.8141852617263794
1763691422547929000,10.24792919921875,1.0003561973571777,-1.3078975677490234,0.18280291557312012
1763691422557924400,10.25792431640625,0.559394359588623,-2.2314586639404297,1.1194186210632324
1763691422567928300,10.26792822265625,0.5366206169128418,-3.4642744064331055,1.5925014019012451
1763691422577923600,10.277923583984375,-0.3702688217163086,-4.458829879760742,1.5368534326553345
1763691422587926800,10.2879267578125,-2.4720709323883057,-4.729945182800293,1.628558874130249
1763691422597915400,10.297915283203125,-3.3714816570281982,-4.164775848388672,2.8501670360565186
1763691422607917000,10.3079169921875,-1.770378589630127,-2.686081886291504,4.969052791595459
1763691422617995000,10.3179951171875,-0.4384279251098633,-0.08867835998535156,6.328227996826172
1763691422628004400,10.32800439453125,-1.466917634010315,1.9614968299865723,6.742766380310059
1763691422637932500,10.3379326171875,-2.323215961456299,2.5455288887023926,6.9084014892578125
1763691422647933700,10.34793359375,-3.2114317417144775,2.8060193061828613,6.306094169616699
1763691422657976800,10.357976806640625,-4.811863422393799,3.3424196243286133,4.851146221160889
1763691422667982000,10.367982177734374,-6.088051795959473,3.639105796813965,2.682295083999634
1763691422677985500,10.377985595703125,-6.149695873260498,3.197702407836914,-0.030701935291290283
1763691422687990800,10.38799072265625,-5.290561676025391,1.6518492698669434,-2.8123579025268555
1763691422697994800,10.397994873046875,-3.825334072113037,-0.6149511337280273,-5.232667446136475
1763691422707999700,10.407999755859375,-2.097092390060425,-2.760354995727539,-6.750948429107666
1763691422717983000,10.41798291015625,-1.0994949340820312,-3.919947624206543,-7.262631893157959
1763691422727985700,10.427985595703126,-0.8734345436096191,-4.066864013671875,-7.089719772338867
1763691422737977600,10.4379775390625,-0.6151975393295288,-3.7476463317871094,-5.481400012969971
1763691422747979300,10.447979248046876,-0.3254193067550659,-2.704432487487793,-2.871960401535034
1763691422758004700,10.458004638671875,-0.14485502243041992,-1.1897773742675781,-0.5891079902648926
1763691422768008700,10.4680087890625,-0.13109076023101807,0.4385662078857422,1.33281409740448
1763691422778025000,10.47802490234375,-0.273024320602417,1.7876839637756348,2.8786540031433105
1763691422788030200,10.4880302734375,-0.4424467086791992,2.6868834495544434,3.9819812774658203
1763691422798024000,10.49802392578125,-0.6412947177886963,2.9997401237487793,4.561943531036377
1763691422808028200,10.508028076171875,-0.9544365406036377,2.8625454902648926,4.453223705291748
1763691422818007000,10.518007080078124,-1.2078584432601929,2.3154635429382324,3.8682427406311035
1763691422828008700,10.5280087890625,-1.0718727111816406,1.5693559646606445,2.63285493850708
1763691422838057000,10.538056884765625,-0.7195361852645874,0.7431125640869141,1.1445341110229492
1763691422848063200,10.548063232421875,-0.480572372674942,0.0797882080078125,-0.47572821378707886
1763691422858030600,10.558030517578125,-0.3412916362285614,-0.34000205993652344,-1.8677327632904053
1763691422868033000,10.568032958984375,-0.27465274930000305,-0.3971748352050781,-2.7936954498291016
1763691422878058200,10.578058349609375,-0.16802898049354553,-0.24527549743652344,-3.175300121307373
1763691422888062700,10.588062744140625,0.0173703134059906,0.05788898468017578,-3.089271068572998
1763691422898066200,10.598066162109374,0.09505859017372131,0.42594242095947266,-2.7756717205047607
1763691422908070700,10.608070556640625,0.1979997158050537,0.8491001129150391,-2.2889249324798584
1763691422918041300,10.618041259765626,0.3862602710723877,1.1838884353637695,-1.6417348384857178
1763691422928042500,10.62804248046875,0.5579041242599487,1.3207206726074219,-0.9673919677734375
1763691422938098400,10.638098388671875,0.6507702469825745,1.3127326965332031,-0.4187857210636139
1763691422948105200,10.648105224609376,0.7121901512145996,1.1842451095581055,-0.18057283759117126
1763691422958103600,10.658103515625,0.7909831404685974,0.9881048202514648,-0.2718549370765686
1763691422968109600,10.668109619140624,0.8683054447174072,0.729222297668457,-0.5280324816703796
1763691422978119200,10.678119140625,0.8728316426277161,0.503239631652832,-0.9272518157958984
1763691422988125400,10.68812548828125,0.8769401907920837,0.31481456756591797,-1.256365180015564
1763691422998124500,10.69812451171875,0.9333058595657349,0.16863250732421875,-1.4368805885314941
1763691423008130000,10.708130126953124,1.0508980751037598,0.016877174377441406,-1.4302880764007568
1763691423018304800,10.7183046875,1.17698073387146,-0.049675941467285156,-1.3860657215118408
1763691423028310300,10.728310302734375,1.2059659957885742,-0.1023263931274414,-1.3031357526779175
1763691423038148600,10.738148681640626,1.1851956844329834,-0.0739889144897461,-1.2674520015716553
1763691423048139800,10.748139892578125,1.1928058862686157,-0.0030918121337890625,-1.2316248416900635
1763691423078147600,10.778147705078124,1.569223403930664,-0.056464195251464844,-1.5924116373062134
1763691423088141800,10.788141845703125,1.797336220741272,-0.031302452087402344,-2.0358428955078125
1763691423098172400,10.79817236328125,1.9498393535614014,0.06643009185791016,-2.5994672775268555
1763691423108170500,10.80817041015625,2.0208799839019775,0.18428325653076172,-2.992443561553955
1763691423118133200,10.81813330078125,1.9529616832733154,0.2602519989013672,-3.2107973098754883
1763691423128127500,10.82812744140625,1.7230998277664185,0.1607046127319336,-3.359856367111206
1763691423138158600,10.83815869140625,1.296970009803772,-0.2385263442993164,-3.3194103240966797
1763691423148156700,10.84815673828125,1.091078758239746,-0.9564456939697266,-3.107178211212158
1763691423158178800,10.8581787109375,1.2712180614471436,-1.9592657089233398,-2.826411485671997
1763691423168179500,10.868179443359375,1.939995288848877,-3.0358877182006836,-2.5585715770721436
1763691423178173200,10.878173095703126,2.5619921684265137,-3.841048240661621,-2.5307319164276123
1763691423188173000,10.888173095703126,2.8314900398254395,-4.183032035827637,-2.739501476287842
1763691423198217000,10.898217041015625,2.776428699493408,-4.186286926269531,-2.982607841491699
1763691423208221400,10.908221435546874,2.462334632873535,-4.066488265991211,-2.971266508102417
1763691423218196200,10.9181962890625,2.285196304321289,-4.048881530761719,-2.640374183654785
1763691423228197600,10.92819775390625,2.1321001052856445,-3.899740219116211,-2.23232102394104
1763691423238201300,10.938201416015625,2.002558946609497,-3.7829113006591797,-1.7829545736312866
1763691423248203000,10.948203125,2.1906654834747314,-3.6469907760620117,-1.2175095081329346
1763691423258230000,10.95822998046875,2.6237905025482178,-3.4932899475097656,-0.6190706491470337
1763691423268234200,10.968234130859376,2.845156192779541,-3.357487678527832,0.42580342292785645
1763691423278243600,10.97824365234375,2.6723833084106445,-3.190129280090332,2.0464468002319336
1763691423288248000,10.988248046875,1.9874613285064697,-2.808079719543457,3.5644569396972656
1763691423298247700,10.99824755859375,0.7355457544326782,-2.027329444885254,4.257053852081299
1763691423308252000,11.008251953125,-0.8136335015296936,-1.0877437591552734,4.269685745239258
1763691423318229200,11.018229248046875,-2.4371047019958496,-0.5560550689697266,3.9605822563171387
1763691423328231000,11.02823095703125,-3.557605266571045,-0.6620264053344727,3.3949649333953857
1763691423338270700,11.038270751953124,-4.033339500427246,-1.0192060470581055,2.5726451873779297
1763691423348276000,11.04827587890625,-3.6374151706695557,-1.296396255493164,1.4918546676635742
1763691423358253800,11.05825390625,-2.618723154067993,-1.594315528869629,0.4749162793159485
1763691423368256500,11.068256591796874,-1.3730311393737793,-1.9040651321411133,-0.6799910068511963
1763691423378278100,11.078278076171875,-0.7561200857162476,-2.3441734313964844,-1.2357733249664307
1763691423388282600,11.08828271484375,-0.7964913845062256,-2.7263078689575195,-1.2707654237747192
1763691423398287600,11.09828759765625,-1.435043215751648,-2.6580276489257812,-1.4816590547561646
1763691423408292400,11.108292236328126,-2.6222152709960938,-2.024709701538086,-1.8202321529388428
1763691423418266400,11.118266357421875,-3.3589842319488525,-1.0562191009521484,-1.9459925889968872
1763691423428267800,11.128267822265625,-3.6403629779815674,0.055034637451171875,-1.7650845050811768
1763691423438309000,11.13830908203125,-3.3371975421905518,0.9061803817749023,-0.8251672983169556
1763691423448314600,11.148314697265626,-2.998232841491699,1.5298810005187988,0.08751744031906128
1763691423458296300,11.15829638671875,-2.851022958755493,2.070586681365967,0.8951305747032166
1763691423468299500,11.168299560546876,-2.9847116470336914,2.540727138519287,1.5628315210342407
1763691423478338000,11.178338134765625,-3.110866069793701,2.795459747314453,2.067408800125122
1763691423488344800,11.1883447265625,-3.1393303871154785,2.9619741439819336,2.2839584350585938
1763691423498334700,11.198334716796875,-3.0799825191497803,3.0172033309936523,2.232699155807495
1763691423508339700,11.208339599609374,-2.9794328212738037,2.8791427612304688,2.0151476860046387
1763691423518349600,11.218349609375,-2.9855659008026123,2.608586311340332,1.7611528635025024
1763691423528355000,11.22835498046875,-3.1386711597442627,2.2861123085021973,1.503851294517517
1763691423538364000,11.238364013671875,-3.4619593620300293,2.150865077972412,1.266792893409729
1763691423548369700,11.24836962890625,-3.714472770690918,2.188849925994873,1.1184258460998535
1763691423558376000,11.2583759765625,-3.8580198287963867,2.5047483444213867,0.9801801443099976
1763691423568381700,11.268381591796874,-3.855160713195801,2.882594108581543,0.9502788782119751
1763691423578376400,11.27837646484375,-3.649567127227783,3.2119064331054688,1.1153602600097656
1763691423588381200,11.288381103515626,-3.231961250305176,3.497425079345703,1.4449691772460938
1763691423598388000,11.298387939453125,-2.6732146739959717,3.5675477981567383,1.831687331199646
1763691423608393000,11.30839306640625,-1.9055455923080444,3.3608551025390625,2.120635986328125
1763691423618362400,11.3183623046875,-1.0298573970794678,2.973069190979004,2.144416332244873
1763691423628363800,11.32836376953125,0.08936786651611328,2.4221901893615723,1.9801453351974487
1763691423638410000,11.338409912109375,1.3295190334320068,1.85355806350708,1.6129124164581299
1763691423648416000,11.348416015625,2.485649585723877,1.2257776260375977,1.0664453506469727
1763691423658423600,11.358423583984376,3.5472209453582764,0.5133209228515625,0.34262627363204956
1763691423668429600,11.3684296875,4.477830410003662,-0.2412567138671875,-0.5072596669197083
1763691423678413600,11.37841357421875,5.315177917480469,-1.0376853942871094,-1.2681310176849365
1763691423688417300,11.388417236328126,5.799638748168945,-1.9032793045043945,-1.852479338645935
1763691423698402300,11.39840234375,6.126830101013184,-2.583367347717285,-2.2829461097717285
1763691423708404200,11.408404296875,5.9461565017700195,-3.0011072158813477,-2.730374574661255
1763691423718413000,11.4184130859375,5.345395088195801,-3.094858169555664,-3.0064237117767334
1763691423728415700,11.428415771484374,4.857476234436035,-2.8568506240844727,-2.8871805667877197
1763691423738445600,11.438445556640625,4.842625617980957,-2.4573354721069336,-2.2899224758148193
1763691423748450800,11.448450927734376,4.692315101623535,-2.098987579345703,-1.352022647857666
1763691423758466600,11.458466552734375,4.266462326049805,-1.6709508895874023,-0.3235335350036621
1763691423768472800,11.468472900390625,3.788229465484619,-1.2617835998535156,0.574905276298523
1763691423778464800,11.47846484375,3.168679714202881,-0.8882522583007812,1.3793368339538574
1763691423788469800,11.4884697265625,2.623567819595337,-0.5433464050292969,2.1820952892303467
1763691423798465500,11.498465576171874,1.536611557006836,-0.5643091201782227,2.885154962539673
1763691423808469800,11.5084697265625,0.31699109077453613,-1.148850440979004,3.4980883598327637
1763691423818443300,11.518443359375,-0.04855203628540039,-1.951054573059082,4.0390400886535645
1763691423828444200,11.528444091796874,-0.0757455825805664,-2.6529293060302734,4.271394729614258
1763691423838497800,11.538497802734375,-0.96280837059021,-3.128819465637207,3.8385090827941895
1763691423848503800,11.54850390625,-2.130530834197998,-3.2271528244018555,3.1984612941741943
1763691423858507500,11.558507568359374,-1.3553529977798462,-2.9782886505126953,3.3159875869750977
1763691423868513500,11.568513427734375,0.10475850105285645,-1.946690559387207,3.5058629512786865
1763691423878520000,11.57852001953125,-1.3611167669296265,-0.019056320190429688,2.3043899536132812
1763691423888526000,11.588526123046876,-4.481688976287842,1.9460291862487793,0.8169147968292236
1763691423898515700,11.598515625,-5.740754127502441,3.0856399536132812,0.3689279556274414
1763691423908520000,11.60852001953125,-5.780533790588379,3.6603221893310547,0.28464025259017944
1763691423918474500,11.618474609375,-5.24509334564209,3.6021337509155273,-0.1145973652601242
1763691423928473900,11.628473876953125,-4.5902910232543945,2.7224879264831543,-0.8806707859039307
1763691423938530300,11.6385302734375,-4.204602241516113,1.1391544342041016,-1.7350648641586304
1763691423948535300,11.648535400390625,-3.6582250595092773,-0.7908096313476562,-2.0888922214508057
1763691423958518800,11.658518798828124,-2.554161787033081,-2.477259635925293,-1.9522793292999268
1763691423968521700,11.668521728515625,-1.78635835647583,-3.2154293060302734,-2.0991618633270264
1763691423978549000,11.678549072265625,-1.564720630645752,-3.001544952392578,-2.4661245346069336
1763691423988554200,11.68855419921875,-1.6195945739746094,-2.2022886276245117,-2.3799397945404053
1763691423998557400,11.698557373046874,-1.332596778869629,-1.2361974716186523,-1.1498175859451294
1763691424008562400,11.7085625,-0.7939498424530029,-0.2794685363769531,0.2634228467941284
1763691424018519000,11.71851904296875,-0.2054976224899292,0.7039070129394531,1.3448947668075562
1763691424028519200,11.728519287109375,0.13306772708892822,1.5587167739868164,2.0933480262756348
1763691424038573300,11.7385732421875,-0.020855069160461426,2.132093906402588,2.500089406967163
1763691424048578800,11.748578857421874,-0.6676980257034302,2.2823643684387207,2.453573703765869
1763691424058599000,11.758598876953124,-1.3452425003051758,2.030949115753174,2.246859073638916
1763691424068606000,11.76860595703125,-1.516021728515625,1.4842052459716797,1.8765647411346436
1763691424078607000,11.778607177734376,-1.250666856765747,0.6997175216674805,1.3291010856628418
1763691424088613600,11.788613525390625,-1.0446250438690186,-0.040505409240722656,0.33315610885620117
1763691424098598400,11.798598388671875,-0.9298190474510193,-0.7174663543701172,-0.8764063119888306
1763691424108603000,11.808602783203124,-0.7561742067337036,-1.1258840560913086,-2.0225040912628174
1763691424118565000,11.818565185546875,-0.6384085416793823,-1.1376161575317383,-2.927410840988159
1763691424128565000,11.82856494140625,-0.6117949485778809,-0.8251199722290039,-3.4209694862365723
1763691424138628000,11.838628173828125,-0.7720023989677429,-0.2654075622558594,-3.6216483116149902
1763691424148634600,11.848634521484374,-0.79282146692276,0.39739322662353516,-3.3953845500946045
1763691424158642400,11.858642333984376,-0.48952022194862366,0.9572515487670898,-2.6732177734375
1763691424168649000,11.86864892578125,0.09410420060157776,1.3279991149902344,-1.7039109468460083
1763691424178651000,11.87865087890625,0.5507715940475464,1.4048185348510742,-0.6544808745384216
1763691424188657000,11.888656982421875,0.7536200881004333,1.2268171310424805,0.30618998408317566
1763691424198662700,11.89866259765625,0.7319598197937012,0.9429893493652344,0.9680171608924866
1763691424208668700,11.908668701171875,0.6922248601913452,0.6540975570678711,1.2668148279190063
1763691424218626600,11.91862646484375,0.6776003241539001,0.48441314697265625,1.2123593091964722
1763691424228627700,11.928627685546875,0.7228827476501465,0.4192380905151367,0.8027139902114868
1763691424238672000,11.938671875,0.8093671798706055,0.39609813690185547,0.18107756972312927
1763691424248677400,11.948677490234376,0.8893071413040161,0.3383960723876953,-0.5185518264770508
1763691424258659800,11.958659912109376,1.0071080923080444,0.2652549743652344,-1.1160132884979248
1763691424268663000,11.9686630859375,1.2299563884735107,0.2005901336669922,-1.4479334354400635
1763691424278699300,11.97869921875,1.470016598701477,0.14930438995361328,-1.5194405317306519
1763691424288705800,11.988705810546875,1.689803957939148,0.164337158203125,-1.3926379680633545
1763691424298676200,11.99867626953125,1.7479331493377686,0.15522098541259766,-1.202596664428711
1763691424308679200,12.00867919921875,1.563307523727417,0.1365804672241211,-1.0509213209152222
1763691424318692000,12.018692138671875,1.304579257965088,0.07032012939453125,-0.999813973903656
1763691424328696000,12.028696044921874,1.1978832483291626,0.013876914978027344,-1.1727614402770996
1763691424338725400,12.038725341796875,1.25821852684021,0.06755733489990234,-1.4345064163208008
1763691424348732000,12.04873193359375,1.4811724424362183,0.11173248291015625,-1.7120189666748047
1763691424358698200,12.0586982421875,1.8041443824768066,0.10359764099121094,-1.99947190284729
1763691424368700700,12.06870068359375,2.081829786300659,0.0006742477416992188,-2.2484750747680664
1763691424378708000,12.0787080078125,2.1348280906677246,-0.1389312744140625,-2.3436124324798584
1763691424388710700,12.088710693359374,1.9404411315917969,-0.19092750549316406,-2.2761693000793457
1763691424398737700,12.098737548828124,1.7210431098937988,-0.13191795349121094,-2.1145143508911133
1763691424408743000,12.108742919921875,1.6253538131713867,-0.014899253845214844,-1.8950940370559692
1763691424418744300,12.118744384765625,1.5235614776611328,0.0739278793334961,-1.8175041675567627
1763691424428749300,12.128749267578126,1.4018882513046265,0.06278800964355469,-1.8740742206573486
1763691424438767400,12.138767333984376,1.316250205039978,-0.12968730926513672,-2.0531442165374756
1763691424448773400,12.1487734375,1.3561404943466187,-0.3457622528076172,-2.326932430267334
1763691424458760200,12.15876025390625,1.5501114130020142,-0.7141637802124023,-2.605748176574707
1763691424468764400,12.168764404296875,1.7898688316345215,-1.2434892654418945,-2.8107588291168213
1763691424478784300,12.1787841796875,2.149895668029785,-1.9473991394042969,-2.9472439289093018
1763691424488790000,12.1887900390625,2.603754997253418,-2.849079132080078,-3.054628372192383
1763691424498792200,12.198792236328124,3.0122251510620117,-3.4076385498046875,-3.191141128540039
1763691424508797400,12.20879736328125,3.056617259979248,-3.5560226440429688,-3.299177885055542
1763691424518776000,12.218776123046876,2.920985221862793,-3.585768699645996,-3.195075035095215
1763691424528779000,12.228779052734374,2.6873326301574707,-3.7838478088378906,-2.8405375480651855
1763691424538808600,12.23880859375,2.179241418838501,-4.022037506103516,-2.548877477645874
1763691424548814000,12.24881396484375,1.711087703704834,-4.230243682861328,-2.197222948074341
1763691424558804200,12.25880419921875,1.762232780456543,-4.391005516052246,-1.629560947418213
1763691424568808200,12.26880810546875,2.2282159328460693,-4.3721513748168945,-0.867247462272644
1763691424578816300,12.278816162109376,2.7306032180786133,-4.166451454162598,0.2266554832458496
1763691424588820500,12.288820556640625,2.8356518745422363,-3.676736831665039,1.8203999996185303
1763691424598825000,12.298824951171875,2.42044997215271,-3.054631233215332,3.5181057453155518
1763691424608829400,12.308829345703124,1.3415584564208984,-2.130664825439453,4.617083549499512
1763691424618794000,12.3187939453125,-0.032990097999572754,-1.1925125122070312,4.920088768005371
1763691424628794000,12.328794189453125,-1.6480696201324463,-0.7261552810668945,4.614936828613281
1763691424638836000,12.3388359375,-3.104989528656006,-0.6791458129882812,3.8659534454345703
1763691424648840700,12.3488408203125,-3.663902759552002,-0.7837467193603516,2.914858102798462
1763691424658848000,12.358847900390625,-3.563694953918457,-0.9565830230712891,1.8641194105148315
1763691424668852700,12.368852783203126,-3.196925640106201,-1.1154289245605469,0.6909604072570801
1763691424678856000,12.37885595703125,-2.6509504318237305,-1.207810401916504,-0.4582241177558899
1763691424688860700,12.388860595703125,-2.2619924545288086,-1.3875036239624023,-1.3304842710494995
1763691424698866400,12.398866455078124,-2.3145055770874023,-1.5911865234375,-1.6537714004516602
1763691424708871200,12.40887109375,-2.4841365814208984,-1.6211414337158203,-1.9360804557800293
1763691424718888400,12.418888427734375,-2.2854297161102295,-1.4437074661254883,-2.3114888668060303
1763691424728894500,12.42889453125,-2.254695415496826,-1.0598297119140625,-2.541428565979004
1763691424738898000,12.43889794921875,-2.197096586227417,-0.393402099609375,-2.0476555824279785
1763691424748903700,12.448903564453126,-2.132753849029541,0.3920421600341797,-1.5683262348175049
1763691424758895600,12.4588955078125,-2.1148338317871094,1.0809173583984375,-1.070089340209961
1763691424768899800,12.46889990234375,-2.471324920654297,1.7695965766906738,-0.72406005859375
1763691424778912000,12.478912109375,-2.9628827571868896,2.3312907218933105,-0.3441924750804901
1763691424788917200,12.488917236328126,-3.3728928565979004,2.678708076477051,0.07178395986557007
1763691424798925600,12.498925537109375,-3.5747437477111816,2.966933250427246,0.5964859127998352
1763691424808930800,12.508930908203125,-3.6225028038024902,3.1531333923339844,1.040341854095459
1763691424818958800,12.518958740234375,-3.514127254486084,3.1890649795532227,1.3401403427124023
1763691424828966700,12.528966552734374,-3.381075143814087,2.959713935852051,1.5006297826766968
1763691424838943200,12.538943115234375,-3.2344348430633545,2.522489547729492,1.5887445211410522
1763691424848948000,12.548947998046875,-3.1806423664093018,2.0970425605773926,1.6145907640457153
1763691424858943700,12.55894384765625,-3.24869704246521,1.8072285652160645,1.6460596323013306
1763691424868947500,12.568947509765625,-3.3860526084899902,1.6858868598937988,1.6375454664230347
1763691424878946000,12.578946044921874,-3.34049129486084,1.7318930625915527,1.624411940574646
1763691424888949200,12.58894921875,-3.051870584487915,1.8531880378723145,1.6538368463516235
1763691424898967300,12.59896728515625,-2.546468496322632,2.072497844696045,1.7137105464935303
1763691424908972000,12.608971923828125,-1.9746339321136475,2.312256336212158,1.7933406829833984
1763691424918996500,12.61899658203125,-1.4513590335845947,2.448014259338379,1.8889743089675903
1763691424929003300,12.629003173828124,-1.008988618850708,2.551913261413574,1.8355365991592407
1763691424938972400,12.638972412109375,-0.6512603759765625,2.5190820693969727,1.6874122619628906
1763691424948975000,12.64897509765625,-0.3300473690032959,2.392702579498291,1.4964032173156738
1763691424958999600,12.65899951171875,-0.028564453125,2.1671366691589355,1.278882622718811
1763691424969004500,12.669004638671876,0.31168651580810547,1.9080910682678223,1.0170462131500244
1763691424978996200,12.678996337890625,0.7643959522247314,1.528754711151123,0.6952086687088013
1763691424989000000,12.689,1.4468488693237305,1.0192937850952148,0.35716110467910767
1763691424998998300,12.698998291015625,2.2572383880615234,0.3893299102783203,0.010661274194717407
1763691425009001500,12.70900146484375,3.138495445251465,-0.3749208450317383,-0.3688125014305115
1763691425019029200,12.719029296875,4.067314624786377,-1.205946922302246,-0.749150276184082
1763691425029034800,12.72903466796875,4.879814147949219,-2.065704345703125,-1.2577300071716309
1763691425039017200,12.739017333984375,5.453380107879639,-2.8213138580322266,-1.9978535175323486
1763691425049020400,12.7490205078125,5.829448699951172,-3.455813407897949,-2.737518787384033
1763691425079045400,12.77904541015625,5.16968297958374,-3.9660749435424805,-2.582273006439209
1763691425089050000,12.789050048828125,4.833386421203613,-3.491487503051758,-1.489923119544983
1763691425099055400,12.799055419921874,4.554891109466553,-2.612668037414551,-0.3527148365974426
1763691425109060000,12.80906005859375,4.223219871520996,-1.1460800170898438,0.6409640312194824
1763691425119047700,12.819047607421876,3.8983993530273438,0.5563716888427734,1.391099214553833
1763691425129050600,12.829050537109374,2.8271849155426025,2.1003050804138184,1.7832005023956299
1763691425139078000,12.839077880859374,1.1597671508789062,3.289004325866699,1.9727108478546143
1763691425149083100,12.849083251953125,-0.36041736602783203,3.6016054153442383,2.330193042755127
1763691425169085400,12.86908544921875,-1.357059121131897,1.0242834091186523,3.1109564304351807
1763691425179091700,12.879091796875,-0.9319236278533936,-0.3081502914428711,2.5932345390319824
