time,seconds_elapsed,z,y,x
1763693323355491300,0.1614912109375,0,0,0
1763693323375194000,0.181194091796875,0,0,0
1763693323395364400,0.2013642578125,0.26959896087646484,-0.12492823600769043,0.20707762241363525
1763693323415635500,0.221635498046875,0.24530601501464844,0.0004355907440185547,0.319835901260376
1763693323425716200,0.23171630859375,0.05112743377685547,0.14147520065307617,0.24313592910766602
1763693323435797000,0.241796875,-0.14713668823242188,0.26499056816101074,0.42043614387512207
1763693323446439400,0.252439453125,-0.42954063415527344,0.28368639945983887,0.7027966976165771
1763693323456520200,0.262520263671875,-0.6186771392822266,0.30678343772888184,0.5603818893432617
1763693323466600700,0.2726005859375,-0.7716264724731445,0.2749502658843994,0.3437451124191284
1763693323476132400,0.28213232421875,-0.3743438720703125,0.15614986419677734,0.49176961183547974
1763693323486213000,0.292213134765625,0.13440895080566406,0.0036668777465820312,0.1878833770751953
1763693323496294000,0.3022939453125,0.5183811187744141,-0.13802027702331543,-0.3524816036224365
1763693323506349800,0.312349853515625,0.7943887710571289,-0.0671541690826416,-0.800437331199646
1763693323516430600,0.3224306640625,0.26545047760009766,-0.039839982986450195,-0.9968594312667847
1763693323526511000,0.332510986328125,-0.6801252365112305,-0.2177741527557373,-0.8449240922927856
1763693323536599800,0.342599853515625,-1.3516836166381836,-0.19841694831848145,-0.8271527290344238
1763693323546680300,0.352680419921875,-1.8330554962158203,-0.019899606704711914,-0.5592753887176514
1763693323556761000,0.362760986328125,-1.9919052124023438,0.337125301361084,-0.006834506988525391
1763693323566835500,0.37283544921875,-1.881166934967041,0.5856623649597168,0.000931859016418457
1763693323576916000,0.382916015625,-1.2190675735473633,0.6094889640808105,-0.09327971935272217
1763693323586996700,0.392996826171875,-0.2744312286376953,0.5478558540344238,-0.0638418197631836
1763693323597095400,0.403095458984375,0.21854019165039062,0.4289877414703369,-0.17893028259277344
1763693323607176200,0.41317626953125,0.15468311309814453,0.461580753326416,-0.07343780994415283
1763693323617257000,0.423257080078125,-0.22949600219726562,0.399921178817749,-0.17455291748046875
1763693323627297000,0.433297119140625,-0.5446615219116211,0.5127558708190918,-0.16559076309204102
1763693323637377800,0.443377685546875,-0.5200386047363281,0.6551048755645752,0.32718169689178467
1763693323647458600,0.45345849609375,-0.6552057266235352,0.6536626815795898,0.6766237020492554
1763693323657558800,0.463558837890625,-0.889012336730957,0.6830365657806396,0.6941993236541748
1763693323667639600,0.4736396484375,-0.9579563140869141,0.6905362606048584,0.4253377914428711
1763693323677720000,0.483719970703125,-0.7278118133544922,0.6767711639404297,0.10761678218841553
1763693323687796500,0.49379638671875,-0.5795135498046875,0.6446933746337891,-0.40424180030822754
1763693323697877200,0.503877197265625,-0.4681053161621094,0.4806234836578369,-0.6566169261932373
1763693323707958000,0.5139580078125,-0.3423585891723633,0.4169435501098633,-0.5093574523925781
1763693323718038300,0.524038330078125,-0.550053596496582,0.39762020111083984,-0.3032820224761963
1763693323728119000,0.534119140625,-0.47670745849609375,0.372330904006958,-0.03568124771118164
1763693323738199800,0.54419970703125,-0.08060741424560547,0.47255396842956543,-0.14896917343139648
1763693323748277800,0.55427783203125,0.29563045501708984,0.5451765060424805,-0.5130698680877686
1763693323758358500,0.564358642578125,0.5671348571777344,0.6447491645812988,-0.8010904788970947
1763693323768439000,0.57443896484375,0.7203283309936523,0.6868846416473389,-0.8058445453643799
1763693323778517000,0.58451708984375,0.6855974197387695,0.6935358047485352,-0.7717170715332031
1763693323788597800,0.59459765625,0.5655679702758789,0.5494952201843262,-0.5938966274261475
1763693323798678500,0.604678466796875,0.8105401992797852,0.30237293243408203,-0.17968010902404785
1763693323808780500,0.614780517578125,1.087285041809082,0.1508634090423584,-0.1380786895751953
1763693323818861300,0.624861328125,1.1191558837890625,0.1700572967529297,-0.43137240409851074
1763693323828942000,0.634942138671875,1.0890703201293945,0.2087259292602539,-0.6613094806671143
1763693323839006000,0.645005859375,1.0419893264770508,0.17095232009887695,-0.6145131587982178
1763693323849086700,0.655086669921875,0.8691349029541016,0.10781073570251465,-0.5592210292816162
1763693323859167500,0.66516748046875,0.5637702941894531,0.11481428146362305,-0.6539919376373291
1763693323869229600,0.6752294921875,0.32969188690185547,0.2469344139099121,-0.6526315212249756
1763693323879310300,0.685310302734375,0.351409912109375,0.38600659370422363,-0.5607423782348633
1763693323889390800,0.695390869140625,0.7135963439941406,0.38947463035583496,-0.5494823455810547
1763693323899502600,0.705502685546875,0.8592767715454102,0.3032100200653076,-0.5229439735412598
1763693323909583400,0.715583251953125,0.8807811737060547,0.23448634147644043,-0.30018091201782227
1763693323919663900,0.725663818359375,0.464111328125,0.39016032218933105,-0.012029170989990234
1763693323929705500,0.73570556640625,-0.0653524398803711,0.4054558277130127,-0.08767199516296387
1763693323939786200,0.7457861328125,-0.10182666778564453,0.35737085342407227,-0.5842189788818359
1763693323949866800,0.75586669921875,0.23230266571044922,0.7042570114135742,-1.4151780605316162
1763693323970079500,0.77607958984375,1.1322126388549805,1.332038402557373,-4.047553062438965
1763693323980160300,0.78616015625,1.6187257766723633,0.9023826122283936,-4.1639556884765625
1763693323990229800,0.796229736328125,1.7638587951660156,0.4429142475128174,-3.5423495769500732
1763693324000310300,0.806310302734375,0.46417713165283203,0.40016889572143555,-2.5890541076660156
1763693324020444700,0.826444580078125,-1.4358139038085938,-0.8413746356964111,-1.7862002849578857
1763693324030525400,0.836525390625,-1.9057707786560059,-1.2675297260284424,-0.9920260906219482
1763693324040606000,0.84660595703125,-2.1407151222229004,-1.3913657665252686,-0.1364583969116211
1763693324050668800,0.856668701171875,-2.1708359718322754,-1.3113212585449219,0.06962895393371582
1763693324060749300,0.866749267578125,-1.8558893203735352,-1.1363554000854492,-0.0941464900970459
1763693324070830000,0.876830078125,-1.1909546852111816,-1.0497491359710693,0.013844966888427734
1763693324080888300,0.886888427734375,-0.7998676300048828,-1.1220042705535889,0.09914565086364746
1763693324090969000,0.896968994140625,-1.0251655578613281,-1.0145063400268555,-0.4925529956817627
1763693324101049900,0.9070498046875,-1.193772792816162,-0.5577709674835205,-1.1991093158721924
1763693324111125200,0.917125244140625,-1.3548040390014648,-0.12077212333679199,-1.4964044094085693
1763693324121206000,0.9272060546875,-1.6065568923950195,0.09537649154663086,-1.4756665229797363
1763693324131286500,0.93728662109375,-2.0040783882141113,0.411196231842041,-1.1690707206726074
1763693324141383700,0.9473837890625,-3.158324718475342,0.751103401184082,-0.48920464515686035
1763693324151464400,0.95746435546875,-3.6732945442199707,0.450977087020874,-0.2805659770965576
1763693324161545200,0.967545166015625,-2.0247292518615723,0.3012113571166992,-0.7343535423278809
1763693324172211500,0.97821142578125,0.019062042236328125,0.21773123741149902,-1.7344295978546143
1763693324182292200,0.988292236328125,0.8752613067626953,-0.3374810218811035,-2.3368303775787354
1763693324192373000,0.998373046875,0.7878303527832031,-0.43580174446105957,-1.810633897781372
1763693324202458400,1.008458251953125,-0.1564340591430664,-0.36155033111572266,-1.0016498565673828
1763693324212539000,1.018538818359375,-0.8900136947631836,-0.2459697723388672,-0.472118616104126
1763693324222619600,1.02861962890625,-1.4990806579589844,-0.019566774368286133,-0.13353443145751953
1763693324232703500,1.038703369140625,-2.044130802154541,0.0459284782409668,0.18389511108398438
1763693324242784000,1.048783935546875,-2.2637386322021484,0.053700923919677734,0.367326021194458
1763693324252864800,1.05886474609375,-2.041049003601074,0.24472403526306152,0.49380016326904297
1763693324272433000,1.078432861328125,-1.286339282989502,0.5139801502227783,-0.15282177925109863
1763693324282513700,1.088513671875,-1.0068540573120117,0.6552238464355469,-1.128875970840454
1763693324292556800,1.098556884765625,-0.5753307342529297,0.9874711036682129,-1.7067863941192627
1763693324302637600,1.108637451171875,-0.4532632827758789,0.9873204231262207,-1.073150873184204
1763693324312718000,1.118718017578125,-0.0003662109375,0.9792428016662598,-0.228773832321167
1763693324322812400,1.1288125,0.1419544219970703,1.0759263038635254,-0.47818946838378906
1763693324332893000,1.138892822265625,-0.5273809432983398,1.0000970363616943,-0.6532003879547119
1763693324342973700,1.1489736328125,-1.0090065002441406,1.010878562927246,-0.38155436515808105
1763693324353025300,1.159025390625,-1.1914467811584473,0.9792816638946533,-0.1422266960144043
1763693324363106000,1.16910595703125,-1.256479263305664,0.8501780033111572,-0.0019364356994628906
1763693324373186600,1.1791865234375,-1.2604308128356934,0.6527829170227051,0.13654446601867676
1763693324383317000,1.18931689453125,-1.202383041381836,0.5818266868591309,-0.11332488059997559
1763693324393397800,1.199397705078125,-1.2453031539916992,0.6160316467285156,-0.4410240650177002
1763693324403478500,1.209478515625,-1.2729358673095703,0.6078994274139404,0.19724273681640625
1763693324413552400,1.219552490234375,-1.1163735389709473,0.45775294303894043,1.1429557800292969
1763693324423633200,1.229633056640625,-0.7394518852233887,0.21685481071472168,1.7450261116027832
1763693324433713700,1.239713623046875,-0.1086874008178711,-0.02112436294555664,1.95420241355896
1763693324443784400,1.249784423828125,1.0636482238769531,-0.37818264961242676,1.6366934776306152
1763693324453865000,1.259864990234375,2.128142833709717,-0.580765962600708,0.30333709716796875
1763693324463945500,1.269945556640625,2.8986892700195312,-0.5886678695678711,-1.4857525825500488
1763693324473971200,1.27997119140625,3.0914759635925293,-0.47096753120422363,-1.8734159469604492
1763693324484051700,1.2900517578125,2.421642303466797,-0.3999049663543701,-1.3097867965698242
1763693324494132200,1.30013232421875,1.6396803855895996,-0.27756738662719727,-0.41939496994018555
1763693324504281300,1.31028125,1.110496997833252,-0.10793948173522949,0.16923141479492188
1763693324514361900,1.32036181640625,0.9435920715332031,-0.01726818084716797,0.15059328079223633
1763693324524442400,1.3304423828125,1.0397815704345703,-0.046732425689697266,-0.37725210189819336
1763693324534485200,1.3404853515625,1.5444622039794922,-0.15352964401245117,-0.5874886512756348
1763693324544565800,1.350565673828125,2.1737117767333984,-0.23924708366394043,-0.32239866256713867
1763693324554646300,1.360646240234375,2.4408321380615234,-0.32757115364074707,0.09456110000610352
1763693324564769300,1.370769287109375,2.564413070678711,-0.371387243270874,0.447479248046875
1763693324574849800,1.380849853515625,2.4302825927734375,-0.27732276916503906,0.6321430206298828
1763693324584930300,1.390930419921875,2.166199207305908,-0.2198009490966797,0.6850318908691406
1763693324595004700,1.401004638671875,1.9109253883361816,-0.23706674575805664,0.4605984687805176
1763693324605085200,1.411085205078125,1.059767723083496,-0.15387821197509766,-0.44338464736938477
1763693324615165700,1.421165771484375,-0.5854692459106445,0.14725685119628906,-1.2275738716125488
1763693324625208600,1.43120849609375,-1.6660847663879395,0.2960324287414551,-1.2131576538085938
1763693324635289000,1.4412890625,-1.8211283683776855,0.14205646514892578,-0.7448668479919434
1763693324645369600,1.45136962890625,-1.2687015533447266,-0.14286184310913086,-0.229034423828125
1763693324655481900,1.46148193359375,-0.45305681228637695,-0.5493168830871582,0.028709888458251953
1763693324665562400,1.471562255859375,0.4514164924621582,-1.0409467220306396,0.041563987731933594
1763693324675643000,1.481642822265625,1.038175106048584,-1.372041940689087,-0.24536800384521484
1763693324685756200,1.491756103515625,0.4245162010192871,-1.3343861103057861,-0.7790789604187012
1763693324695836700,1.501836669921875,-0.3023810386657715,-1.1055138111114502,-1.078047275543213
1763693324705917400,1.51191748046875,-0.36735105514526367,-0.8785884380340576,-1.3891611099243164
1763693324715894800,1.521894775390625,-0.37802982330322266,-0.7502791881561279,-0.9754858016967773
1763693324725975300,1.531975341796875,0.502199649810791,-0.7252223491668701,0.22939205169677734
1763693324736055800,1.542055908203125,1.1179828643798828,-0.7526848316192627,0.9092097282409668
1763693324746188000,1.55218798828125,1.2358226776123047,-0.8938615322113037,1.242628574371338
1763693324756268800,1.562268798828125,0.9926433563232422,-0.7253191471099854,1.3292465209960938
1763693324766349300,1.572349365234375,0.38985538482666016,-0.5421936511993408,1.3386621475219727
1763693324776421600,1.582421630859375,-0.15489816665649414,-0.4143340587615967,1.3792405128479004
1763693324786502100,1.592502197265625,-0.2950921058654785,-0.18797636032104492,0.826723575592041
1763693324796582700,1.602582763671875,-0.05396080017089844,-0.12915611267089844,-0.1140594482421875
1763693324806662400,1.612662353515625,0.3137021064758301,-0.25252294540405273,-0.728604793548584
1763693324816743000,1.622742919921875,0.5597105026245117,-0.2200918197631836,-1.0217819213867188
1763693324826823400,1.632823486328125,0.7437491416931152,-0.11586809158325195,-0.7885546684265137
1763693324836903700,1.642903564453125,0.6155548095703125,-0.1452159881591797,-0.06517362594604492
1763693324846984200,1.652984130859375,-0.17148923873901367,0.02379894256591797,0.960331916809082
1763693324867131000,1.673130859375,-1.4678583145141602,0.08474397659301758,1.9488248825073242
1763693324877211400,1.68321142578125,-1.3204331398010254,0.3429741859436035,1.738670825958252
1763693324887292000,1.6932919921875,-0.9856052398681641,0.45623159408569336,0.9037699699401855
1763693324897408300,1.703408203125,-0.2630171775817871,0.39623022079467773,0.48716163635253906
1763693324907488800,1.71348876953125,0.4678196907043457,0.1965618133544922,0.6632118225097656
1763693324917569300,1.7235693359375,0.8474750518798828,-0.012291431427001953,0.9956402778625488
1763693324927630600,1.733630615234375,1.0859808921813965,-0.15303587913513184,1.4318299293518066
1763693324937711000,1.743711181640625,0.729985237121582,-0.1890554428100586,1.8292222023010254
1763693324947791600,1.75379150390625,0.11921930313110352,-0.10815930366516113,2.0472216606140137
1763693324957868800,1.763868896484375,-0.23450088500976562,0.09188723564147949,1.9125161170959473
1763693324967949300,1.77394921875,-0.45518064498901367,0.3594238758087158,1.5533361434936523
1763693324978029800,1.78402978515625,-1.9827592372894287,0.560096263885498,1.535799503326416
1763693324988109000,1.794109130859375,-0.44398069381713867,1.135010004043579,2.0229172706604004
1763693324998189600,1.804189453125,-0.2516927719116211,0.7842824459075928,1.995931625366211
1763693325008270000,1.81427001953125,-0.2512626647949219,0.6664605140686035,1.569688320159912
1763693325018355000,1.82435498046875,-0.26901865005493164,0.741396427154541,0.7781224250793457
1763693325028435500,1.834435546875,-1.6198232173919678,0.7606205940246582,-0.5149655342102051
1763693325038516000,1.844515869140625,0.9235525131225586,1.4072391986846924,0.8114666938781738
1763693325048582700,1.854582763671875,0.912294864654541,0.42531585693359375,0.47112417221069336
1763693325058663200,1.8646630859375,1.274712085723877,0.625140905380249,-0.5737218856811523
1763693325068743700,1.87474365234375,1.7180266380310059,0.6541500091552734,-0.4500913619995117
1763693325078828300,1.884828369140625,1.689225673675537,0.4662964344024658,0.11424779891967773
1763693325088909000,1.894908935546875,1.3231334686279297,0.4997742176055908,0.07012796401977539
1763693325098989600,1.904989501953125,0.905463695526123,0.6737534999847412,-0.1796412467956543
1763693325109044200,1.915044189453125,0.810600757598877,0.7403955459594727,-0.41815948486328125
1763693325119124700,1.925124755859375,1.2704424858093262,0.6982414722442627,-0.6954860687255859
1763693325129205200,1.935205322265625,1.76707124710083,0.7081985473632812,-1.168159008026123
1763693325139278600,1.945278564453125,1.6258115768432617,0.8241424560546875,-1.7768769264221191
1763693325149359000,1.955359130859375,1.9332599639892578,0.8556365966796875,-1.9474129676818848
1763693325159439600,1.965439697265625,-3.3988876342773438,0.8762123584747314,-1.8899931907653809
1763693325169575200,1.9755751953125,0.5118770599365234,2.541154384613037,-0.5460124015808105
1763693325179656000,1.985656005859375,1.9395942687988281,0.8084278106689453,0.332613468170166
1763693325189736400,1.995736328125,4.239719867706299,-0.9506466388702393,-0.14987850189208984
1763693325199821600,2.005821533203125,3.4448599815368652,0.5147998332977295,-1.7820954322814941
1763693325209902300,2.01590234375,1.0036849975585938,1.1760780811309814,-1.9901862144470215
1763693325219982600,2.025982666015625,0.680391788482666,0.14062047004699707,-1.0250344276428223
1763693325240089600,2.046089599609375,-1.0301337242126465,-0.6398875713348389,0.5276093482971191
1763693325250170000,2.056170166015625,-3.8900842666625977,-0.0433039665222168,-0.3143744468688965
1763693325260270800,2.066270751953125,-1.0000457763671875,-0.10610413551330566,-2.2555437088012695
1763693325270351400,2.076351318359375,0.047297000885009766,-0.515535831451416,-3.434020519256592
1763693325290456600,2.09645654296875,0.765599250793457,-1.1592700481414795,-2.5005459785461426
1763693325300537000,2.106537109375,1.0738353729248047,-1.757246494293213,-2.4937362670898438
1763693325310617600,2.11661767578125,1.1597790718078613,-2.119668960571289,-2.167727470397949
1763693325320743200,2.1267431640625,0.783782958984375,-2.4082796573638916,-1.3887815475463867
1763693325330823700,2.13682373046875,0.2771162986755371,-2.455467700958252,-0.6100854873657227
1763693325340904200,2.146904296875,-0.34137773513793945,-2.2823386192321777,0.30031728744506836
1763693325350979000,2.15697900390625,-0.972700834274292,-2.0158426761627197,0.9553341865539551
1763693325361059600,2.1670595703125,-0.9633491039276123,-1.4110095500946045,1.342085361480713
1763693325371140000,2.17714013671875,-1.3992698192596436,-0.7808551788330078,2.0400729179382324
1763693325381222100,2.18722216796875,-1.3625638484954834,-0.4174201488494873,1.87272310256958
1763693325391302700,2.197302734375,-0.8264849185943604,0.14877700805664062,0.9175467491149902
1763693325401383200,2.207383056640625,-0.8536727428436279,0.42661118507385254,-0.18914127349853516
1763693325411433000,2.217432861328125,0.4170551300048828,0.25476646423339844,-0.8653068542480469
1763693325421513500,2.227513427734375,0.5807347297668457,-0.029970645904541016,-1.4198894500732422
1763693325431594000,2.237593994140625,0.6521401405334473,-0.36921238899230957,-1.9139633178710938
1763693325442278700,2.248278564453125,0.6542596817016602,-0.4758882522583008,-1.6227283477783203
1763693325452359400,2.258359375,0.4354438781738281,-0.5095617771148682,-0.5555810928344727
1763693325462440000,2.26843994140625,0.10696649551391602,-0.20491766929626465,0.8120789527893066
1763693325472535800,2.278535888671875,-0.9942269325256348,-0.17279887199401855,0.9634599685668945
1763693325482617300,2.288617431640625,-1.2994978427886963,-0.12037491798400879,1.1352901458740234
1763693325492699100,2.29869921875,-1.6067795753479004,-0.07373189926147461,1.7229466438293457
1763693325502778600,2.308778564453125,-1.9448268413543701,-0.4045565128326416,0.9744648933410645
1763693325512860200,2.318860107421875,-1.9789094924926758,-0.4313361644744873,0.23899269104003906
1763693325522941700,2.328941650390625,-1.7486469745635986,-0.283538818359375,0.4057292938232422
1763693325542488300,2.34848828125,-1.1397101879119873,0.0510861873626709,1.3293533325195312
1763693325552569900,2.35856982421875,-1.0528843402862549,0.819061279296875,1.9433088302612305
1763693325562641400,2.368641357421875,-1.1200177669525146,1.4243495464324951,2.1125688552856445
1763693325572723000,2.378722900390625,-1.2512140274047852,1.9720714092254639,2.1187143325805664
1763693325582804500,2.388804443359375,-1.4043536186218262,2.3197996616363525,2.0699992179870605
1763693325592863500,2.398863525390625,-0.9348025321960449,2.5079898834228516,1.9951472282409668
1763693325602945000,2.408945068359375,-0.27930569648742676,2.1770529747009277,1.2241220474243164
1763693325613026600,2.419026611328125,-0.05887031555175781,1.7411370277404785,0.29293060302734375
1763693325623114500,2.429114501953125,-0.4465763568878174,1.5741076469421387,-0.5416173934936523
1763693325633196000,2.439196044921875,-0.8473241329193115,1.6228361129760742,-1.3176860809326172
1763693325643277800,2.44927783203125,-0.6229023933410645,1.627143144607544,-1.8136539459228516
1763693325653413400,2.459413330078125,0.03396010398864746,1.47251296043396,-1.5419425964355469
1763693325663495000,2.469494873046875,0.549278974533081,1.3973541259765625,-1.9053497314453125
1763693325673576700,2.47957666015625,0.9237337112426758,1.4269098043441772,-1.8180303573608398
1763693325683600100,2.48960009765625,0.8026268482208252,1.209127426147461,-0.8159008026123047
1763693325693682000,2.499681884765625,0.5547614097595215,1.08659029006958,-0.05378913879394531
1763693325703763500,2.509763427734375,-0.5622401237487793,1.2784154415130615,-0.9048995971679688
1763693325713863700,2.51986376953125,-1.2660281658172607,1.329958438873291,-0.766148567199707
1763693325723945200,2.5299453125,-1.1650984287261963,1.5853500366210938,-0.41649436950683594
1763693325734026800,2.54002685546875,-1.14963960647583,1.4750900268554688,-0.5062122344970703
1763693325744089900,2.55008984375,-0.8438138961791992,1.0511248111724854,-0.9809761047363281
1763693325754171400,2.56017138671875,0.21571826934814453,0.6632802486419678,-1.1558265686035156
1763693325764253000,2.5702529296875,1.3103969097137451,0.26880455017089844,-1.1622304916381836
1763693325774333400,2.58033349609375,1.4850795269012451,0.15427708625793457,-1.5531330108642578
1763693325784415000,2.5904150390625,1.3403913974761963,0.4826371669769287,-1.3659696578979492
1763693325794496800,2.600496826171875,1.4732253551483154,0.6837666034698486,-0.7906560897827148
1763693325804593200,2.61059326171875,1.6828241348266602,0.48481106758117676,-0.38068580627441406
1763693325814674700,2.6206748046875,1.5435776710510254,0.1418895721435547,-1.3156461715698242
1763693325824756200,2.630756103515625,1.408400535583496,0.30617856979370117,-2.837754249572754
1763693325834809900,2.640809814453125,1.4719760417938232,0.7016024589538574,-0.7380142211914062
1763693325844891600,2.6508916015625,-0.2995913028717041,0.5651211738586426,-2.7798871994018555
1763693325854973200,2.66097314453125,0.7701263427734375,1.1126396656036377,-0.36874866485595703
1763693325865040100,2.6710400390625,-0.19391345977783203,0.3840641975402832,-0.7960786819458008
1763693325875121700,2.68112158203125,-0.5721151828765869,-0.3434009552001953,-1.7331790924072266
1763693325885203500,2.691203369140625,-0.04813241958618164,-0.898261308670044,-2.076375961303711
1763693325895263500,2.701263427734375,0.009879827499389648,-1.6051220893859863,-2.3134498596191406
1763693325905345000,2.711344970703125,-0.20025062561035156,-1.845017671585083,-1.8303089141845703
1763693325915426600,2.721426513671875,0.03245067596435547,-2.5111801624298096,-1.4809761047363281
1763693325925509600,2.731509521484375,1.3929715156555176,-2.865971803665161,-0.7194156646728516
1763693325935591200,2.741591064453125,2.3372042179107666,-3.246129274368286,0.110992431640625
1763693325945672700,2.751672607421875,2.2626805305480957,-3.0181612968444824,0.8186941146850586
1763693325955786200,2.7617861328125,1.8166835308074951,-2.4804868698120117,1.2726621627807617
1763693325965867800,2.77186767578125,1.4136972427368164,-2.091405153274536,1.551095962524414
1763693325975949300,2.78194921875,1.1260318756103516,-1.8875325918197632,1.6084680557250977
1763693325986018800,2.792018798828125,0.9248800277709961,-1.8995227813720703,1.567281723022461
1763693325996100600,2.8021005859375,0.8034977912902832,-1.786884069442749,1.4359188079833984
1763693326006182100,2.81218212890625,0.6575191020965576,-1.6441730260849,1.2495307922363281
1763693326016233700,2.822233642578125,0.6925065517425537,-1.8304591178894043,1.1677284240722656
1763693326026315500,2.8323154296875,1.05060875415802,-1.9586045742034912,1.6609797477722168
1763693326036397000,2.84239697265625,1.4257172346115112,-1.2884612083435059,-0.27095508575439453
1763693326056581400,2.862581298828125,0.2329425811767578,-0.3075742721557617,1.3194446563720703
1763693326066663200,2.8726630859375,-0.8657722473144531,0.16658520698547363,1.5338935852050781
1763693326076731000,2.88273095703125,-1.329007863998413,0.6494224071502686,1.997331142425537
1763693326086812400,2.8928125,-1.5530071258544922,0.733116865158081,2.460486888885498
1763693326096894000,2.90289404296875,-1.5866351127624512,0.5213475227355957,3.0662808418273926
1763693326106984700,2.912984619140625,-1.8801167011260986,0.8728790283203125,2.968252658843994
1763693326117066200,2.923066162109375,-1.8209232091903687,0.995811939239502,2.360930919647217
1763693326127147800,2.933147705078125,-0.651604413986206,1.000171422958374,1.7079648971557617
1763693326137212000,2.9432119140625,-0.22051024436950684,0.9366227388381958,2.1472768783569336
1763693326147293400,2.95329345703125,-0.4020795524120331,0.9694688320159912,3.0019125938415527
1763693326157375000,2.963375,-0.11801940202713013,1.1075701713562012,3.037294387817383
1763693326167453400,2.973453369140625,0.45786821842193604,1.1712238788604736,2.6483473777770996
1763693326177535000,2.983534912109375,1.064101219177246,1.191286563873291,2.220442295074463
1763693326187616500,2.993616455078125,1.460646152496338,1.3691054582595825,1.428227424621582
1763693326197705000,3.003705078125,1.5109368562698364,1.567976474761963,0.8641204833984375
1763693326207786500,3.013786376953125,1.3349878787994385,1.878598928451538,1.1477088928222656
1763693326217868300,3.023868408203125,0.9523284435272217,1.9748306274414062,1.8304767608642578
1763693326227942700,3.033942626953125,0.9493122100830078,2.0021867752075195,2.0734386444091797
1763693326238024200,3.044024169921875,1.1685917377471924,1.5448282957077026,1.0077438354492188
1763693326248105700,3.054105712890625,1.7078031301498413,1.0514404773712158,-0.9688987731933594
1763693326258168800,3.0641689453125,1.939806580543518,1.2700321674346924,-2.3088817596435547
1763693326268250400,3.07425048828125,2.1831278800964355,1.080817461013794,-2.21335506439209
1763693326278332000,3.084331787109375,1.958882451057434,0.778984546661377,-2.095547676086426
1763693326288402400,3.09440234375,1.6217164993286133,0.9438024759292603,-2.1676788330078125
1763693326298484000,3.10448388671875,1.201000690460205,1.3291643857955933,-2.3517112731933594
1763693326308565800,3.114565673828125,0.925767719745636,1.4385751485824585,-2.872429847717285
1763693326318627300,3.12462744140625,0.8735703229904175,1.0209406614303589,-3.071866989135742
1763693326328708900,3.134708984375,0.9126549959182739,0.6087266206741333,-2.6196794509887695
1763693326338790400,3.144790283203125,1.0294334888458252,0.7804485559463501,-1.68634033203125
1763693326358998800,3.164998779296875,0.6103901863098145,0.24351000785827637,-1.881331443786621
1763693326369080300,3.175080322265625,0.10351505875587463,0.7985491752624512,-1.923471450805664
1763693326379075000,3.185074951171875,-0.1642887145280838,1.0034847259521484,-2.148861885070801
1763693326389156600,3.195156494140625,-0.4083165228366852,0.9990900754928589,-1.7359838485717773
1763693326399238100,3.205238037109375,-0.4979954957962036,0.7067415714263916,-1.1193838119506836
1763693326409348400,3.215348388671875,-0.47001445293426514,-0.07168257236480713,-1.2234373092651367
1763693326419430100,3.22543017578125,-0.2613271176815033,-0.9385275840759277,-1.7237396240234375
1763693326429511700,3.23551171875,-0.9296743273735046,-1.1215386390686035,-1.9734992980957031
1763693326439612400,3.2456123046875,-0.9407445192337036,-0.43675076961517334,-1.6655759811401367
1763693326449694000,3.25569384765625,0.4103125333786011,-0.4369807243347168,-1.1536054611206055
1763693326459775500,3.265775390625,1.3232086896896362,-1.029945731163025,-0.1298685073852539
1763693326469871900,3.275871826171875,1.2112096548080444,-1.202958106994629,0.8759746551513672
1763693326479953400,3.285953369140625,0.7920515537261963,-1.2590296268463135,1.5071287155151367
1763693326490035000,3.296034912109375,0.7498095035552979,-1.5123366117477417,2.719043731689453
1763693326500068400,3.306068359375,0.5545055866241455,-1.6845310926437378,3.9257984161376953
1763693326510148400,3.3161484375,0.057342469692230225,-1.406801700592041,4.743380069732666
1763693326520228400,3.326228271484375,-0.15164145827293396,-1.270932912826538,5.669437408447266
1763693326530343000,3.336343017578125,-0.07651999592781067,-1.4050066471099854,6.64647102355957
1763693326540423000,3.3464228515625,0.13211628794670105,-1.5040380954742432,7.606276512145996
1763693326560532200,3.3665322265625,1.0398621559143066,-2.003221273422241,7.196471214294434
1763693326570612200,3.3766123046875,1.3018933534622192,-2.342329740524292,7.066442966461182
1763693326580692200,3.386692138671875,1.3482096195220947,-2.362450122833252,6.996654510498047
1763693326590816000,3.39681591796875,1.313568353652954,-2.6487040519714355,6.822766304016113
1763693326600896000,3.40689599609375,0.9181522130966187,-3.1084182262420654,6.446949481964111
1763693326610976000,3.41697607421875,0.6009960174560547,-3.455413818359375,5.8574090003967285
1763693326621078000,3.427078125,0.43543541431427,-4.038785457611084,5.211958408355713
1763693326631158000,3.437157958984375,0.33460819721221924,-4.444537162780762,4.672952651977539
1763693326641238000,3.447238037109375,0.4225879907608032,-4.491982460021973,4.792732238769531
1763693326651273500,3.4572734375,0.5401284694671631,-4.323722839355469,5.307112693786621
1763693326661353500,3.467353515625,0.6322958469390869,-4.193891525268555,4.595978736877441
1763693326671433500,3.47743359375,0.7144536972045898,-4.083646297454834,3.504946231842041
1763693326682154200,3.488154296875,0.7158024311065674,-4.042232990264893,2.2843246459960938
1763693326692234200,3.498234130859375,0.5601358413696289,-3.974125385284424,1.6562247276306152
1763693326702314200,3.508314208984375,0.3435347080230713,-3.8658108711242676,0.49357128143310547
1763693326721810700,3.527810791015625,-0.04664206504821777,-3.529249668121338,-0.36701202392578125
1763693326731890700,3.537890625,0.2474067211151123,-3.8990120887756348,-0.8978891372680664
1763693326742664400,3.54866455078125,0.389498233795166,-4.211073398590088,-1.4114313125610352
1763693326752744400,3.558744384765625,0.3528172969818115,-4.383347988128662,-1.3518590927124023
1763693326762824400,3.568824462890625,0.5264265537261963,-4.613229751586914,-1.1466550827026367
1763693326782330600,3.58833056640625,1.1936993598937988,-4.8084845542907715,-2.6528091430664062
1763693326792410600,3.59841064453125,1.13505220413208,-4.486246585845947,-3.9779958724975586
1763693326802490600,3.60849072265625,1.276824951171875,-4.405264377593994,-4.738114356994629
1763693326812577000,3.618576904296875,1.49625825881958,-4.6205525398254395,-5.3384199142456055
1763693326822657000,3.628656982421875,1.9017720222473145,-4.5821852684021,-6.000195503234863
1763693326832737300,3.6387373046875,2.2923545837402344,-4.042133808135986,-6.252286911010742
1763693326842750700,3.648750732421875,2.1743674278259277,-3.8105404376983643,-6.676972389221191
1763693326852830700,3.658830810546875,2.586754322052002,-3.5281057357788086,-7.303057670593262
1763693326862910700,3.66891064453125,2.9880599975585938,-3.1836748123168945,-7.747969627380371
1763693326873049600,3.679049560546875,2.8176536560058594,-2.8809399604797363,-7.673166275024414
1763693326883129600,3.689129638671875,2.4716553688049316,-2.6271204948425293,-6.654432773590088
1763693326893209600,3.699209716796875,2.42435884475708,-2.59301495552063,-6.652212142944336
1763693326903267600,3.709267578125,2.827056407928467,-2.7692453861236572,-6.420248985290527
1763693326913347600,3.71934765625,2.4883012771606445,-2.524075508117676,-5.569178104400635
1763693326923427600,3.729427490234375,1.763472557067871,-2.0111961364746094,-5.131216049194336
1763693326933470200,3.73947021484375,1.8460683822631836,-1.793609380722046,-5.4559712409973145
1763693326943550200,3.74955029296875,2.3054113388061523,-2.0704283714294434,-5.696547031402588
1763693326953630200,3.759630126953125,2.4188361167907715,-1.7814877033233643,-5.550204753875732
1763693326963757800,3.7697578125,2.356168270111084,-2.1605756282806396,-5.131253719329834
1763693326973837800,3.779837890625,2.1230483055114746,-2.5551419258117676,-4.721719741821289
1763693326983917800,3.789917724609375,1.1856675148010254,-1.966454029083252,-4.794521331787109
1763693326993983700,3.799983642578125,0.11012458801269531,-1.753366470336914,-4.727797985076904
1763693327004063700,3.810063720703125,-0.8628706932067871,-1.1329116821289062,-5.101624488830566
1763693327014144000,3.82014404296875,-1.4520201683044434,-0.30273962020874023,-6.13751745223999
1763693327024237000,3.830237060546875,-1.543351650238037,0.02892446517944336,-6.281534194946289
1763693327034317000,3.840317138671875,-1.2712349891662598,0.33478546142578125,-6.133058071136475
1763693327044397000,3.85039697265625,-0.943537712097168,0.49228334426879883,-5.926201343536377
1763693327054485200,3.8604853515625,-0.6983141899108887,0.7128262519836426,-5.246699333190918
1763693327064565200,3.870565185546875,-0.7487936019897461,1.0647411346435547,-4.541696071624756
1763693327074645200,3.880645263671875,-1.0159883499145508,1.3456811904907227,-3.843198776245117
1763693327084726500,3.8907265625,-1.3220491409301758,1.5656533241271973,-3.1848483085632324
1763693327094806500,3.900806640625,-1.7927749156951904,1.709763526916504,-2.602250099182129
1763693327104886500,3.910886474609375,-1.8517863750457764,2.38423752784729,-2.6360292434692383
1763693327114975500,3.9209755859375,-1.8837394714355469,2.4505937099456787,-1.6994848251342773
1763693327125055500,3.931055419921875,-1.587740182876587,3.015263557434082,-1.4163942337036133
1763693327135135500,3.941135498046875,-1.5469610691070557,3.6312708854675293,-1.1661896705627441
1763693327145214500,3.95121435546875,-1.4470808506011963,4.108858585357666,-0.8942632675170898
1763693327165374500,3.97137451171875,-0.6404545307159424,5.094546318054199,-0.6158499717712402
1763693327175455200,3.981455322265625,-0.3398909568786621,5.554101467132568,-0.2202773094177246
1763693327185535200,3.99153515625,-0.0021800994873046875,5.737272262573242,0.4276084899902344
1763693327195615500,4.001615478515625,0.14650869369506836,6.368979454040527,0.6428818702697754
1763693327205636600,4.01163671875,0.26107120513916016,6.805390357971191,0.8765177726745605
1763693327215716600,4.021716552734375,0.31806087493896484,7.1945390701293945,1.1014208793640137
1763693327225796600,4.031796630859375,0.4676680564880371,7.372791767120361,1.2844018936157227
1763693327235936500,4.0419365234375,0.7591605186462402,7.3366851806640625,1.4649996757507324
1763693327246016500,4.0520166015625,1.0810859203338623,7.115172386169434,1.4080181121826172
1763693327256096500,4.062096435546875,1.2209405899047852,7.024646282196045,1.1935343742370605
1763693327266169300,4.07216943359375,1.2001819610595703,6.827569007873535,0.9916677474975586
1763693327276249300,4.082249267578125,1.183591604232788,6.074954032897949,0.7189583778381348
1763693327286329300,4.092329345703125,1.3396899700164795,5.647009372711182,0.3181772232055664
1763693327296383700,4.1023837890625,1.7046692371368408,5.1445841789245605,-0.2059330940246582
1763693327306463700,4.112463623046875,2.0245771408081055,4.671189308166504,-0.8555421829223633
1763693327316543700,4.122543701171875,2.1650683879852295,4.42179536819458,-1.6075878143310547
1763693327326631000,4.132630859375,2.1421680450439453,4.360695838928223,-2.236494541168213
1763693327336711000,4.1427109375,2.2690117359161377,4.224401950836182,-2.961484432220459
1763693327346791000,4.152791015625,2.5609707832336426,3.9492435455322266,-3.865090847015381
1763693327356864000,4.162864013671875,2.9352643489837646,3.783458948135376,-4.631511688232422
1763693327366944000,4.172944091796875,3.346510410308838,3.80611515045166,-5.254459381103516
1763693327377024000,4.18302392578125,3.8474833965301514,3.91158390045166,-5.4954376220703125
1763693327387101400,4.193101318359375,4.493215084075928,3.9808785915374756,-5.407843112945557
1763693327397181400,4.203181396484375,5.159912109375,3.859225034713745,-5.18650484085083
1763693327407261400,4.213261474609375,5.736356735229492,3.767599105834961,-5.003690719604492
1763693327417375500,4.22337548828125,6.277163028717041,3.4848692417144775,-4.905689239501953
1763693327427455500,4.23345556640625,6.668802738189697,3.034188985824585,-4.6951093673706055
1763693327437535500,4.243535400390625,6.727186679840088,2.6290597915649414,-4.2598185539245605
1763693327447603200,4.253603271484375,6.401115894317627,2.389356851577759,-3.7380027770996094
1763693327457683200,4.26368310546875,5.9411749839782715,2.2251672744750977,-3.3173699378967285
1763693327467763200,4.27376318359375,5.747115135192871,1.8703651428222656,-3.223656177520752
1763693327477843700,4.28384375,5.808661460876465,1.2666316032409668,-3.4945812225341797
1763693327487923700,4.293923828125,5.8885579109191895,0.5165801048278809,-3.992593765258789
1763693327498004000,4.30400390625,5.903256416320801,-0.29306840896606445,-4.451501369476318
1763693327508082000,4.31408203125,5.7223992347717285,-1.1256523132324219,-4.848727226257324
1763693327518162000,4.324161865234375,5.039652347564697,-1.6263151168823242,-5.275293350219727
1763693327528242200,4.3342421875,3.813716411590576,-1.5868477821350098,-5.60437536239624
1763693327538316300,4.34431640625,2.5140891075134277,-1.2138895988464355,-5.702425003051758
1763693327548396300,4.354396240234375,1.5499210357666016,-0.9076738357543945,-5.569372653961182
1763693327558476500,4.3644765625,1.2030234336853027,-0.9560389518737793,-5.41717004776001
1763693327568546000,4.374546142578125,1.210383415222168,-1.2936625480651855,-5.158260345458984
1763693327578626000,4.3846259765625,0.9748983383178711,-1.8117880821228027,-4.505838871002197
1763693327588706300,4.394706298828125,0.6416897773742676,-2.2332394123077393,-3.660667896270752
1763693327598836000,4.4048359375,0.40326595306396484,-2.746260643005371,-3.0812907218933105
1763693327608916000,4.414916015625,0.30428409576416016,-3.304337739944458,-2.8659701347351074
1763693327618996000,4.424995849609375,0.18355560302734375,-3.7004635334014893,-2.68253755569458
1763693327629056500,4.435056396484375,-0.03428363800048828,-3.966644763946533,-2.30619478225708
1763693327639136800,4.44513671875,-0.19731760025024414,-4.114936351776123,-1.9909296035766602
1763693327649216800,4.455216796875,-0.5806007385253906,-4.043773651123047,-1.7041287422180176
1763693327659254000,4.46525390625,-1.2066102027893066,-3.6794686317443848,-1.265427589416504
1763693327669334000,4.475333984375,-1.7093377113342285,-3.244680404663086,-0.7637505531311035
1763693327679414300,4.485414306640625,-1.9870920181274414,-2.900585174560547,-0.32959747314453125
1763693327689603600,4.495603515625,-2.180294990539551,-2.670024871826172,0.08413839340209961
1763693327699683600,4.50568359375,-2.364187240600586,-2.4526400566101074,0.41059303283691406
1763693327709763800,4.515763916015625,-2.512880802154541,-2.249606132507324,0.5983686447143555
1763693327719729200,4.525729248046875,-2.6536104679107666,-2.2010440826416016,0.8755531311035156
1763693327729809400,4.535809326171875,-2.76544451713562,-2.3537302017211914,1.3326048851013184
1763693327739889400,4.545889404296875,-2.8486006259918213,-2.5432522296905518,1.7889084815979004
1763693327749969400,4.555969482421875,-2.9322917461395264,-2.6120553016662598,2.3580870628356934
1763693327770129700,4.576129638671875,-2.8844850063323975,-3.4297537803649902,2.5867018699645996
1763693327780217900,4.5862177734375,-2.901796579360962,-3.5576136112213135,3.05232572555542
1763693327790297900,4.5962978515625,-2.85914945602417,-3.801342487335205,3.279078960418701
1763693327800378000,4.606378173828125,-2.8109610080718994,-3.9667952060699463,3.2441024780273438
1763693327810460400,4.61646044921875,-2.518765687942505,-4.068513870239258,3.589172840118408
1763693327820540700,4.626540771484375,-2.3921544551849365,-4.254191875457764,3.6311378479003906
1763693327830620700,4.63662060546875,-2.3266472816467285,-4.508760929107666,3.646392822265625
1763693327840699600,4.64669970703125,-2.1532225608825684,-4.84569787979126,3.5678019523620605
1763693327850780000,4.65677978515625,-1.8988890647888184,-5.265087127685547,3.350414276123047
1763693327860860000,4.66685986328125,-1.629223346710205,-5.6373090744018555,3.0830893516540527
1763693327870936300,4.676936279296875,-1.433732032775879,-5.9626617431640625,2.8041324615478516
1763693327881016300,4.687016357421875,-1.2300667762756348,-6.285282611846924,2.5991015434265137
1763693327891096600,4.6970966796875,-0.8930201530456543,-6.488584995269775,2.362285614013672
1763693327901200400,4.707200439453125,-0.5660738945007324,-6.676506042480469,1.943608283996582
1763693327911280600,4.71728076171875,-0.2839789390563965,-6.772674083709717,1.843635082244873
1763693327921360600,4.727360595703125,-0.09593629837036133,-6.676910400390625,1.5215487480163574
1763693327932030700,4.73803076171875,0.08889532089233398,-6.467466831207275,1.340132236480713
1763693327942111000,4.748111083984375,0.34249258041381836,-6.382077217102051,1.3663387298583984
1763693327952191000,4.75819091796875,0.5179400444030762,-6.274709701538086,1.3484573364257812
1763693327971736000,4.777736083984375,0.8637866973876953,-6.340787887573242,1.4007201194763184
1763693327981816000,4.787816162109375,0.5592637062072754,-6.436803817749023,1.137089729309082
1763693328002633200,4.80863330078125,-0.7773900032043457,-5.931833744049072,1.0403857231140137
1763693328012713200,4.818713134765625,-0.6657352447509766,-5.869436264038086,0.8817076683044434
1763693328022740700,4.82874072265625,-0.19356679916381836,-5.839338302612305,0.6038327217102051
1763693328032820700,4.83882080078125,0.17830371856689453,-5.734831809997559,0.3455996513366699
1763693328042900700,4.848900634765625,0.2719898223876953,-5.65911340713501,0.2575955390930176
1763693328062449700,4.86844970703125,0.030689239501953125,-5.24446439743042,0.1485309600830078
1763693328072530000,4.878530029296875,0.025783061981201172,-4.846673011779785,-0.05849456787109375
1763693328082648800,4.88864892578125,0.3384113311767578,-4.591411590576172,-0.443575382232666
1763693328092729000,4.89872900390625,0.6456975936889648,-4.397913455963135,-0.9734416007995605
1763693328102809000,4.90880908203125,0.8918609619140625,-4.132384300231934,-1.4816641807556152
1763693328112885800,4.9188857421875,1.000124454498291,-3.901947498321533,-1.7772998809814453
1763693328122965800,4.9289658203125,0.9819531440734863,-3.6556177139282227,-1.8733458518981934
1763693328133045800,4.939045654296875,0.8558521270751953,-3.377469539642334,-1.9006071090698242
1763693328143070000,4.949070068359375,0.7178006172180176,-3.069371223449707,-2.1174044609069824
1763693328153150000,4.95914990234375,0.6077537536621094,-2.7885327339172363,-2.4194984436035156
1763693328163230000,4.96922998046875,0.34468555450439453,-2.5017335414886475,-2.5470328330993652
1763693328173331500,4.97933154296875,-0.15888166427612305,-2.1146345138549805,-2.47367000579834
1763693328183411700,4.98941162109375,-0.6788992881774902,-1.6219704151153564,-2.264230251312256
1763693328193491700,4.99949169921875,-1.0515084266662598,-0.937821626663208,-2.103888988494873
1763693328203570200,5.009570068359375,-1.160524845123291,-0.1461772918701172,-2.0510473251342773
1763693328213650400,5.019650390625,-1.1039295196533203,0.6091752052307129,-1.9001517295837402
1763693328223730400,5.02973046875,-1.0602436065673828,1.3924009799957275,-1.5634269714355469
1763693328233836500,5.03983642578125,-1.0183353424072266,2.0803558826446533,-1.1655573844909668
1763693328243916500,5.04991650390625,-0.8274469375610352,2.682267189025879,-0.7337093353271484
1763693328253996500,5.05999658203125,-0.5955491065979004,3.1419506072998047,-0.2014479637145996
1763693328264088000,5.070088134765625,-0.3648514747619629,3.383542537689209,0.40190649032592773
1763693328274168000,5.08016796875,-0.1651310920715332,3.4789047241210938,0.7786722183227539
1763693328284248000,5.090248046875,0.027263164520263672,3.522376537322998,1.0116629600524902
1763693328294287000,5.100287109375,0.21022844314575195,3.549898386001587,1.23942232131958
1763693328304367000,5.1103671875,0.3705630302429199,3.5897669792175293,1.3863868713378906
1763693328314447000,5.120447021484375,0.6353397369384766,3.5047385692596436,1.3186578750610352
1763693328324531700,5.13053173828125,0.8492922782897949,3.408613920211792,1.0172944068908691
1763693328334611700,5.14061181640625,1.085890769958496,3.3855345249176025,0.7494077682495117
1763693328344692000,5.15069189453125,1.4373726844787598,3.3430075645446777,0.5394959449768066
1763693328354755800,5.160755859375,1.8668370246887207,3.2728660106658936,0.25888681411743164
1763693328364835800,5.1708359375,2.117691993713379,3.2462217807769775,-0.04203510284423828
1763693328374915800,5.180915771484375,2.435929775238037,3.3179502487182617,-0.47874021530151367
1763693328385039000,5.1910390625,2.8568615913391113,3.3508856296539307,-1.0962457656860352
1763693328395119000,5.201119140625,3.2515182495117188,3.2956297397613525,-1.8299689292907715
1763693328405199000,5.21119921875,3.6693429946899414,3.3177847862243652,-2.6615962982177734
1763693328415316000,5.22131591796875,4.068358421325684,3.420048236846924,-3.527904987335205
1763693328425396000,5.23139599609375,4.4556965827941895,3.5550317764282227,-4.344919204711914
1763693328435476200,5.241476318359375,4.547309875488281,3.7923598289489746,-4.90408992767334
1763693328455592700,5.2615927734375,4.638768672943115,4.462760925292969,-5.105388164520264
1763693328465672700,5.271672607421875,5.0524163246154785,4.5651750564575195,-5.329873085021973
1763693328475747800,5.281747802734375,5.520211219787598,4.491658687591553,-5.696346282958984
1763693328485827800,5.291827880859375,5.5020928382873535,4.459547996520996,-5.894084930419922
1763693328495907800,5.301907958984375,5.025176048278809,4.664721965789795,-5.878017425537109
1763693328505974300,5.311974365234375,4.601634502410889,4.929413795471191,-5.806708812713623
1763693328516054500,5.322054443359375,4.694528579711914,4.809820175170898,-5.858334064483643
1763693328526134500,5.332134521484375,5.325541019439697,4.1304240226745605,-6.061720848083496
1763693328536233200,5.342233154296875,5.893063068389893,3.1757941246032715,-6.338407516479492
1763693328546313200,5.352313232421875,6.21687126159668,2.2287144660949707,-6.666471481323242
1763693328556393200,5.362393310546875,6.16076135635376,1.5601930618286133,-7.068888187408447
1763693328566495500,5.37249560546875,5.4205546379089355,1.421494483947754,-7.431697845458984
1763693328576575500,5.382575439453125,3.950362205505371,2.0387659072875977,-7.673927307128906
1763693328586655500,5.392655517578125,2.4816207885742188,3.18853759765625,-7.726598739624023
1763693328596712400,5.40271240234375,1.667027473449707,4.217063903808594,-8.019798278808594
1763693328606792400,5.41279248046875,1.4922547340393066,4.720231056213379,-8.381891250610352
1763693328616872700,5.422872802734375,1.4283771514892578,4.760049343109131,-8.198797225952148
1763693328626948400,5.4329482421875,1.3892316818237305,4.451735973358154,-7.278881072998047
1763693328637028400,5.4430283203125,1.3836565017700195,3.781820774078369,-5.916407585144043
1763693328647108400,5.4531083984375,1.446143627166748,2.9519858360290527,-4.543299674987793
1763693328657205000,5.463205078125,1.299412727355957,2.164713144302368,-3.3762059211730957
1763693328667285000,5.473284912109375,1.0287485122680664,1.4698586463928223,-2.618175983428955
1763693328677365200,5.483365234375,0.8002824783325195,0.819577693939209,-2.347872734069824
1763693328687417000,5.4934169921875,0.4727773666381836,0.444063663482666,-2.302809238433838
1763693328697497000,5.5034970703125,0.014687061309814453,0.4590873718261719,-2.158956527709961
1763693328707577000,5.5135771484375,-0.24828243255615234,0.5383598804473877,-1.841820240020752
1763693328717678000,5.523677978515625,-0.3521609306335449,0.4942934513092041,-1.4454636573791504
1763693328737838000,5.543838134765625,-0.9584765434265137,0.3954181671142578,-0.29453277587890625
1763693328747922400,5.55392236328125,-1.193410873413086,0.3748922348022461,0.28823137283325195
1763693328758002400,5.56400244140625,-1.2962846755981445,0.2095940113067627,0.7510924339294434
1763693328768082400,5.57408251953125,-1.2481513023376465,-0.0555269718170166,1.0461702346801758
1763693328778161700,5.58416162109375,-1.2437152862548828,-0.4272730350494385,1.2378997802734375
1763693328788241700,5.59424169921875,-1.2578530311584473,-0.8733885288238525,1.3779196739196777
1763693328798321700,5.60432177734375,-1.3642868995666504,-1.2722749710083008,1.54290771484375
1763693328808400100,5.614400146484375,-1.51423978805542,-1.6455051898956299,1.719057559967041
1763693328818480000,5.624480224609375,-1.4890131950378418,-2.0979976654052734,1.8270440101623535
1763693328828560100,5.63456005859375,-1.3990306854248047,-2.6319751739501953,1.906245231628418
1763693328838646300,5.644646240234375,-1.3481330871582031,-3.1161179542541504,2.016437530517578
1763693328848726300,5.654726318359375,-1.283348560333252,-3.6138386726379395,2.134413242340088
1763693328858806300,5.66480615234375,-1.1531352996826172,-4.135698318481445,2.276625156402588
1763693328868872200,5.6748720703125,-0.9539031982421875,-4.646920680999756,2.4355263710021973
1763693328878952400,5.684952392578125,-0.7755351066589355,-5.131894111633301,2.4937663078308105
1763693328889032400,5.695032470703125,-0.7159881591796875,-5.474390983581543,2.3933353424072266
1763693328899074600,5.705074462890625,-0.6367430686950684,-5.7103047370910645,2.0687098503112793
1763693328909154600,5.715154541015625,-0.5867486000061035,-5.925578594207764,1.6684980392456055
1763693328919234800,5.72523486328125,-0.5879387855529785,-6.050958633422852,1.3243823051452637
1763693328929470700,5.735470703125,-0.5259566307067871,-6.1614203453063965,1.0335559844970703
1763693328939550700,5.74555078125,-0.32950305938720703,-6.33427619934082,0.8677735328674316
1763693328949631000,5.755630859375,-0.1529521942138672,-6.546624183654785,0.8116440773010254
1763693328959578000,5.765578125,-0.04321479797363281,-6.784082889556885,0.8255987167358398
1763693328969658000,5.775658203125,-0.0074100494384765625,-6.971033096313477,0.7661347389221191
1763693328979738400,5.78573828125,-0.06075334548950195,-7.055548667907715,0.6730327606201172
1763693328989811500,5.7958115234375,0.0022530555725097656,-7.2467803955078125,0.651155948638916
1763693328999891500,5.805891357421875,0.12541913986206055,-7.470888614654541,0.6754975318908691
1763693329009971500,5.815971435546875,-0.0071735382080078125,-7.498912334442139,0.9413819313049316
1763693329020049400,5.82604931640625,-0.4164142608642578,-7.270213603973389,1.290299415588379
1763693329030129400,5.83612939453125,-0.7586259841918945,-6.989404201507568,1.5515995025634766
1763693329040209700,5.846209716796875,-0.7095379829406738,-6.8114824295043945,1.6368012428283691
1763693329050279400,5.856279541015625,-0.16899442672729492,-6.842289447784424,1.5377182960510254
1763693329060359400,5.866359375,0.43529367446899414,-6.956423759460449,1.42622709274292
1763693329070439400,5.876439453125,0.7839531898498535,-6.9337921142578125,1.44234037399292
1763693329080519000,5.886518798828125,0.8823976516723633,-6.846564292907715,1.5072193145751953
1763693329090599000,5.896598876953125,0.8609628677368164,-6.791139602661133,1.394495964050293
1763693329100679000,5.906678955078125,0.6371626853942871,-6.704347133636475,0.9948301315307617
1763693329110784000,5.916783935546875,0.39205217361450195,-6.52834415435791,0.5816764831542969
1763693329120864000,5.926864013671875,0.26006078720092773,-6.203829288482666,0.2087411880493164
1763693329130944000,5.936944091796875,0.14791202545166016,-5.7705278396606445,-0.06590986251831055
1763693329141031200,5.94703125,0.11766958236694336,-5.403338432312012,-0.312990665435791
1763693329151111200,5.957111083984375,0.07733964920043945,-5.087508201599121,-0.5725202560424805
1763693329161191200,5.967191162109375,0.040035247802734375,-4.701759338378906,-0.7815537452697754
1763693329171258400,5.97725830078125,-0.042327880859375,-4.325935363769531,-0.9239082336425781
1763693329181338400,5.98733837890625,-0.2747483253479004,-3.8480911254882812,-0.8877391815185547
1763693329191418600,5.997418701171875,-0.6228251457214355,-3.298612594604492,-0.5611591339111328
1763693329202104000,6.00810400390625,-0.9421133995056152,-2.7695837020874023,-0.11242294311523438
1763693329212184000,6.01818408203125,-1.0939722061157227,-2.2834150791168213,0.2234807014465332
1763693329222264000,6.02826416015625,-1.3133740425109863,-1.7431952953338623,0.4841957092285156
1763693329232346600,6.0383466796875,-1.7306451797485352,-0.9963202476501465,0.8374667167663574
1763693329242426600,6.048426513671875,-1.9603829383850098,-0.2661778926849365,1.1871981620788574
1763693329252506600,6.058506591796875,-1.8680667877197266,0.37856602668762207,1.4032196998596191
1763693329262590200,6.068590087890625,-1.7174949645996094,0.9840092658996582,1.5970678329467773
1763693329272670200,6.078670166015625,-1.6663293838500977,1.516670823097229,1.9100627899169922
1763693329282750200,6.088750244140625,-1.5588874816894531,1.8306071758270264,2.2199106216430664
1763693329292825000,6.0988251953125,-1.2992944717407227,2.0016725063323975,2.332812786102295
1763693329302905000,6.108905029296875,-1.1250247955322266,2.145012855529785,2.29038667678833
1763693329312985000,6.118985107421875,-1.075890064239502,2.31557559967041,2.292935848236084
1763693329332501500,6.13850146484375,-0.8727293014526367,2.286153554916382,1.7651314735412598
1763693329342581800,6.148581787109375,-0.6540498733520508,2.2382664680480957,1.233067512512207
1763693329352729300,6.158729248046875,-0.4018278121948242,2.1276514530181885,0.686424732208252
1763693329362809300,6.168809326171875,-0.09807825088500977,2.034306764602661,0.03434610366821289
1763693329372889300,6.178889404296875,0.2378239631652832,2.016676902770996,-0.6140122413635254
1763693329382971000,6.188970947265625,0.5544605255126953,2.04121732711792,-1.128434181213379
1763693329393051000,6.19905078125,0.8500967025756836,2.137153148651123,-1.6500544548034668
1763693329403131100,6.209131103515625,1.1667051315307617,2.257235288619995,-2.1972689628601074
1763693329413135600,6.219135498046875,1.3980693817138672,2.4690442085266113,-2.645289421081543
1763693329423215600,6.229215576171875,1.7178740501403809,2.596491575241089,-2.952859878540039
1763693329433295600,6.239295654296875,2.2158493995666504,2.642516613006592,-3.4007744789123535
1763693329443420400,6.24942041015625,2.580260753631592,2.7090115547180176,-3.9090499877929688
1763693329453500400,6.25950048828125,2.7993369102478027,2.8536736965179443,-4.322250843048096
1763693329463580700,6.26958056640625,3.0514278411865234,2.972210168838501,-4.776182174682617
1763693329473666800,6.279666748046875,3.234691619873047,3.150203227996826,-5.2376251220703125
1763693329483746800,6.289746826171875,3.3020215034484863,3.3281760215759277,-5.478621959686279
1763693329493826800,6.299826904296875,3.5028390884399414,3.468639373779297,-5.637423038482666
1763693329503910000,6.309909912109375,3.89389705657959,3.4345803260803223,-5.820146083831787
1763693329513990000,6.319989990234375,4.146780490875244,3.421396255493164,-5.839005947113037
1763693329524070000,6.33006982421875,4.019752025604248,3.57767391204834,-5.809817314147949
1763693329534155000,6.340155029296875,3.586005210876465,3.9573862552642822,-5.72682523727417
1763693329544235000,6.350235107421875,3.321135997772217,4.303836345672607,-5.638434886932373
1763693329554315000,6.36031494140625,3.5982141494750977,4.3184051513671875,-5.543827056884766
1763693329564384300,6.37038427734375,4.199028015136719,3.9317867755889893,-5.507541656494141
1763693329574464300,6.38046435546875,4.69379997253418,3.328258752822876,-5.481183052062988
1763693329584544300,6.390544189453125,4.920382022857666,2.72859787940979,-5.443536281585693
1763693329594623000,6.400623046875,4.92429780960083,2.1824722290039062,-5.653820514678955
1763693329604703000,6.410702880859375,4.540317058563232,1.998314380645752,-6.042541027069092
1763693329614783000,6.420782958984375,3.7168750762939453,2.329674243927002,-6.471039295196533
1763693329624862700,6.43086279296875,2.8027195930480957,3.006138324737549,-6.7334208488464355
1763693329634942700,6.440942626953125,2.3198790550231934,3.530244827270508,-6.776487827301025
1763693329645022700,6.451022705078125,2.279397487640381,3.6378087997436523,-6.7079243659973145
1763693329655118000,6.4611181640625,2.118150234222412,3.4999778270721436,-6.473904132843018
1763693329665198000,6.471197998046875,1.7843990325927734,3.2205162048339844,-6.011768817901611
1763693329675278000,6.481278076171875,1.4734067916870117,2.7700119018554688,-5.3746562004089355
1763693329685339400,6.49133935546875,1.2695727348327637,2.2445623874664307,-4.573790073394775
1763693329695419400,6.50141943359375,0.896247386932373,1.7922582626342773,-3.9104461669921875
1763693329705499400,6.51149951171875,0.5356850624084473,1.4014596939086914,-3.5517091751098633
1763693329715601000,6.521600830078125,0.2759718894958496,1.0331144332885742,-3.5128092765808105
1763693329725681000,6.531680908203125,-0.1227259635925293,0.8055882453918457,-3.5107245445251465
1763693329735761000,6.541760986328125,-0.5575757026672363,0.796605110168457,-3.349853038787842
1763693329745832400,6.55183251953125,-0.9313564300537109,0.8309478759765625,-2.965578079223633
1763693329755912400,6.561912353515625,-1.1955723762512207,0.8664004802703857,-2.421938419342041
1763693329765992400,6.571992431640625,-1.418159008026123,0.896324872970581,-1.740377426147461
1763693329776078300,6.582078369140625,-1.6182279586791992,0.9310116767883301,-1.1275405883789062
1763693329786158300,6.592158447265625,-1.6585197448730469,0.9639997482299805,-0.6474990844726562
1763693329796238300,6.60223828125,-1.6347002983093262,0.963076114654541,-0.2111506462097168
1763693329806323500,6.612323486328125,-1.5946640968322754,0.8525393009185791,0.22966241836547852
1763693329816403500,6.622403564453125,-1.5657415390014648,0.5765981674194336,0.6536297798156738
1763693329836522000,6.64252197265625,-1.4949750900268555,-0.24946117401123047,1.0887322425842285
1763693329846602000,6.65260205078125,-1.4832000732421875,-0.7362880706787109,1.2234115600585938
1763693329856682000,6.662681884765625,-1.5705666542053223,-1.2000508308410645,1.4753432273864746
1763693329866788600,6.67278857421875,-1.5989599227905273,-1.6206257343292236,1.8440289497375488
1763693329876868600,6.68286865234375,-1.4889774322509766,-2.0922117233276367,2.0689897537231445
1763693329886948600,6.692948486328125,-1.3647146224975586,-2.565758466720581,2.2466745376586914
1763693329896998000,6.702997802734375,-1.2044706344604492,-2.9948060512542725,2.4344215393066406
1763693329907078000,6.713077880859375,-1.0720324516296387,-3.4204611778259277,2.4733095169067383
1763693329917158000,6.723157958984375,-1.1112818717956543,-3.8876495361328125,2.222900390625
1763693329927246800,6.733246826171875,-1.1276898384094238,-4.283716678619385,1.4458551406860352
1763693329937326800,6.743326904296875,-1.1446044445037842,-4.613587379455566,0.4694833755493164
1763693329947406800,6.75340673828125,-1.154567003250122,-4.785231113433838,-0.6144638061523438
1763693329957516500,6.7635166015625,-1.0937650203704834,-4.680826187133789,-1.5136871337890625
1763693329967596500,6.773596435546875,-1.0350143909454346,-4.572024822235107,-2.0373287200927734
1763693329977676500,6.783676513671875,-0.8292505741119385,-4.5828857421875,-2.248563766479492
1763693329987753500,6.79375341796875,-0.4803030490875244,-4.639325141906738,-2.4289493560791016
1763693329997833500,6.80383349609375,0.027307987213134766,-4.636502265930176,-2.521477699279785
1763693330007913500,6.81391357421875,0.6239078044891357,-4.595653533935547,-2.5005578994750977
1763693330017998800,6.823998779296875,1.1288652420043945,-4.451237678527832,-2.507831573486328
1763693330028078800,6.834078857421875,1.4635417461395264,-4.268341541290283,-2.576594352722168
1763693330038158800,6.844158935546875,1.7187910079956055,-4.348055362701416,-2.544443130493164
1763693330048190500,6.8541904296875,1.9127020835876465,-4.551541328430176,-2.3429126739501953
1763693330058270500,6.8642705078125,1.6951923370361328,-4.66188907623291,-1.9831972122192383
1763693330068350500,6.8743505859375,1.1424779891967773,-4.612068176269531,-1.7608394622802734
1763693330078459600,6.884459716796875,0.7245619297027588,-4.234818935394287,-1.7749929428100586
1763693330088539600,6.89453955078125,0.649071455001831,-3.808006763458252,-1.6787633895874023
1763693330098619600,6.90461962890625,0.9172972440719604,-3.620844841003418,-1.3290319442749023
1763693330108648400,6.9146484375,1.3556861877441406,-3.4272568225860596,-0.9492912292480469
1763693330118728400,6.924728515625,1.7996246814727783,-3.2404043674468994,-0.4248075485229492
1763693330128808400,6.934808349609375,2.031613826751709,-2.962564706802368,0.20572471618652344
1763693330138919000,6.9449189453125,1.9151883125305176,-2.5619089603424072,0.9254779815673828
1763693330148999000,6.9549990234375,1.675400733947754,-2.1464850902557373,1.4906625747680664
1763693330159079000,6.965078857421875,1.470263123512268,-1.7936303615570068,1.6494932174682617
1763693330169161500,6.975161376953125,1.3511782884597778,-1.6346321105957031,1.344970703125
1763693330179241500,6.985241455078125,1.2906157970428467,-1.675905704498291,0.9456520080566406
1763693330189321500,6.995321533203125,1.3886089324951172,-1.9088035821914673,0.6965436935424805
1763693330199417000,7.0054169921875,1.5070701837539673,-2.0910215377807617,0.3896217346191406
1763693330209497000,7.0154970703125,1.7482738494873047,-1.946415901184082,0.5917072296142578
1763693330219577000,7.0255771484375,2.0328478813171387,-1.360711932182312,1.5813188552856445
1763693330229657900,7.035657958984375,2.336522340774536,-0.6905391216278076,2.2056922912597656
1763693330239737900,7.04573779296875,2.5029349327087402,-0.17137151956558228,2.661304473876953
1763693330249817900,7.05581787109375,2.6003360748291016,-0.0999983549118042,2.9836959838867188
1763693330259943200,7.065943115234375,2.381918430328369,-0.5161900520324707,3.0449953079223633
1763693330270023200,7.076023193359375,1.9554425477981567,-1.004428505897522,3.0838065147399902
1763693330280103200,7.086103271484375,1.335599660873413,-1.252845287322998,2.9116568565368652
1763693330290136800,7.09613671875,0.5973252058029175,-1.1873767375946045,2.519082546234131
1763693330300216800,7.106216796875,0.10036969184875488,-1.0959570407867432,2.1918368339538574
1763693330310296800,7.116296875,-0.04939591884613037,-0.8724502325057983,1.7047443389892578
1763693330320327200,7.1263271484375,0.048187851905822754,-0.24885106086730957,1.1428556442260742
1763693330330407200,7.1364072265625,0.26246869564056396,0.33973824977874756,1.2010583877563477
1763693330340487200,7.146487060546875,0.4039005637168884,0.5972556471824646,1.7694940567016602
1763693330350555400,7.156555419921875,0.5588295459747314,1.0315015316009521,2.4374823570251465
1763693330360635400,7.166635498046875,0.763178288936615,1.4529409408569336,3.030947685241699
1763693330370715400,7.17671533203125,0.9834916591644287,1.0387260913848877,3.635922431945801
1763693330380859400,7.186859375,1.2359557151794434,1.3338158130645752,3.8373732566833496
1763693330390939400,7.196939453125,1.1830439567565918,1.4728634357452393,3.708259105682373
1763693330401019400,7.207019287109375,0.8760669231414795,1.3910489082336426,3.157918930053711
1763693330411068400,7.217068359375,0.5547919273376465,1.4871025085449219,2.6219005584716797
1763693330421148400,7.2271484375,0.3757205605506897,1.6098569631576538,2.5562596321105957
1763693330431228400,7.237228515625,0.2408481240272522,1.9820091724395752,2.592069625854492
1763693330441891800,7.247891845703125,0.2969525456428528,2.519908905029297,2.4074974060058594
1763693330451971800,7.257971923828125,0.5823822617530823,2.9410130977630615,1.9012489318847656
1763693330462051800,7.2680517578125,0.8501112461090088,3.111084461212158,0.8362693786621094
1763693330472174000,7.278174072265625,0.9291592836380005,2.9618327617645264,-0.5454559326171875
1763693330482254000,7.288254150390625,0.6300598382949829,2.5697031021118164,-1.3040828704833984
1763693330492334000,7.298333984375,0.038528621196746826,2.226160764694214,-1.1890382766723633
1763693330502414300,7.308414306640625,-0.572160005569458,2.1383676528930664,-0.6513051986694336
1763693330512494300,7.318494384765625,-0.9953989386558533,2.3045411109924316,-0.3407096862792969
1763693330532071200,7.3380712890625,-0.9207302331924438,2.377035617828369,-0.700078010559082
1763693330542151200,7.348151123046875,-0.2807197868824005,2.2770700454711914,-1.3322649002075195
1763693330552231200,7.358231201171875,0.5947015285491943,2.305563449859619,-1.7623939514160156
1763693330562890500,7.368890380859375,0.8582165241241455,2.1492576599121094,-1.5712203979492188
1763693330572970500,7.378970458984375,0.6172558665275574,1.7679314613342285,-1.615208625793457
1763693330583050500,7.389050537109375,0.14150837063789368,1.3441781997680664,-2.4858407974243164
1763693330602587600,7.408587646484375,-0.588194727897644,0.24017834663391113,-2.461554527282715
1763693330612667600,7.418667724609375,-0.256671667098999,-0.08210718631744385,-1.7102222442626953
1763693330622775800,7.42877587890625,0.13234886527061462,-0.23753249645233154,-0.6233129501342773
1763693330632855800,7.438855712890625,-0.2292424589395523,-0.41775864362716675,-0.2005453109741211
1763693330642935600,7.448935546875,-0.23069600760936737,-1.4353129863739014,0.33586883544921875
1763693330653043000,7.45904296875,-0.6623212099075317,-1.582982063293457,0.17877960205078125
1763693330663123000,7.469123046875,-0.8099738359451294,-1.7532764673233032,-0.10304832458496094
1763693330673203000,7.479202880859375,-0.2815946936607361,-1.9279451370239258,-0.832432746887207
1763693330683259600,7.489259765625,-0.021354883909225464,-2.220335006713867,-1.4234800338745117
1763693330693339400,7.49933935546875,0.17182660102844238,-2.4679582118988037,-1.5786266326904297
1763693330703419400,7.50941943359375,0.4569556415081024,-2.6768484115600586,-1.387721061706543
1763693330713488400,7.51948828125,0.3379683792591095,-3.0001325607299805,-1.2888431549072266
1763693330723568000,7.529568115234375,0.0731896162033081,-3.0073165893554688,-0.8396472930908203
1763693330733648100,7.539648193359375,0.05328458547592163,-2.969769239425659,-0.2515678405761719
1763693330743722200,7.54972216796875,-0.02043205499649048,-2.890157699584961,0.06845474243164062
1763693330753802200,7.55980224609375,0.6101847887039185,-2.695256471633911,0.4463691711425781
1763693330763882000,7.569882080078125,0.3695804476737976,-2.070957899093628,0.617741584777832
1763693330773949400,7.579949462890625,0.3190964460372925,-2.0621042251586914,0.876835823059082
1763693330784029400,7.590029541015625,0.4914173483848572,-1.6808513402938843,0.87646484375
1763693330794109400,7.600109375,0.6364337205886841,-1.2754786014556885,1.0212602615356445
1763693330804201700,7.61020166015625,0.4676856994628906,-0.9999682307243347,1.3015985488891602
1763693330814281700,7.62028173828125,0.18300563097000122,-0.8355158567428589,1.480443000793457
1763693330824361700,7.63036181640625,-0.07440721988677979,-0.6668117642402649,1.6316194534301758
1763693330834434000,7.64043408203125,-0.037153005599975586,0.15775316953659058,2.2328920364379883
1763693330844513800,7.650513671875,-0.4378706216812134,0.4666905999183655,2.333059787750244
1763693330854593800,7.66059375,-0.8173366785049438,0.16446298360824585,1.5213804244995117
1763693330864651000,7.670651123046875,-2.482539176940918,-0.21733832359313965,0.9212026596069336
1763693330874730800,7.680730712890625,-1.3402482271194458,0.581732988357544,0.7374715805053711
1763693330884810800,7.690810791015625,-0.7954614162445068,1.3614685535430908,1.3460884094238281
1763693330894938000,7.700938232421875,-0.9134225845336914,1.5872117280960083,1.9815645217895508
1763693330905018000,7.71101806640625,-0.5545586347579956,1.9000072479248047,2.201183319091797
1763693330915097900,7.721097900390625,-0.24491536617279053,1.6358323097229004,2.282437801361084
1763693330925184300,7.731184326171875,-0.02153468132019043,1.756110429763794,2.7369608879089355
1763693330935264300,7.74126416015625,-0.09977138042449951,2.018918514251709,2.78165340423584
1763693330945344300,7.75134423828125,-0.8157025575637817,2.2072770595550537,2.5762195587158203
1763693330955383300,7.76138330078125,-1.7664810419082642,2.8183655738830566,2.2867231369018555
1763693330965463300,7.77146337890625,-2.06585693359375,3.3000996112823486,1.9208564758300781
1763693330975543300,7.781543212890625,-1.6886934041976929,3.3100197315216064,1.963113784790039
1763693330985655300,7.7916552734375,-1.037584900856018,2.7317800521850586,1.8355140686035156
1763693330995735300,7.8017353515625,-0.631934404373169,2.6455068588256836,1.1679410934448242
1763693331005815300,7.811815185546875,-0.7774248123168945,2.185349464416504,0.6615276336669922
1763693331015900000,7.82189990234375,-1.1676254272460938,1.835752010345459,0.3813495635986328
1763693331025979600,7.831979736328125,-1.5304118394851685,1.828835129737854,-0.2658538818359375
1763693331036059600,7.8420595703125,-1.5495696067810059,1.8602300882339478,-1.0377216339111328
1763693331046144800,7.852144775390625,-1.3364707231521606,1.880720853805542,-1.5275545120239258
1763693331056224800,7.862224853515625,-1.006238341331482,1.7541598081588745,-1.8156490325927734
1763693331066304800,7.8723046875,-0.3435783386230469,1.3056020736694336,-1.9196357727050781
1763693331076369400,7.882369384765625,0.6623692512512207,0.7776813507080078,-2.1281824111938477
1763693331086449200,7.89244921875,0.9945842027664185,0.2503543496131897,-2.168280601501465
1763693331096529200,7.902529052734375,1.1267900466918945,0.014478027820587158,-2.280449867248535
1763693331106630100,7.912630126953125,1.0664610862731934,0.0028311610221862793,-2.278932571411133
1763693331116710000,7.9227099609375,0.9193252325057983,0.03028106689453125,-2.2194814682006836
1763693331126790000,7.932789794921875,0.9603275060653687,-0.2117077112197876,-2.298029899597168
1763693331136871000,7.942870849609375,0.964436948299408,-0.5031037926673889,-2.511326789855957
1763693331146951000,7.952950927734375,1.2582554817199707,-0.602367639541626,-2.8754329681396484
1763693331157031000,7.963031005859375,2.020944595336914,-0.5901666283607483,-3.147963523864746
1763693331177186800,7.983186767578125,2.3100054264068604,-0.7720703482627869,-3.044156074523926
1763693331187266800,7.993266845703125,1.8182954788208008,-0.9383474588394165,-2.5193252563476562
1763693331197336000,8.003336181640625,1.6871615648269653,-1.1914602518081665,-1.8409614562988281
1763693331207416000,8.013416015625,1.8785314559936523,-1.3519043922424316,-1.0501766204833984
1763693331217496000,8.02349609375,2.2003841400146484,-1.728671908378601,-0.29535579681396484
1763693331227552500,8.033552490234374,2.3029611110687256,-1.6602373123168945,-0.32372093200683594
1763693331237632500,8.043632568359374,2.081789970397949,-1.7304279804229736,-0.20104312896728516
1763693331247712300,8.053712158203124,1.6381337642669678,-1.7801835536956787,-0.2698354721069336
1763693331257813200,8.063813232421875,1.0829362869262695,-1.4571988582611084,0.07455635070800781
1763693331267893200,8.073893310546875,0.9867613315582275,-1.588719367980957,0.25738048553466797
1763693331277973200,8.08397314453125,1.2455381155014038,-1.5703632831573486,0.3568992614746094
1763693331288054800,8.0940546875,1.640998125076294,-1.4535572528839111,1.0987825393676758
1763693331298134800,8.104134765625,2.1162283420562744,-1.3583335876464844,2.1587209701538086
1763693331308214800,8.11421484375,2.5994622707366943,-1.4663511514663696,3.010387420654297
1763693331318265900,8.124265869140626,2.737295150756836,-1.868957757949829,3.5371222496032715
1763693331328345600,8.134345703125,2.5052428245544434,-2.2685043811798096,4.034743785858154
1763693331338425600,8.144425537109376,2.3318114280700684,-2.274576187133789,4.533171653747559
1763693331348530200,8.1545302734375,2.561290979385376,-1.8650788068771362,5.2198920249938965
1763693331358610200,8.164610107421876,2.645167350769043,-1.7281485795974731,5.780952453613281
1763693331368690200,8.174690185546876,2.6946253776550293,-1.7071937322616577,6.197512626647949
1763693331378782500,8.184782470703125,2.6041927337646484,-1.767446517944336,6.453360557556152
1763693331388862500,8.194862548828125,2.406318187713623,-1.8082658052444458,6.75016975402832
1763693331398942200,8.204942138671875,2.2435569763183594,-2.114595413208008,6.863884925842285
1763693331409006800,8.2150068359375,1.9845263957977295,-2.6760048866271973,6.789505481719971
1763693331419086800,8.2250869140625,1.464807391166687,-3.4628894329071045,6.543961048126221
1763693331429166600,8.23516650390625,0.8393583297729492,-4.3342084884643555,6.380751609802246
1763693331439222300,8.24522216796875,0.5900812149047852,-4.926315784454346,6.385627746582031
1763693331449302300,8.25530224609375,1.0517728328704834,-4.992386817932129,6.538985252380371
1763693331459382300,8.26538232421875,1.5642340183258057,-4.67561149597168,6.7112345695495605
1763693331469441300,8.275441162109376,1.679283618927002,-4.5239739418029785,7.137312889099121
1763693331479521300,8.285521240234376,1.6172301769256592,-4.724049091339111,7.259803771972656
1763693331489601000,8.29560107421875,1.640127182006836,-5.114589691162109,6.986908912658691
1763693331499716600,8.305716552734374,1.568868637084961,-5.399401664733887,6.338974952697754
1763693331509796600,8.315796630859374,1.0982332229614258,-5.653738975524902,5.421478271484375
1763693331519876600,8.325876708984374,0.33642005920410156,-5.934632301330566,4.306253433227539
1763693331529974500,8.335974609375,-0.08496236801147461,-6.016387939453125,2.8244142532348633
1763693331540054500,8.346054443359375,0.1780238151550293,-5.858074188232422,1.1063404083251953
1763693331550134500,8.356134521484375,0.7240095138549805,-5.363753318786621,-0.5502333641052246
1763693331560295400,8.36629541015625,1.156804084777832,-4.466146945953369,-1.9115118980407715
1763693331570375400,8.37637548828125,1.5144009590148926,-3.6187968254089355,-3.0172996520996094
1763693331580455400,8.386455322265626,2.0091891288757324,-3.17171573638916,-3.743253707885742
1763693331590466300,8.39646630859375,2.268101692199707,-3.163764476776123,-4.153890132904053
1763693331600546300,8.40654638671875,2.192798614501953,-3.3037350177764893,-4.4596991539001465
1763693331610626300,8.416626220703124,1.921098232269287,-3.2875852584838867,-5.00965690612793
1763693331620706300,8.426706298828124,1.6692156791687012,-3.0766806602478027,-5.948359966278076
1763693331630745600,8.43674560546875,1.444244384765625,-2.6963038444519043,-7.127039909362793
1763693331640825600,8.44682568359375,1.52970552444458,-2.1218442916870117,-8.633047103881836
1763693331650905600,8.456905517578125,2.0198988914489746,-1.5029410123825073,-10.218544960021973
1763693331661580800,8.467580810546876,2.4219789505004883,-0.8216183185577393,-11.159196853637695
1763693331671660800,8.477660888671876,2.550987720489502,0.01327657699584961,-11.215490341186523
1763693331681740800,8.48774072265625,2.474459171295166,0.9488614797592163,-10.47700309753418
1763693331701303000,8.507302978515625,2.762213706970215,2.1982812881469727,-9.610140800476074
1763693331711383000,8.517383056640625,3.2046074867248535,2.5223755836486816,-9.253783226013184
1763693331721440000,8.52743994140625,3.658534049987793,2.615055799484253,-8.963969230651855
1763693331731520000,8.53752001953125,4.1458330154418945,2.8150081634521484,-8.838752746582031
1763693331741600000,8.54760009765625,4.05832576751709,3.292005777359009,-8.65622615814209
1763693331752303400,8.558303466796875,3.6727118492126465,4.374405860900879,-8.60811996459961
1763693331762383400,8.56838330078125,3.5360894203186035,5.175985336303711,-8.924018859863281
1763693331772463400,8.57846337890625,3.5644025802612305,5.480877876281738,-9.1427001953125
1763693331782528500,8.588528564453124,3.607109546661377,6.275946617126465,-8.738649368286133
1763693331802688500,8.6086884765625,3.1017065048217773,6.563201904296875,-7.770500183105469
1763693331812796000,8.6187958984375,2.8970913887023926,6.608019828796387,-7.4077324867248535
1763693331822876000,8.6288759765625,2.667585849761963,6.608855247497559,-7.252326011657715
1763693331832956000,8.638955810546875,2.4541115760803223,6.674478530883789,-7.134146690368652
1763693331852503000,8.6585029296875,2.0750842094421387,6.8720703125,-6.521160125732422
1763693331862583000,8.6685830078125,1.859250545501709,7.120009422302246,-5.868973731994629
1763693331872658700,8.67865869140625,1.8066353797912598,7.2701263427734375,-5.150763511657715
1763693331882738700,8.68873876953125,1.8131699562072754,7.303974151611328,-4.400772571563721
1763693331892818700,8.698818603515624,1.736401081085205,7.200927734375,-3.5367355346679688
1763693331902939600,8.708939697265626,1.5673699378967285,6.929988861083984,-2.7032370567321777
1763693331913019600,8.71901953125,1.4223642349243164,6.659619331359863,-1.8071098327636719
1763693331923099600,8.729099609375,1.3526859283447266,6.42281436920166,-0.7592158317565918
1763693331933132300,8.73913232421875,1.2621197700500488,6.106339454650879,0.31402015686035156
1763693331943212300,8.74921240234375,1.2840790748596191,5.639095306396484,1.2923192977905273
1763693331953292300,8.759292236328125,1.3089618682861328,5.081892967224121,1.9121365547180176
1763693331963400200,8.769400146484376,1.133500576019287,4.45924186706543,2.1233959197998047
1763693331973480200,8.779480224609374,0.8171601295471191,3.8784806728363037,2.2238407135009766
1763693331983560200,8.789560302734374,0.5495758056640625,3.3014771938323975,2.249556541442871
1763693331993606700,8.799606689453125,0.3962254524230957,2.5400753021240234,2.088632106781006
1763693332003686700,8.809686767578125,0.23514604568481445,1.7717822790145874,2.076505661010742
1763693332013766700,8.8197666015625,0.1010589599609375,1.0697376728057861,2.129063129425049
1763693332023887600,8.8298876953125,0.09311294555664062,0.25673437118530273,2.0123796463012695
1763693332033967600,8.839967529296874,0.15046119689941406,-0.5679714679718018,1.758061408996582
1763693332044047600,8.850047607421875,0.10829830169677734,-1.3564443588256836,1.3537840843200684
1763693332054103000,8.86010302734375,0.10438156127929688,-2.0666494369506836,0.9363460540771484
1763693332064183000,8.87018310546875,0.0757904052734375,-2.711019515991211,0.6318001747131348
1763693332074263000,8.880262939453125,0.011139392852783203,-3.267246723175049,0.4551277160644531
1763693332084356600,8.890356689453125,0.09754800796508789,-3.8273329734802246,0.39602088928222656
1763693332094436600,8.9004365234375,0.3505682945251465,-4.4071550369262695,0.1849679946899414
1763693332104516600,8.9105166015625,0.5241022109985352,-5.015446186065674,-0.14524507522583008
1763693332114604500,8.9206044921875,0.555419921875,-5.4784135818481445,-0.4205493927001953
1763693332124684500,8.9306845703125,0.6383681297302246,-5.810256481170654,-0.6167945861816406
1763693332134764500,8.9407646484375,0.6303749084472656,-6.07180118560791,-0.6871709823608398
1763693332144847600,8.95084765625,0.42887210845947266,-6.322845935821533,-0.6006078720092773
1763693332154927600,8.960927734375,0.09729623794555664,-6.617114543914795,-0.34423112869262695
1763693332165007600,8.971007568359376,-0.21187973022460938,-6.9261884689331055,-0.10482931137084961
1763693332175077400,8.981077392578126,-0.3211655616760254,-7.370593070983887,-0.052884578704833984
1763693332185157400,8.991157470703126,-0.3606691360473633,-7.912895202636719,-0.2185678482055664
1763693332195237400,9.0012373046875,-0.7126398086547852,-8.150278091430664,-0.31586742401123047
1763693332205335600,9.01133544921875,-1.3451948165893555,-8.038363456726074,-0.23703575134277344
1763693332215415600,9.02141552734375,-1.7889642715454102,-7.863463401794434,-0.12056684494018555
1763693332225495600,9.03149560546875,-1.7936453819274902,-7.852884769439697,-0.16283082962036133
1763693332235564000,9.04156396484375,-1.3344783782958984,-8.003152847290039,-0.11088943481445312
1763693332245644000,9.05164404296875,-0.5982623100280762,-8.567384719848633,0.03305959701538086
1763693332255724000,9.06172412109375,-0.07030630111694336,-7.97580099105835,0.20772838592529297
1763693332265791500,9.07179150390625,0.37389707565307617,-8.24519157409668,0.4446563720703125
1763693332275871500,9.08187158203125,0.5004181861877441,-8.444705963134766,0.6453804969787598
1763693332285951500,9.091951416015625,0.04551553726196289,-7.968173027038574,1.1036505699157715
1763693332296014600,9.1020146484375,-0.49875640869140625,-7.217265605926514,1.4536457061767578
1763693332306094600,9.112094482421876,-0.7837748527526855,-6.578648567199707,1.3310279846191406
1763693332316174600,9.122174560546876,-0.48174476623535156,-6.121993064880371,0.8963122367858887
1763693332326283800,9.13228369140625,-0.07811832427978516,-5.844258785247803,0.49083900451660156
1763693332336363800,9.14236376953125,0.267153263092041,-5.578291416168213,0.2105388641357422
1763693332346443800,9.15244384765625,0.5957913398742676,-5.317177772521973,-0.032083988189697266
1763693332356506000,9.162506103515625,0.8094711303710938,-5.107713222503662,0.049569129943847656
1763693332366586000,9.172586181640625,0.8555707931518555,-4.934410095214844,0.3877735137939453
1763693332376666000,9.182666015625,0.7197937965393066,-4.748836517333984,0.6636176109313965
1763693332386761500,9.192761474609375,0.37164831161499023,-4.393611907958984,0.955195426940918
1763693332396841500,9.202841552734375,-0.06909751892089844,-3.868312358856201,1.306624412536621
1763693332406921500,9.21292138671875,-0.47838401794433594,-3.3372936248779297,1.5201916694641113
1763693332416995300,9.222995361328126,-0.9574213027954102,-2.8416600227355957,1.7300143241882324
1763693332427075300,9.233075439453126,-1.3791179656982422,-2.347358465194702,1.9052414894104004
1763693332437155300,9.2431552734375,-1.7069482803344727,-1.8049697875976562,2.013683319091797
1763693332447249400,9.25324951171875,-1.957775592803955,-1.177720546722412,2.0333404541015625
1763693332457329400,9.263329345703125,-2.0649290084838867,-0.5682580471038818,1.9740290641784668
1763693332467409400,9.273409423828125,-2.0842089653015137,-0.04628300666809082,1.9851369857788086
1763693332477472000,9.283471923828126,-2.0085182189941406,0.38164591789245605,2.120971202850342
1763693332487552000,9.293552001953126,-1.8889884948730469,0.8258235454559326,2.0828042030334473
1763693332497632000,9.303632080078126,-1.8497271537780762,1.1611793041229248,2.0530967712402344
1763693332507712800,9.313712646484374,-1.787984848022461,1.4478182792663574,2.028075695037842
1763693332517792800,9.323792724609374,-1.792158603668213,1.7807116508483887,1.9036712646484375
1763693332527872800,9.333872802734374,-1.6862130165100098,2.031416416168213,1.5424437522888184
1763693332537933000,9.34393310546875,-1.3517732620239258,2.1589508056640625,0.8973712921142578
1763693332548013000,9.354012939453124,-0.887977123260498,2.3216824531555176,0.15886735916137695
1763693332558093000,9.364093017578124,-0.532172679901123,2.5774669647216797,-0.5530838966369629
1763693332568187000,9.374186767578125,-0.24028873443603516,2.8180928230285645,-1.0581402778625488
1763693332578267100,9.38426708984375,0.1654529571533203,2.9954891204833984,-1.6160740852355957
1763693332588347000,9.394346923828126,0.6808671951293945,3.1444790363311768,-2.124406337738037
1763693332598458400,9.404458251953125,1.354867935180664,3.2717130184173584,-2.6290602684020996
1763693332608538400,9.414538330078125,1.9718952178955078,3.323354482650757,-3.085479259490967
1763693332618618400,9.424618408203125,2.4491524696350098,3.3438000679016113,-3.4623942375183105
1763693332628653000,9.434653076171875,2.835092067718506,3.340428590774536,-3.8019237518310547
1763693332638733000,9.444733154296875,2.999630928039551,3.360529899597168,-4.247263431549072
1763693332648813000,9.45481298828125,3.102724552154541,3.3672702312469482,-4.737594127655029
1763693332658897200,9.464897216796874,3.2813849449157715,3.5600552558898926,-5.184423446655273
1763693332668977200,9.47497705078125,3.577301025390625,3.7808995246887207,-5.49574089050293
1763693332679057200,9.48505712890625,3.7952513694763184,4.082810401916504,-5.628171443939209
1763693332689140700,9.495140625,3.8686156272888184,4.531875133514404,-5.793854236602783
1763693332699220700,9.505220703125,3.9816136360168457,4.988796234130859,-6.008638381958008
1763693332709300700,9.51530078125,4.2975754737854,5.240383625030518,-6.3274102210998535
1763693332719408600,9.52540869140625,4.644635200500488,5.326651573181152,-6.615705490112305
1763693332729488600,9.535488525390624,4.6568217277526855,5.49056339263916,-6.864421367645264
1763693332739568600,9.545568603515624,4.294766902923584,5.904890060424805,-6.886712074279785
1763693332749638100,9.55563818359375,3.700704574584961,6.351957321166992,-6.582428932189941
1763693332759718100,9.56571826171875,3.5191540718078613,6.440402030944824,-6.262715816497803
1763693332769798100,9.575798095703124,3.8243517875671387,6.119370460510254,-6.135658264160156
1763693332779900200,9.585900146484375,4.2899956703186035,5.026876926422119,-5.84827184677124
1763693332789980200,9.595980224609375,4.659887313842773,4.120518684387207,-5.808645725250244
1763693332800060200,9.60606005859375,4.507418632507324,3.91208815574646,-6.275812149047852
1763693332810120000,9.616119873046875,3.7233448028564453,3.915334463119507,-6.686745643615723
1763693332820200000,9.626199951171875,2.7923789024353027,4.195796966552734,-6.985629081726074
1763693332830280000,9.636280029296875,2.1315083503723145,4.484261989593506,-7.022890567779541
1763693332840343600,9.646343505859376,1.6877598762512207,4.456618309020996,-6.869776725769043
1763693332850423600,9.656423583984376,1.3616714477539062,4.1613922119140625,-6.495611190795898
1763693332860503600,9.666503662109376,1.2033905982971191,3.6054189205169678,-6.037410259246826
1763693332871159000,9.677158935546874,1.0876259803771973,3.0252909660339355,-5.611165523529053
1763693332881239000,9.687239013671874,0.8473968505859375,2.4606077671051025,-5.148624420166016
1763693332900835300,9.70683544921875,0.21458005905151367,1.6892640590667725,-4.593548774719238
1763693332920995300,9.726995361328125,0.09603691101074219,0.950477123260498,-4.618907928466797
1763693332931063600,9.7370634765625,-0.07062387466430664,0.7904481887817383,-4.443572521209717
1763693332941143600,9.7471435546875,-0.26250553131103516,0.7781600952148438,-4.024576187133789
1763693332951223600,9.7572236328125,-0.38057565689086914,0.8261079788208008,-3.450716972351074
1763693332961314600,9.767314453125,-0.3594632148742676,0.7653257846832275,-2.901458263397217
1763693332971394600,9.77739453125,-0.41222381591796875,0.6034567356109619,-2.357412815093994
1763693332981474600,9.787474609375,-0.5719361305236816,0.4882326126098633,-1.7857089042663574
1763693332991551500,9.797551513671875,-0.690277099609375,0.30216526985168457,-1.3460755348205566
1763693333011711500,9.81771142578125,-0.7221174240112305,-0.287355899810791,-0.7097525596618652
1763693333021791500,9.82779150390625,-0.5654888153076172,-0.8421686887741089,-0.4513678550720215
1763693333032439000,9.83843896484375,-0.6268720626831055,-1.051774263381958,0.12549734115600586
1763693333042519000,9.84851904296875,-0.8754439353942871,-2.220397472381592,0.9873785972595215
1763693333052599000,9.85859912109375,-1.02793550491333,-3.078106164932251,1.7386837005615234
1763693333062702800,9.868702880859376,-1.1681523323059082,-3.176417827606201,2.486522674560547
1763693333072782800,9.878782958984376,-1.2972793579101562,-3.834965229034424,3.1425442695617676
1763693333082862800,9.88886279296875,-1.522984504699707,-4.388072967529297,3.593167543411255
1763693333102440000,9.90843994140625,-2.0571045875549316,-4.846681118011475,4.2154340744018555
1763693333112520000,9.91852001953125,-2.1650757789611816,-5.127016067504883,4.242897033691406
1763693333122582500,9.92858251953125,-2.2071890830993652,-5.370347499847412,4.05925178527832
1763693333132662500,9.93866259765625,-2.2719693183898926,-5.287994861602783,3.8194024562835693
1763693333142742500,9.948742431640625,-2.3687915802001953,-5.080879211425781,3.584505796432495
1763693333152838100,9.958838134765625,-2.2100391387939453,-5.058901786804199,3.088259220123291
1763693333162918100,9.968918212890625,-1.9464969635009766,-5.151900291442871,2.4749631881713867
1763693333172998100,9.978998046875,-1.704714298248291,-5.454411029815674,1.7804455757141113
1763693333193129200,9.999129150390624,-1.5591182708740234,-6.155472755432129,0.2583003044128418
1763693333203209200,10.009209228515624,-1.7078595161437988,-6.496212482452393,-0.18126964569091797
1763693333213318000,10.01931787109375,-1.7527718544006348,-6.697839736938477,-0.4525008201599121
1763693333223398000,10.02939794921875,-1.6993584632873535,-6.941895961761475,-0.779998779296875
1763693333233478000,10.039477783203125,-1.619278907775879,-7.1094489097595215,-0.9430723190307617
1763693333243561500,10.0495615234375,-1.4545035362243652,-7.274337291717529,-1.2740058898925781
1763693333253641500,10.059641357421874,-1.242861270904541,-7.431075572967529,-1.458944320678711
1763693333263721500,10.069721435546874,-1.1127967834472656,-7.644654273986816,-1.2417593002319336
1763693333273756700,10.079756591796874,-1.0689949989318848,-7.762549877166748,-0.7761330604553223
1763693333283836700,10.089836669921874,-0.9609436988830566,-7.781678199768066,-0.15566635131835938
1763693333293916700,10.099916748046875,-0.705296516418457,-7.949443817138672,0.42153215408325195
1763693333303993600,10.10999365234375,-0.41329097747802734,-8.127928733825684,0.7354922294616699
1763693333314073600,10.120073486328126,0.3074178695678711,-8.329233169555664,0.5540661811828613
1763693333324153600,10.130153564453124,1.4216418266296387,-8.672269821166992,-0.10499191284179688
1763693333334243600,10.14024365234375,2.320157051086426,-8.996089935302734,-0.8172154426574707
1763693333344323600,10.150323486328125,2.5846495628356934,-8.967170715332031,-1.295219898223877
1763693333354403600,10.160403564453125,2.1484460830688477,-8.459664344787598,-1.498884677886963
1763693333364527600,10.170527587890625,1.4288301467895508,-7.614211082458496,-1.530362606048584
1763693333374607600,10.180607666015625,0.8737878799438477,-6.4790802001953125,-1.436025619506836
1763693333384687600,10.1906875,0.7069659233093262,-5.3925347328186035,-1.2563657760620117
1763693333394770200,10.200770263671876,0.8585352897644043,-4.597618103027344,-1.0447015762329102
1763693333404850200,10.21085009765625,1.0750994682312012,-4.018331050872803,-0.8030414581298828
1763693333414930200,10.22093017578125,1.210397720336914,-3.634841203689575,-0.6439528465270996
1763693333424933600,10.23093359375,1.223966121673584,-3.4344682693481445,-0.5645265579223633
1763693333435013600,10.241013671875,1.1234345436096191,-3.3270161151885986,-0.4354267120361328
1763693333445093600,10.25109375,0.908113956451416,-3.323554039001465,-0.23417329788208008
1763693333455237600,10.261237548828126,0.5750689506530762,-3.22756290435791,-0.0345911979675293
1763693333465317600,10.271317626953126,0.18352890014648438,-2.9860126972198486,0.21654796600341797
1763693333475397600,10.281397705078126,-0.20407533645629883,-2.639413833618164,0.4896707534790039
1763693333485463000,10.291463134765625,-0.5931782722473145,-2.157543659210205,0.8074750900268555
1763693333495543000,10.30154296875,-1.0815281867980957,-1.564736247062683,1.1527667045593262
1763693333505623000,10.311623046875,-1.386117935180664,-0.9985918998718262,1.4017853736877441
1763693333515730000,10.32172998046875,-1.502004623413086,-0.4152641296386719,1.3999409675598145
1763693333525810000,10.331809814453125,-1.722205638885498,0.19005393981933594,1.4368376731872559
1763693333545969200,10.35196923828125,-2.228923797607422,1.0787301063537598,1.6797285079956055
1763693333556049200,10.362049072265625,-2.154232978820801,1.4071646928787231,1.641770362854004
1763693333566129200,10.372129150390625,-1.8802428245544434,1.8174973726272583,1.522843837738037
1763693333576201000,10.382200927734376,-1.766099452972412,2.092859983444214,1.4745302200317383
1763693333586281000,10.392281005859376,-1.7752346992492676,2.2431137561798096,1.5859379768371582
1763693333596361000,10.40236083984375,-1.6443915367126465,2.300621509552002,1.6611742973327637
1763693333606423600,10.412423583984374,-1.5551652908325195,2.4094161987304688,1.568202018737793
1763693333616503300,10.42250341796875,-1.3210935592651367,2.593950033187866,1.2053227424621582
1763693333626583300,10.432583251953124,-0.8061647415161133,2.8715503215789795,0.49059534072875977
1763693333636640800,10.442640869140625,-0.4804210662841797,2.9907259941101074,-0.25733518600463867
1763693333646720800,10.452720703125,-0.2147054672241211,2.7651450634002686,-0.7806687355041504
1763693333656800800,10.46280078125,0.0019865036010742188,2.4594295024871826,-1.1932859420776367
1763693333666902800,10.47290283203125,0.14400959014892578,2.4592015743255615,-1.6541385650634766
1763693333676982800,10.482982666015625,0.3857898712158203,2.626936435699463,-2.317260265350342
1763693333697131500,10.503131591796874,1.2142438888549805,2.6166481971740723,-3.942075729370117
1763693333707211500,10.51321142578125,1.7231593132019043,2.489727735519409,-4.670742034912109
1763693333717291500,10.52329150390625,2.336455821990967,2.6236655712127686,-5.329737663269043
1763693333727399200,10.533399169921875,2.756046772003174,2.919123649597168,-5.601522922515869
1763693333737479200,10.543479248046875,3.0215916633605957,3.314114809036255,-5.631950855255127
1763693333747559000,10.553558837890625,3.2530760765075684,3.7972073554992676,-5.830881118774414
1763693333757636400,10.56363623046875,3.4852523803710938,4.451157093048096,-6.260854244232178
1763693333767716400,10.57371630859375,3.738321304321289,5.094027042388916,-6.6668925285339355
1763693333777796400,10.58379638671875,4.116894245147705,5.496901512145996,-7.03976583480835
1763693333787858400,10.5938583984375,4.4774675369262695,5.708676338195801,-7.548256874084473
1763693333797938200,10.603938232421875,4.4203314781188965,6.120263576507568,-7.866928577423096
1763693333808018200,10.61401806640625,3.9040989875793457,6.67369270324707,-7.618674278259277
1763693333818105300,10.624105224609375,3.5571365356445312,7.009612083435059,-7.058022499084473
1763693333828185300,10.634185302734375,3.7719359397888184,6.973612308502197,-6.622435092926025
1763693333838265300,10.644265380859375,4.400166988372803,6.62510871887207,-6.321197986602783
1763693333848344800,10.6543447265625,5.021063327789307,5.951276779174805,-5.9344401359558105
1763693333858424800,10.6644248046875,5.383853435516357,5.0827956199646,-5.454493045806885
1763693333868504800,10.6745048828125,5.450634956359863,4.324314117431641,-5.127700328826904
1763693333878539300,10.684539306640625,5.0608415603637695,3.8558926582336426,-5.048106670379639
1763693333888619300,10.694619384765625,4.298567771911621,3.797961473464966,-5.139492034912109
1763693333898699300,10.70469921875,3.5072693824768066,4.045741081237793,-5.326038837432861
1763693333908843000,10.714843017578126,2.824155807495117,4.3083624839782715,-5.3241071701049805
1763693333918923000,10.724923095703126,2.4408931732177734,4.320089340209961,-4.990329742431641
1763693333929003000,10.7350029296875,2.285747528076172,4.091120719909668,-4.517326354980469
1763693333939058700,10.74505859375,2.0541763305664062,3.6404144763946533,-3.9640579223632812
1763693333949138700,10.755138671875,1.8514328002929688,2.9665274620056152,-3.5643367767333984
1763693333959218400,10.765218505859375,1.7044448852539062,2.1726303100585938,-3.42738676071167
1763693333969281300,10.77528125,1.4400982856750488,1.4824073314666748,-3.3298702239990234
1763693333979361300,10.785361328125,1.2079014778137207,0.8554539680480957,-3.21535062789917
1763693333989441300,10.795441162109375,0.9784302711486816,0.338712215423584,-3.1494851112365723
1763693333999575600,10.805575439453126,0.7288122177124023,0.0015311241149902344,-3.030717372894287
1763693334009655300,10.8156552734375,0.3448977470397949,-0.1022791862487793,-2.8067989349365234
1763693334019735300,10.8257353515625,0.04768180847167969,-0.10916423797607422,-2.6187562942504883
1763693334029800200,10.83580029296875,-0.2632865905761719,-0.01848435401916504,-2.451038360595703
1763693334039880200,10.845880126953125,-0.5759735107421875,0.13586974143981934,-2.1373462677001953
1763693334049960200,10.855960205078125,-0.780397891998291,0.27609872817993164,-1.7660236358642578
1763693334059985000,10.86598486328125,-0.8741044998168945,0.3875081539154053,-1.3107328414916992
1763693334070064600,10.876064697265624,-0.9796323776245117,0.5293047428131104,-0.7830982208251953
1763693334080144600,10.88614453125,-1.0987944602966309,0.5895826816558838,-0.35044097900390625
1763693334090278700,10.896278564453125,-1.0619254112243652,0.5563409328460693,-0.05000162124633789
1763693334100358700,10.906358642578125,-1.0747976303100586,0.37288856506347656,0.26116085052490234
1763693334110438700,10.916438720703125,-1.1452407836914062,0.10155439376831055,0.6181802749633789
1763693334120489200,10.9264892578125,-1.1651573181152344,-0.41616547107696533,0.8507571220397949
1763693334130569200,10.9365693359375,-1.2688770294189453,-1.0254123210906982,1.0509233474731445
1763693334140649200,10.946649169921875,-1.449535846710205,-1.5671969652175903,1.259559154510498
1763693334150733000,10.956733154296876,-1.540501594543457,-2.140719175338745,1.4697823524475098
1763693334160813000,10.96681298828125,-1.580080509185791,-2.789985418319702,1.692758560180664
1763693334170893000,10.97689306640625,-1.5528759956359863,-3.3893914222717285,1.91713285446167
1763693334180990500,10.986990478515626,-1.5772643089294434,-3.896411418914795,2.170701503753662
1763693334191070500,10.997070556640624,-1.6027369499206543,-4.3221330642700195,2.4091124534606934
1763693334201150500,11.007150390625,-1.662618637084961,-4.713188648223877,2.6148881912231445
1763693334211205400,11.017205322265625,-1.5775914192199707,-5.092724800109863,2.701448440551758
1763693334221285400,11.027285400390625,-1.4354619979858398,-5.465859413146973,2.674262523651123
1763693334231365400,11.037365478515625,-1.3374533653259277,-5.810711860656738,2.5921010971069336
1763693334241462800,11.047462890625,-1.3009471893310547,-5.942013263702393,2.3626747131347656
1763693334251542800,11.057542724609375,-1.1250109672546387,-5.967933177947998,1.9518561363220215
1763693334271712500,11.07771240234375,-1.008436679840088,-6.039139747619629,1.321497917175293
1763693334281792300,11.087792236328125,-0.7360367774963379,-6.296905517578125,1.1501884460449219
1763693334291872300,11.097872314453125,-0.36602163314819336,-6.558287620544434,0.9152412414550781
1763693334301952300,11.1079521484375,-0.26488685607910156,-6.7071967124938965,0.7205219268798828
1763693334312653300,11.1186533203125,-0.2620515823364258,-6.918821334838867,0.589256763458252
1763693334322733300,11.1287333984375,-0.1561589241027832,-7.23382568359375,0.39397144317626953
1763693334332813000,11.13881298828125,-0.10987281799316406,-7.516912460327148,0.17878246307373047
1763693334342318300,11.148318359375,-0.2976202964782715,-7.673312187194824,0.10527753829956055
1763693334352398000,11.158398193359375,-0.6309981346130371,-7.715453624725342,0.11083984375
1763693334362478000,11.16847802734375,-0.9718904495239258,-7.630420207977295,0.008761882781982422
1763693334372476400,11.178476318359374,-1.1118192672729492,-7.54489278793335,-0.18123292922973633
1763693334382556200,11.18855615234375,-0.8183140754699707,-7.521337509155273,-0.30544519424438477
1763693334392636200,11.19863623046875,-0.052295684814453125,-7.5884833335876465,-0.45860862731933594
1763693334402749000,11.2087490234375,0.684422492980957,-7.671623229980469,-0.6739144325256348
1763693334412828700,11.21882861328125,1.031357765197754,-7.690901756286621,-0.7341442108154297
1763693334422908700,11.22890869140625,0.9571709632873535,-7.544040203094482,-0.7366275787353516
1763693334433008600,11.239008544921875,0.713961124420166,-7.144227981567383,-0.8392314910888672
1763693334443088600,11.249088623046875,0.501314640045166,-6.597221374511719,-1.0606799125671387
1763693334453168600,11.259168701171875,0.30738210678100586,-5.952930450439453,-1.1386899948120117
1763693334463217400,11.269217529296874,0.23339605331420898,-5.271988391876221,-0.9924759864807129
1763693334473297400,11.27929736328125,0.4624929428100586,-4.682057857513428,-0.7385330200195312
1763693334483377400,11.28937744140625,0.7427201271057129,-4.251810073852539,-0.49229001998901367
1763693334493442000,11.299442138671875,0.8627476692199707,-4.03645133972168,-0.252016544342041
1763693334503522000,11.30952197265625,0.7176513671875,-3.984342575073242,-0.046369075775146484
1763693334513602000,11.31960205078125,0.4574422836303711,-4.002997398376465,0.02313518524169922
1763693334523709200,11.329709228515625,0.06844949722290039,-4.031838417053223,0.050098419189453125
1763693334533789200,11.3397890625,-0.498166561126709,-4.021097183227539,-0.02448749542236328
1763693334543869200,11.349869140625,-1.1012043952941895,-3.8760619163513184,-0.05072832107543945
1763693334553903900,11.35990380859375,-1.63737154006958,-3.515674114227295,0.08086442947387695
1763693334563983600,11.369983642578125,-2.082531452178955,-3.013413190841675,0.31380367279052734
1763693334574063600,11.380063720703125,-2.340648651123047,-2.4915037155151367,0.40578794479370117
1763693334584168200,11.390168212890625,-2.542126178741455,-1.8793120384216309,0.409940242767334
1763693334594248200,11.400248291015625,-2.5434160232543945,-1.138549566268921,0.4962153434753418
1763693334604328200,11.410328125,-2.5023422241210938,-0.4627349376678467,0.6195292472839355
1763693334614389000,11.420388916015625,-2.4975109100341797,0.1402912139892578,0.6404271125793457
1763693334624469000,11.430468994140625,-2.4008774757385254,0.6899595260620117,0.5383172035217285
1763693334634549000,11.440549072265625,-2.297132968902588,1.1552808284759521,0.3989448547363281
1763693334644687000,11.45068701171875,-2.207000732421875,1.5898842811584473,0.2702817916870117
1763693334654767000,11.46076708984375,-2.194901466369629,1.9240156412124634,0.20034122467041016
1763693334664846800,11.470846923828125,-2.0649523735046387,2.1214609146118164,0.16978883743286133
1763693334674917000,11.480917236328125,-1.840808391571045,2.3016245365142822,0.26489782333374023
1763693334684997000,11.4909970703125,-1.601374626159668,2.4797582626342773,0.305025577545166
1763693334695077000,11.5010771484375,-1.1775798797607422,2.6282103061676025,0.10541582107543945
1763693334705130800,11.511130859375,-0.6842365264892578,2.7856435775756836,-0.3122081756591797
1763693334715210800,11.521210693359375,-0.21544122695922852,2.92927885055542,-0.7649307250976562
1763693334725290500,11.53129052734375,0.3006911277770996,3.1499621868133545,-1.3552360534667969
1763693334735363800,11.54136376953125,0.7139768600463867,3.280984878540039,-1.9342422485351562
1763693334745443600,11.551443603515626,1.1120471954345703,3.2861733436584473,-2.3699073791503906
1763693334755523600,11.561523681640624,1.5017433166503906,3.1889734268188477,-2.5963072776794434
1763693334765615000,11.571614990234375,1.8045201301574707,3.06638503074646,-2.602728843688965
1763693334775695000,11.581695068359375,2.0114564895629883,2.9730491638183594,-2.5238795280456543
1763693334785774800,11.59177490234375,2.2983059883117676,2.9935004711151123,-2.63419246673584
1763693334795829000,11.6018291015625,2.770207405090332,3.1363937854766846,-3.1478352546691895
1763693334805909000,11.611908935546875,3.2503247261047363,3.2890465259552,-3.815619945526123
1763693334815989000,11.621989013671875,3.540745258331299,3.5367350578308105,-4.419356822967529
1763693334826104000,11.63210400390625,3.707592487335205,3.8132784366607666,-4.820644855499268
1763693334836184000,11.64218408203125,3.7424283027648926,4.0944390296936035,-5.088051795959473
1763693334846263800,11.652263916015626,3.926764965057373,4.339298725128174,-5.305643558502197
1763693334856351000,11.66235107421875,4.212070465087891,4.322802543640137,-5.578184604644775
1763693334866431000,11.672430908203125,4.20206880569458,4.446284770965576,-5.800993919372559
1763693334876510700,11.6825107421875,3.997431755065918,4.901717662811279,-5.927452564239502
1763693334886564400,11.692564453125,3.857572555541992,5.493490219116211,-6.11281681060791
1763693334896644000,11.70264404296875,3.975327491760254,5.83735466003418,-6.164234161376953
1763693334906724000,11.71272412109375,4.550796985626221,5.721395969390869,-6.170229434967041
1763693334916830500,11.72283056640625,5.339709281921387,5.25401496887207,-6.199164867401123
1763693334926910500,11.732910400390624,5.847823143005371,4.623640537261963,-6.122195720672607
1763693334936990500,11.742990478515624,5.941363334655762,4.022564888000488,-6.041717529296875
1763693334947053800,11.7530537109375,5.611748695373535,3.6827917098999023,-6.154543399810791
1763693334957133800,11.7631337890625,4.743886470794678,3.787787675857544,-6.311587810516357
1763693334967213600,11.773213623046875,3.6015472412109375,4.3373703956604,-6.377881050109863
1763693334977305900,11.783305908203126,2.806788444519043,4.9972991943359375,-6.256830215454102
1763693334987385600,11.793385498046876,2.4432430267333984,5.222492218017578,-6.041643142700195
1763693334997465600,11.803465576171876,2.143832206726074,5.0105791091918945,-5.618603706359863
1763693335007548400,11.81354833984375,1.7901439666748047,4.5060272216796875,-4.970053195953369
1763693335017628200,11.823628173828125,1.3355560302734375,3.741213798522949,-4.172370910644531
1763693335027708200,11.833708251953125,0.869532585144043,2.8581178188323975,-3.444096088409424
1763693335037751800,11.843751708984374,0.49863433837890625,2.0995888710021973,-3.0711936950683594
1763693335047831600,11.85383154296875,0.30886220932006836,1.4839656352996826,-2.8838906288146973
1763693335057911600,11.86391162109375,0.1863093376159668,1.033766746520996,-2.8234639167785645
1763693335068020200,11.874020263671875,0.10339117050170898,0.7482964992523193,-2.801849365234375
1763693335078100000,11.884099853515625,-0.0037322044372558594,0.6999356746673584,-2.563875675201416
1763693335088180000,11.894179931640625,-0.27394771575927734,0.809699535369873,-2.0565829277038574
1763693335098243600,11.90424365234375,-0.4710097312927246,0.9978857040405273,-1.4840197563171387
1763693335108323300,11.9143232421875,-0.5006356239318848,1.1814630031585693,-1.006638526916504
1763693335118403300,11.9244033203125,-0.5420393943786621,1.3069443702697754,-0.6115994453430176
1763693335128488000,11.934488037109375,-0.5685887336730957,1.3931314945220947,-0.28175878524780273
1763693335138568000,11.94456787109375,-0.644373893737793,1.4402594566345215,0.07384634017944336
1763693335148647700,11.954647705078125,-0.7939209938049316,1.322922945022583,0.4557499885559082
1763693335158715600,11.964715576171875,-0.9444069862365723,1.0366801023483276,0.8010759353637695
1763693335168795600,11.974795654296875,-0.9861764907836914,0.620507001876831,1.1205363273620605
1763693335178875600,11.984875732421875,-0.9386510848999023,0.2650296688079834,1.2743816375732422
1763693335188969200,11.99496923828125,-0.9564504623413086,-0.06893777847290039,1.3373994827270508
1763693335199049200,12.00504931640625,-0.9966850280761719,-0.6979639530181885,1.5520563125610352
1763693335209129000,12.01512890625,-0.9258055686950684,-0.5430238246917725,1.5933899879455566
1763693335229307600,12.0353076171875,-0.7997770309448242,-1.841035008430481,1.6096506118774414
1763693335239387400,12.045387451171875,-0.8874402046203613,-2.3905434608459473,1.9126315116882324
1763693335249475600,12.0554755859375,-0.9536371231079102,-3.066211700439453,2.279294013977051
1763693335259555600,12.0655556640625,-0.9223074913024902,-3.637453556060791,2.504708766937256
1763693335289757700,12.0957578125,-0.9426932334899902,-4.569619178771973,2.9661874771118164
1763693335299837700,12.105837646484375,-0.8479804992675781,-4.890280246734619,3.0441431999206543
1763693335309946600,12.115946533203125,-0.7173619270324707,-5.1743059158325195,3.073831558227539
1763693335320026400,12.1260263671875,-0.576850414276123,-5.343517780303955,3.0641565322875977
1763693335330106400,12.1361064453125,-0.3798513412475586,-5.566844940185547,2.8412632942199707
1763693335340187400,12.1461875,-0.10738563537597656,-5.8561811447143555,2.490489959716797
1763693335350267400,12.156267333984376,0.10046768188476562,-6.228433609008789,2.0443925857543945
1763693335360347400,12.166347412109374,0.2184004783630371,-6.6291303634643555,1.5297532081604004
1763693335370407700,12.17640771484375,0.2589993476867676,-7.05259895324707,1.0943188667297363
1763693335380487400,12.1864873046875,0.20808839797973633,-7.44310188293457,0.8589167594909668
1763693335390567400,12.1965673828125,0.22270441055297852,-7.844180107116699,0.7504758834838867
1763693335400613600,12.206613525390624,0.23554325103759766,-8.188855171203613,0.8166322708129883
1763693335410693400,12.216693359375,0.01890850067138672,-8.240493774414062,0.939598560333252
1763693335420773400,12.2267734375,-0.42816686630249023,-8.072205543518066,1.1008992195129395
1763693335430896000,12.236896240234374,-0.8495244979858398,-7.74707555770874,1.2812137603759766
1763693335440976000,12.246975830078124,-0.9781785011291504,-7.463641166687012,1.3034706115722656
1763693335451055900,12.257055908203125,-0.5482664108276367,-7.401869297027588,1.0125250816345215
1763693335461118200,12.2671181640625,0.052298545837402344,-7.333019733428955,0.580380916595459
1763693335471198200,12.2771982421875,0.5069599151611328,-7.2193922996521,0.23878955841064453
1763693335481278000,12.28727783203125,0.7218818664550781,-7.131625652313232,0.05096769332885742
1763693335491374000,12.2973740234375,0.682579517364502,-7.021114349365234,-0.03694486618041992
1763693335501454000,12.3074541015625,0.5899686813354492,-6.804996490478516,-0.2510719299316406
1763693335511533800,12.317533935546875,0.6117100715637207,-6.596279621124268,-0.40108489990234375
1763693335522196500,12.328196533203124,0.4716019630432129,-6.308933258056641,-0.46306419372558594
1763693335532276200,12.338276123046874,0.4108614921569824,-6.027313709259033,-0.4893064498901367
1763693335542356200,12.348356201171875,0.452272891998291,-5.69144344329834,-0.45243406295776367
1763693335552450600,12.358450439453126,0.47448205947875977,-5.423358917236328,-0.28549861907958984
1763693335562530300,12.3685302734375,0.5120186805725098,-5.245408058166504,-0.13629722595214844
1763693335572610300,12.3786103515625,0.30394887924194336,-4.997768402099609,-0.11572122573852539
1763693335582688300,12.388688232421876,-0.1270442008972168,-4.621551513671875,-0.14234352111816406
1763693335592768300,12.398768310546876,-0.7089991569519043,-4.19853401184082,-0.12394428253173828
1763693335602848000,12.408847900390626,-1.3789472579956055,-3.717273473739624,-0.03717660903930664
1763693335622410000,12.428409912109375,-2.1719141006469727,-2.501310348510742,-0.01625680923461914
1763693335642575000,12.4485751953125,-2.6554527282714844,-1.1820356845855713,0.12877511978149414
1763693335652655000,12.458655029296875,-2.773231267929077,-0.48340892791748047,0.1962895393371582
1763693335662735000,12.468735107421875,-2.7027409076690674,0.13728547096252441,0.23028087615966797
1763693335672788500,12.47878857421875,-2.582622766494751,0.7480485439300537,0.3475761413574219
1763693335682868500,12.488868408203125,-2.520514726638794,1.2799631357192993,0.5279593467712402
1763693335692948500,12.498948486328125,-2.3681349754333496,1.7635843753814697,0.32906579971313477
1763693335703040500,12.50904052734375,-2.3074593544006348,2.2386865615844727,-0.06893539428710938
1763693335713120500,12.51912060546875,-2.2884745597839355,2.5448484420776367,-0.5251812934875488
1763693335723200500,12.529200439453126,-2.0623373985290527,2.703472375869751,-1.205441951751709
1763693335733248000,12.539248046875,-1.9676322937011719,2.857348918914795,-1.71718168258667
1763693335743328000,12.549327880859375,-1.8228340148925781,3.0288662910461426,-1.737520694732666
1763693335753408000,12.559407958984375,-1.5095629692077637,3.1826539039611816,-1.5056304931640625
1763693335763512600,12.5695126953125,-1.133349895477295,3.355587959289551,-1.1450538635253906
1763693335773592600,12.579592529296875,-0.6544365882873535,3.444964647293091,-0.8111252784729004
1763693335783672600,12.589672607421875,-0.03654766082763672,3.383876323699951,-0.7034578323364258
1763693335793761500,12.599761474609375,0.628690242767334,3.167346239089966,-0.7281851768493652
1763693335803841500,12.609841552734375,1.1593303680419922,2.96828556060791,-0.8660879135131836
1763693335813921500,12.619921630859375,1.6052861213684082,3.0263590812683105,-1.0409488677978516
1763693335824014000,12.63001416015625,1.9472222328186035,3.1320228576660156,-1.184432029724121
1763693335834094000,12.640093994140624,2.390936851501465,3.233854293823242,-1.5009779930114746
1763693335844174000,12.650174072265624,2.8642196655273438,3.441524028778076,-1.8456120491027832
1763693335854251500,12.66025146484375,3.1795477867126465,3.709773302078247,-2.025129795074463
1763693335864331500,12.67033154296875,3.4661083221435547,3.919448137283325,-2.1960954666137695
1763693335874411500,12.68041162109375,3.674389362335205,4.155594825744629,-2.409268856048584
1763693335884504600,12.690504638671875,3.789429187774658,4.42901611328125,-2.5590810775756836
1763693335894584600,12.70058447265625,3.956357002258301,4.719389915466309,-2.793426513671875
1763693335904664600,12.71066455078125,4.261892795562744,5.050498008728027,-3.189889430999756
1763693335914713900,12.7207138671875,4.71167516708374,5.22206974029541,-3.639845371246338
1763693335924793900,12.7307939453125,5.271778583526611,5.114633083343506,-4.113497257232666
1763693335934873600,12.74087353515625,5.641829013824463,5.105241298675537,-4.540979385375977
1763693335944952000,12.7509521484375,5.495629787445068,5.397711277008057,-4.829400539398193
1763693335955032000,12.761031982421875,5.212674140930176,5.840331554412842,-5.038117408752441
1763693335965111800,12.77111181640625,5.3296918869018555,6.082824230194092,-5.196402549743652
1763693335975185200,12.78118505859375,5.85418701171875,6.083347797393799,-5.346519470214844
1763693335985265200,12.79126513671875,6.394868850708008,5.786476135253906,-5.389158725738525
1763693335995345200,12.80134521484375,6.807905673980713,5.101356506347656,-5.485503673553467
1763693336005418800,12.811418701171876,6.8169379234313965,4.343835353851318,-5.756137847900391
1763693336015498800,12.821498779296874,6.18893575668335,3.901890993118286,-5.963201522827148
1763693336025578500,12.83157861328125,5.015650272369385,3.9550130367279053,-6.053005218505859
1763693336035698400,12.841698486328125,3.6747732162475586,4.279564380645752,-5.870641708374023
1763693336045778400,12.8517783203125,2.829629421234131,4.480691909790039,-5.485532760620117
1763693336055858400,12.8618583984375,2.4937973022460938,4.385368347167969,-5.10276985168457
1763693336065928400,12.871928466796875,2.3355960845947266,3.9696786403656006,-4.6711649894714355
1763693336076008400,12.882008544921876,2.0758566856384277,3.2504405975341797,-4.322546005249023
1763693336086088400,12.89208837890625,1.7116341590881348,2.3974742889404297,-4.106717109680176
1763693336096148500,12.9021484375,1.225407600402832,1.4783871173858643,-3.844449996948242
1763693336106228500,12.912228515625,0.663332462310791,0.5611128807067871,-3.421253204345703
1763693336116308200,12.92230810546875,0.1623978614807129,-0.20536231994628906,-3.028639793395996
1763693336126422000,12.932422119140625,-0.19636154174804688,-0.7709870338439941,-2.888461112976074
1763693336136502000,12.942501953125,-0.589238166809082,-1.0859625339508057,-2.876901626586914
1763693336146582000,12.95258203125,-0.9797635078430176,-1.16231107711792,-2.8976621627807617
1763693336156619300,12.962619384765626,-1.259131908416748,-1.0757107734680176,-2.8320040702819824
1763693336166699300,12.97269921875,-1.322373867034912,-0.9338860511779785,-2.826432228088379
1763693336176779300,12.982779296875,-1.394759178161621,-0.6521897315979004,-2.5401759147644043
1763693336186905000,12.992905029296875,-1.5129122734069824,-0.288820743560791,-1.9211859703063965
1763693336196985000,13.002985107421875,-1.5173954963684082,-0.04457259178161621,-1.4304652214050293
1763693336207065000,13.013065185546875,-1.4309782981872559,0.10550284385681152,-0.985145092010498
1763693336217147000,13.02314697265625,-1.3487582206726074,0.18204045295715332,-0.3684229850769043
1763693336227227000,13.033226806640625,-1.3121953010559082,0.14778685569763184,0.22544193267822266
1763693336237307000,13.043306884765625,-1.3070592880249023,0.048363685607910156,0.6614155769348145
1763693336247380700,13.053380615234374,-1.2942132949829102,-0.1278165578842163,0.9476075172424316
1763693336257460700,13.063460693359374,-1.3399434089660645,-0.3769170045852661,1.1090078353881836
1763693336267540700,13.073540771484375,-1.3678617477416992,-0.6806782484054565,1.2077975273132324
1763693336277611300,13.083611328125,-1.4526195526123047,-1.1398195028305054,1.3389229774475098
1763693336287691300,13.093691162109375,-1.556140422821045,-1.7396901845932007,1.4824914932250977
1763693336297771300,13.103771240234375,-1.7264018058776855,-2.3321356773376465,1.592020034790039
1763693336307854000,13.11385400390625,-1.9518208503723145,-2.741697311401367,1.991185188293457
1763693336317934000,13.12393408203125,-2.063140392303467,-3.14003849029541,2.4799294471740723
1763693336328014000,13.13401416015625,-1.9401001930236816,-3.6486477851867676,2.913703441619873
1763693336338118000,13.144117919921875,-1.9601306915283203,-4.099653244018555,3.3516125679016113
1763693336348198000,13.154197998046875,-2.0083088874816895,-4.501932144165039,3.739800214767456
1763693336358277600,13.164277587890625,-1.93605375289917,-4.915008544921875,3.89884090423584
1763693336368342800,13.1743427734375,-1.8495965003967285,-5.3077616691589355,3.880750894546509
1763693336378422800,13.1844228515625,-1.6912221908569336,-5.730410099029541,3.724104166030884
1763693336388502800,13.194502685546874,-1.4796018600463867,-6.2033915519714355,3.3622055053710938
1763693336398577400,13.204577392578125,-1.3437128067016602,-6.526987075805664,2.9283323287963867
1763693336408657400,13.214657470703125,-1.2250676155090332,-6.742401599884033,2.455535411834717
1763693336418737400,13.2247373046875,-1.0215692520141602,-6.900552749633789,1.9651713371276855
1763693336428823000,13.234822998046875,-0.7857813835144043,-7.007073402404785,1.4213900566101074
1763693336438903000,13.244903076171875,-0.6148438453674316,-7.073366641998291,0.6739382743835449
1763693336448983000,13.254983154296875,-0.4368453025817871,-7.174709320068359,0.4617438316345215
1763693336459004700,13.265004638671876,0.005108833312988281,-7.593278884887695,0.054907798767089844
1763693336469084700,13.275084716796876,0.24475336074829102,-7.80255651473999,-0.4895501136779785
1763693336479164700,13.28516455078125,0.09919548034667969,-7.791296482086182,-0.4357738494873047
1763693336489306600,13.295306640625,-0.40047407150268555,-7.598941326141357,-0.2658553123474121
1763693336499386600,13.30538671875,-0.7332034111022949,-7.437562465667725,0.0034494400024414062
1763693336509466600,13.315466552734375,-0.7617635726928711,-7.3896307945251465,0.24735260009765625
1763693336519471600,13.3254716796875,-0.5982913970947266,-7.479699611663818,0.3375396728515625
