time,seconds_elapsed,z,y,x
1763693323405555000,0.211554931640625,10.301400184631348,2.0003998279571533,-1.140179991722107
1763693323425716200,0.23171630859375,10.021141052246094,2.369492530822754,-1.1665010452270508
1763693323435797000,0.241796875,9.779167175292969,2.6090738773345947,-0.9388837814331055
1763693323446439400,0.252439453125,9.412467002868652,2.7478578090667725,-0.582054078578949
1763693323456520200,0.262520263671875,9.125029563903809,2.8773691654205322,-0.6825526356697083
1763693323466600700,0.2726005859375,8.868698120117188,2.9276185035705566,-0.8910273313522339
1763693323476132400,0.28213232421875,9.216255187988281,2.855534791946411,-0.7232306599617004
1763693323486213000,0.292213134765625,9.72652530670166,2.721536636352539,-1.054038405418396
1763693323496294000,0.3022939453125,10.14317512512207,2.5776681900024414,-1.6815561056137085
1763693323506349800,0.312349853515625,10.468897819519043,2.6521449089050293,-2.2540390491485596
1763693323516430600,0.3224306640625,9.9442720413208,2.6928226947784424,-2.586940288543701
1763693323526511000,0.332510986328125,8.935996055603027,2.5298118591308594,-2.546262502670288
1763693323536599800,0.342599853515625,8.164609909057617,2.575275421142578,-2.6036901473999023
1763693323546680300,0.352680419921875,7.565805912017822,2.7885355949401855,-2.3641088008880615
1763693323556761000,0.362760986328125,7.292725086212158,3.186342477798462,-1.7964116334915161
1763693323566835500,0.37283544921875,7.304689407348633,3.468994617462158,-1.7820546627044678
1763693323576916000,0.382916015625,7.908278942108154,3.5096726417541504,-1.8900307416915894
1763693323586996700,0.392996826171875,8.842376708984375,3.452244758605957,-1.8852450847625732
1763693323597095400,0.403095458984375,9.345467567443848,3.3346974849700928,-2.0359928607940674
1763693323607176200,0.41317626953125,9.28564739227295,3.382553815841675,-1.954637050628662
1763693323617257000,0.423257080078125,8.88544750213623,3.351447105407715,-2.071885347366333
1763693323627297000,0.433297119140625,8.538188934326172,3.5168511867523193,-2.0694925785064697
1763693323637377800,0.443377685546875,8.528617858886719,3.7301113605499268,-1.5592230558395386
1763693323647458600,0.45345849609375,8.351249694824219,3.804288864135742,-1.1856436729431152
1763693323657558800,0.463558837890625,8.066205024719238,3.9023945331573486,-1.1617153882980347
1763693323667639600,0.4736396484375,7.946564197540283,3.9625144004821777,-1.4515460729599
1763693323677720000,0.483719970703125,8.135895729064941,3.988835334777832,-1.8131613731384277
1763693323687796500,0.49379638671875,8.248358726501465,3.9936211109161377,-2.3880369663238525
1763693323697877200,0.503877197265625,8.32971477508545,3.8617167472839355,-2.699702262878418
1763693323707958000,0.5139580078125,8.432905197143555,3.828217029571533,-2.591726064682007
1763693323718038300,0.524038330078125,8.19810962677002,3.8377883434295654,-2.412264347076416
1763693323728119000,0.534119140625,8.248358726501465,3.8377883434295654,-2.1607189178466797
1763693323738199800,0.54419970703125,8.634201049804688,3.9601213932037354,-2.297109842300415
1763693323748277800,0.55427783203125,9.010173797607422,4.051048755645752,-2.7020950317382812
1763693323758358500,0.564358642578125,9.288040161132812,4.170690059661865,-3.0397820472717285
1763693323768439000,0.57443896484375,9.451051712036133,4.237987995147705,-3.0876386165618896
1763693323778517000,0.58451708984375,9.424430847167969,4.273880481719971,-3.0876386165618896
1763693323788597800,0.59459765625,9.309576034545898,4.156332969665527,-2.9368906021118164
1763693323798678500,0.604678466796875,9.56351375579834,3.928715705871582,-2.546262502670288
1763693323808780500,0.614780517578125,9.8509521484375,3.7923247814178467,-2.5438694953918457
1763693323818861300,0.624861328125,9.889236450195312,3.828217029571533,-2.895913600921631
1763693323828942000,0.634942138671875,9.862915992736816,3.88803768157959,-3.1881370544433594
1763693323839006000,0.645005859375,9.819845199584961,3.873680830001831,-3.1905298233032227
1763693323849086700,0.655086669921875,9.647262573242188,3.835395574569702,-3.176172971725464
1763693323859167500,0.66516748046875,9.333503723144531,3.8688950538635254,-3.3176486492156982
1763693323869229600,0.6752294921875,9.084351539611816,4.029513359069824,-3.3678979873657227
1763693323879310300,0.685310302734375,9.091529846191406,4.1970109939575195,-3.3272199630737305
1763693323889390800,0.695390869140625,9.44626522064209,4.2260236740112305,-3.370290756225586
1763693323899502600,0.705502685546875,9.585049629211426,4.161118507385254,-3.403790235519409
1763693323909583400,0.715583251953125,9.599406242370605,4.113262176513672,-3.236292600631714
1763693323919663900,0.725663818359375,9.168100357055664,4.293023109436035,-2.9943184852600098
1763693323929705500,0.73570556640625,8.619544982910156,4.326522350311279,-3.1091740131378174
1763693323939786200,0.7457861328125,8.569295883178711,4.2810587882995605,-3.6553356647491455
1763693323959998700,0.765998779296875,9.343074798583984,5.033302307128906,-6.240182399749756
1763693323980160300,0.78616015625,10.34207820892334,4.700101852416992,-7.706085205078125
1763693323990229800,0.796229736328125,10.524231910705566,4.199403762817383,-7.174280643463135
1763693324000310300,0.806310302734375,9.230612754821777,4.1347975730896,-6.295217037200928
1763693324010391000,0.81639111328125,7.785945892333984,3.67238450050354,-5.720341682434082
1763693324030525400,0.836525390625,6.703193664550781,2.4460630416870117,-4.965705394744873
1763693324040606000,0.84660595703125,6.434898376464844,2.2998015880584717,-4.115355968475342
1763693324050668800,0.856668701171875,6.391827583312988,2.352742910385132,-3.8733816146850586
1763693324060749300,0.866749267578125,6.715157508850098,2.5010979175567627,-3.9690945148468018
1763693324070830000,0.876830078125,7.405188083648682,2.568096876144409,-3.7704901695251465
1763693324080888300,0.886888427734375,7.817052364349365,2.4915266036987305,-3.5979080200195312
1763693324090969000,0.896968994140625,7.5897345542907715,2.6210381984710693,-4.132105827331543
1763693324101049900,0.9070498046875,7.400402069091797,3.1310083866119385,-4.802694320678711
1763693324111125200,0.917125244140625,7.208677291870117,3.648456335067749,-5.0638108253479
1763693324121206000,0.9272060546875,6.9236321449279785,3.9601213932037354,-4.989633560180664
1763693324131286500,0.93728662109375,6.497410774230957,4.371985912322998,-4.601696968078613
1763693324141383700,0.9473837890625,5.316253662109375,4.767399787902832,-3.837489366531372
1763693324151464400,0.95746435546875,4.774877548217773,4.448556423187256,-3.6074793338775635
1763693324161545200,0.967545166015625,6.418148517608643,4.2332024574279785,-4.100998878479004
1763693324172211500,0.97821142578125,8.492725372314453,4.058227062225342,-5.1550374031066895
1763693324182292200,0.988292236328125,9.400503158569336,3.4091739654541016,-5.784947872161865
1763693324192373000,0.998373046875,9.37178897857666,3.2294132709503174,-5.2411789894104
1763693324202458400,1.008458251953125,8.47597599029541,3.243770122528076,-4.376472473144531
1763693324212539000,1.018538818359375,7.776374340057373,3.3179476261138916,-3.7776687145233154
1763693324222619600,1.02861962890625,7.1871418952941895,3.5168511867523193,-3.370290756225586
1763693324232703500,1.038703369140625,6.648158550262451,3.559921979904175,-2.9943184852600098
1763693324242784000,1.048783935546875,6.427719593048096,3.5407793521881104,-2.7667012214660645
1763693324252864800,1.05886474609375,6.6505513191223145,3.699004650115967,-2.608475685119629
1763693324272433000,1.078432861328125,7.407580852508545,3.904787540435791,-3.2338998317718506
1763693324282513700,1.088513671875,7.687839984893799,4.01754903793335,-4.227818489074707
1763693324292556800,1.098556884765625,8.126324653625488,4.326522350311279,-4.824528694152832
1763693324302637600,1.108637451171875,8.262715339660645,4.304986953735352,-4.182354927062988
1763693324312718000,1.118718017578125,8.734700202941895,4.278666019439697,-3.3176486492156982
1763693324322812400,1.1288125,8.890233039855957,4.362414836883545,-3.564408540725708
1763693324332893000,1.138892822265625,8.217251777648926,4.2810587882995605,-3.758526086807251
1763693324342973700,1.1489736328125,7.714160919189453,4.297808647155762,-3.526123285293579
1763693324353025300,1.159025390625,7.493722438812256,4.283451557159424,-3.3511481285095215
1763693324363106000,1.16910595703125,7.376473903656006,4.177868366241455,-3.300898790359497
1763693324373186600,1.1791865234375,7.309474945068359,4.0079779624938965,-3.269792079925537
1763693324383317000,1.18931689453125,7.2951178550720215,3.9696927070617676,-3.64337158203125
1763693324393397800,1.199397705078125,7.172784805297852,4.043870449066162,-4.100998878479004
1763693324403478500,1.209478515625,7.06271505355835,4.082155227661133,-3.58115816116333
1763693324413552400,1.219552490234375,7.134500026702881,3.9792640209198,-2.7451658248901367
1763693324423633200,1.229633056640625,7.426723480224609,3.780360698699951,-2.251646041870117
1763693324433713700,1.239713623046875,7.977670669555664,3.576671600341797,-2.1511476039886475
1763693324443784400,1.249784423828125,9.081958770751953,3.243770122528076,-2.5797619819641113
1763693324453865000,1.259864990234375,10.085747718811035,3.0616166591644287,-4.038785457611084
1763693324463945500,1.269945556640625,10.792527198791504,3.0903303623199463,-5.969494342803955
1763693324473971200,1.27997119140625,10.912168502807617,3.2772696018218994,-6.489335060119629
1763693324484051700,1.2900517578125,10.15753173828125,3.4474592208862305,-6.031707763671875
1763693324494132200,1.30013232421875,9.292825698852539,3.677469253540039,-5.212464809417725
1763693324504281300,1.31028125,8.691629409790039,3.943072557449341,-4.671088695526123
1763693324514361900,1.32036181640625,8.466404914855957,4.106083869934082,-4.73090934753418
1763693324524442400,1.3304423828125,8.519046783447266,4.125226020812988,-5.300999641418457
1763693324534485200,1.3404853515625,9.000602722167969,4.051048755645752,-5.542973518371582
1763693324544565800,1.350565673828125,9.620942115783691,3.9936211109161377,-5.296213626861572
1763693324554646300,1.360646240234375,9.87966537475586,3.9382870197296143,-4.8915276527404785
1763693324564769300,1.370769287109375,9.985248565673828,3.9382870197296143,-4.553840637207031
1763693324574849800,1.380849853515625,9.815059661865234,4.089334011077881,-4.395615100860596
1763693324584930300,1.390930419921875,9.494122505187988,4.213760852813721,-4.386044025421143
1763693324595004700,1.401004638671875,9.158528327941895,4.269094467163086,-4.678267478942871
1763693324605085200,1.411085205078125,8.200502395629883,4.427021026611328,-5.67966365814209
1763693324615165700,1.421165771484375,6.434898376464844,4.798506736755371,-6.56829833984375
1763693324625208600,1.43120849609375,5.251647472381592,4.994718074798584,-6.640082836151123
1763693324635289000,1.4412890625,5.02642297744751,4.85114860534668,-6.240182399749756
1763693324645369600,1.45136962890625,5.54387092590332,4.53499698638916,-5.782555103302002
1763693324655481900,1.46148193359375,6.351149559020996,4.063013076782227,-5.581258773803711
1763693324665562400,1.471562255859375,7.2589263916015625,3.4881372451782227,-5.629115104675293
1763693324675643000,1.481642822265625,7.83410120010376,3.080759048461914,-5.993422508239746
1763693324685756200,1.491756103515625,7.175177574157715,3.064009428024292,-6.623332977294922
1763693324695836700,1.501836669921875,6.391827583312988,3.2557342052459717,-7.013961315155029
1763693324705917400,1.51191748046875,6.288936138153076,3.452244758605957,-7.392326354980469
1763693324715894800,1.521894775390625,6.260222434997559,3.552743434906006,-7.018746852874756
1763693324725975300,1.531975341796875,7.129714012145996,3.555136203765869,-5.839982986450195
1763693324736055800,1.542055908203125,7.730910778045654,3.514458179473877,-5.183751106262207
1763693324746188000,1.55218798828125,7.821837902069092,3.3705897331237793,-4.877170562744141
1763693324756268800,1.562268798828125,7.534400463104248,3.5503506660461426,-4.824528694152832
1763693324766349300,1.572349365234375,6.866204738616943,3.7540395259857178,-4.860421180725098
1763693324776421600,1.582421630859375,6.241079807281494,3.9000017642974854,-4.877170562744141
1763693324786502100,1.592502197265625,6.015855312347412,4.132404804229736,-5.50229549407959
1763693324796582700,1.602582763671875,6.188138484954834,4.180261135101318,-6.5180487632751465
1763693324806662400,1.612662353515625,6.514160633087158,4.0319061279296875,-7.1958160400390625
1763693324816743000,1.622742919921875,6.736692905426025,4.034298896789551,-7.540980339050293
1763693324826823400,1.632823486328125,6.904489517211914,4.113262176513672,-7.349255561828613
1763693324836903700,1.642903564453125,6.760920524597168,4.067798614501953,-6.654439926147461
1763693324846984200,1.652984130859375,5.946463584899902,4.230809688568115,-5.650949954986572
1763693324857064700,1.663064697265625,4.947459697723389,4.283451557159424,-5.080560684204102
1763693324877211400,1.68321142578125,4.636094093322754,4.508676052093506,-4.987240791320801
1763693324887292000,1.6932919921875,4.928317546844482,4.5828537940979,-5.8734822273254395
1763693324897408300,1.703408203125,5.627619743347168,4.47487735748291,-6.33589506149292
1763693324907488800,1.71348876953125,6.351149559020996,4.2260236740112305,-6.194718837738037
1763693324917569300,1.7235693359375,6.731907367706299,3.972085475921631,-5.885446548461914
1763693324927630600,1.733630615234375,6.976274490356445,3.79471755027771,-5.461617469787598
1763693324937711000,1.743711181640625,6.61705207824707,3.73250412940979,-5.073382377624512
1763693324947791600,1.75379150390625,5.989534378051758,3.79471755027771,-4.8675994873046875
1763693324957868800,1.763868896484375,5.6084771156311035,3.9792640209198,-5.020740032196045
1763693324967949300,1.77394921875,5.352146148681641,4.2332024574279785,-5.406582832336426
1763693324978029800,1.78402978515625,3.7785661220550537,4.419842720031738,-5.4520463943481445
1763693324988109000,1.794109130859375,5.26600456237793,4.970789909362793,-5.0087761878967285
1763693324998189600,1.804189453125,5.412265777587891,4.59003210067749,-5.078167915344238
1763693325008270000,1.81427001953125,5.361717224121094,4.436592102050781,-5.554937839508057
1763693325018355000,1.82435498046875,5.294718265533447,4.47487735748291,-6.400501251220703
1763693325028435500,1.834435546875,3.914957046508789,4.462913513183594,-7.730013370513916
1763693325038516000,1.844515869140625,6.509375095367432,5.093122959136963,-6.376573085784912
1763693325048582700,1.854582763671875,6.528517246246338,4.084548473358154,-6.709474563598633
1763693325058663200,1.8646630859375,6.902096748352051,4.2571306228637695,-7.770691394805908
1763693325068743700,1.87474365234375,7.347760200500488,4.266701698303223,-7.667799949645996
1763693325078828300,1.884828369140625,7.316653251647949,4.067798614501953,-7.119245529174805
1763693325088909000,1.894908935546875,6.949953556060791,4.098905086517334,-7.1718878746032715
1763693325098989600,1.904989501953125,6.535696029663086,4.273880481719971,-7.425826072692871
1763693325109044200,1.915044189453125,6.437291145324707,4.340879440307617,-7.674978733062744
1763693325119124700,1.925124755859375,6.87816858291626,4.297808647155762,-7.979166030883789
1763693325129205200,1.935205322265625,7.33340311050415,4.304986953735352,-8.501399993896484
1763693325139278600,1.945278564453125,7.134500026702881,4.422235488891602,-9.172286987304688
1763693325149359000,1.955359130859375,7.381259441375732,4.462913513183594,-9.404391288757324
1763693325159439600,1.965439697265625,1.948355793952942,4.499104976654053,-9.411869049072266
1763693325169575200,1.9755751953125,5.905486106872559,6.154339790344238,-8.05095100402832
1763693325179656000,1.985656005859375,7.409973621368408,4.388735771179199,-7.140780925750732
1763693325189736400,1.995736328125,9.74806022644043,2.611466884613037,-7.619943618774414
1763693325199821600,2.005821533203125,8.887840270996094,4.125226020812988,-9.301499366760254
1763693325209902300,2.01590234375,6.360720634460449,4.8367919921875,-9.565009117126465
1763693325219982600,2.025982666015625,5.951249122619629,3.840181350708008,-8.650053977966309
1763693325230008800,2.0360087890625,4.945066928863525,3.3107693195343018,-7.806882858276367
1763693325250170000,2.056170166015625,1.2320045232772827,3.677469253540039,-8.007880210876465
1763693325260270800,2.066270751953125,4.082753658294678,3.552743434906006,-10.013065338134766
1763693325270351400,2.076351318359375,5.100600719451904,3.0664021968841553,-11.263315200805664
1763693325280432000,2.08643212890625,5.038387298583984,2.932404041290283,-10.77966594696045
1763693325300537000,2.106537109375,6.078068733215332,1.5789638757705688,-10.501799583435059
1763693325310617600,2.11661767578125,6.142674922943115,1.1572288274765015,-10.223933219909668
1763693325320743200,2.1267431640625,5.747560024261475,0.8315058946609497,-9.47647476196289
1763693325330823700,2.13682373046875,5.222933769226074,0.7668996453285217,-8.714659690856934
1763693325340904200,2.146904296875,4.578367233276367,0.9367900490760803,-7.814061641693115
1763693325350979000,2.15697900390625,3.9101712703704834,1.2026925086975098,-7.16949462890625
1763693325361059600,2.1670595703125,3.8790645599365234,1.8041882514953613,-6.795915603637695
1763693325371140000,2.17714013671875,3.402294635772705,2.4221346378326416,-6.110671043395996
1763693325381222100,2.18722216796875,3.3951163291931152,2.752643346786499,-6.302395820617676
1763693325391302700,2.197302734375,3.8862431049346924,3.2676985263824463,-7.296613693237305
1763693325401383200,2.207383056640625,3.812065601348877,3.4809587001800537,-8.453543663024902
1763693325411433000,2.217432861328125,5.035994529724121,3.234198808670044,-9.189037322998047
1763693325421513500,2.227513427734375,5.146363258361816,2.8701908588409424,-9.80937671661377
1763693325431594000,2.237593994140625,5.158327579498291,2.4532413482666016,-10.37228775024414
1763693325442278700,2.248278564453125,5.091029167175293,2.2758734226226807,-10.149456024169922
1763693325452359400,2.258359375,4.8059844970703125,2.1897318363189697,-9.136096000671387
1763693325462440000,2.26843994140625,4.413262367248535,2.455634355545044,-7.8092756271362305
1763693325472535800,2.278535888671875,3.2467613220214844,2.4508485794067383,-7.694121360778809
1763693325482617300,2.288617431640625,2.887239694595337,2.4604198932647705,-7.552944660186768
1763693325492699100,2.29869921875,2.5399811267852783,2.455634355545044,-6.987640380859375
1763693325502778600,2.308778564453125,2.171187400817871,2.0629122257232666,-7.758727550506592
1763693325512860200,2.318860107421875,2.1134605407714844,1.9764715433120728,-8.515756607055664
1763693325522941700,2.328941650390625,2.3243281841278076,2.0772690773010254,-8.365009307861328
1763693325542488300,2.34848828125,2.9159533977508545,2.3599212169647217,-7.447361469268799
1763693325552569900,2.35856982421875,3.002394199371338,3.1142587661743164,-6.827022075653076
1763693325562641400,2.368641357421875,2.9374887943267822,3.7061831951141357,-6.649653911590576
1763693325572723000,2.378722900390625,2.801098108291626,4.237987995147705,-6.640082836151123
1763693325582804500,2.388804443359375,2.6213371753692627,4.561318397521973,-6.697510719299316
1763693325592863500,2.398863525390625,3.0478577613830566,4.712066173553467,-6.793522357940674
1763693325602945000,2.408945068359375,3.6538400650024414,4.328915119171143,-7.596015453338623
1763693325613026600,2.419026611328125,3.8264224529266357,3.8306100368499756,-8.563612937927246
1763693325623114500,2.429114501953125,3.3879377841949463,3.600599765777588,-9.438189506530762
1763693325633196000,2.439196044921875,2.9303104877471924,3.5910286903381348,-10.25743293762207
1763693325643277800,2.44927783203125,3.098107099533081,3.545564889907837,-10.796415328979492
1763693325653413400,2.459413330078125,3.696911096572876,3.3562328815460205,-10.56401252746582
1763693325663495000,2.469494873046875,4.147359848022461,3.2700912952423096,-10.96630573272705
1763693325673576700,2.47957666015625,4.451547622680664,3.3179476261138916,-10.913663864135742
1763693325683600100,2.48960009765625,4.250251293182373,3.1456644535064697,-9.938589096069336
1763693325693682000,2.499681884765625,3.9029927253723145,3.080759048461914,-9.203393936157227
1763693325703763500,2.509763427734375,2.664407968521118,3.329911708831787,-10.089635848999023
1763693325713863700,2.51986376953125,1.837986946105957,3.4331023693084717,-9.98435115814209
1763693325723945200,2.5299453125,1.8284156322479248,3.7301113605499268,-9.663115501403809
1763693325734026800,2.54002685546875,1.7518452405929565,3.6460635662078857,-9.77826976776123
1763693325744089900,2.55008984375,2.0033907890319824,3.2318060398101807,-10.27178955078125
1763693325754171400,2.56017138671875,3.0526435375213623,2.8411777019500732,-10.456036567687988
1763693325764253000,2.5702529296875,4.149752616882324,2.4388844966888428,-10.470394134521484
1763693325774333400,2.58033349609375,4.312464714050293,2.316551446914673,-10.875378608703613
1763693325784415000,2.5904150390625,4.147359848022461,2.642573595046997,-10.702796936035156
1763693325794496800,2.600496826171875,4.259822368621826,2.8411777019500732,-10.139884948730469
1763693325804593200,2.61059326171875,4.449154376983643,2.633002281188965,-9.742377281188965
1763693325814674700,2.6206748046875,4.281357765197754,2.278266191482544,-10.69561767578125
1763693325824756200,2.630756103515625,4.111467361450195,2.4460630416870117,-12.24078369140625
1763693325834809900,2.640809814453125,4.1282172203063965,2.8651061058044434,-10.154241561889648
1763693325844891600,2.6508916015625,2.274078845977783,2.7574288845062256,-12.22403335571289
1763693325854973200,2.66097314453125,3.2706894874572754,3.3466615676879883,-9.826126098632812
1763693325865040100,2.6710400390625,2.2692930698394775,2.6473591327667236,-10.259825706481934
1763693325875121700,2.68112158203125,1.8643079996109009,1.9357935190200806,-11.205887794494629
1763693325885203500,2.691203369140625,2.3554348945617676,1.389631748199463,-11.56271743774414
1763693325895263500,2.701263427734375,2.374577283859253,0.6852445602416992,-11.816655158996582
1763693325905345000,2.711344970703125,2.1230318546295166,0.44356951117515564,-11.349756240844727
1763693325915426600,2.721426513671875,2.3243281841278076,-0.23449662327766418,-11.01416301727295
1763693325925509600,2.731509521484375,3.6681971549987793,-0.6056832075119019,-10.262218475341797
1763693325935591200,2.741591064453125,4.595416069030762,-1.0010972023010254,-9.438189506530762
1763693325945672700,2.751672607421875,4.497011184692383,-0.7806583642959595,-8.733802795410156
1763693325955786200,2.7617861328125,4.022634029388428,-0.24406790733337402,-8.280961036682129
1763693325965867800,2.77186767578125,3.589233875274658,0.14386846125125885,-8.003094673156738
1763693325975949300,2.78194921875,3.2659037113189697,0.34277185797691345,-7.948059558868408
1763693325986018800,2.792018798828125,3.026322364807129,0.3188436031341553,-7.993523120880127
1763693325996100600,2.8021005859375,2.863311290740967,0.4097708761692047,-8.13260555267334
1763693326006182100,2.81218212890625,2.6668007373809814,0.5201398134231567,-8.331509590148926
1763693326016233700,2.822233642578125,2.640479803085327,0.2925225794315338,-8.429615020751953
1763693326026315500,2.8323154296875,2.9255247116088867,0.12233305722475052,-7.952845096588135
1763693326036397000,2.84239697265625,3.2105698585510254,0.7597211599349976,-9.90987491607666
1763693326046499800,2.852499755859375,3.040679454803467,1.3489537239074707,-9.747162818908691
1763693326066663200,2.8726630859375,0.46061834692955017,2.2256240844726562,-8.166105270385742
1763693326076731000,2.88273095703125,-0.16929219663143158,2.711965322494507,-7.715656757354736
1763693326086812400,2.8928125,-0.5380859971046448,2.790928602218628,-7.260721206665039
1763693326096894000,2.90289404296875,-0.6867401003837585,2.568096876144409,-6.656832695007324
1763693326106984700,2.912984619140625,-1.0507482290267944,2.908475875854492,-6.75284481048584
1763693326117066200,2.923066162109375,-1.0172487497329712,3.0185458660125732,-7.356434345245361
1763693326127147800,2.933147705078125,0.14685949683189392,3.0041887760162354,-8.007880210876465
1763693326137212000,2.9432119140625,0.5590232014656067,2.908475875854492,-7.569694519042969
1763693326147293400,2.95329345703125,0.35533416271209717,2.9012975692749023,-6.714559555053711
1763693326157375000,2.963375,0.6212365627288818,2.9970104694366455,-6.678368091583252
1763693326167453400,2.973453369140625,1.1817553043365479,3.0137600898742676,-7.068996429443359
1763693326177535000,2.983534912109375,1.7733806371688843,2.985046148300171,-7.500003337860107
1763693326187616500,2.993616455078125,2.15653133392334,3.1166515350341797,-8.297710418701172
1763693326197705000,3.003705078125,2.1879372596740723,3.279662609100342,-8.86780071258545
1763693326207786500,3.013786376953125,1.984248161315918,3.5671002864837646,-8.587541580200195
1763693326217868300,3.023868408203125,1.5744773149490356,3.6436707973480225,-7.904988765716553
1763693326227942700,3.033942626953125,1.5409778356552124,3.64127779006958,-7.6630144119262695
1763693326238024200,3.044024169921875,1.7207385301589966,3.138485908508301,-8.73619556427002
1763693326248105700,3.054105712890625,2.21665096282959,2.5995028018951416,-10.726724624633789
1763693326258168800,3.0641689453125,2.412862539291382,2.7861428260803223,-12.082557678222656
1763693326268250400,3.07425048828125,2.630908489227295,2.5848467350006104,-11.998808860778809
1763693326278332000,3.084331787109375,2.381755828857422,2.292623281478882,-11.888739585876465
1763693326288402400,3.09440234375,2.015354871749878,2.489133834838867,-11.965310096740723
1763693326298484000,3.10448388671875,1.5649060010910034,2.9204399585723877,-12.152249336242676
1763693326308565800,3.114565673828125,1.2583255767822266,3.078366279602051,-12.676875114440918
1763693326318627300,3.12462744140625,1.1673983335494995,2.7095725536346436,-12.880265235900879
1763693326328708900,3.134708984375,1.1602199077606201,2.347957134246826,-12.430115699768066
1763693326338790400,3.144790283203125,1.2272188663482666,2.565704107284546,-11.495718002319336
1763693326348917000,3.1549169921875,1.0618150234222412,2.1729819774627686,-11.557931900024414
1763693326369080300,3.175080322265625,0.13489536941051483,2.6234309673309326,-11.74726390838623
1763693326379075000,3.185074951171875,-0.20757736265659332,2.8196423053741455,-11.982059478759766
1763693326389156600,3.195156494140625,-0.5309075117111206,2.8028926849365234,-11.577373504638672
1763693326399238100,3.205238037109375,-0.7082754969596863,2.4939193725585938,-10.96630573272705
1763693326409348400,3.215348388671875,-0.7680960893630981,1.6914265155792236,-11.076675415039062
1763693326419430100,3.22543017578125,-0.641276478767395,0.7956135272979736,-11.584551811218262
1763693326429511700,3.23551171875,-1.3911272287368774,0.589531660079956,-11.840883255004883
1763693326439612400,3.2456123046875,-1.4892330169677734,1.272383451461792,-11.534003257751465
1763693326449694000,3.25569384765625,-0.20997019112110138,1.2987045049667358,-11.016555786132812
1763693326459775500,3.265775390625,0.6643074154853821,0.7645068168640137,-9.979565620422363
1763693326469871900,3.275871826171875,0.5470590591430664,0.6852445602416992,-8.951848983764648
1763693326479953400,3.285953369140625,0.14925231039524078,0.7692924737930298,-8.288139343261719
1763693326490035000,3.296034912109375,0.15643078088760376,0.6948158740997314,-7.0307111740112305
1763693326500068400,3.306068359375,0.0487537607550621,0.7094719409942627,-5.770590782165527
1763693326510148400,3.3161484375,-0.3323032557964325,1.173978567123413,-4.893920421600342
1763693326520228400,3.326228271484375,-0.4088735580444336,1.4925230741500854,-3.9020955562591553
1763693326530343000,3.336343017578125,-0.18843477964401245,1.5263217687606812,-2.8552355766296387
1763693326540423000,3.3464228515625,0.1779661774635315,1.5693925619125366,-1.8251254558563232
1763693326550503000,3.3565029296875,0.7289136052131653,1.6722838878631592,-1.5640087127685547
1763693326570612200,3.3766123046875,1.9124635457992554,0.9993025660514832,-2.1774685382843018
1763693326580692200,3.386692138671875,2.14935302734375,1.0112667083740234,-2.196611166000366
1763693326590816000,3.39681591796875,2.30279278755188,0.7310073375701904,-2.3258235454559326
1763693326600896000,3.40689599609375,2.0919251441955566,0.251844584941864,-2.663510799407959
1763693326610976000,3.41697607421875,1.9579271078109741,-0.13878370821475983,-3.221935749053955
1763693326621078000,3.427078125,1.9794625043869019,-0.7854440212249756,-3.8398821353912354
1763693326631158000,3.437157958984375,2.0584256649017334,-1.262213945388794,-4.35254430770874
1763693326641238000,3.447238037109375,2.319542407989502,-1.389033555984497,-4.206283092498779
1763693326651273500,3.4572734375,2.6117658615112305,-1.322034478187561,-3.667299747467041
1763693326661353500,3.467353515625,2.8848466873168945,-1.322034478187561,-4.359723091125488
1763693326671433500,3.47743359375,3.1555347442626953,-1.3651052713394165,-5.435296535491943
1763693326682154200,3.488154296875,3.3592238426208496,-1.4994025230407715,-6.640082836151123
1763693326692234200,3.498234130859375,3.3903305530548096,-1.6046867370605469,-7.251150131225586
1763693326702314200,3.508314208984375,3.3592238426208496,-1.6812570095062256,-8.39611530303955
1763693326721810700,3.527810791015625,3.3185458183288574,-1.6980067491531372,-9.208179473876953
1763693326731890700,3.537890625,3.7785661220550537,-2.251347064971924,-9.711270332336426
1763693326742664400,3.54866455078125,4.0803608894348145,-2.766402006149292,-10.197312355041504
1763693326752744400,3.558744384765625,4.173680782318115,-3.1426734924316406,-10.115957260131836
1763693326762824400,3.568824462890625,4.4635114669799805,-3.597608804702759,-9.890732765197754
1763693326782330600,3.58833056640625,5.36650276184082,-4.301996231079102,-11.344970703125
1763693326792410600,3.59841064453125,5.452943801879883,-4.263710975646973,-12.623933792114258
1763693326802490600,3.60849072265625,5.749952793121338,-4.4650068283081055,-13.323535919189453
1763693326812577000,3.618576904296875,6.1211395263671875,-4.951049327850342,-13.855340003967285
1763693326822657000,3.628656982421875,6.662515640258789,-5.171487808227539,-14.449358940124512
1763693326832737300,3.6387373046875,7.182356357574463,-4.884049892425537,-14.629119873046875
1763693326842750700,3.648750732421875,7.191927433013916,-4.898406982421875,-14.973984718322754
1763693326852830700,3.658830810546875,7.733303546905518,-4.8553361892700195,-15.512968063354492
1763693326862910700,3.66891064453125,8.253144264221191,-4.735694885253906,-15.872190475463867
1763693326873049600,3.679049560546875,8.188538551330566,-4.642076015472412,-15.714264869689941
1763693326883129600,3.689129638671875,7.939385414123535,-4.584648132324219,-14.609976768493652
1763693326893209600,3.699209716796875,7.982456207275391,-4.740480899810791,-14.521142959594727
1763693326903267600,3.709267578125,8.473583221435547,-5.106881618499756,-14.197813034057617
1763693326913347600,3.71934765625,8.2124662399292,-5.0566325187683105,-13.251750946044922
1763693326923427600,3.729427490234375,7.548757076263428,-4.747659206390381,-12.71755313873291
1763693326933470200,3.73947021484375,7.683054447174072,-4.745266437530518,-12.942777633666992
1763693326943550200,3.74955029296875,8.18135929107666,-5.245964527130127,-13.083953857421875
1763693326953630200,3.759630126953125,8.324929237365723,-5.178666591644287,-12.837194442749023
1763693326963757800,3.7697578125,8.289036750793457,-5.772983551025391,-12.314960479736328
1763693326973837800,3.779837890625,8.080561637878418,-6.381359100341797,-11.795120239257812
1763693326983917800,3.789917724609375,7.165606498718262,-6.012266159057617,-11.744871139526367
1763693326993983700,3.799983642578125,6.104389667510986,-6.024230003356934,-11.545967102050781
1763693327004063700,3.810063720703125,5.1320061683654785,-5.638686656951904,-11.780763626098633
1763693327014144000,3.82014404296875,4.528117656707764,-5.047060966491699,-12.676875114440918
1763693327024237000,3.830237060546875,4.403690814971924,-4.946263313293457,-12.691231727600098
1763693327034317000,3.840317138671875,4.621737003326416,-4.860121726989746,-12.430115699768066
1763693327044397000,3.85039697265625,4.878067970275879,-4.905585289001465,-12.13071346282959
1763693327054485200,3.8604853515625,5.038387298583984,-4.860121726989746,-11.385648727416992
1763693327064565200,3.870565185546875,4.897210597991943,-4.6540398597717285,-10.638190269470215
1763693327074645200,3.880645263671875,4.540081977844238,-4.4961137771606445,-9.90987491607666
1763693327084726500,3.8907265625,4.147359848022461,-4.3809590339660645,-9.229715347290039
1763693327094806500,3.900806640625,3.5916268825531006,-4.335495471954346,-8.623732566833496
1763693327104886500,3.910886474609375,3.433401346206665,-3.7654054164886475,-8.635697364807129
1763693327114975500,3.9209755859375,3.2778680324554443,-3.8060834407806396,-7.689335346221924
1763693327125055500,3.931055419921875,3.447758436203003,-3.346362352371216,-7.394719123840332
1763693327135135500,3.941135498046875,3.361616611480713,-2.8289146423339844,-7.133602619171143
1763693327145214500,3.95121435546875,3.3329029083251953,-2.4406790733337402,-6.855735778808594
1763693327155294500,3.96129443359375,3.6442689895629883,-2.1245274543762207,-6.736094951629639
1763693327165374500,3.97137451171875,3.900599956512451,-1.5951154232025146,-6.580262184143066
1763693327175455200,3.981455322265625,4.094717979431152,-1.1832507848739624,-6.194718837738037
1763693327185535200,3.99153515625,4.336691856384277,-1.0322039127349854,-5.5621161460876465
1763693327195615500,4.001615478515625,4.4012980461120605,-0.41904306411743164,-5.365904808044434
1763693327205636600,4.01163671875,4.441976070404053,0.005084747914224863,-5.147858619689941
1763693327215716600,4.021716552734375,4.430012226104736,0.38344982266426086,-4.934598445892334
1763693327225796600,4.031796630859375,4.513761043548584,0.5512465238571167,-4.7596235275268555
1763693327235936500,4.0419365234375,4.743771076202393,0.5033900737762451,-4.582554340362549
1763693327246016500,4.0520166015625,5.014459133148193,0.268594354391098,-4.635196685791016
1763693327256096500,4.062096435546875,5.114957332611084,0.16301104426383972,-4.836492538452148
1763693327266169300,4.07216943359375,5.064708232879639,-0.04755735024809837,-5.020740032196045
1763693327276249300,4.082249267578125,5.0240302085876465,-0.8165507316589355,-5.272285461425781
1763693327286329300,4.092329345703125,5.165505886077881,-1.26699960231781,-5.641378402709961
1763693327296383700,4.1023837890625,5.529513835906982,-1.7940187454223633,-6.125027656555176
1763693327306463700,4.112463623046875,5.862415313720703,-2.289931297302246,-6.731309413909912
1763693327316543700,4.122543701171875,6.025426387786865,-2.5582265853881836,-7.440182685852051
1763693327326631000,4.132630859375,6.0278191566467285,-2.6347968578338623,-8.029415130615234
1763693327336711000,4.1427109375,6.178566932678223,-2.783151865005493,-8.72183895111084
1763693327346791000,4.152791015625,6.4926252365112305,-3.0658040046691895,-9.603294372558594
1763693327356864000,4.162864013671875,6.885347366333008,-3.231207847595215,-10.362716674804688
1763693327366944000,4.172944091796875,7.309474945068359,-3.1977083683013916,-10.99741268157959
1763693327377024000,4.18302392578125,7.814659595489502,-3.068495988845825,-11.272886276245117
1763693327387101400,4.193101318359375,8.459226608276367,-2.960519790649414,-11.241780281066895
1763693327397181400,4.203181396484375,9.125029563903809,-3.0275187492370605,-11.095817565917969
1763693327407261400,4.213261474609375,9.709476470947266,-3.046661376953125,-11.002198219299316
1763693327417375500,4.22337548828125,10.272686958312988,-3.238386392593384,-11.00459098815918
1763693327427455500,4.23345556640625,10.701300621032715,-3.5808591842651367,-10.901700019836426
1763693327437535500,4.243535400390625,10.811670303344727,-3.863511323928833,-10.575977325439453
1763693327447603200,4.253603271484375,10.550553321838379,-3.971487283706665,-10.159028053283691
1763693327457683200,4.26368310546875,10.16710376739502,-4.000201225280762,-9.833304405212402
1763693327467763200,4.27376318359375,10.061819076538086,-4.220640182495117,-9.821340560913086
1763693327477843700,4.28384375,10.226923942565918,-4.6902313232421875,-10.161420822143555
1763693327487923700,4.293923828125,10.42821979522705,-5.300999641418457,-10.7195463180542
1763693327498004000,4.30400390625,10.581660270690918,-5.962016582489014,-11.232208251953125
1763693327508082000,4.31408203125,10.557731628417969,-6.6352972984313965,-11.6754789352417
1763693327518162000,4.324161865234375,10.045069694519043,-6.965806007385254,-12.140284538269043
1763693327528242200,4.3342421875,8.988637924194336,-6.747759819030762,-12.504292488098145
1763693327538316300,4.34431640625,7.846065521240234,-6.192026615142822,-12.638291358947754
1763693327548396300,4.354396240234375,7.022037029266357,-5.700900077819824,-12.544970512390137
1763693327558476500,4.3644765625,6.799205780029297,-5.559723377227783,-12.43968677520752
1763693327568546000,4.374546142578125,6.916453838348389,-5.696114540100098,-12.238390922546387
1763693327578626000,4.3846259765625,6.780063152313232,-5.995516300201416,-11.65394401550293
1763693327588706300,4.394706298828125,6.5404815673828125,-6.180062770843506,-10.88016414642334
1763693327598836000,4.4048359375,6.394220352172852,-6.441179275512695,-10.369894981384277
1763693327608916000,4.414916015625,6.387042045593262,-6.740581512451172,-10.216455459594727
1763693327618996000,4.424995849609375,6.355935096740723,-6.874878406524658,-10.08724308013916
1763693327629056500,4.435056396484375,6.22193717956543,-6.882057189941406,-9.756733894348145
1763693327639136800,4.44513671875,6.135496139526367,-6.778866767883301,-9.478867530822754
1763693327649216800,4.455216796875,5.816951751708984,-6.467500686645508,-9.224929809570312
1763693327659254000,4.46525390625,5.239683151245117,-5.875874996185303,-8.817551612854004
1763693327669334000,4.475333984375,4.77248477935791,-5.224130153656006,-8.345866203308105
1763693327679414300,4.485414306640625,4.520939350128174,-4.673182487487793,-7.938488006591797
1763693327689603600,4.495603515625,4.348656177520752,-4.239782810211182,-7.548159122467041
1763693327699683600,4.50568359375,4.183252334594727,-3.822833299636841,-7.238886833190918
1763693327709763800,4.515763916015625,4.051646709442139,-3.418147087097168,-7.064210414886475
1763693327719729200,4.525729248046875,3.922135353088379,-3.1666016578674316,-6.798308372497559
1763693327729809400,4.535809326171875,3.8168511390686035,-3.1115667819976807,-6.350252151489258
1763693327739889400,4.545889404296875,3.735196113586426,-3.0948169231414795,-5.899803161621094
1763693327749969400,4.555969482421875,3.6442689895629883,-2.960519790649414,-5.3368916511535645
1763693327760049700,4.566049560546875,3.6323046684265137,-3.3990044593811035,-5.526223659515381
1763693327780217900,4.5862177734375,3.6083765029907227,-3.3607194423675537,-4.6663031578063965
1763693327790297900,4.5962978515625,3.625126361846924,-3.449253797531128,-4.4410786628723145
1763693327800378000,4.606378173828125,3.6394832134246826,-3.4707891941070557,-4.481756687164307
1763693327810460400,4.61646044921875,3.8958144187927246,-3.4372897148132324,-4.141676902770996
1763693327820540700,4.626540771484375,3.9915273189544678,-3.4947173595428467,-4.098606109619141
1763693327830620700,4.63662060546875,4.027419567108154,-3.626621723175049,-4.079463481903076
1763693327840699600,4.64669970703125,4.173680782318115,-3.846761465072632,-4.151247978210449
1763693327850780000,4.65677978515625,4.403690814971924,-4.158426761627197,-4.359723091125488
1763693327860860000,4.66685986328125,4.652843475341797,-4.433900356292725,-4.616054058074951
1763693327870936300,4.676936279296875,4.832305431365967,-4.675575256347656,-4.881956577301025
1763693327881016300,4.687016357421875,5.02642297744751,-4.929513931274414,-5.070989608764648
1763693327891096600,4.6970966796875,5.361717224121094,-5.080560684204102,-5.289035320281982
1763693327901200400,4.707200439453125,5.6925249099731445,-5.234000205993652,-5.689234733581543
1763693327911280600,4.71728076171875,5.9799628257751465,-5.312963485717773,-5.772983551025391
1763693327921360600,4.727360595703125,6.171388626098633,-5.2145586013793945,-6.084349632263184
1763693327932030700,4.73803076171875,6.3631134033203125,-5.020740032196045,-6.256932258605957
1763693327942111000,4.748111083984375,6.629015922546387,-4.968098163604736,-6.221039772033691
1763693327952191000,4.75819091796875,6.81595516204834,-4.907978534698486,-6.233004093170166
1763693327981816000,4.787816162109375,6.894918441772461,-5.293820858001709,-6.436393737792969
1763693327992553000,4.798552978515625,6.125925064086914,-5.154737949371338,-6.515655994415283
1763693328002633200,4.80863330078125,5.579763412475586,-5.015954494476318,-6.534798622131348
1763693328012713200,4.818713134765625,5.702096462249756,-5.0949177742004395,-6.695117950439453
1763693328022740700,4.82874072265625,6.190531253814697,-5.224130153656006,-6.9705915451049805
1763693328032820700,4.83882080078125,6.585945129394531,-5.291428089141846,-7.2197442054748535
1763693328042900700,4.848900634765625,6.710371971130371,-5.3919267654418945,-7.289434909820557
1763693328062449700,4.86844970703125,6.550053119659424,-5.334498882293701,-7.332505702972412
1763693328072530000,4.878530029296875,6.593123912811279,-5.135595798492432,-7.492825031280518
1763693328082648800,4.88864892578125,6.957131862640381,-5.092525005340576,-7.823632717132568
1763693328092729000,4.89872900390625,7.316653251647949,-5.1188459396362305,-8.292924880981445
1763693328102809000,4.90880908203125,7.6136627197265625,-5.075775146484375,-8.73619556427002
1763693328112885800,4.9188857421875,7.7715888023376465,-5.066203594207764,-8.961420059204102
1763693328122965800,4.9289658203125,7.8026957511901855,-5.037489891052246,-8.980562210083008
1763693328133045800,4.939045654296875,7.7237324714660645,-4.975276470184326,-8.925527572631836
1763693328143070000,4.949070068359375,7.628019332885742,-4.881657123565674,-9.057132720947266
1763693328153150000,4.95914990234375,7.551149845123291,-4.817050933837891,-9.275178909301758
1763693328163230000,4.96922998046875,7.309474945068359,-4.745266437530518,-9.32303524017334
1763693328173331500,4.97933154296875,6.813562393188477,-4.572684288024902,-9.17467975616455
1763693328193491700,4.99949169921875,5.888736724853516,-3.8371901512145996,-8.669196128845215
1763693328203570200,5.009570068359375,5.733202934265137,-3.2766714096069336,-8.561220169067383
1763693328213650400,5.019650390625,5.72123908996582,-2.7544379234313965,-8.367402076721191
1763693328223730400,5.02973046875,5.678168296813965,-2.198704957962036,-7.9983086585998535
1763693328233836500,5.03983642578125,5.620441436767578,-1.7270197868347168,-7.576872825622559
1763693328243916500,5.04991650390625,5.704489231109619,-1.3244273662567139,-7.128817081451416
1763693328253996500,5.05999658203125,5.824130535125732,-1.0465607643127441,-6.5874409675598145
1763693328264088000,5.070088134765625,5.941677570343018,-0.9699904918670654,-5.979065418243408
1763693328274168000,5.08016796875,6.03021240234375,-1.0250253677368164,-5.598008632659912
1763693328284248000,5.090248046875,6.116353988647461,-1.1207382678985596,-5.358427047729492
1763693328294287000,5.100287109375,6.200102806091309,-1.2239288091659546,-5.119144916534424
1763693328304367000,5.1103671875,6.267400741577148,-1.3100703954696655,-4.953741073608398
1763693328314447000,5.120447021484375,6.444469451904297,-1.5185450315475464,-4.996811866760254
1763693328324531700,5.13053173828125,6.576374053955078,-1.7365909814834595,-5.267499923706055
1763693328334611700,5.14061181640625,6.734300136566162,-1.8801604509353638,-5.499902725219727
1763693328344692000,5.15069189453125,7.0097737312316895,-2.0431714057922363,-5.670092582702637
1763693328354755800,5.160755859375,7.366902828216553,-2.2345972061157227,-5.904888153076172
1763693328364835800,5.1708359375,7.548757076263428,-2.3856441974639893,-6.15134859085083
1763693328374915800,5.180915771484375,7.8026957511901855,-2.4406790733337402,-6.5252275466918945
1763693328385039000,5.1910390625,8.164609909057617,-2.536691188812256,-7.071389198303223
1763693328395119000,5.201119140625,8.50708293914795,-2.71854567527771,-7.727620601654053
1763693328405199000,5.21119921875,8.880661964416504,-2.819343328475952,-8.477471351623535
1763693328415316000,5.22131591796875,9.242576599121094,-2.833700180053711,-9.260822296142578
1763693328425396000,5.23139599609375,9.599406242370605,-2.8049862384796143,-9.998708724975586
1763693328435476200,5.241476318359375,9.664012908935547,-2.6611177921295166,-10.487143516540527
1763693328445512700,5.2515126953125,9.644869804382324,-2.4047868251800537,-10.585548400878906
1763693328455592700,5.2615927734375,9.704689979553223,-2.1412770748138428,-10.578370094299316
1763693328465672700,5.271672607421875,10.097711563110352,-2.1005992889404297,-10.75813102722168
1763693328475747800,5.281747802734375,10.552946090698242,-2.2250258922576904,-11.086246490478516
1763693328485827800,5.291827880859375,10.531410217285156,-2.2947168350219727,-11.253744125366211
1763693328495907800,5.301907958984375,10.059426307678223,-2.112563371658325,-11.215458869934082
1763693328505974300,5.311974365234375,9.647262573242188,-1.8586249351501465,-11.129317283630371
1763693328516054500,5.322054443359375,9.760024070739746,-1.9782661199569702,-11.172388076782227
1763693328526134500,5.332134521484375,10.425827026367188,-2.646760940551758,-11.371291160583496
1763693328536233200,5.342233154296875,11.050951957702637,-3.576073408126831,-11.64437198638916
1763693328546313200,5.352313232421875,11.458330154418945,-4.48414945602417,-11.965310096740723
1763693328556393200,5.362393310546875,11.50857925415039,-5.102096080780029,-12.353245735168457
1763693328566495500,5.37249560546875,10.888240814208984,-5.183452129364014,-12.693625450134277
1763693328576575500,5.382575439453125,9.534799575805664,-4.508078098297119,-12.908979415893555
1763693328586655500,5.392655517578125,8.16700267791748,-3.302992582321167,-12.937992095947266
1763693328596712400,5.40271240234375,7.431509017944336,-2.220240354537964,-13.223036766052246
1763693328606792400,5.41279248046875,7.316653251647949,-1.6525431871414185,-13.608580589294434
1763693328616872700,5.422872802734375,7.299903869628906,-1.5233306884765625,-13.491332054138184
1763693328626948400,5.4329482421875,7.304689407348633,-1.7051852941513062,-12.679267883300781
1763693328637028400,5.4430283203125,7.347760200500488,-2.2082762718200684,-11.457432746887207
1763693328647108400,5.4531083984375,7.467401027679443,-2.836092948913574,-10.243075370788574
1763693328657205000,5.463205078125,7.386045455932617,-3.3966116905212402,-9.236893653869629
1763693328667285000,5.473284912109375,7.184749126434326,-3.853940010070801,-8.630910873413086
1763693328677365200,5.483365234375,7.026822566986084,-4.266103744506836,-8.499007225036621
1763693328687417000,5.4934169921875,6.7657060623168945,-4.407280445098877,-8.580363273620605
1763693328697497000,5.5034970703125,6.365506649017334,-4.1608195304870605,-8.556434631347656
1763693328707577000,5.5135771484375,6.152245998382568,-3.849154233932495,-8.355437278747559
1763693328717678000,5.523677978515625,6.092425346374512,-3.6553356647491455,-8.072785377502441
1763693328727758000,5.533758056640625,5.905486106872559,-3.480360507965088,-7.672585964202881
1763693328737838000,5.543838134765625,5.5606207847595215,-3.2527432441711426,-7.138388156890869
1763693328747922400,5.55392236328125,5.354538917541504,-3.0131618976593018,-6.656832695007324
1763693328758002400,5.56400244140625,5.2731828689575195,-2.9174489974975586,-6.290431499481201
1763693328768082400,5.57408251953125,5.3353962898254395,-2.922234535217285,-6.086742401123047
1763693328778161700,5.58416162109375,5.347360610961914,-3.0346972942352295,-5.9814581871032715
1763693328788241700,5.59424169921875,5.3353962898254395,-3.224029302597046,-5.921638011932373
1763693328798321700,5.60432177734375,5.2253265380859375,-3.370290756225586,-5.830411434173584
1763693328808400100,5.614400146484375,5.064708232879639,-3.497110366821289,-5.722734451293945
1763693328818480000,5.624480224609375,5.074279308319092,-3.7103705406188965,-5.677270889282227
1763693328828560100,5.63456005859375,5.146363258361816,-4.012165546417236,-5.6533427238464355
1763693328838646300,5.644646240234375,5.1774702072143555,-4.2708892822265625,-5.590830326080322
1763693328848726300,5.654726318359375,5.220541000366211,-4.551148891448975,-5.5142598152160645
1763693328858806300,5.66480615234375,5.32821798324585,-4.864907741546631,-5.406582832336426
1763693328868872200,5.6748720703125,5.505585670471191,-5.18105936050415,-5.2746782302856445
1763693328878952400,5.684952392578125,5.663512229919434,-5.487639427185059,-5.236393451690674
1763693328889032400,5.695032470703125,5.706881999969482,-5.672185897827148,-5.348855972290039
1763693328899074600,5.705074462890625,5.773880958557129,-5.772983551025391,-5.67966365814209
1763693328909154600,5.715154541015625,5.814558982849121,-5.8734822273254395,-6.08195686340332
1763693328919234800,5.72523486328125,5.804987907409668,-5.902195930480957,-6.426822662353516
1763693328929470700,5.735470703125,5.857629776000977,-5.9285173416137695,-6.7193450927734375
1763693328939550700,5.74555078125,6.04456901550293,-6.02901554107666,-6.886842727661133
1763693328949631000,5.755630859375,6.212365627288818,-6.177670001983643,-6.944270610809326
1763693328959578000,5.765578125,6.3152570724487305,-6.359823703765869,-6.929913520812988
1763693328969658000,5.775658203125,6.3463640213012695,-6.498607158660889,-6.987640380859375
1763693328979738400,5.78573828125,6.288936138153076,-6.544070720672607,-7.0785675048828125
1763693328989811500,5.7958115234375,6.3463640213012695,-6.7070817947387695,-7.10010290145874
1763693328999891500,5.805891357421875,6.461219310760498,-6.91555643081665,-7.0785675048828125
1763693329009971500,5.815971435546875,6.3152570724487305,-6.941877365112305,-6.819843769073486
1763693329020049400,5.82604931640625,5.883950710296631,-6.728617191314697,-6.484549522399902
1763693329030129400,5.83612939453125,5.5127644538879395,-6.484250068664551,-6.242575168609619
1763693329040209700,5.846209716796875,5.529513835906982,-6.364609241485596,-6.180361747741699
1763693329060359400,5.866359375,6.621837615966797,-6.675975322723389,-6.431608200073242
1763693329070439400,5.876439453125,6.959524631500244,-6.750152587890625,-6.424429893493652
1763693329080519000,5.886518798828125,7.060322284698486,-6.766902446746826,-6.357430458068848
1763693329090599000,5.896598876953125,7.05553674697876,-6.8243303298950195,-6.455835342407227
1763693329100679000,5.906678955078125,6.861418724060059,-6.8605217933654785,-6.8294148445129395
1763693329110784000,5.916783935546875,6.6577301025390625,-6.8171515464782715,-7.205387115478516
1763693329120864000,5.926864013671875,6.573981285095215,-6.6352972984313965,-7.533802032470703
1763693329130944000,5.936944091796875,6.511767864227295,-6.355037689208984,-7.758727550506592
1763693329141031200,5.94703125,6.530910491943359,-6.15134859085083,-7.952845096588135
1763693329151111200,5.957111083984375,6.538088798522949,-6.007480144500732,-8.156534194946289
1763693329161191200,5.967191162109375,6.545267105102539,-5.799304962158203,-8.307282447814941
1763693329171258400,5.97725830078125,6.502196311950684,-5.602794170379639,-8.391329765319824
1763693329181338400,5.98733837890625,6.300900459289551,-5.305785179138184,-8.297710418701172
1763693329191418600,5.997418701171875,5.972784519195557,-4.939085006713867,-7.916952610015869
1763693329202104000,6.00810400390625,5.66111946105957,-4.60857629776001,-7.4138617515563965
1763693329212184000,6.01818408203125,5.503192901611328,-4.316352844238281,-7.0307111740112305
1763693329222264000,6.02826416015625,5.263611793518066,-3.9762730598449707,-6.726523399353027
1763693329232346600,6.0383466796875,4.810770034790039,-3.434896945953369,-6.333502292633057
1763693329242426600,6.048426513671875,4.530510425567627,-2.9150562286376953,-5.947958946228027
1763693329252506600,6.058506591796875,4.559224605560303,-2.4837498664855957,-5.698806285858154
1763693329262590200,6.068590087890625,4.636094093322754,-2.0910279750823975,-5.473581790924072
1763693329272670200,6.078670166015625,4.607379913330078,-1.7653049230575562,-5.128716468811035
1763693329282750200,6.088750244140625,4.633700847625732,-1.6501502990722656,-4.7835516929626465
1763693329292825000,6.0988251953125,4.815555572509766,-1.66929292678833,-4.630411148071289
1763693329302905000,6.108905029296875,4.918745994567871,-1.7075780630111694,-4.625625133514404
1763693329312985000,6.118985107421875,4.904388904571533,-1.7099708318710327,-4.568197727203369
1763693329332501500,6.13850146484375,5.009673118591309,-2.055135488510132,-4.965705394744873
1763693329342581800,6.148581787109375,5.189434051513672,-2.2585253715515137,-5.420939922332764
1763693329352729300,6.158729248046875,5.407480239868164,-2.5220351219177246,-5.885446548461914
1763693329362809300,6.168809326171875,5.680561065673828,-2.7640092372894287,-6.453442573547363
1763693329372889300,6.178889404296875,5.987141132354736,-2.927020311355591,-7.016354084014893
1763693329382971000,6.188970947265625,6.274579048156738,-3.0442686080932617,-7.4449687004089355
1763693329393051000,6.19905078125,6.5404815673828125,-3.0876386165618896,-7.881060600280762
1763693329403131100,6.209131103515625,6.825526714324951,-3.1043882369995117,-8.343473434448242
1763693329413135600,6.219135498046875,7.022037029266357,-3.0251259803771973,-8.709874153137207
1763693329423215600,6.229215576171875,7.304689407348633,-3.0275187492370605,-8.937491416931152
1763693329433295600,6.239295654296875,7.76680326461792,-3.106781005859375,-9.306285858154297
1763693329443420400,6.24942041015625,8.097610473632812,-3.1594231128692627,-9.737591743469238
1763693329453500400,6.25950048828125,8.28425121307373,-3.1259236335754395,-10.077672004699707
1763693329463580700,6.26958056640625,8.504690170288086,-3.1115667819976807,-10.463214874267578
1763693329473666800,6.279666748046875,8.655736923217773,-3.029911756515503,-10.863414764404297
1763693329483746800,6.289746826171875,8.689236640930176,-2.9389843940734863,-11.052746772766113
1763693329493826800,6.299826904296875,8.856734275817871,-2.874378204345703,-11.169995307922363
1763693329503910000,6.309909912109375,9.218647956848145,-2.9724838733673096,-11.32104206085205
1763693329513990000,6.319989990234375,9.448657989501953,-3.0370900630950928,-11.316256523132324
1763693329524070000,6.33006982421875,9.304789543151855,-2.919841766357422,-11.270493507385254
1763693329534155000,6.340155029296875,8.856734275817871,-2.567797899246216,-11.179566383361816
1763693329544235000,6.350235107421875,8.5764741897583,-2.2393829822540283,-11.093424797058105
1763693329554315000,6.36031494140625,8.837591171264648,-2.2345972061157227,-11.011770248413086
1763693329564384300,6.37038427734375,9.429216384887695,-2.6204400062561035,-10.99741268157959
1763693329574464300,6.38046435546875,9.929914474487305,-3.209672451019287,-10.99741268157959
1763693329584544300,6.390544189453125,10.1814603805542,-3.7821552753448486,-10.985448837280273
1763693329594623000,6.400623046875,10.229316711425781,-4.29242467880249,-11.215458869934082
1763693329604703000,6.410702880859375,9.901201248168945,-4.436293125152588,-11.618051528930664
1763693329614783000,6.420782958984375,9.134600639343262,-4.062414646148682,-12.058629989624023
1763693329624862700,6.43086279296875,8.26989459991455,-3.3415768146514893,-12.338889122009277
1763693329634942700,6.440942626953125,7.82692289352417,-2.766402006149292,-12.413365364074707
1763693329645022700,6.451022705078125,7.821837902069092,-2.59411883354187,-12.3942232131958
1763693329655118000,6.4611181640625,7.699804306030273,-2.6443681716918945,-12.228818893432617
1763693329665198000,6.471197998046875,7.409973621368408,-2.812164783477783,-11.8528470993042
1763693329675278000,6.481278076171875,7.144071102142334,-3.130709409713745,-11.316256523132324
1763693329685339400,6.49133935546875,6.983452796936035,-3.511467218399048,-10.623833656311035
1763693329695419400,6.50141943359375,6.6505513191223145,-3.8132619857788086,-10.0704927444458
1763693329705499400,6.51149951171875,6.327221393585205,-4.0528435707092285,-9.818947792053223
1763693329715601000,6.521600830078125,6.101996898651123,-4.2708892822265625,-9.883553504943848
1763693329725681000,6.531680908203125,5.733202934265137,-4.34745979309082,-9.98435115814209
1763693329735761000,6.541760986328125,5.321039199829102,-4.201497554779053,-9.929018020629883
1763693329745832400,6.55183251953125,4.961816787719727,-4.004986763000488,-9.655936241149902
1763693329755912400,6.561912353515625,4.7030930519104,-3.79890513420105,-9.229715347290039
1763693329765992400,6.571992431640625,4.477868556976318,-3.59043025970459,-8.669196128845215
1763693329776078300,6.582078369140625,4.2693939208984375,-3.370290756225586,-8.178069114685059
1763693329786158300,6.592158447265625,4.216751575469971,-3.145066261291504,-7.818847179412842
1763693329796238300,6.60223828125,4.223930358886719,-2.9461629390716553,-7.502396106719971
1763693329806323500,6.612323486328125,4.243072986602783,-2.848057270050049,-7.181458950042725
1763693329816403500,6.622403564453125,4.24785852432251,-2.9078776836395264,-6.874878406524658
1763693329826483500,6.6324833984375,4.252644062042236,-3.0852456092834473,-6.712166786193848
1763693329836522000,6.64252197265625,4.259822368621826,-3.2934212684631348,-6.661618232727051
1763693329846602000,6.65260205078125,4.233501434326172,-3.559323787689209,-6.632904529571533
1763693329856682000,6.662681884765625,4.099503517150879,-3.8036906719207764,-6.484549522399902
1763693329866788600,6.67278857421875,4.015455722808838,-4.007379531860352,-6.216254234313965
1763693329876868600,6.68286865234375,4.063611030578613,-4.268496513366699,-6.086742401123047
1763693329886948600,6.692948486328125,4.118646144866943,-4.5391845703125,-6.000600814819336
1763693329896998000,6.702997802734375,4.202394962310791,-4.776372909545898,-5.899803161621094
1763693329907078000,6.713077880859375,4.252644062042236,-5.0255255699157715,-5.943173408508301
1763693329917158000,6.723157958984375,4.1282172203063965,-5.339284420013428,-6.268896102905273
1763693329927246800,6.733246826171875,4.022634029388428,-5.6099724769592285,-7.116852760314941
1763693329937326800,6.743326904296875,3.905385732650757,-5.842375755310059,-8.166105270385742
1763693329947406800,6.75340673828125,3.775874137878418,-5.940481185913086,-9.33021354675293
1763693329957516500,6.7635166015625,3.689732551574707,-5.780162334442139,-10.322038650512695
1763693329967596500,6.773596435546875,3.5676984786987305,-5.62672233581543,-10.951949119567871
1763693329977676500,6.783676513671875,3.5605201721191406,-5.600401401519775,-11.280064582824707
1763693329987753500,6.79375341796875,3.672982692718506,-5.624329566955566,-11.582159042358398
1763693329997833500,6.80383349609375,3.929313898086548,-5.590830326080322,-11.795120239257812
1763693330007913500,6.81391357421875,4.264608383178711,-5.519045352935791,-11.891132354736328
1763693330017998800,6.823998779296875,4.504189491271973,-5.341677665710449,-12.008380889892578
1763693330028078800,6.834078857421875,4.575973987579346,-5.121238708496094,-12.178569793701172
1763693330038158800,6.844158935546875,4.573581218719482,-5.157131195068359,-12.238390922546387
1763693330048190500,6.8541904296875,4.5185465812683105,-5.312963485717773,-12.118749618530273
1763693330058270500,6.8642705078125,4.056432723999023,-5.377569675445557,-11.831012725830078
1763693330068350500,6.8743505859375,3.2563323974609375,-5.293820858001709,-11.673086166381836
1763693330078459600,6.884459716796875,2.583052158355713,-4.898406982421875,-11.744871139526367
1763693330088539600,6.89453955078125,2.2453649044036865,-4.467400074005127,-11.699407577514648
1763693330098619600,6.90461962890625,2.2453649044036865,-4.282853603363037,-11.392827033996582
1763693330108648400,6.9146484375,2.415255308151245,-4.0935211181640625,-11.047961235046387
1763693330118728400,6.924728515625,2.592623233795166,-3.909274101257324,-10.54965591430664
1763693330128808400,6.934808349609375,2.5639095306396484,-3.6314074993133545,-9.936196327209473
1763693330148999000,6.9549990234375,1.7207385301589966,-2.8241288661956787,-8.659625053405762
1763693330159079000,6.965078857421875,1.3061820268630981,-2.4909284114837646,-8.494221687316895
1763693330169161500,6.975161376953125,1.0043872594833374,-2.3617160320281982,-8.788837432861328
1763693330179241500,6.985241455078125,0.7863413691520691,-2.4358935356140137,-9.17707347869873
1763693330189321500,6.995321533203125,0.7432705163955688,-2.6994030475616455,-9.414261817932129
1763693330199417000,7.0054169921875,0.7265207767486572,-2.905484914779663,-9.708877563476562
1763693330209497000,7.0154970703125,0.8368897438049316,-2.773580551147461,-9.49322509765625
1763693330219577000,7.0255771484375,0.997208833694458,-2.191526412963867,-8.487042427062988
1763693330229657900,7.035657958984375,1.1937193870544434,-1.5209379196166992,-7.845168113708496
1763693330249817900,7.05581787109375,1.339681625366211,-0.9245268702507019,-7.03788948059082
1763693330259943200,7.065943115234375,1.124327540397644,-1.3435698747634888,-6.968198776245117
1763693330270023200,7.076023193359375,0.7384848594665527,-1.846660852432251,-6.925127983093262
1763693330280103200,7.086103271484375,0.18514464795589447,-2.1245274543762207,-7.095317363739014
1763693330290136800,7.09613671875,-0.483051061630249,-2.1005992889404297,-7.485646724700928
1763693330300216800,7.106216796875,-0.921535849571228,-2.0599212646484375,-7.8092756271362305
1763693330310296800,7.116296875,-1.0339984893798828,-1.8897316455841064,-8.290532112121582
1763693330320327200,7.1263271484375,-0.9239286184310913,-1.3100703954696655,-8.846264839172363
1763693330330407200,7.1364072265625,-0.7178468108177185,-0.7447660565376282,-8.781659126281738
1763693330340487200,7.146487060546875,-0.5958128571510315,-0.4860421121120453,-8.206783294677734
1763693330350555400,7.156555419921875,-0.4543372094631195,-0.026021946221590042,-7.533802032470703
1763693330360635400,7.166635498046875,-0.24586252868175507,0.4411766827106476,-6.937091827392578
1763693330370715400,7.17671533203125,0.0032901312224566936,0.08404789865016937,-6.331109523773193
1763693330380859400,7.186859375,0.3002992272377014,0.4459623098373413,-6.129813194274902
1763693330390939400,7.196939453125,0.2907279431819916,0.6565307378768921,-6.25932502746582
1763693330401019400,7.207019287109375,0.017647067084908485,0.651745080947876,-6.810272216796875
1763693330411068400,7.217068359375,-0.2844468057155609,0.8315058946609497,-7.34686279296875
1763693330421148400,7.2271484375,-0.45912283658981323,1.0423734188079834,-7.411468982696533
1763693330431228400,7.237228515625,-0.5982056856155396,1.5020943880081177,-7.373183727264404
1763693330441891800,7.247891845703125,-0.5431707501411438,2.129911184310913,-7.555337429046631
1763693330451971800,7.257971923828125,-0.24107688665390015,2.635395050048828,-8.060821533203125
1763693330462051800,7.2680517578125,0.07028916478157043,2.8941190242767334,-9.128917694091797
1763693330472174000,7.278174072265625,0.21385852992534637,2.845963478088379,-10.518548965454102
1763693330482254000,7.288254150390625,-0.025722842663526535,2.572882652282715,-11.28485107421875
1763693330492334000,7.298333984375,-0.5742774605751038,2.362314224243164,-11.17478084564209
1763693330502414300,7.308414306640625,-1.1515458822250366,2.407777786254883,-10.638190269470215
1763693330512494300,7.318494384765625,-1.5394822359085083,2.6952157020568848,-10.326824188232422
1763693330522574300,7.32857421875,-1.6259230375289917,2.9276185035705566,-10.39621639251709
1763693330542151200,7.348151123046875,-0.638883650302887,2.92283296585083,-11.32104206085205
1763693330552231200,7.358231201171875,0.3361915946006775,3.016152858734131,-11.75444221496582
1763693330562890500,7.368890380859375,0.7121638655662537,2.92283296585083,-11.565110206604004
1763693330572970500,7.378970458984375,0.5757729411125183,2.589632272720337,-11.610873222351074
1763693330583050500,7.389050537109375,0.18514464795589447,2.199303150177002,-12.485150337219238
1763693330602587600,7.408587646484375,-0.483051061630249,1.1261221170425415,-12.470793724060059
1763693330612667600,7.418667724609375,-0.15254244208335876,0.8075776696205139,-11.723335266113281
1763693330622775800,7.42877587890625,0.254536509513855,0.6469594240188599,-10.638190269470215
1763693330632855800,7.438855712890625,-0.06161518394947052,0.4507479667663574,-10.216455459594727
1763693330642935600,7.448935546875,-0.006580262444913387,-0.5913262963294983,-9.680164337158203
1763693330653043000,7.45904296875,-0.38255253434181213,-0.7782655358314514,-9.838089942932129
1763693330663123000,7.469123046875,-0.483051061630249,-1.0106685161590576,-10.123135566711426
1763693330673203000,7.479202880859375,0.08225327730178833,-1.2646067142486572,-10.85862922668457
1763693330683259600,7.489259765625,0.3696911036968231,-1.6477575302124023,-11.457432746887207
1763693330693339400,7.49933935546875,0.5853442549705505,-1.9905292987823486,-11.620444297790527
1763693330703419400,7.50941943359375,0.8895317912101746,-2.2923240661621094,-11.435897827148438
1763693330713488400,7.51948828125,0.783948540687561,-2.704188585281372,-11.342577934265137
1763693330723568000,7.529568115234375,0.5228317379951477,-2.783151865005493,-10.8969144821167
1763693330733648100,7.539648193359375,0.5132604837417603,-2.8049862384796143,-10.310074806213379
1763693330743722200,7.54972216796875,0.4701896607875824,-2.7783660888671875,-9.989137649536133
1763693330753802200,7.55980224609375,1.1458629369735718,-2.6300110816955566,-9.60807991027832
1763693330763882000,7.569882080078125,0.9445667266845703,-2.047957181930542,-9.433403968811035
1763693330773949400,7.579949462890625,0.9326026439666748,-2.0814566612243652,-9.169894218444824
1763693330784029400,7.590029541015625,1.150648593902588,-1.7437695264816284,-9.165108680725098
1763693330794109400,7.600109375,1.344467282295227,-1.3818551301956177,-9.01406192779541
1763693330804201700,7.61020166015625,1.2224332094192505,-1.1518449783325195,-8.726624488830566
1763693330814281700,7.62028173828125,0.9828519225120544,-1.0369895696640015,-8.539685249328613
1763693330824361700,7.63036181640625,0.7743772268295288,-0.9221340417861938,-8.379365921020508
1763693330834434000,7.64043408203125,0.8656035661697388,-0.15553347766399384,-7.765905857086182
1763693330844513800,7.650513671875,0.5060819983482361,0.07926224917173386,-7.653443336486816
1763693330854593800,7.66059375,0.1420738399028778,-0.3086741268634796,-8.455936431884766
1763693330864651000,7.670651123046875,-1.529910922050476,-0.7663014531135559,-9.049954414367676
1763693330874730800,7.680730712890625,-0.32273194193840027,-0.011665010824799538,-9.22253704071045
1763693330884810800,7.690810791015625,0.3122633695602417,0.7549355626106262,-8.599804878234863
1763693330894938000,7.700938232421875,0.26889345049858093,0.9873384237289429,-7.9504523277282715
1763693330905018000,7.71101806640625,0.6930212378501892,1.3202399015426636,-7.7180495262146
1763693330915097900,7.721097900390625,1.064207911491394,1.0878369808197021,-7.624729156494141
1763693330925184300,7.731184326171875,1.3468600511550903,1.2556337118148804,-7.157530784606934
1763693330935264300,7.74126416015625,1.3109676837921143,1.576570987701416,-7.1024956703186035
1763693330945344300,7.75134423828125,0.6116653084754944,1.8305093050003052,-7.301399230957031
1763693330955383300,7.76138330078125,-0.3370888829231262,2.513062000274658,-7.58644437789917
1763693330965463300,7.77146337890625,-0.6340979933738708,3.0664021968841553,-7.948059558868408
1763693330975543300,7.781543212890625,-0.24825534224510193,3.138485908508301,-7.900203227996826
1763693330985655300,7.7916552734375,0.4103690981864929,2.611466884613037,-8.022236824035645
1763693330995735300,7.8017353515625,0.8078767657279968,2.565704107284546,-8.688339233398438
1763693331005815300,7.811815185546875,0.6403791308403015,2.1323041915893555,-9.196215629577637
1763693331015900000,7.82189990234375,0.2234298139810562,1.801795482635498,-9.478867530822754
1763693331025979600,7.831979736328125,-0.16929219663143158,1.8113667964935303,-10.130313873291016
1763693331046144800,7.852144775390625,-0.047258246690034866,1.9094724655151367,-11.407183647155762
1763693331056224800,7.862224853515625,0.24496522545814514,1.8233308792114258,-11.704193115234375
1763693331066304800,7.8723046875,0.8727820515632629,1.4279168844223022,-11.816655158996582
1763693331076369400,7.882369384765625,1.837986946105957,0.9655039310455322,-12.034701347351074
1763693331086449200,7.89244921875,2.1158533096313477,0.5177469849586487,-12.08495044708252
1763693331096529200,7.902529052734375,2.185544490814209,0.373878538608551,-12.207283973693848
1763693331106630100,7.912630126953125,2.0608184337615967,0.4579264223575592,-12.214462280273438
1763693331116710000,7.9227099609375,1.857129454612732,0.5751747488975525,-12.161820411682129
1763693331126790000,7.932789794921875,1.8547366857528687,0.41216370463371277,-12.245569229125977
1763693331136871000,7.942870849609375,1.830808401107788,0.18484555184841156,-12.463615417480469
1763693331146951000,7.952950927734375,2.1158533096313477,0.13190434873104095,-12.832408905029297
1763693331157031000,7.963031005859375,2.8848466873168945,0.17527425289154053,-13.110275268554688
1763693331167106800,7.97310693359375,3.347259759902954,0.11515458673238754,-13.261322021484375
1763693331187266800,7.993266845703125,2.6668007373809814,-0.09062815457582474,-12.499506950378418
1763693331197336000,8.003336181640625,2.5088746547698975,-0.2967100143432617,-11.823834419250488
1763693331207416000,8.013416015625,2.6668007373809814,-0.40229329466819763,-11.033604621887207
1763693331217496000,8.02349609375,2.95184588432312,-0.7208378314971924,-10.276575088500977
1763693331227552500,8.033552490234374,3.009572744369507,-0.5937191247940063,-10.302896499633789
1763693331237632500,8.043632568359374,2.7436702251434326,-0.6152545213699341,-10.178170204162598
1763693331247712300,8.053712158203124,2.2621147632598877,-0.6248258352279663,-10.245468139648438
1763693331257813200,8.063813232421875,1.672882080078125,-0.2632105052471161,-9.897911071777344
1763693331267893200,8.073893310546875,1.5433706045150757,-0.35413774847984314,-9.711270332336426
1763693331277973200,8.08397314453125,1.7685949802398682,-0.2847459018230438,-9.605687141418457
1763693331288054800,8.0940546875,2.1302103996276855,-0.10019944608211517,-8.85344409942627
1763693331298134800,8.104134765625,2.5734808444976807,0.0768694281578064,-7.777870178222656
1763693331308214800,8.11421484375,3.0311081409454346,0.06011966988444328,-6.905985355377197
1763693331318265900,8.124265869140626,3.1507492065429688,-0.24406790733337402,-6.355037689208984
1763693331328345600,8.134345703125,2.9159533977508545,-0.5338985323905945,-5.828018665313721
1763693331338425600,8.144425537109376,2.7675983905792236,-0.4166502356529236,-5.293820858001709
1763693331348530200,8.1545302734375,3.057429075241089,0.13190434873104095,-4.563411712646484
1763693331358610200,8.164610107421876,3.2344980239868164,0.41934216022491455,-3.9499518871307373
1763693331368690200,8.174690185546876,3.4070804119110107,0.5967101454734802,-3.473181962966919
1763693331378782500,8.184782470703125,3.4669008255004883,0.6924230456352234,-3.1498517990112305
1763693331388862500,8.194862548828125,3.440579891204834,0.8027920126914978,-2.77866530418396
1763693331398942200,8.204942138671875,3.4669008255004883,0.6373881101608276,-2.584547519683838
1763693331409006800,8.2150068359375,3.4190444946289062,0.20398813486099243,-2.5725834369659424
1763693331419086800,8.2250869140625,3.13639235496521,-0.4668995141983032,-2.723630428314209
1763693331429166600,8.23516650390625,2.7723841667175293,-1.231107234954834,-2.7810580730438232
1763693331439222300,8.24522216796875,2.810669183731079,-1.724626898765564,-2.65633225440979
1763693331449302300,8.25530224609375,3.5916268825531006,-1.7027924060821533,-2.366501569747925
1763693331459382300,8.26538232421875,4.451547622680664,-1.3148560523986816,-2.040778636932373
1763693331469441300,8.275441162109376,4.928317546844482,-1.1135598421096802,-1.4467604160308838
1763693331479521300,8.285521240234376,5.237290382385254,-1.293320655822754,-1.144965648651123
1763693331489601000,8.29560107421875,5.6324052810668945,-1.70039963722229,-1.2335001230239868
1763693331499716600,8.305716552734374,5.924628734588623,-2.0455641746520996,-1.700698733329773
1763693331509796600,8.315796630859374,5.800201892852783,-2.407179594039917,-2.4481565952301025
1763693331519876600,8.325876708984374,5.36650276184082,-2.8456642627716064,-3.4061830043792725
1763693331529974500,8.335974609375,5.256433010101318,-3.1354949474334717,-4.745266437530518
1763693331540054500,8.346054443359375,5.802595138549805,-3.233600616455078,-6.343073844909668
1763693331550134500,8.356134521484375,6.585945129394531,-3.039483070373535,-7.914559841156006
1763693331560295400,8.36629541015625,7.213462829589844,-2.4765713214874268,-9.220144271850586
1763693331570375400,8.37637548828125,7.728518009185791,-1.975873351097107,-10.288538932800293
1763693331580455400,8.386455322265626,8.346464157104492,-1.8753747940063477,-10.990234375
1763693331590466300,8.39646630859375,8.696414947509766,-2.205883264541626,-11.388041496276855
1763693331600546300,8.40654638671875,8.686843872070312,-2.6850461959838867,-11.687442779541016
1763693331610626300,8.416626220703124,8.464012145996094,-3.015554666519165,-12.23121166229248
1763693331620706300,8.426706298828124,8.253144264221191,-3.168994426727295,-13.155738830566406
1763693331630745600,8.43674560546875,8.063812255859375,-3.1737802028656006,-14.308181762695312
1763693331640825600,8.44682568359375,8.178966522216797,-3.0035905838012695,-15.77408504486084
1763693331650905600,8.456905517578125,8.691629409790039,-2.7927231788635254,-17.30728530883789
1763693331661580800,8.467580810546876,9.10827922821045,-2.529512643814087,-18.179170608520508
1763693331671660800,8.477660888671876,9.237791061401367,-2.062314033508301,-18.169599533081055
1763693331681740800,8.48774072265625,9.144171714782715,-1.4635101556777954,-17.36949920654297
1763693331701303000,8.507302978515625,9.352646827697754,-0.7974081635475159,-16.406389236450195
1763693331711383000,8.517383056640625,9.745667457580566,-0.7471588850021362,-15.999309539794922
1763693331721440000,8.52743994140625,10.145567893981934,-0.9074779748916626,-15.661622047424316
1763693331731520000,8.53752001953125,10.579267501831055,-0.9412766098976135,-15.48904037475586
1763693331741600000,8.54760009765625,10.43779182434082,-0.6801598072052002,-15.25903034210205
1763693331752303400,8.558303466796875,9.987641334533691,0.18723836541175842,-15.16331672668457
1763693331762383400,8.56838330078125,9.776774406433105,0.8027920126914978,-15.45075511932373
1763693331772463400,8.57846337890625,9.721739768981934,0.9343972206115723,-15.652050971984863
1763693331782528500,8.588528564453124,9.68794059753418,1.5741782188415527,-15.227923393249512
1763693331792608500,8.5986083984375,9.410074234008789,1.7273188829421997,-14.705689430236816
1763693331802688500,8.6086884765625,9.058030128479004,1.6363916397094727,-14.23849105834961
1763693331812796000,8.6187958984375,8.816056251525879,1.612463355064392,-13.869697570800781
1763693331822876000,8.6288759765625,8.564510345458984,1.5693925619125366,-13.711471557617188
1763693331832956000,8.638955810546875,8.336893081665039,1.612463355064392,-13.59900951385498
1763693331852503000,8.6585029296875,7.932207107543945,1.825723648071289,-13.038490295410156
1763693331862583000,8.6685830078125,7.699804306030273,2.1107685565948486,-12.434901237487793
1763693331872658700,8.67865869140625,7.632805347442627,2.3213369846343994,-11.778369903564453
1763693331882738700,8.68873876953125,7.6304121017456055,2.4436700344085693,-11.102995872497559
1763693331892818700,8.698818603515624,7.551149845123291,2.4580271244049072,-10.324431419372559
1763693331902939600,8.708939697265626,7.383652687072754,2.331207513809204,-9.58654499053955
1763693331913019600,8.71901953125,7.239784240722656,2.2256240844726562,-8.793622970581055
1763693331923099600,8.729099609375,7.167999267578125,2.1705892086029053,-7.854739665985107
1763693331933132300,8.73913232421875,7.072286605834961,2.0482561588287354,-6.891628265380859
1763693331943212300,8.74921240234375,7.091429233551025,1.7871394157409668,-6.0197434425354
1763693331953292300,8.759292236328125,7.120142936706543,1.4446666240692139,-5.497509956359863
1763693331963400200,8.769400146484376,6.954739093780518,1.0447661876678467,-5.375475883483887
1763693331973480200,8.779480224609374,6.655336856842041,0.6924230456352234,-5.353641510009766
1763693331983560200,8.789560302734374,6.410970211029053,0.34995031356811523,-5.3970112800598145
1763693331993606700,8.799606689453125,6.286543369293213,-0.17228323221206665,-5.617151260375977
1763693332003686700,8.809686767578125,6.159424781799316,-0.6945167779922485,-5.67966365814209
1763693332013766700,8.8197666015625,6.063711643218994,-1.1446665525436401,-5.667699337005615
1763693332023887600,8.8298876953125,6.09960412979126,-1.7027924060821533,-5.813661575317383
1763693332033967600,8.839967529296874,6.207580089569092,-2.2755744457244873,-6.084349632263184
1763693332044047600,8.850047607421875,6.219544410705566,-2.816950559616089,-6.4941205978393555
1763693332054103000,8.86010302734375,6.269793510437012,-3.288635730743408,-6.9083781242370605
1763693332064183000,8.87018310546875,6.293721675872803,-3.70558500289917,-7.202994346618652
1763693332074263000,8.880262939453125,6.279364585876465,-4.048057556152344,-7.363612651824951
1763693332084356600,8.890356689453125,6.415755748748779,-4.40967321395874,-7.399505138397217
1763693332094436600,8.9004365234375,6.722336292266846,-4.8074798583984375,-7.579265594482422
1763693332104516600,8.9105166015625,6.952346324920654,-5.24835729598999,-7.87148904800415
1763693332114604500,8.9206044921875,7.038786888122559,-5.55733060836792,-8.106285095214844
1763693332124684500,8.9306845703125,7.172784805297852,-5.748756408691406,-8.261817932128906
1763693332134764500,8.9407646484375,7.2110700607299805,-5.883053779602051,-8.292924880981445
1763693332144847600,8.95084765625,7.048357963562012,-6.017051696777344,-8.170890808105469
1763693332154927600,8.960927734375,6.74656343460083,-6.203990936279297,-7.883453369140625
1763693332165007600,8.971007568359376,6.458826541900635,-6.417251110076904,-7.617550849914551
1763693332175077400,8.981077392578126,6.3631134033203125,-6.781259536743164,-7.545766353607178
1763693332185157400,8.991157470703126,6.329614162445068,-7.262814998626709,-7.698906898498535
1763693332195237400,9.0012373046875,5.97517728805542,-7.4617180824279785,-7.7925262451171875
1763693332205335600,9.01133544921875,5.32821798324585,-7.334599494934082,-7.720442295074463
1763693332215415600,9.02141552734375,4.8589253425598145,-7.16949462890625,-7.622336387634277
1763693332225495600,9.03149560546875,4.817948341369629,-7.193423271179199,-7.694121360778809
1763693332235564000,9.04156396484375,5.234897613525391,-7.40189790725708,-7.679764270782471
1763693332245644000,9.05164404296875,5.927021503448486,-8.046165466308594,-7.576872825622559
1763693332255724000,9.06172412109375,6.418148517608643,-7.552645683288574,-7.4377899169921875
1763693332265791500,9.07179150390625,6.830312252044678,-7.923832416534424,-7.23170804977417
1763693332275871500,9.08187158203125,6.926024913787842,-8.230711936950684,-7.059424877166748
1763693332285951500,9.091951416015625,6.449255466461182,-7.868797302246094,-6.618547439575195
1763693332296014600,9.1020146484375,5.891129493713379,-7.2436723709106445,-6.2760748863220215
1763693332306094600,9.112094482421876,5.59890604019165,-6.747759819030762,-6.39810848236084
1763693332316174600,9.122174560546876,5.8959150314331055,-6.448358058929443,-6.8294148445129395
1763693332326283800,9.13228369140625,6.300900459289551,-6.33589506149292,-7.22452974319458
1763693332336363800,9.14236376953125,6.652944087982178,-6.235097408294678,-7.488039493560791
1763693332346443800,9.15244384765625,6.9930243492126465,-6.134599208831787,-7.708477973937988
1763693332356506000,9.162506103515625,7.220641613006592,-6.077171325683594,-7.60080099105835
1763693332366586000,9.172586181640625,7.282855033874512,-6.048457622528076,-7.23170804977417
1763693332376666000,9.182666015625,7.165606498718262,-6.002694606781006,-6.920341968536377
1763693332386761500,9.192761474609375,6.835097789764404,-5.7873406410217285,-6.589833736419678
1763693332396841500,9.202841552734375,6.4085774421691895,-5.403890609741211,-6.1971116065979
1763693332406921500,9.21292138671875,6.008676528930664,-5.020740032196045,-5.9407806396484375
1763693332416995300,9.222995361328126,5.531907081604004,-4.682754039764404,-5.68684196472168
1763693332427075300,9.233075439453126,5.102993488311768,-4.36181640625,-5.466403484344482
1763693332437155300,9.2431552734375,4.755734920501709,-4.009772777557373,-5.312963485717773
1763693332447249400,9.25324951171875,4.475475788116455,-3.5880374908447266,-5.245964527130127
1763693332457329400,9.263329345703125,4.3295135498046875,-3.1953155994415283,-5.25553560256958
1763693332467409400,9.273409423828125,4.259822368621826,-2.8935208320617676,-5.195715427398682
1763693332477472000,9.283471923828126,4.281357765197754,-2.680260419845581,-5.0087761878967285
1763693332487552000,9.293552001953126,4.351048946380615,-2.4406790733337402,-4.989633560180664
1763693332497632000,9.303632080078126,4.346263408660889,-2.297109842300415,-4.956133842468262
1763693332507712800,9.313712646484374,4.372584342956543,-2.189133644104004,-4.910670280456543
1763693332517792800,9.323792724609374,4.341477394104004,-2.0264217853546143,-4.956133842468262
1763693332527872800,9.333872802734374,4.427618980407715,-1.9423737525939941,-5.229214668273926
1763693332537933000,9.34393310546875,4.748556613922119,-1.9806588888168335,-5.777769565582275
1763693332548013000,9.354012939453124,5.2013983726501465,-1.9830517768859863,-6.414858341217041
1763693332558093000,9.364093017578124,5.54387092590332,-1.8897316455841064,-7.025925636291504
1763693332568187000,9.374186767578125,5.819344520568848,-1.8083757162094116,-7.430611610412598
1763693332578267100,9.38426708984375,6.204888343811035,-1.7868403196334839,-7.890631675720215
1763693332588347000,9.394346923828126,6.69362211227417,-1.7892330884933472,-8.307282447814941
1763693332598458400,9.404458251953125,7.335795879364014,-1.8059829473495483,-8.72901725769043
1763693332608538400,9.414538330078125,7.922635555267334,-1.8873388767242432,-9.107381820678711
1763693332618618400,9.424618408203125,8.37547779083252,-1.9878374338150024,-9.409476280212402
1763693332628653000,9.434653076171875,8.744271278381348,-2.1005992889404297,-9.675079345703125
1763693332638733000,9.444733154296875,8.897412300109863,-2.181955099105835,-10.046565055847168
1763693332648813000,9.45481298828125,8.9910306930542,-2.273181438446045,-10.463214874267578
1763693332658897200,9.464897216796874,9.156135559082031,-2.1771695613861084,-10.839486122131348
1763693332668977200,9.47497705078125,9.431609153747559,-2.0527427196502686,-11.086246490478516
1763693332679057200,9.48505712890625,9.623334884643555,-1.8442680835723877,-11.16042423248291
1763693332689140700,9.495140625,9.668798446655273,-1.4826527833938599,-11.272886276245117
1763693332699220700,9.505220703125,9.75523853302002,-1.103988528251648,-11.440683364868164
1763693332709300700,9.51530078125,10.047462463378906,-0.9197412133216858,-11.720942497253418
1763693332719408600,9.52540869140625,10.377970695495605,-0.8859425783157349,-11.979666709899902
1763693332729488600,9.535488525390624,10.382756233215332,-0.7567301392555237,-12.209676742553711
1763693332739568600,9.545568603515624,10.01874828338623,-0.3565305769443512,-12.228818893432617
1763693332749638100,9.55563818359375,9.424430847167969,0.09601201117038727,-11.93898868560791
1763693332759718100,9.56571826171875,9.24736213684082,0.20877377688884735,-11.649157524108887
1763693332769798100,9.575798095703124,9.568299293518066,-0.0690927505493164,-11.56271743774414
1763693332779900200,9.585900146484375,10.068997383117676,-1.0992028713226318,-11.32104206085205
1763693332789980200,9.595980224609375,10.495219230651855,-1.9256240129470825,-11.325827598571777
1763693332800060200,9.60606005859375,10.418648719787598,-2.0383858680725098,-11.833405494689941
1763693332810120000,9.616119873046875,9.719346046447754,-1.9256240129470825,-12.286247253417969
1763693332820200000,9.626199951171875,8.868698120117188,-1.5257235765457153,-12.63589859008789
1763693332830280000,9.636280029296875,8.27707290649414,-1.108774185180664,-12.739089012145996
1763693332840343600,9.646343505859376,7.891529083251953,-0.9987043738365173,-12.667304039001465
1763693332850423600,9.656423583984376,7.616055488586426,-1.1446665525436401,-12.387044906616211
1763693332860503600,9.666503662109376,7.503293514251709,-1.5400804281234741,-12.032308578491211
1763693332871159000,9.677158935546874,7.433901786804199,-1.937588095664978,-11.720942497253418
1763693332881239000,9.687239013671874,7.237390995025635,-2.3186452388763428,-11.368898391723633
1763693332891319000,9.697319091796874,6.918846607208252,-2.5749762058258057,-11.112567901611328
1763693332910915300,9.716915283203125,6.619444847106934,-2.912663459777832,-11.100603103637695
1763693332920995300,9.726995361328125,6.636194705963135,-3.0780673027038574,-11.241780281066895
1763693332931063600,9.7370634765625,6.4926252365112305,-3.0490541458129883,-11.165209770202637
1763693332941143600,9.7471435546875,6.3152570724487305,-2.8695926666259766,-10.846665382385254
1763693332951223600,9.7572236328125,6.207580089569092,-2.622832775115967,-10.37228775024414
1763693332961314600,9.767314453125,6.238687038421631,-2.4741785526275635,-9.919445991516113
1763693332971394600,9.77739453125,6.197709560394287,-2.414358139038086,-9.466903686523438
1763693332981474600,9.787474609375,6.051747798919678,-2.2947168350219727,-8.980562210083008
1763693332991551500,9.797551513671875,5.948856353759766,-2.2345972061157227,-8.61894702911377
1763693333001631500,9.807631591796875,5.879165172576904,-2.2250258922576904,-8.321639060974121
1763693333011711500,9.81771142578125,5.953641891479492,-2.306680917739868,-8.11107063293457
1763693333021791500,9.82779150390625,6.128317832946777,-2.591726064682007,-7.904988765716553
1763693333032439000,9.83843896484375,6.082854270935059,-2.5076780319213867,-7.375576496124268
1763693333042519000,9.84851904296875,5.840879917144775,-3.3918261528015137,-6.553941249847412
1763693333052599000,9.85859912109375,5.690132141113281,-3.9762730598449707,-5.832804203033447
1763693333062702800,9.868702880859376,5.553442478179932,-3.815654754638672,-5.100002288818359
1763693333072782800,9.878782958984376,5.4266228675842285,-4.23021125793457,-4.4482574462890625
1763693333082862800,9.88886279296875,5.199005603790283,-4.5583271980285645,-3.995415687561035
1763693333102440000,9.90843994140625,4.650450706481934,-4.651647090911865,-3.355933666229248
1763693333112520000,9.91852001953125,4.530510425567627,-4.7835516929626465,-3.3176486492156982
1763693333122582500,9.92858251953125,4.473083019256592,-4.905585289001465,-3.492623805999756
1763693333132662500,9.93866259765625,4.391726970672607,-4.726123809814453,-3.7247276306152344
1763693333142742500,9.948742431640625,4.281357765197754,-4.4410786628723145,-3.9499518871307373
1763693333152838100,9.958838134765625,4.434797763824463,-4.35463809967041,-4.431507587432861
1763693333162918100,9.968918212890625,4.7030930519104,-4.390530586242676,-5.023132801055908
1763693333172998100,9.978998046875,4.959424018859863,-4.6372904777526855,-5.689234733581543
1763693333183049200,9.98904931640625,5.151148796081543,-4.931906700134277,-6.429215431213379
1763693333203209200,10.009209228515624,5.043172836303711,-5.504688262939453,-7.53140926361084
1763693333213318000,10.01931787109375,5.028815746307373,-5.650650501251221,-7.761120319366455
1763693333223398000,10.02939794921875,5.112564563751221,-5.847161293029785,-8.048558235168457
1763693333233478000,10.039477783203125,5.222933769226074,-5.976373672485352,-8.173283576965332
1763693333243561500,10.0495615234375,5.409873008728027,-6.110671043395996,-8.475078582763672
1763693333253641500,10.059641357421874,5.630012512207031,-6.242276191711426,-8.645268440246582
1763693333263721500,10.069721435546874,5.7547383308410645,-6.436393737792969,-8.42722225189209
1763693333273756700,10.079756591796874,5.7786664962768555,-6.541677951812744,-7.9743804931640625
1763693333283836700,10.089836669921874,5.85284423828125,-6.558427810668945,-7.380362510681152
1763693333293916700,10.099916748046875,6.061318874359131,-6.740581512451172,-6.843771934509277
1763693333303993600,10.10999365234375,6.296114444732666,-6.956234455108643,-6.58265495300293
1763693333314073600,10.120073486328126,6.959524631500244,-7.222136974334717,-6.82223653793335
1763693333324153600,10.130153564453124,8.02791976928711,-7.658228874206543,-7.536194801330566
1763693333334243600,10.14024365234375,8.89501953125,-8.098807334899902,-8.295317649841309
1763693333344323600,10.150323486328125,9.141778945922852,-8.204390525817871,-8.810373306274414
1763693333354403600,10.160403564453125,8.698807716369629,-7.844869136810303,-9.040383338928223
1763693333364527600,10.170527587890625,7.980063438415527,-7.16231632232666,-9.088239669799805
1763693333374607600,10.180607666015625,7.433901786804199,-6.203990936279297,-8.99970531463623
1763693333384687600,10.1906875,7.282855033874512,-5.305785179138184,-8.81515884399414
1763693333394770200,10.200770263671876,7.45782995223999,-4.702195644378662,-8.587541580200195
1763693333404850200,10.21085009765625,7.70458984375,-4.309174537658691,-8.319246292114258
1763693333414930200,10.22093017578125,7.874779224395752,-4.103092670440674,-8.12542724609375
1763693333424933600,10.23093359375,7.9250288009643555,-4.0695929527282715,-8.005487442016602
1763693333435013600,10.241013671875,7.860422611236572,-4.122235298156738,-7.8332037925720215
1763693333445093600,10.25109375,7.675876140594482,-4.275674819946289,-7.588837146759033
1763693333455237600,10.261237548828126,7.3645100593566895,-4.340281009674072,-7.349255561828613
1763693333465317600,10.271317626953126,6.981060028076172,-4.266103744506836,-7.064210414886475
1763693333475397600,10.281397705078126,6.5883378982543945,-4.095914363861084,-6.762415885925293
1763693333485463000,10.291463134765625,6.180960178375244,-3.79890513420105,-6.419643878936768
1763693333495543000,10.30154296875,5.663512229919434,-3.3990044593811035,-6.0508503913879395
1763693333505623000,10.311623046875,5.323431968688965,-3.032304525375366,-5.775376319885254
1763693333515730000,10.32172998046875,5.167898654937744,-2.6539394855499268,-5.746662616729736
1763693333525810000,10.331809814453125,4.90199613571167,-2.253739833831787,-5.677270889282227
1763693333535890000,10.341889892578125,4.516153812408447,-1.9615163803100586,-5.511867046356201
1763693333556049200,10.362049072265625,4.317549228668213,-1.633400559425354,-5.351248741149902
1763693333566129200,10.372129150390625,4.542474746704102,-1.4105689525604248,-5.420939922332764
1763693333576201000,10.382200927734376,4.607379913330078,-1.3148560523986816,-5.418546676635742
1763693333586281000,10.392281005859376,4.547260284423828,-1.3363914489746094,-5.25553560256958
1763693333596361000,10.40236083984375,4.631308078765869,-1.444068431854248,-5.12393045425415
1763693333606423600,10.412423583984374,4.679164886474609,-1.4970096349716187,-5.152644634246826
1763693333616503300,10.42250341796875,4.878067970275879,-1.4730814695358276,-5.442475318908691
1763693333626583300,10.432583251953124,5.364109992980957,-1.353141188621521,-6.077171325683594
1763693333636640800,10.442640869140625,5.66620397567749,-1.384247899055481,-6.7432732582092285
1763693333646720800,10.452720703125,5.912664890289307,-1.7509479522705078,-7.183851718902588
1763693333656800800,10.46280078125,6.118746757507324,-2.189133644104004,-7.509574890136719
1763693333666902800,10.47290283203125,6.255436420440674,-2.3186452388763428,-7.878667831420898
1763693333676982800,10.482982666015625,6.4926252365112305,-2.280359983444214,-8.446364402770996
1763693333687062800,10.493062744140625,6.861418724060059,-2.304288148880005,-9.210572242736816
1763693333707211500,10.51321142578125,7.807481288909912,-2.8002007007598877,-10.518548965454102
1763693333717291500,10.52329150390625,8.404191017150879,-2.7855446338653564,-11.098210334777832
1763693333727399200,10.533399169921875,8.79930591583252,-2.6060829162597656,-11.299507141113281
1763693333737479200,10.543479248046875,9.031708717346191,-2.3258235454559326,-11.265707969665527
1763693333747559000,10.553558837890625,9.221040725708008,-1.9591234922409058,-11.404790878295898
1763693333757636400,10.56363623046875,9.4028959274292,-1.4225330352783203,-11.778369903564453
1763693333767716400,10.57371630859375,9.599406242370605,-0.893121063709259,-12.135499000549316
1763693333777796400,10.58379638671875,9.920343399047852,-0.5937191247940063,-12.468400955200195
1763693333787858400,10.5938583984375,10.229316711425781,-0.4692923426628113,-12.947563171386719
1763693333797938200,10.603938232421875,10.126425743103027,-0.12442677468061447,-13.251750946044922
1763693333808018200,10.61401806640625,9.565906524658203,0.3858426511287689,-13.009777069091797
1763693333818105300,10.624105224609375,9.175577163696289,0.7019943594932556,-12.477972030639648
1763693333828185300,10.634185302734375,9.352646827697754,0.6684948205947876,-12.089735984802246
1763693333838265300,10.644265380859375,9.953843116760254,0.3451646566390991,-11.8528470993042
1763693333848344800,10.6543447265625,10.562517166137695,-0.2799602448940277,-11.543574333190918
1763693333858424800,10.6644248046875,10.93131160736084,-1.077667474746704,-11.148459434509277
1763693333868504800,10.6745048828125,11.02463150024414,-1.7485551834106445,-10.904092788696289
1763693333878539300,10.684539306640625,10.677372932434082,-2.119741678237915,-10.899307250976562
1763693333888619300,10.694619384765625,9.963414192199707,-2.0766708850860596,-11.059925079345703
1763693333898699300,10.70469921875,9.216255187988281,-1.7270197868347168,-11.316256523132324
1763693333908843000,10.714843017578126,8.566903114318848,-1.357926845550537,-11.392827033996582
1763693333918923000,10.724923095703126,8.210073471069336,-1.231107234954834,-11.148459434509277
1763693333929003000,10.7350029296875,8.080561637878418,-1.32921302318573,-10.774880409240723
1763693333939058700,10.74505859375,7.8795647621154785,-1.6310077905654907,-10.326824188232422
1763693333949138700,10.755138671875,7.714160919189453,-2.1388843059539795,-10.034601211547852
1763693333959218400,10.765218505859375,7.611269950866699,-2.7544379234313965,-10.003494262695312
1763693333969281300,10.77528125,7.393223762512207,-3.2599217891693115,-10.008279800415039
1763693333979361300,10.785361328125,7.206284523010254,-3.7007992267608643,-9.991530418395996
1763693333989441300,10.795441162109375,7.019644260406494,-4.033700942993164,-10.017850875854492
1763693333999575600,10.805575439453126,6.80877685546875,-4.189533233642578,-9.98674488067627
1763693334009655300,10.8156552734375,6.458826541900635,-4.11505651473999,-9.845269203186035
1763693334019735300,10.8257353515625,6.1929240226745605,-3.9451663494110107,-9.735198974609375
1763693334029800200,10.83580029296875,5.910272121429443,-3.6768710613250732,-9.641579627990723
1763693334039880200,10.845880126953125,5.622834205627441,-3.3415768146514893,-9.399605751037598
1763693334049960200,10.855960205078125,5.440979480743408,-3.015554666519165,-9.097810745239258
1763693334059985000,10.86598486328125,5.36650276184082,-2.7137598991394043,-8.709874153137207
1763693334070064600,10.876064697265624,5.277968406677246,-2.3736801147460938,-8.247461318969727
1763693334080144600,10.88614453125,5.175076961517334,-2.1077775955200195,-7.876275062561035
1763693334090278700,10.896278564453125,5.230112075805664,-1.9256240129470825,-7.631907939910889
1763693334100358700,10.906358642578125,5.237290382385254,-1.8849459886550903,-7.370790958404541
1763693334110438700,10.916438720703125,5.189434051513672,-1.9208383560180664,-7.057032108306885
1763693334120489200,10.9264892578125,5.196612358093262,-2.1939191818237305,-6.858129024505615
1763693334130569200,10.9365693359375,5.124528884887695,-2.5510480403900146,-6.680760860443115
1763693334140649200,10.946649169921875,4.978566646575928,-2.836092948913574,-6.484549522399902
1763693334150733000,10.956733154296876,4.923531532287598,-3.152244806289673,-6.2760748863220215
1763693334160813000,10.96681298828125,4.918745994567871,-3.5473594665527344,-6.046064376831055
1763693334170893000,10.97689306640625,4.9761738777160645,-3.899702787399292,-5.808876037597656
1763693334180990500,10.986990478515626,4.9761738777160645,-4.170390605926514,-5.5381879806518555
1763693334191070500,10.997070556640624,4.968995094299316,-4.376173496246338,-5.279464244842529
1763693334201150500,11.007150390625,4.921138763427734,-4.567898273468018,-5.051846981048584
1763693334211205400,11.017205322265625,5.01206636428833,-4.771587371826172,-4.944169998168945
1763693334221285400,11.027285400390625,5.155934810638428,-4.992026329040527,-4.951348304748535
1763693334231365400,11.037365478515625,5.254040241241455,-5.207380294799805,-5.013561725616455
1763693334241462800,11.047462890625,5.292325496673584,-5.231607437133789,-5.222036361694336
1763693334251542800,11.057542724609375,5.476871967315674,-5.169095039367676,-5.607579708099365
1763693334261622800,11.067622802734375,5.563013553619385,-5.0949177742004395,-5.947958946228027
1763693334281792300,11.087792236328125,5.951249122619629,-5.300999641418457,-6.288038730621338
1763693334291872300,11.097872314453125,6.3702921867370605,-5.507081508636475,-6.465406894683838
1763693334301952300,11.1079521484375,6.526124477386475,-5.602794170379639,-6.597012042999268
1763693334312653300,11.1186533203125,6.585945129394531,-5.760720729827881,-6.661618232727051
1763693334322733300,11.1287333984375,6.739085674285889,-6.033801555633545,-6.800701141357422
1763693334332813000,11.13881298828125,6.823133945465088,-6.2877397537231445,-6.9705915451049805
1763693334342318300,11.148318359375,6.6577301025390625,-6.4340009689331055,-7.016354084014893
1763693334352398000,11.158398193359375,6.332006931304932,-6.484250068664551,-6.999604225158691
1763693334362478000,11.16847802734375,5.98235559463501,-6.429215431213379,-7.109674453735352
1763693334372476400,11.178476318359374,5.819344520568848,-6.395715713500977,-7.325327396392822
1763693334382556200,11.18855615234375,6.080461502075195,-6.44596529006958,-7.488039493560791
1763693334392636200,11.19863623046875,6.813562393188477,-6.606583118438721,-7.684549808502197
1763693334402749000,11.2087490234375,7.522436141967773,-6.798008918762207,-7.940881252288818
1763693334412828700,11.21882861328125,7.850851058959961,-6.937091827392578,-8.034200668334961
1763693334422908700,11.22890869140625,7.769196033477783,-6.920341968536377,-8.05812931060791
1763693334433008600,11.239008544921875,7.532007694244385,-6.661618232727051,-8.168498039245605
1763693334443088600,11.249088623046875,7.338188648223877,-6.266204357147217,-8.384151458740234
1763693334453168600,11.259168701171875,7.172784805297852,-5.782555103302002,-8.443971633911133
1763693334463217400,11.269217529296874,7.134500026702881,-5.267499923706055,-8.268997192382812
1763693334473297400,11.27929736328125,7.405188083648682,-4.845765113830566,-7.976773262023926
1763693334483377400,11.28937744140625,7.733303546905518,-4.579862594604492,-7.682157039642334
1763693334493442000,11.299442138671875,7.905886173248291,-4.5200419425964355,-7.385148048400879
1763693334503522000,11.30952197265625,7.814659595489502,-4.615755081176758,-7.116852760314941
1763693334513602000,11.31960205078125,7.6064839363098145,-4.77876615524292,-6.982854843139648
1763693334523709200,11.329709228515625,7.261319637298584,-4.953442096710205,-6.894021034240723
1763693334533789200,11.3397890625,6.727121829986572,-5.0949177742004395,-6.913163661956787
1763693334543869200,11.349869140625,6.142674922943115,-5.111667156219482,-6.891628265380859
1763693334553903900,11.35990380859375,5.6084771156311035,-4.924727916717529,-6.721737861633301
1763693334563983600,11.369983642578125,5.14875602722168,-4.610969066619873,-6.45822811126709
1763693334574063600,11.380063720703125,4.861318111419678,-4.29242467880249,-6.340681076049805
1763693334584168200,11.390168212890625,4.6169514656066895,-3.8973097801208496,-6.314359664916992
1763693334594248200,11.400248291015625,4.561617374420166,-3.3822548389434814,-6.2066826820373535
1763693334604328200,11.410328125,4.542474746704102,-2.936591625213623,-6.058028697967529
1763693334614389000,11.420388916015625,4.485046863555908,-2.56301212310791,-6.005386829376221
1763693334624469000,11.430468994140625,4.520939350128174,-2.236989974975586,-6.067600250244141
1763693334634549000,11.440549072265625,4.566402912139893,-1.9854445457458496,-6.160920143127441
1763693334644687000,11.45068701171875,4.600201606750488,-1.7533408403396606,-6.240182399749756
1763693334654767000,11.46076708984375,4.5568318367004395,-1.6070795059204102,-6.25932502746582
1763693334664846800,11.470846923828125,4.633700847625732,-1.5855441093444824,-6.237789630889893
1763693334674917000,11.480917236328125,4.8059844970703125,-1.571187138557434,-6.089135646820068
1763693334684997000,11.4909970703125,4.995316505432129,-1.5520446300506592,-5.993422508239746
1763693334695077000,11.5010771484375,5.373681545257568,-1.5568302869796753,-6.132206439971924
1763693334705130800,11.511130859375,5.828916072845459,-1.5448660850524902,-6.484549522399902
1763693334715210800,11.521210693359375,6.265007972717285,-1.5376876592636108,-6.870092868804932
1763693334725290500,11.53129052734375,6.75374174118042,-1.4416756629943848,-7.394719123840332
1763693334735363800,11.54136376953125,7.141678333282471,-1.4225330352783203,-7.914559841156006
1763693334745443600,11.551443603515626,7.51286506652832,-1.516152262687683,-8.302495956420898
1763693334755523600,11.561523681640624,7.872386455535889,-1.70039963722229,-8.494221687316895
1763693334765615000,11.571614990234375,8.138288497924805,-1.9040886163711548,-8.477471351623535
1763693334775695000,11.581695068359375,8.301000595092773,-2.079063892364502,-8.381758689880371
1763693334785774800,11.59177490234375,8.538188934326172,-2.1460628509521484,-8.475078582763672
1763693334795829000,11.6018291015625,8.957531929016113,-2.0982062816619873,-8.968598365783691
1763693334805909000,11.611908935546875,9.383752822875977,-2.0455641746520996,-9.612865447998047
1763693334815989000,11.621989013671875,9.620942115783691,-1.8969101905822754,-10.192526817321777
1763693334826104000,11.63210400390625,9.736096382141113,-1.7147564888000488,-10.571191787719727
1763693334836184000,11.64218408203125,9.721739768981934,-1.5209379196166992,-10.817951202392578
1763693334846263800,11.652263916015626,9.860523223876953,-1.3555340766906738,-11.016555786132812
1763693334856351000,11.66235107421875,10.107282638549805,-1.444068431854248,-11.270493507385254
1763693334866431000,11.672430908203125,10.066604614257812,-1.384247899055481,-11.474183082580566
1763693334876510700,11.6825107421875,9.836594581604004,-0.9819545745849609,-11.584551811218262
1763693334886564400,11.692564453125,9.673583984375,-0.43100717663764954,-11.76162052154541
1763693334896644000,11.70264404296875,9.769596099853516,-0.11485548317432404,-11.816655158996582
1763693334906724000,11.71272412109375,10.32772159576416,-0.24406790733337402,-11.83849048614502
1763693334916830500,11.72283056640625,11.111071586608887,-0.7088736891746521,-11.891132354736328
1763693334926910500,11.732910400390624,11.628520011901855,-1.3196417093276978,-11.843276023864746
1763693334936990500,11.742990478515624,11.748161315917969,-1.8873388767242432,-11.790334701538086
1763693334947053800,11.7530537109375,11.460722923278809,-2.1843478679656982,-11.92463207244873
1763693334957133800,11.7631337890625,10.641480445861816,-2.031207323074341,-12.099308013916016
1763693334967213600,11.773213623046875,9.54197883605957,-1.4297115802764893,-12.188140869140625
1763693334977305900,11.783305908203126,8.77777099609375,-0.7136593461036682,-12.101700782775879
1763693334987385600,11.793385498046876,8.435297966003418,-0.4214358925819397,-11.93898868560791
1763693334997465600,11.803465576171876,8.155038833618164,-0.5458626747131348,-11.586944580078125
1763693335007548400,11.81354833984375,7.824530124664307,-0.9364909529685974,-11.026126861572266
1763693335017628200,11.823628173828125,7.398009300231934,-1.5616158246994019,-10.329216957092285
1763693335027708200,11.833708251953125,6.964310169219971,-2.287538528442383,-9.7064847946167
1763693335037751800,11.843751708984374,6.626623153686523,-2.881556749343872,-9.438189506530762
1763693335047831600,11.85383154296875,6.468397617340088,-3.3317065238952637,-9.351749420166016
1763693335057911600,11.86391162109375,6.375077724456787,-3.619443416595459,-9.387641906738281
1763693335068020200,11.874020263671875,6.317649841308594,-3.7438700199127197,-9.459725379943848
1763693335078100000,11.884099853515625,6.231508255004883,-3.6314074993133545,-9.313464164733887
1763693335088180000,11.894179931640625,5.977570056915283,-3.3583266735076904,-8.89681339263916
1763693335098243600,11.90424365234375,5.795416355133057,-3.0035905838012695,-8.410472869873047
1763693335108323300,11.9143232421875,5.781059741973877,-2.649153709411621,-8.015058517456055
1763693335118403300,11.9244033203125,5.7547383308410645,-2.3473589420318604,-7.698906898498535
1763693335128488000,11.934488037109375,5.742774486541748,-2.079063892364502,-7.4449687004089355
1763693335138568000,11.94456787109375,5.680561065673828,-1.8442680835723877,-7.16231632232666
1763693335148647700,11.954647705078125,5.541478157043457,-1.7700905799865723,-6.850950241088867
1763693335158715600,11.964715576171875,5.395216941833496,-1.8634105920791626,-6.57547664642334
1763693335168795600,11.974795654296875,5.352146148681641,-2.088634967803955,-6.3239312171936035
1763693335178875600,11.984875732421875,5.392824172973633,-2.2585253715515137,-6.235396862030029
1763693335188969200,11.99496923828125,5.3593244552612305,-2.414358139038086,-6.237789630889893
1763693335199049200,12.00504931640625,5.2971110343933105,-2.87198543548584,-6.086742401123047
1763693335209129000,12.01512890625,5.352146148681641,-2.5486552715301514,-6.0987067222595215
1763693335219227600,12.0252275390625,5.469693660736084,-3.015554666519165,-6.165705680847168
1763693335239387400,12.045387451171875,5.337789058685303,-3.8371901512145996,-5.931209087371826
1763693335249475600,12.0554755859375,5.254040241241455,-4.3187456130981445,-5.605186939239502
1763693335259555600,12.0655556640625,5.26600456237793,-4.699802875518799,-5.416153907775879
1763693335269635600,12.075635498046875,5.318646430969238,-4.934299468994141,-5.2746782302856445
1763693335299837700,12.105837646484375,5.258825778961182,-5.286642551422119,-4.968098163604736
1763693335309946600,12.115946533203125,5.371288776397705,-5.437390327453613,-4.948955535888672
1763693335320026400,12.1260263671875,5.498407363891602,-5.49003267288208,-4.963312149047852
1763693335330106400,12.1361064453125,5.690132141113281,-5.61236572265625,-5.183751106262207
1763693335340187400,12.1461875,5.96799898147583,-5.813661575317383,-5.523830890655518
1763693335350267400,12.156267333984376,6.190531253814697,-6.108277797698975,-5.952744483947754
1763693335360347400,12.166347412109374,6.329614162445068,-6.441179275512695,-6.446264266967773
1763693335370407700,12.17640771484375,6.391827583312988,-6.807580471038818,-6.8605217933654785
1763693335380487400,12.1864873046875,6.358327865600586,-7.152745246887207,-7.0785675048828125
1763693335390567400,12.1965673828125,6.38464879989624,-7.521538734436035,-7.174280643463135
1763693335400613600,12.206613525390624,6.403791427612305,-7.849654674530029,-7.10010290145874
1763693335410693400,12.216693359375,6.188138484954834,-7.902296543121338,-6.972984313964844
1763693335420773400,12.2267734375,5.735595703125,-7.753942012786865,-6.812664985656738
1763693335430896000,12.236896240234374,5.301896572113037,-7.468896865844727,-6.63769006729126
1763693335440976000,12.246975830078124,5.158327579498291,-7.246065139770508,-6.623332977294922
1763693335451055900,12.257055908203125,5.577370643615723,-7.262814998626709,-6.920341968536377
1763693335461118200,12.2671181640625,6.178566932678223,-7.284350395202637,-7.351648330688477
1763693335471198200,12.2771982421875,6.648158550262451,-7.2676005363464355,-7.682157039642334
1763693335481278000,12.28727783203125,6.892525672912598,-7.27956485748291,-7.847560882568359
1763693335491374000,12.2973740234375,6.897311210632324,-7.269993305206299,-7.900203227996826
1763693335501454000,12.3074541015625,6.861418724060059,-7.15513801574707,-8.067999839782715
1763693335511533800,12.317533935546875,6.9475603103637695,-7.04716157913208,-8.163712501525879
1763693335522196500,12.328196533203124,6.87816858291626,-6.867700099945068,-8.163712501525879
1763693335532276200,12.338276123046874,6.885347366333008,-6.692724704742432,-8.127820014953613
1763693335542356200,12.348356201171875,6.9930243492126465,-6.467500686645508,-8.027022361755371
1763693335552450600,12.358450439453126,7.0770721435546875,-6.314359664916992,-7.797311782836914
1763693335562530300,12.3685302734375,7.170392036437988,-6.2566328048706055,-7.58644437789917
1763693335572610300,12.3786103515625,7.0097737312316895,-6.13699197769165,-7.5071821212768555
1763693335582688300,12.388688232421876,6.614659309387207,-5.8974103927612305,-7.480860710144043
1763693335592768300,12.398768310546876,6.054140567779541,-5.621936798095703,-7.41625452041626
1763693335602848000,12.408847900390626,5.3904314041137695,-5.300999641418457,-7.289434909820557
1763693335622410000,12.428409912109375,4.573581218719482,-4.431507587432861,-7.200601577758789
1763693335632490000,12.438489990234375,4.2693939208984375,-3.985844373703003,-7.138388156890869
1763693335642575000,12.4485751953125,4.022634029388428,-3.497110366821289,-6.994818687438965
1763693335652655000,12.458655029296875,3.859921932220459,-2.9940192699432373,-6.896413803100586
1763693335662735000,12.468735107421875,3.8790645599365234,-2.567797899246216,-6.831807613372803
1763693335672788500,12.47878857421875,3.9436707496643066,-2.1460628509521484,-6.6831536293029785
1763693335682868500,12.488868408203125,3.9508492946624756,-1.7964116334915161,-6.467799663543701
1763693335692948500,12.498948486328125,4.05403995513916,-1.4850455522537231,-6.625725746154785
1763693335703040500,12.50904052734375,4.073182582855225,-1.1685947179794312,-6.97776985168457
1763693335713120500,12.51912060546875,4.056432723999023,-1.0058828592300415,-7.387540817260742
1763693335723200500,12.529200439453126,4.250251293182373,-0.9747761487960815,-8.024629592895508
1763693335733248000,12.539248046875,4.312464714050293,-0.9317052960395813,-8.501399993896484
1763693335743328000,12.549327880859375,4.420440673828125,-0.857228696346283,-8.496614456176758
1763693335753408000,12.559407958984375,4.6887359619140625,-0.7926225066184998,-8.24985408782959
1763693335763512600,12.5695126953125,5.009673118591309,-0.706480860710144,-7.883453369140625
1763693335773592600,12.579592529296875,5.4266228675842285,-0.7040880918502808,-7.548159122467041
1763693335783672600,12.589672607421875,5.9799628257751465,-0.8524430394172668,-7.440182685852051
1763693335793761500,12.599761474609375,6.581159591674805,-1.1566306352615356,-7.464111328125
1763693335803841500,12.609841552734375,7.050751209259033,-1.444068431854248,-7.598408222198486
1763693335813921500,12.619921630859375,7.4362945556640625,-1.4778671264648438,-7.765905857086182
1763693335824014000,12.63001416015625,7.716553688049316,-1.4706885814666748,-7.897810459136963
1763693335834094000,12.640093994140624,8.097610473632812,-1.475474238395691,-8.197212219238281
1763693335844174000,12.650174072265624,8.50708293914795,-1.3794622421264648,-8.52054214477539
1763693335854251500,12.66025146484375,8.758627891540527,-1.2239288091659546,-8.676374435424805
1763693335864331500,12.67033154296875,8.98385238647461,-1.1255239248275757,-8.819944381713867
1763693335874411500,12.68041162109375,9.134600639343262,-0.9987043738365173,-9.002098083496094
1763693335884504600,12.690504638671875,9.197113037109375,-0.8309076428413391,-9.11695384979248
1763693335894584600,12.70058447265625,9.316754341125488,-0.6418746709823608,-9.313464164733887
1763693335904664600,12.71066455078125,9.582656860351562,-0.4046861231327057,-9.670293807983398
1763693335914713900,12.7207138671875,10.001998901367188,-0.3158525824546814,-10.082457542419434
1763693335924793900,12.7307939453125,10.543375015258789,-0.49322056770324707,-10.520941734313965
1763693335934873600,12.74087353515625,10.90738296508789,-0.5578267574310303,-10.916056632995605
1763693335944952000,12.7509521484375,10.763514518737793,-0.30628129839897156,-11.177173614501953
1763693335955032000,12.761031982421875,10.485648155212402,0.10797612369060516,-11.36650562286377
1763693335965111800,12.77111181640625,10.607980728149414,0.3332005441188812,-11.514861106872559
1763693335975185200,12.78118505859375,11.139785766601562,0.3284149169921875,-11.665907859802246
1763693335985265200,12.79126513671875,11.697911262512207,0.04097708687186241,-11.716156959533691
1763693335995345200,12.80134521484375,12.148360252380371,-0.6176473498344421,-11.821440696716309
1763693336005418800,12.811418701171876,12.217752456665039,-1.3316057920455933,-12.099308013916016
1763693336015498800,12.821498779296874,11.669198036193848,-1.7147564888000488,-12.310174942016602
1763693336025578500,12.83157861328125,10.581660270690918,-1.5927225351333618,-12.403794288635254
1763693336035698400,12.841698486328125,9.319147109985352,-1.1928220987319946,-12.23121166229248
1763693336045778400,12.8517783203125,8.542975425720215,-0.9101698994636536,-11.864810943603516
1763693336055858400,12.8618583984375,8.26989459991455,-0.9125627279281616,-11.512468338012695
1763693336065928400,12.871928466796875,8.17418098449707,-1.2167502641677856,-11.124531745910645
1763693336076008400,12.882008544921876,7.982456207275391,-1.8011972904205322,-10.829915046691895
1763693336086088400,12.89208837890625,7.692625522613525,-2.495713949203491,-10.676475524902344
1763693336096148500,12.9021484375,7.28046178817749,-3.238386392593384,-10.484750747680664
1763693336106228500,12.912228515625,6.787241458892822,-3.9690945148468018,-10.137492179870605
1763693336116308200,12.92230810546875,6.348756790161133,-4.548755645751953,-9.818947792053223
1763693336126422000,12.932422119140625,6.046961784362793,-4.934299468994141,-9.747162818908691
1763693336136502000,12.942501953125,5.706881999969482,-5.080560684204102,-9.795019149780273
1763693336146582000,12.95258203125,5.36650276184082,-4.996811866760254,-9.866804122924805
1763693336156619300,12.962619384765626,5.136792182922363,-4.754837512969971,-9.845269203186035
1763693336166699300,12.97269921875,5.124528884887695,-4.455435752868652,-9.878767967224121
1763693336176779300,12.982779296875,5.102993488311768,-4.009772777557373,-9.629615783691406
1763693336186905000,12.992905029296875,5.035994529724121,-3.473181962966919,-9.04516887664795
1763693336196985000,13.002985107421875,5.083850860595703,-3.046661376953125,-8.585148811340332
1763693336207065000,13.013065185546875,5.222933769226074,-2.704188585281372,-8.168498039245605
1763693336217147000,13.02314697265625,5.354538917541504,-2.4263222217559814,-7.579265594482422
1763693336227227000,13.033226806640625,5.436193943023682,-2.253739833831787,-7.011568546295166
1763693336237307000,13.043306884765625,5.4816575050354,-2.143670082092285,-6.599404811859131
1763693336247380700,13.053380615234374,5.529513835906982,-2.1077775955200195,-6.33589506149292
1763693336257460700,13.063460693359374,5.5127644538879395,-2.1412770748138428,-6.1971116065979
1763693336267540700,13.073540771484375,5.507978439331055,-2.2250258922576904,-6.120242118835449
1763693336277611300,13.083611328125,5.440979480743408,-2.4598217010498047,-6.010172367095947
1763693336287691300,13.093691162109375,5.349753379821777,-2.8313074111938477,-5.885446548461914
1763693336297771300,13.103771240234375,5.184648513793945,-3.192922830581665,-5.794518947601318
1763693336307854000,13.11385400390625,4.952245712280273,-3.372683525085449,-5.416153907775879
1763693336317934000,13.12393408203125,4.820341110229492,-3.5473594665527344,-4.951348304748535
1763693336328014000,13.13401416015625,4.911567687988281,-3.8443686962127686,-4.543970108032227
1763693336338118000,13.144117919921875,4.849055290222168,-4.098307132720947,-4.134498596191406
1763693336348198000,13.154197998046875,4.750949382781982,-4.321138381958008,-3.775275945663452
1763693336358277600,13.164277587890625,4.770092010498047,-4.575077056884766,-3.64337158203125
1763693336368342800,13.1743427734375,4.8059844970703125,-4.8314080238342285,-3.684049606323242
1763693336378422800,13.1844228515625,4.921138763427734,-5.140381336212158,-3.8566319942474365
1763693336388502800,13.194502685546874,5.100600719451904,-5.521438121795654,-4.225425720214844
1763693336398577400,13.204577392578125,5.2181477546691895,-5.772983551025391,-4.656732082366943
1763693336408657400,13.214657470703125,5.333003520965576,-5.935695648193359,-5.1167521476745605
1763693336418737400,13.2247373046875,5.548656463623047,-6.060421466827393,-5.583651542663574
1763693336428823000,13.234822998046875,5.812166213989258,-6.148955821990967,-6.093921184539795
1763693336438903000,13.244903076171875,6.025426387786865,-6.208776473999023,-6.798308372497559
1763693336448983000,13.254983154296875,6.262615203857422,-6.316752910614014,-6.953841686248779
1763693336459004700,13.265004638671876,6.7657060623168945,-6.742974281311035,-7.3037919998168945
1763693336469084700,13.275084716796876,7.05553674697876,-6.958627223968506,-7.802097320556641
1763693336479164700,13.28516455078125,6.954739093780518,-6.956234455108643,-7.706085205078125
1763693336489306600,13.295306640625,6.487839698791504,-6.781259536743164,-7.504789352416992
1763693336499386600,13.30538671875,6.171388626098633,-6.654439926147461,-7.2197442054748535
1763693336509466600,13.315466552734375,6.1450676918029785,-6.664011001586914,-6.975377082824707
1763693336519471600,13.3254716796875,6.298507213592529,-6.836294174194336,-6.898806571960449
1763693336529551600,13.335551513671875,6.545267105102539,-6.999305248260498,-7.114459991455078
1763693336539631600,13.345631591796876,6.703193664550781,-7.063911437988281,-7.468896865844727
1763693336549752600,13.355752685546875,6.688836574554443,-7.121638298034668,-7.7730841636657715
1763693336559832600,13.36583251953125,6.542874336242676,-7.111767768859863,-7.914559841156006
1763693336569912600,13.37591259765625,6.248258113861084,-6.865307331085205,-7.837989807128906
1763693336580028200,13.386028076171876,6.123532295227051,-6.388537406921387,-7.7252278327941895
1763693336590108200,13.396108154296876,6.250650882720947,-5.942873954772949,-7.7491559982299805
1763693336610212600,13.416212646484375,6.902096748352051,-5.291428089141846,-8.031807899475098
1763693336620292600,13.426292724609375,7.201498985290527,-4.965705394744873,-8.134998321533203
1763693336630372600,13.43637255859375,7.455437183380127,-4.543970108032227,-8.252246856689453
1763693336640477700,13.446477783203125,7.8026957511901855,-4.378566265106201,-8.290532112121582
1763693336650557700,13.4565576171875,8.056633949279785,-4.251746654510498,-8.345866203308105
1763693336660637700,13.4666376953125,7.9250288009643555,-3.9571304321289062,-8.285746574401855
1763693336670711000,13.4767109375,7.532007694244385,-3.480360507965088,-8.10389232635498
