time,seconds_elapsed,z,y,x
1763696713403775700,0.043775634765625,9.245060073089599,2.169595616912842,1.5058032066345215
1763696713413735700,0.053735595703125,9.384522319793701,2.191592344665527,1.420509772491455
1763696713423696600,0.063696533203125,9.507823705291747,2.260575279998779,1.3561656028747557
1763696713433657600,0.07365771484375,9.525929855346678,2.2987328689575195,1.27685767288208
1763696713443617500,0.083617431640625,9.485228427124023,2.3575404472351074,1.208473287963867
1763696713453578800,0.093578857421875,9.475950895690918,2.421435704040527,1.1722609878540038
1763696713463539700,0.103539794921875,9.571120411682129,2.436848377227783,1.1085153686523437
1763696713473499600,0.113499755859375,9.61406640396118,2.4069208564758298,1.1156979736328125
1763696713483460600,0.123460693359375,9.489418280029296,2.309806051635742,1.1212345649719238
1763696713493421600,0.133421630859375,9.31464155883789,2.31130242767334,1.1842319961547851
1763696713503381800,0.1433818359375,9.185354669189453,2.379387537384033,1.1665747589111328
1763696713513342700,0.1533427734375,9.066542411804198,2.487874800109863,0.9922469505310058
1763696713523303400,0.163303466796875,8.99561418762207,2.5863363433837887,0.7106289802551269
1763696713533263600,0.173263671875,9.076418493652342,2.6414029815673827,0.4010287780761719
1763696713543224600,0.183224609375,9.184606481170654,2.5917232971191404,0.23313538665771483
1763696713553185800,0.193185791015625,9.117718472290038,2.5513211441040036,0.1924339584350586
1763696713563145700,0.203145751953125,8.921693211364746,2.7172692466735837,0.16699556579589842
1763696713573106400,0.2131064453125,8.86213744506836,3.1721675621032714,0.35883097381591794
1763696713583066600,0.223066650390625,8.875155916595459,3.482067039489746,0.42003275375366206
1763696713593027600,0.233027587890625,9.744849669647216,3.9591117202758785,2.3873183303833008
1763696713602988800,0.24298876953125,9.213636176300048,3.2492309280395504,2.4247277313232423
1763696713612948700,0.25294873046875,8.145522960662841,2.028936269378662,0.7671919944763184
1763696713622909400,0.262909423828125,9.30177272491455,1.5128361740112304,0.7013514488220215
1763696713632870700,0.27287060546875,10.62995609588623,2.365920153045654,1.7206828056335448
1763696713642831600,0.28283154296875,11.171045671081542,2.4699182876586914,2.3048680107116697
1763696713652791600,0.29279150390625,11.08964281463623,2.625840670776367,2.6081834335327145
1763696713662752500,0.30275244140625,11.467028851318359,2.911947769165039,3.0674212394714355
1763696713672712400,0.31271240234375,11.7473000831604,2.80914673538208,3.386897523498535
1763696713682673700,0.322673583984375,10.404601864624023,1.817049422454834,2.9330466712951657
1763696713692634600,0.332634521484375,9.579350479888916,1.4863503181457518,2.6632500717163086
1763696713702594600,0.342594482421875,9.19328546218872,2.0361188743591305,2.840121719360351
1763696713712555500,0.352555419921875,8.460360478973389,2.765751830291748,3.3343747245788573
1763696713722516500,0.3625166015625,7.768885111999511,3.113659259033203,3.715052788543701
1763696713732476700,0.3724765625,7.18200643005371,3.050362552642822,3.761440445709228
1763696713742437600,0.382437744140625,6.5403603851318355,2.9397803634643553,3.5416228057861328
1763696713752398800,0.39239892578125,6.238391700744629,2.6937761428833005,3.4030583847045897
1763696713762358800,0.40235888671875,6.248866333007812,2.5157073944091795,3.4775779113769527
1763696713772319500,0.412319580078125,6.523451335906982,2.4652795219421386,4.088697885131836
1763696713782280700,0.42228076171875,6.985681893920898,2.655169641113281,5.131821620941162
1763696713792240600,0.43224072265625,7.470657367706298,2.463633508300781,5.740547393035889
1763696713802201600,0.44220166015625,8.199093222808838,2.0232500404357907,5.827037928009033
1763696713812162600,0.45216259765625,9.286360051727295,1.8145055831909178,5.493645346832275
1763696713822122500,0.46212255859375,9.759813430023193,1.6452654533386228,4.81399135055542
1763696713832083700,0.472083740234375,9.32182416381836,1.544409708404541,4.238634764099121
1763696713842044700,0.482044677734375,10.203339287567138,2.0968717414855957,3.559878593444824
1763696713852004600,0.492004638671875,9.699659113311768,4.674978016662598,3.156006700897217
1763696713861965600,0.501965576171875,7.008127534484863,4.973953948974609,1.3192051147460937
1763696713871926500,0.511926513671875,6.406434729766845,3.657591948699951,0.8756792572021483
1763696713881886700,0.52188671875,5.477484485626221,3.5323452743530273,1.3801076194763182
1763696713891847700,0.53184765625,4.725405889129639,4.075080863189697,2.108094561767578
1763696713901808400,0.541808349609375,16.63132183227539,4.540154535675049,1.2057798110961913
1763696713911768600,0.5517685546875,8.910919303894042,4.814889176177978,2.011727944946289
1763696713921729500,0.5617294921875,7.836670946502685,3.7542578407287595,3.276614609527588
1763696713931690800,0.571690673828125,3.9447465103149413,3.2193034072875975,4.391564395141601
1763696713941650700,0.581650634765625,9.575310264587403,2.776376100158691,4.067748620605468
1763696713951611400,0.591611328125,8.192209893035889,2.564040340423584,4.048744644927979
1763696713961572600,0.601572509765625,8.558672384643554,2.7914894981384277,4.09228918762207
1763696713971532500,0.611532470703125,8.290072885894775,2.8377275177001953,3.6544495590209958
1763696713981493800,0.62149365234375,8.080131327819824,2.916137622070312,2.8712463409423825
1763696713991454500,0.631454345703125,7.940070530700683,3.254168968963623,2.217479650115967
1763696714001414700,0.64141455078125,8.122179494476319,3.7575498680114743,1.8849848945617675
1763696714011375400,0.651375244140625,8.409932606506347,4.20137500076294,1.279401512145996
1763696714021336600,0.661336669921875,8.409483693695067,4.494066153717041,0.86191259765625
1763696714031296500,0.671296630859375,8.359504734039307,4.41775097579956,1.7534534408569336
1763696714041257500,0.681257568359375,8.491784375762938,3.787627026367187,2.8124387626647946
1763696714051218400,0.691218505859375,8.264634493255615,3.0029274322509765,3.091363256072998
1763696714061178400,0.701178466796875,8.661174143218993,2.5842414169311523,3.2435446990966796
1763696714071139300,0.711139404296875,8.22932001876831,2.460042205810547,3.722684306335449
1763696714081099500,0.721099609375,8.447641282653809,2.319532495880127,3.7427357452392576
1763696714091060500,0.731060546875,8.989479045867919,1.8634370796203612,2.7365724975585937
1763696714101021400,0.741021484375,8.807220444488525,1.7842787872314452,2.0126257705688477
1763696714110981400,0.7509814453125,8.415469197845459,2.08115979309082,1.9864391899108886
1763696714120942300,0.7609423828125,8.389731529998778,2.55371534576416,2.198326036834717
1763696714130903600,0.770903564453125,10.034847345733642,3.1509190223693846,1.9864391899108886
1763696714140863500,0.780863525390625,8.47203221206665,3.216909205627441,2.5151088439941405
1763696714150824400,0.790824462890625,8.263437392425537,2.705747151184082,2.3502082046508788
1763696714160785400,0.800785400390625,8.295459839630126,1.8788497528076171,1.9393033447265624
1763696714170745300,0.810745361328125,8.75843858566284,1.322197866821289,2.3415292236328122
1763696714180706600,0.82070654296875,9.181763366699219,1.1650783828735352,2.559401574707031
1763696714190667300,0.830667236328125,9.375095150756835,1.0043675964355467,2.4959552307128905
1763696714200627500,0.84062744140625,9.712677584838866,0.9030629386901855,2.5106197158813477
1763696714210588400,0.85058837890625,10.274716424560546,0.9268553176879882,2.523039636993408
1763696714220549400,0.86054931640625,10.445602568054198,0.8267477607727051,2.5315689804077146
1763696714230509600,0.870509521484375,10.480168854522704,0.6476315490722656,2.950254995727539
1763696714240470500,0.880470458984375,11.080664558410644,1.6627730529785156,3.066972326660156
1763696714250431500,0.890431396484375,11.265167723846435,1.4203601348876953,2.3286603897094724
1763696714260391400,0.900391357421875,12.833818724060057,2.93065246963501,-2.5836428665161133
1763696714270352400,0.910352294921875,6.603806729125976,2.5980080764770506,2.047491332244873
1763696714280313600,0.920313720703125,8.839242891693115,2.819322092437744,-1.1837830833435057
1763696714290273500,0.9302734375,9.502586389160156,2.560748313140869,-1.5490484741210937
1763696714300234500,0.940234375,11.292701042938232,2.7557261108398436,-0.7381622993469238
1763696714310195500,0.950195556640625,11.425279959869384,2.9493571701049803,-0.5596446380615234
1763696714320155400,0.9601552734375,11.46014552154541,3.407248237609863,-0.037110125732421874
1763696714330116600,0.97011669921875,11.345822392272948,3.895066825866699,0.13482348098754882
1763696714340076500,0.98007666015625,11.731139221954345,4.35385571899414,-0.44966099929809566
1763696714350037200,0.990037353515625,11.002853004455567,2.797026089477539,-1.3165116378784179
1763696714359998500,0.99999853515625,10.225336015319824,1.5294459480285643,-0.5141548065185546
1763696714369958400,1.00995849609375,10.433481922149658,0.59376201171875,1.389235513305664
1763696714379919600,1.019919677734375,10.166229161834716,0.37933132553100585,1.7226280944824217
1763696714389880300,1.02988037109375,10.033949520111083,0.7921814743041992,1.587206063079834
1763696714399840300,1.03984033203125,10.103381368255615,1.7176900535583495,1.4124293418884277
1763696714409801500,1.049801513671875,9.923516968536376,2.346317626953125,1.1849801841735839
1763696714419762400,1.059762451171875,9.707140993499756,2.5685294685363766,0.9654618194580078
1763696714429722600,1.06972265625,9.51350993423462,2.588880182647705,0.884208600616455
1763696714439683300,1.079683349609375,9.351901322174072,2.5968109756469726,0.8469488372802734
1763696714449644500,1.08964453125,9.317335035705566,2.6485855865478514,0.814627114868164
1763696714459604500,1.0996044921875,9.330353507232665,2.664147897338867,0.8752303443908691
1763696714469565400,1.1095654296875,9.53146644668579,2.524236737823486,0.8689455650329589
1763696714479526400,1.1195263671875,10.092457823181151,2.3089082260131835,0.6723217536926269
1763696714489486300,1.129486328125,9.360281027984618,2.4224831672668454,1.0037690460205078
1763696714499447300,1.139447265625,9.571569324493408,2.044199304962158,0.9228151023864746
1763696714509408500,1.149408447265625,8.985738105773926,1.99826056060791,0.9671078330993652
1763696714519368400,1.159368408203125,9.090035515594481,2.1710919929504393,0.7772177139282226
1763696714529329700,1.16932958984375,9.221118056488036,2.0904373245239256,0.3742436470031738
1763696714539289600,1.17928955078125,9.021651130676268,2.3036709098815917,0.09786299285888671
1763696714549250300,1.189250244140625,9.032125762939453,2.188749230194092,-0.31438860549926756
1763696714559211500,1.19921142578125,9.25747999420166,2.071134073638916,-0.5761047744750977
1763696714569171500,1.20917138671875,9.907056832122802,2.3184850326538085,-0.7757213378906249
1763696714579132700,1.219132568359375,9.568875847625732,2.3063643867492676,-0.9317933586120605
1763696714589093400,1.22909326171875,10.171167202758788,2.0317793838500977,-0.8984241729736328
1763696714599053300,1.23905322265625,10.025719451904296,1.8110639183044432,-0.8581716575622558
1763696714609014500,1.2490146484375,10.49558152770996,1.5349825393676757,-0.48512511138916015
1763696714618975500,1.2589755859375,10.67514665222168,1.2267290756225586,-0.0570119270324707
1763696714628935400,1.268935302734375,10.5077021736145,0.9118915573120117,0.2458545829772949
1763696714638896400,1.278896484375,10.66826332244873,0.4553472282409668,0.6197989547729492
1763696714648857300,1.288857421875,11.067346811676025,0.2549824768066406,0.7116764434814453
1763696714658817500,1.298817626953125,10.856357790374755,0.5149029945373534,0.08200140686035155
1763696714668778500,1.308778564453125,10.892869365692137,0.6657376991271973,-0.3176806327819824
1763696714678739500,1.318739501953125,10.94344687576294,0.464774397277832,-0.27099370040893556
1763696714688699400,1.328699462890625,10.414029033660889,0.5825391914367676,-0.1393126091003418
1763696714698660400,1.338660400390625,9.909600671386718,0.7251438278198242,-0.22101474075317382
1763696714708620500,1.34862060546875,9.995043743133545,1.0308534523010253,-0.2424129180908203
1763696714718581500,1.35858154296875,9.8694977935791,1.2677297790527342,-0.37409400939941406
1763696714728542500,1.36854248046875,9.687239192199707,1.5043068305969238,-0.4682160621643066
1763696714738502400,1.37850244140625,9.676764559936522,1.6575357368469237,-0.4923077163696289
1763696714748463400,1.38846337890625,9.715670336914062,1.7585411193847655,-0.3899555953979492
1763696714758424600,1.398424560546875,9.920224941253661,1.6707038459777832,-0.28086978225708004
1763696714768384500,1.408384521484375,10.219051235961913,1.492036547088623,-0.1253963119506836
1763696714778345500,1.418345458984375,10.640879640960692,1.191264963531494,0.023343466186523436
1763696714788306400,1.428306396484375,11.030685598754882,0.9261071296691894,0.2079962692260742
1763696714798266400,1.438266357421875,11.395352439117431,0.596305850982666,0.3821744400024414
1763696714808227600,1.4482275390625,11.775132677459716,0.25902269210815426,0.5654805046081542
1763696714818188500,1.4581884765625,12.047323478698729,-0.06389525680541992,0.6750152305603027
1763696714828148500,1.4681484375,12.133065825653075,-0.17268179473876952,0.7372644737243652
1763696714838109400,1.478109375,12.076652449035643,-0.24435820693969726,0.730979694366455
1763696714848070400,1.4880703125,11.98971300125122,-0.22086510314941404,0.6498761131286621
1763696714858030600,1.498030517578125,11.876437335205077,-0.21787235107421873,0.5382464607238769
1763696714867991600,1.507991455078125,11.656619695281982,-0.16953940505981444,0.4556465034484863
1763696714877951500,1.517951416015625,11.461342622375488,-0.08843582382202148,0.25094226150512694
1763696714887912400,1.527912353515625,11.290755754089355,0.06344634399414062,0.05716156463623046
1763696714897873400,1.537873291015625,11.141866338348388,0.09965864410400391,-0.09127893829345703
1763696714907833300,1.547833251953125,11.017068576812743,0.14305354919433594,-0.12090718383789062
1763696714917794600,1.557794677734375,10.920103409576415,0.12075754623413085,-0.09307458953857421
1763696714927755300,1.56775537109375,10.800542964172363,0.1222539222717285,0.03426701126098632
1763696714937715500,1.577715576171875,10.673949551391601,0.04563946914672851,0.17866729888916014
1763696714947676400,1.587676513671875,10.498275004577636,0.09666589202880858,0.3060088996887207
1763696714957637600,1.5976376953125,10.319607705688476,0.13078326568603516,0.3441664886474609
1763696714967597600,1.60759765625,10.227430941772461,0.22041619033813475,0.2745850028991699
1763696714977558300,1.617558349609375,10.123881719970703,0.29089550170898437,0.1500865165710449
1763696714987518500,1.6275185546875,10.033051694488524,0.4064157318115234,0.09412205276489258
1763696714997479400,1.6374794921875,9.906607919311522,0.4269160835266113,0.09307458953857421
1763696715007440400,1.6474404296875,9.713126497650146,0.46103345718383787,0.19871873779296872
1763696715017400300,1.657400390625,9.63307037963867,0.46791678695678707,0.2442085693359375
1763696715027361300,1.667361328125,9.572916062927245,0.5581482620239258,0.2834136215209961
1763696715037322200,1.677322265625,9.458293658447266,0.6027402679443359,0.3284545402526855
1763696715047282400,1.687282470703125,9.32137525100708,0.6127659873962402,0.42601825790405273
1763696715057243400,1.697243408203125,9.170690184020996,0.6168062026977539,0.4664204109191894
1763696715067204400,1.707204345703125,9.029133010864257,0.6896797157287597,0.4996399589538574
1763696715077164300,1.717164306640625,9.000103315734863,0.7454945419311523,0.4725555526733398
1763696715087125200,1.727125244140625,8.894010254669189,0.780809016418457,0.3746925598144531
1763696715097086500,1.73708642578125,8.946233778381346,0.8400655075073241,0.23388357467651366
1763696715107046400,1.74704638671875,8.95745659866333,0.9151835845947265,0.11267711563110351
1763696715117007400,1.75700732421875,8.927678715515135,0.9476549446105956,0.0016460136413574218
1763696715126967600,1.766967529296875,8.980800064849854,0.9644143562316894,-0.021996727752685546
1763696715136928300,1.77692822265625,8.96344210281372,0.9635165306091308,-0.07646481552124022
1763696715146889500,1.786889404296875,9.085995300292968,0.9772831901550293,-0.1693897674560547
1763696715156849400,1.796849365234375,9.151536570739745,0.9377788627624511,-0.26695348510742184
1763696715166810400,1.806810302734375,9.120112673950194,0.9250596664428711,-0.3323451179504394
1763696715176771300,1.816771240234375,9.143306502532958,0.8955810585021972,-0.35613749694824215
1763696715186731300,1.826731201171875,9.294739757537842,0.7932289375305175,-0.3628711891174316
1763696715196692500,1.8366923828125,9.483881688690184,0.6941688438415526,-0.24361001892089842
1763696715206653400,1.8466533203125,9.598504093170165,0.5487210929870605,-0.12090718383789062
1763696715216613400,1.85661328125,9.727192432403564,0.3847182792663574,-0.016909049224853513
1763696715226574300,1.86657421875,9.809193839263916,0.3085527389526367,-0.0025438392639160153
1763696715236534300,1.8765341796875,9.885658654785155,0.30526071166992186,-0.03396773605346679
1763696715246495500,1.88649560546875,9.938031816101073,0.2796726814270019,-0.0652419952392578
1763696715256456400,1.89645654296875,9.940874930572509,0.213233585357666,-0.08693944778442382
1763696715266416400,1.90641650390625,9.951199925231933,0.1514332550048828,-0.08499415893554688
1763696715276377300,1.91637744140625,9.855431858825684,0.08469488372802735,-0.011971008300781249
1763696715286338300,1.92633837890625,9.632920742034912,0.0004489128112792969,0.05252279891967773
1763696715296298200,1.93629833984375,9.370007472229004,0.05910685348510742,0.09472060317993164
1763696715306259500,1.946259521484375,9.07192936553955,0.16924012985229492,0.05835866546630859
1763696715316220200,1.95622021484375,8.839392529296875,0.337732071685791,-0.01331774673461914
1763696715326180400,1.966180419921875,8.515127841949463,0.5208884986877441,-0.048931496429443354
1763696715336141300,1.976141357421875,8.251466384124756,0.6919242797851562,-0.08708908538818359
1763696715346101200,1.986101318359375,8.049006706237792,0.881664761352539,-0.117465518951416
1763696715356062500,1.9960625,7.836072396087646,1.0248679481506346,-0.15846622238159178
1763696715366023400,2.0060234375,7.669525743103027,1.1483189712524413,-0.16953940505981444
1763696715375983400,2.0159833984375,7.6187985954284665,1.275510934448242,-0.21577742462158203
1763696715385944300,2.0259443359375,7.689277906799316,1.434575707244873,-0.23597850112915036
1763696715395905300,2.0359052734375,7.7413517929077145,1.4990695144653319,-0.22909517135620117
1763696715405865500,2.045865478515625,7.873631434631347,1.5120879859924317,-0.19692308654785154
1763696715415826400,2.055826416015625,8.035539321899414,1.5690999130249021,-0.1575683967590332
1763696715425787400,2.065787353515625,8.15345375366211,1.5918448287963867,-0.16729484100341796
1763696715435747300,2.075747314453125,8.36953045349121,1.629254229736328,-0.25213936233520506
1763696715445708300,2.085708251953125,8.546102825927735,1.6935983993530273,-0.3275567146301269
1763696715455668500,2.09566845703125,8.750657430267333,1.7184382415771484,-0.37918168792724605
1763696715465629400,2.10562939453125,8.90598126296997,1.7483657623291016,-0.40626609420776366
1763696715475590400,2.11559033203125,9.105597826385498,1.7302596122741698,-0.4207809417724609
1763696715485550300,2.12555029296875,9.317484673309325,1.712901650238037,-0.45190556335449217
1763696715495511300,2.13551123046875,9.584138883209228,1.6997335411071777,-0.4713584518432617
1763696715505472500,2.145472412109375,9.827000714111328,1.7151462142944336,-0.4782417816162109
1763696715515432400,2.155432373046875,10.039486111450195,1.661276676940918,-0.3790320503234863
1763696715525393400,2.165393310546875,10.203488925170898,1.5753846923828123,-0.22131401596069333
1763696715535354400,2.175354248046875,10.371980867004394,1.4710872825622558,-0.023642741394042967
1763696715545314300,2.185314208984375,10.48331124420166,1.3967173934936523,0.15786767196655271
1763696715555275500,2.195275634765625,10.578031847381592,1.3688847991943358,0.28805238723754883
1763696715565235500,2.2052353515625,10.63579196243286,1.3721768264770506,0.36631285400390623
1763696715575196200,2.215196044921875,10.62352167892456,1.334917063140869,0.4326023124694824
1763696715585157400,2.225157470703125,10.600178212738037,1.3207014907836914,0.5155015449523925
1763696715595117300,2.235117431640625,10.547356138610839,1.2770073104858397,0.5753565864562988
1763696715605078500,2.24507861328125,10.484358707427978,1.2146084297180175,0.6501753883361816
1763696715615039200,2.255039306640625,10.39322940673828,1.2378022583007813,0.6509235763549804
1763696715624999200,2.264999267578125,10.29716206512451,1.2997522262573242,0.5693710823059082
1763696715634960400,2.27496044921875,10.1253780960083,1.3664905975341797,0.45175592575073237
1763696715644920300,2.28492041015625,9.888651406860351,1.472134745788574,0.3356371452331543
1763696715654881500,2.294881591796875,9.599252281188964,1.5728408531188964,0.23867197799682616
1763696715664842200,2.30484228515625,9.337236837005614,1.6786346389770508,0.16909049224853515
1763696715674802200,2.31480224609375,9.087042763519287,1.7736545173645017,0.08424597091674804
1763696715684763400,2.324763427734375,8.96344210281372,1.840692163848877,-0.003591302490234375
1763696715694724400,2.334724365234375,8.811260659790038,1.9277812492370605,-0.01601122360229492
1763696715704684300,2.344684326171875,8.712799116516113,1.9834464378356933,-0.028431144714355466
1763696715714645500,2.3546455078125,8.680477394104003,2.044199304962158,-0.055066638183593745
1763696715724606200,2.364606201171875,8.671499137878417,2.1513398292541503,-0.09606734161376952
1763696715734566400,2.37456640625,8.6949922416687,2.2589292663574216,-0.1379658706665039
1763696715744527400,2.38452734375,8.824728044128417,2.333448793029785,-0.1862988166809082
1763696715754487300,2.3944873046875,8.952219282531738,2.353949144744873,-0.1836053398132324
1763696715764448500,2.404448486328125,9.078962332916259,2.318185757446289,-0.15397709426879883
1763696715774409200,2.4144091796875,9.247304637145996,2.251746661376953,-0.11417349166870117
1763696715784369400,2.424369384765625,9.402029919433593,2.2376807266235352,-0.06898293533325195
1763696715794330400,2.434330322265625,9.541941078948975,2.2138883476257325,-0.02289455337524414
1763696715804291600,2.44429150390625,9.695618898010252,2.2061071922302244,0.0330699104309082
1763696715814251500,2.45425146484375,9.852289469146728,2.232593048095703,0.032920272827148434
1763696715824212200,2.464212158203125,9.997138669586182,2.2598270919799806,0.008978256225585938
1763696715834172400,2.47417236328125,10.1383965675354,2.2477064460754392,0.015263035583496093
1763696715844133400,2.48413330078125,10.3422029838562,2.201917339324951,0.07826046676635742
1763696715854094300,2.49409423828125,10.572794531249999,2.108693112182617,0.1949777976989746
1763696715864054500,2.504054443359375,10.773308920288086,1.9750667320251463,0.3564367721557617
1763696715874015200,2.51401513671875,10.929081665802002,1.8230349266052246,0.5229834251403809
1763696715883976400,2.5239765625,11.040860955810546,1.6932991241455078,0.6847416748046875
1763696715893936400,2.533936279296875,11.095478681182861,1.5177742149353026,0.8227075454711914
1763696715903897300,2.5438974609375,11.094730493164063,1.3672387855529784,0.884208600616455
1763696715913857500,2.553857421875,11.0187145904541,1.3159130874633789,0.8839093254089355
1763696715923818200,2.563818359375,10.86608423461914,1.286434479522705,0.862511148071289
1763696715933779500,2.573779541015625,10.64821188354492,1.2906243324279785,0.7872434333801269
1763696715943739400,2.583739501953125,10.317363141632079,1.3287819213867187,0.6994061599731445
1763696715953700400,2.593700439453125,9.886107567596435,1.419761584472656,0.6358101783752441
1763696715963661300,2.603661376953125,9.407267235565184,1.5273510215759276,0.5976525894165039
1763696715973621200,2.613621337890625,8.90044467163086,1.6443676277160644,0.5476736297607422
1763696715983582200,2.623582275390625,8.418312312316894,1.7694646644592285,0.4134486991882324
1763696715993544200,2.633544189453125,8.048408155822754,1.9571102195739745,0.2624643569946289
1763696716003504400,2.64350439453125,7.791779665374755,2.1074960113525387,0.08813654861450194
1763696716013465000,2.653465087890625,7.598148606109619,2.2451626068115234,-0.09187748870849609
1763696716023425000,2.663425048828125,7.478139247894287,2.3958476737976073,-0.26261399459838863
1763696716033386200,2.67338623046875,7.519888139343261,2.4973019691467284,-0.41898529052734373
1763696716043347200,2.68334716796875,7.577348979187011,2.597858438873291,-0.5060743759155273
1763696716053307400,2.693307373046875,7.622539535522461,2.612074011230469,-0.5410895751953124
1763696716063268000,2.70326806640625,7.694964135742187,2.5643396156311034,-0.48886605148315426
1763696716073228000,2.71322802734375,7.840561524200439,2.509721890258789,-0.4038718925476074
1763696716083189200,2.723189208984375,7.988253839111327,2.4754548789978026,-0.27308862686157226
1763696716093150200,2.733150146484375,8.141183470153807,2.405125205230713,-0.12464812393188476
1763696716103110400,2.7431103515625,8.378807984924316,2.3217770599365233,-0.05087678527832031
1763696716113071000,2.753071044921875,8.604611128997803,2.2432173179626465,-0.07347206344604491
1763696716123032000,2.763031982421875,8.864980559539795,2.1890485054016113,-0.13946224670410157
1763696716132992300,2.7729921875,9.11697028427124,2.15792388381958,-0.25094226150512694
1763696716142953200,2.782953125,9.29533830795288,2.146850701141357,-0.3485059791564941
1763696716152914200,2.7929140625,9.42253027114868,2.139518458557129,-0.38801030654907226
1763696716162874000,2.8028740234375,9.53790086364746,2.17064308013916,-0.4725555526733398
1763696716172835000,2.8128349609375,9.605836335754393,2.258629991149902,-0.5758054992675781
1763696716182795300,2.822795166015625,9.664643914031982,2.3041198226928707,-0.6718728408813476
1763696716192756200,2.832756103515625,9.782857621002197,2.334047343444824,-0.7315782447814941
1763696716202717200,2.84271728515625,9.939228916931151,2.3796868125915527,-0.7429507026672363
1763696716212677000,2.852677001953125,10.134655627441406,2.4082675949096677,-0.6814496475219726
1763696716222638000,2.86263818359375,10.323049370574951,2.382679564666748,-0.5594950004577637
1763696716232598300,2.872598388671875,10.53329020385742,2.3012767082214354,-0.37978023834228514
1763696716242559200,2.882559326171875,10.780641162872314,2.2005706008911132,-0.24944588546752927
1763696716252520200,2.892520263671875,11.07692361831665,2.0847510955810544,-0.1253963119506836
1763696716262480400,2.90248046875,11.331157907104492,1.9677344894409179,-0.0028431144714355467
1763696716272441000,2.912441162109375,11.592275525665283,1.8417396270751951,0.10504559783935546
1763696716282402300,2.92240234375,11.867010166168212,1.6741455108642578,0.24510639495849607
1763696716292362200,2.9323623046875,12.045827102661132,1.4579191734313963,0.39145197143554683
1763696716302323200,2.9423232421875,12.1939683303833,1.2241852363586425,0.5720645591735839
1763696716312283400,2.952283447265625,12.256367211151122,1.0191817192077637,0.7097311546325683
1763696716322244000,2.962244140625,12.237961785888672,0.8545803550720215,0.7688380081176758
1763696716332205300,2.972205322265625,12.160449507141113,0.773776049041748,0.754622435760498
1763696716342165200,2.982165283203125,11.93823766555786,0.8265981231689452,0.6672340751647949
1763696716352126200,2.992126220703125,11.616067904663085,0.9091980804443359,0.6181529411315918
1763696716362087200,3.002087158203125,11.18002392730713,0.9760860893249511,0.5829881042480468
1763696716372047000,3.012047119140625,10.717643731689453,1.0672153900146484,0.6079775840759277
1763696716382008300,3.02200830078125,10.222941813659668,1.1701660614013671,0.6561608924865723
1763696716391968300,3.03196826171875,9.719261639404296,1.280748250579834,0.7433996154785156
1763696716401929200,3.04192919921875,9.296834683990477,1.379658706665039,0.8230068206787109
1763696716411890200,3.05189013671875,8.908525102233886,1.534832901763916,0.8779238212585448
1763696716421850000,3.06185009765625,8.57348650741577,1.668160006713867,0.8677484642028808
1763696716431811000,3.07181103515625,8.295459839630126,1.8522142593383788,0.809539436340332
1763696716441772300,3.081772216796875,8.05708713684082,2.0048446151733397,0.6935702934265137
1763696716451732200,3.091732177734375,7.92286220626831,2.1205144828796385,0.5861304939270019
1763696716461693200,3.101693115234375,7.7964184310913085,2.2264579063415524,0.5003881469726562
1763696716471653000,3.111653076171875,7.69286920928955,2.3569418968200684,0.4477157104492187
1763696716481614000,3.121614013671875,7.646032639312744,2.4263737449645997,0.39055414581298825
1763696716491575300,3.1315751953125,7.587374698638915,2.506429862976074,0.3576338729858398
1763696716501535200,3.14153515625,7.59755005569458,2.5942671363830563,0.33010055389404297
1763696716511496200,3.15149609375,7.684938416290283,2.6617536956787107,0.2885013000488281
1763696716521456000,3.1614560546875,7.7866919868469235,2.736123584747314,0.2045546043395996
1763696716531417000,3.1714169921875,7.928249160003662,2.827851435852051,0.13063362808227538
1763696716541378300,3.18137841796875,8.090605960083007,2.871096703338623,0.044891281127929686
1763696716551338200,3.191338134765625,8.197746484375,2.910152117919922,-0.0570119270324707
1763696716561299200,3.20129931640625,8.396764497375488,2.96207636642456,-0.2127846725463867
1763696716571260200,3.21126025390625,8.590694831848143,3.057395520019531,-0.419434203338623
1763696716581220000,3.22122021484375,8.82951644744873,3.1453824310302734,-0.6057330200195312
1763696716591181300,3.231181396484375,9.018658378601074,3.161992205047607,-0.7426514274597168
1763696716601141200,3.241141357421875,9.251644127655029,3.118148387145996,-0.8204629814147949
1763696716611102200,3.251102294921875,9.571270049285888,3.0986954986572264,-0.8936357696533203
1763696716621063200,3.261063232421875,9.887454306030273,2.9994857673645017,-0.888697728729248
1763696716631023000,3.271023193359375,10.223390726470946,2.8203695556640622,-0.8494926765441894
1763696716640984300,3.280984375,10.532542015838622,2.669834126281738,-0.8327332649230956
1763696716650945300,3.2909453125,10.809820495605468,2.5857377929687497,-0.8469488372802734
1763696716660905200,3.3009052734375,11.051485225677489,2.5317186180114746,-0.812083275604248
1763696716670866200,3.3108662109375,11.292102492523192,2.440888592529297,-0.8008604553222656
1763696716680826000,3.320826171875,11.508628105163574,2.38118318862915,-0.7224503509521484
1763696716690787300,3.330787353515625,11.650185278320311,2.2732944763183593,-0.589272883605957
1763696716700748300,3.340748291015625,11.857582997131347,2.1239561477661133,-0.469263525390625
1763696716710708200,3.350708251953125,12.112565473937988,1.9800047729492187,-0.3321954803466797
1763696716720669200,3.360669189453125,12.34181028289795,1.7923592178344725,-0.14155717315673827
1763696716730629000,3.370629150390625,12.461071453094481,1.5304934112548827,0.11926117019653319
1763696716740590000,3.380590087890625,12.580931173706054,1.2603975364685058,0.41793782730102536
1763696716750551300,3.39055126953125,12.682984019470213,1.0733505317687988,0.632667788696289
1763696716760511200,3.40051123046875,12.731616240692137,0.9383774131774901,0.7673416320800781
1763696716770472200,3.41047216796875,12.678195616149901,0.8946832328796386,0.8707412162780761
1763696716780433200,3.42043310546875,12.501772881317137,0.903362213897705,0.9733926124572754
1763696716790393000,3.43039306640625,12.208034265136718,0.9346364730834961,1.1034276901245117
1763696716800354300,3.440354248046875,11.838728659057617,0.9910498497009277,1.1942577156066894
1763696716810314200,3.450314208984375,11.450867990112304,1.0740987197875975,1.2855366539001465
1763696716820275200,3.460275146484375,11.10176346054077,1.1516109985351561,1.382202545928955
1763696716830236200,3.470236083984375,10.750115091705322,1.1531073745727538,1.5459060844421386
1763696716840196000,3.480196044921875,10.414777221679687,1.1198878265380858,1.6445172653198241
1763696716850157300,3.4901572265625,10.164882423400877,1.10447515335083,1.6724994972229004
1763696716860117200,3.5001171875,9.943269132232665,1.0989385620117187,1.6570868240356444
1763696716870078200,3.510078125,9.759364517211914,1.1276689819335937,1.6021698234558104
1763696716880039200,3.5200390625,9.661202249145507,1.1667243965148926,1.4873977813720702
1763696716889999000,3.5299990234375,9.582043956756591,1.2424410240173338,1.3804068946838377
1763696716899960300,3.539960205078125,9.450063590240479,1.342698218536377,1.3664905975341797
1763696716909921300,3.54992138671875,9.373299499511718,1.3316250358581543,1.352275025177002
1763696716919881200,3.559881103515625,9.274538681030274,1.3281833709716797,1.362450382232666
1763696716929842200,3.56984228515625,9.083900373840331,1.3645453086853025,1.4246996253967283
1763696716939802000,3.579802001953125,8.953865296173095,1.3491326354980469,1.46195938873291
1763696716949763300,3.589763427734375,8.913313505554198,1.3226467796325683,1.4701894569396972
1763696716959724300,3.599724365234375,8.958803337097168,1.2874819427490234,1.441608674621582
1763696716969684200,3.609684326171875,8.985588468170166,1.2056301734924315,1.3964181182861328
1763696716979645200,3.619645263671875,9.03422068939209,1.135150862121582,1.36634095993042
1763696716989606100,3.629606201171875,9.074173929595947,1.0730512565612793,1.2883797683715819
1763696716999565000,3.63956494140625,9.112930068969726,1.0524012672424317,1.2240355987548828
1763696717009526300,3.6495263671875,9.118915573120116,1.0402806213378906,1.1884218490600584
1763696717019486200,3.659486328125,9.09766703338623,1.0099041877746582,1.1273697067260742
1763696717029447400,3.669447509765625,9.12265651321411,1.0907084938049316,0.9835679695129393
1763696717039408000,3.679408203125,9.155576786041259,1.1979986557006834,0.8234557334899902
1763696717049368000,3.6893681640625,9.098564859008789,1.2493243537902832,0.7586626510620117
1763696717059329300,3.699329345703125,9.048286624145508,1.3254898941040039,0.7550713485717773
1763696717069289200,3.709289306640625,8.933514582061767,1.3869909492492676,0.8072948722839355
1763696717079250200,3.719250244140625,8.844480207824706,1.4814122772216796,0.8462006492614745
1763696717089211100,3.729211181640625,8.791358858489989,1.6454150909423828,0.8077437850952148
1763696717099171000,3.739171142578125,8.831910649108886,1.805527326965332,0.7025485496520996
1763696717109132300,3.74913232421875,8.856151940917968,1.9349638542175291,0.5705681831359863
1763696717119093200,3.75909326171875,8.885480911254882,2.1128829650878904,0.4354454269409179
1763696717129053200,3.76905322265625,8.968230506134033,2.268206797790527,0.3829226280212402
1763696717139014100,3.77901416015625,9.117868109893799,2.3454198013305665,0.39444472351074217
1763696717148974000,3.78897412109375,9.387963984680175,2.387168692779541,0.47420156631469723
1763696717158935300,3.798935302734375,9.74799205932617,2.358587910461426,0.6474819114685059
1763696717168896300,3.808896240234375,10.109366872406005,2.172588368988037,0.9828197814941406
1763696717178856200,3.818856201171875,10.402656575775145,1.8981530036926269,1.3799579818725585
1763696717188817200,3.828817138671875,10.676194115447997,1.603067649078369,1.7049708572387694
1763696717198777000,3.838777099609375,10.856208152770995,1.3239935180664062,1.9696797782897948
1763696717208738000,3.848738037109375,10.888529875183105,1.1502642601013182,2.1134815155029294
1763696717218699300,3.85869921875,10.841094754791259,1.0944494338989257,2.1467010635375976
1763696717228659200,3.8686591796875,10.73200894165039,1.0895113929748534,2.088940948486328
1763696717238620200,3.8786201171875,10.535385130310058,1.1414356414794922,1.9773112960815429
1763696717248580000,3.888580078125,10.299556266784668,1.2678794166564942,1.8664298316955565
1763696717258541000,3.898541015625,10.034099157714843,1.3780126930236816,1.792059942626953
1763696717268502300,3.908502197265625,9.65865840988159,1.426196001434326,1.8411410766601561
1763696717278462200,3.918462158203125,9.290699542236327,1.4006079711914061,1.9773112960815429
1763696717288423400,3.92842333984375,8.955810585021972,1.3723264640808104,2.0979192047119137
1763696717298384100,3.938384033203125,8.533233992004394,1.40464818649292,2.184559377288818
1763696717308344000,3.948343994140625,8.132055576324463,1.4668974296569823,2.185457202911377
1763696717318305300,3.95830517578125,7.819911534881592,1.6353893714904784,2.0389619888305663
1763696717328265200,3.96826513671875,7.577797891998291,1.7835305992126465,1.8405425262451172
1763696717338226400,3.978226318359375,7.336881349945068,1.935113491821289,1.6472107421875
1763696717348187100,3.988187255859375,7.104045238494873,2.101660144805908,1.4618097511291503
1763696717358147000,3.99814697265625,6.975805812072753,2.264465857696533,1.2925696212768554
1763696717368108300,4.0081083984375,6.84382544555664,2.3587375480651853,1.230918928527832
1763696717378068200,4.018068115234375,6.761524763488769,2.4123078102111815,1.1751041023254394
1763696717388029200,4.028029296875,6.785017867279052,2.4340052627563473,1.1674725845336913
1763696717397990100,4.037990234375,6.810007347106933,2.430413960266113,1.2609960868835448
1763696717407950000,4.0479501953125,6.864026522064209,2.4042273796081544,1.3003507766723632
1763696717417911300,4.057911376953125,7.028478248596191,2.39405202255249,1.3127706977844238
1763696717427871200,4.067871337890625,7.211933950805664,2.4048259300231933,1.232714579772949
1763696717437832200,4.077832275390625,7.510311332702636,2.4512135871887204,1.0568903953552244
1763696717447793200,4.087793212890625,7.78878691329956,2.5296236915588377,0.8794201972961425
1763696717457753000,4.097753173828125,7.946205672454833,2.5507225936889646,0.7679401824951172
1763696717467714300,4.10771435546875,8.143128759002686,2.538901222991943,0.6929717430114746
1763696717477675300,4.11767529296875,8.340949671173096,2.546832015991211,0.6262333717346191
1763696717487635200,4.12763525390625,8.576030346679687,2.5526678825378415,0.6144120010375976
1763696717497596200,4.13759619140625,8.934562045288086,2.5362077461242674,0.6337152519226074
1763696717507556000,4.14755615234375,9.235034353637694,2.4637831459045407,0.7736264114379883
1763696717517517000,4.15751708984375,9.504681315612793,2.3325509674072262,1.0078092613220215
1763696717527478300,4.167478271484375,9.867851779937743,2.2432173179626465,1.175852290344238
1763696717537438200,4.177438232421875,10.2402997756958,2.1924901702880857,1.343895319366455
1763696717547399200,4.187399169921875,10.670807161712645,2.1074960113525387,1.4986206016540526
1763696717557359000,4.197359130859375,10.94868419189453,1.9295769004821777,1.7239748329162596
1763696717567320000,4.207320068359375,11.1719434967041,1.7528548904418944,1.971475429534912
1763696717577281300,4.21728125,11.445630673980713,1.647809292602539,2.199523137664795
1763696717587241200,4.2272412109375,11.637316444396973,1.4552256965637207,2.50238964767456
1763696717597202200,4.2372021484375,11.667243965148925,1.2119149528503417,2.794931163024902
1763696717607162000,4.247162109375,11.489175216674804,1.097442185974121,2.933345946502685
1763696717617123000,4.257123046875,11.350910070800781,1.1742062767028807,2.9376854370117185
1763696717627084300,4.267084228515625,10.94958201751709,1.2132616912841796,2.8336873023986815
1763696717637044200,4.277044189453125,10.460117415618896,1.3648445838928223,2.690184840393066
1763696717647005400,4.28700537109375,9.807098912811279,1.5553332534790039,2.474407415771484
1763696717656966100,4.296966064453125,9.077914869689941,1.7542016288757323,2.323123798370361
1763696717666926000,4.306926025390625,8.559869485473632,1.9711761543273925,2.0268413429260255
1763696717676887300,4.31688720703125,8.120533480834961,2.2589292663574216,1.7428291709899901
1763696717686847200,4.32684716796875,7.960271607208251,2.5430910758972165,1.388636962890625
1763696717696808200,4.33680810546875,7.724143468475341,2.835183678436279,1.1465233200073242
1763696717706769200,4.34676904296875,7.529315308380126,3.010259674835205,0.9864110839843749
1763696717716729000,4.35672900390625,7.548020008850097,3.14747735748291,0.8629600608825683
1763696717726690300,4.366690185546875,7.608922513580322,3.24982947845459,0.8370727554321289
1763696717736650200,4.376650146484375,7.645883001708984,3.272424756622314,0.879120922088623
1763696717746611200,4.386611083984375,7.66787972946167,3.2459389007568356,1.0134954902648925
1763696717756572200,4.396572265625,7.682843489837646,3.2321722412109373,1.2243348739624023
1763696717766532000,4.406531982421875,7.762450695037841,3.1440356925964354,1.3762170417785644
1763696717776493300,4.416493408203125,7.8255977638244625,3.1179987495422363,1.504157192993164
1763696717786453200,4.426453369140625,7.991845141601562,3.097049485015869,1.5294459480285643
1763696717796414200,4.436414306640625,8.202534887695313,3.0602386344909664,1.4645032279968262
1763696717806375200,4.446375244140625,8.410381519317626,3.056647332000732,1.3717279136657714
1763696717816335000,4.456335205078125,8.61224264678955,3.0624831985473633,1.3524246627807617
1763696717826296000,4.466296142578125,8.693495865631103,3.004423808288574,1.3816039955139159
1763696717836256300,4.47625634765625,8.779537487792968,2.9180829109191895,1.3498808235168456
1763696717846217200,4.48621728515625,9.028833735656738,2.9038673385620117,1.2345102310180662
1763696717856178200,4.49617822265625,9.28980171661377,2.8817209732055664,1.126920793914795
1763696717866138000,4.50613818359375,9.509170443725585,2.752882996368408,1.149216796875
1763696717876099000,4.51609912109375,9.803357972717285,2.645592834472656,1.2437877624511717
1763696717886060300,4.526060302734375,10.038289010620117,2.512864279937744,1.4384662849426268
1763696717896020200,4.536020263671875,10.22069724960327,2.4066215812683103,1.605611488342285
1763696717905981200,4.545981201171875,10.438868875885008,2.439990766906738,1.745522647857666
1763696717915941000,4.555941162109375,10.529399626159668,2.326415825653076,1.8921674995422362
1763696717925902000,4.565902099609375,10.478971753692626,2.307112574768066,1.9623475357055662
1763696717935863300,4.57586328125,10.347141024780273,2.391508183288574,1.9789573097229003
1763696717945823200,4.5858232421875,10.101735354614258,2.4838345848083496,1.8730138862609862
1763696717955784400,4.595784423828125,9.993098454284667,2.664896085357666,1.7362451164245605
1763696717965744400,4.605744384765625,10.026168364715575,2.8905495918273925,1.6445172653198241
1763696717975705000,4.615705078125,10.041132125091552,2.9608792655944822,1.7597382202148437
1763696717985666300,4.625666259765625,9.994295555114746,2.788197470855713,2.030881558227539
1763696717995626500,4.63562646484375,9.947458985137938,2.580500476837158,2.2095488571166992
1763696718005587500,4.64558740234375,9.94057565536499,2.3856723167419434,2.3591864608764648
1763696718015547400,4.65554736328125,10.032303506469725,2.1877017669677734,2.3882161560058592
1763696718025508400,4.66550830078125,9.741408004760741,2.0407576400756833,2.2589292663574216
1763696718035469600,4.675469482421875,9.466224451446532,1.85775085067749,2.038513076019287
1763696718045429500,4.685429443359375,9.309853155517578,1.7753005310058592,1.7387889556884764
1763696718055390700,4.695390625,9.456198731994629,1.7271172225952147,1.3836989219665528
1763696718065350700,4.7053505859375,9.484779514312743,1.6313491561889648,1.2550105827331541
1763696718075311400,4.715311279296875,9.145700704193114,1.549497386932373,1.310077220916748
1763696718085272600,4.7252724609375,8.891167140197753,1.584512586212158,1.2078747375488281
1763696718095232500,4.735232421875,8.7846251663208,1.725022296142578,0.9172785110473632
1763696718105193500,4.745193359375,8.596680335998535,1.9381062438964842,0.6576572685241698
1763696718115153700,4.755153564453125,8.313565989685058,2.2553379638671873,0.39803602600097654
1763696718125114400,4.7651142578125,8.041375188446045,2.596362062835693,0.241964005279541
1763696718135075600,4.77507568359375,7.796568068695068,2.8268039726257324,0.25258827514648435
1763696718145035500,4.785035400390625,7.700949639892578,3.0240263343811034,0.3485059791564941
1763696718154996500,4.79499658203125,7.683442040252685,3.1274259185791013,0.4525041137695312
1763696718164956700,4.804956787109375,7.760056493377685,3.202992908477783,0.5526116706848144
1763696718174917400,4.81491748046875,7.997232095336914,3.192967189025879,0.6458358978271485
1763696718184878600,4.824878662109375,8.374169219207763,3.2426468734741207,0.7995137168884277
1763696718194838500,4.834838623046875,8.584709327697754,3.2392052085876464,0.7832032180786133
1763696718204799500,4.844799560546875,8.840290354919434,3.1645360443115234,0.8479963005065917
1763696718214759700,4.854759765625,9.092280079650878,3.225139273834228,0.8096890739440917
1763696718224720400,4.864720458984375,9.254337604522705,3.3171664001464842,0.7562684494018554
1763696718234681600,4.874681640625,9.43629693069458,3.363254782104492,0.7869441581726073
1763696718244641500,4.8846416015625,9.565583820343017,3.353827613067627,0.8970774345397948
1763696718254602500,4.8946025390625,9.549422959136962,3.309534882354736,1.075146183013916
1763696718264562700,4.904562744140625,9.604639234924315,3.2300773147583004,1.2409446479797364
1763696718274523400,4.9145234375,9.688885205841064,3.1197944007873533,1.3397054664611816
1763696718284484400,4.924484375,9.747393508911133,3.027168724060058,1.4493898300170898
1763696718294444500,4.934444580078125,9.835081144714355,2.903119150543213,1.568052449798584
1763696718304405500,4.944405517578125,9.957185429382324,2.799719566345215,1.599925259399414
1763696718314366500,4.954366455078125,10.182539660644531,2.8555343925476073,1.3944728294372557
1763696718324326400,4.964326416015625,10.544213748931885,2.9049148017883297,1.149216796875
1763696718334287400,4.974287353515625,10.728417639160156,2.8253075965881345,1.0881646545410155
1763696718344247600,4.98424755859375,10.618583638000487,2.6071359703063965,1.1819874320983885
1763696718354208500,4.99420849609375,10.50874963684082,2.3678654418945313,1.3260884445190428
1763696718364169500,5.00416943359375,10.589254667663573,2.2002713256835937,1.2645873893737791
1763696718374129400,5.01412939453125,10.517578255462645,2.1848586524963376,1.2352584190368652
1763696718384090400,5.02409033203125,10.130316136932372,2.2088006690979003,1.244386312866211
1763696718394050600,5.034050537109375,9.925911170196533,2.208501393890381,1.1264718811035155
1763696718404011500,5.044011474609375,9.79946739501953,2.300977433013916,1.1279682571411132
1763696718413972500,5.053972412109375,9.64055225982666,2.324320899200439,1.1502642601013182
1763696718423932700,5.0639326171875,9.522188915252684,2.3089082260131835,1.0268132369995118
1763696718433893400,5.073893310546875,9.565134907531737,2.390909632873535,0.7677905448913573
1763696718443853300,5.083853271484375,9.403227020263671,2.487425887298584,0.611568886566162
1763696718453814500,5.093814453125,9.245060073089599,3.301903364562988,0.9623194297790527
1763696718463775500,5.103775390625,9.415347666168213,2.8501474388122556,0.8123825508117676
1763696718473735700,5.113735595703125,9.452158516693114,2.439541854095459,1.5153800132751465
1763696718483696400,5.1236962890625,9.062651834106445,2.561496501159668,1.5933412048339843
1763696718493656300,5.13365625,9.28217019882202,2.6171616897583005,1.6379332107543945
1763696718503617500,5.143617431640625,9.342474153137207,2.578405550384521,1.725620846557617
1763696718513578500,5.15357861328125,9.152733671569823,2.4946084922790526,1.8222867385864256
1763696718523538700,5.16353857421875,9.099911597442626,2.476352704620361,1.8523638969421385
1763696718533499400,5.17349951171875,9.175029674530029,2.6008511909484864,1.657386099243164
1763696718543459300,5.183459228515625,9.336638286590576,2.7712884216308593,1.4829086532592772
1763696718553420500,5.193420654296875,9.38497123260498,2.831293100738525,1.4034510856628417
1763696718563381500,5.203381591796875,9.27004955291748,2.8788778587341306,1.4695909065246582
1763696718573341700,5.213341796875,9.121758687591552,2.9213749382019043,1.6199766983032227
1763696718583302400,5.223302490234375,9.061903646087647,2.982576718139648,1.797895809173584
1763696718593262300,5.233262451171875,9.242965146636962,2.990956423950195,1.956810944366455
1763696718603223600,5.2432236328125,9.439439320373534,2.952050646972656,2.0919337005615235
1763696718613184500,5.2531845703125,9.597306992340087,2.86017315826416,2.039859814453125
1763696718623144400,5.26314453125,9.851990193939208,2.8585271446228027,1.710357810974121
1763696718633105400,5.27310546875,10.127024109649657,2.879925321960449,1.3373112648010252
1763696718643065300,5.2830654296875,10.445452930450438,2.8369793296813963,1.0910077690124511
1763696718653026600,5.293026611328125,10.696993742370605,2.759167775726318,0.9638158058166504
1763696718662987500,5.302987548828125,10.780940438079833,2.6969185325622558,0.9147346717834473
1763696718672947500,5.312947509765625,10.781838263702392,2.6517279762268067,0.8900444671630859
1763696718682908400,5.322908447265625,10.716596268463134,2.5629928771972654,0.8725368675231933
1763696718692868400,5.332868408203125,10.679935055541991,2.57286895904541,0.8141782020568847
1763696718702829600,5.34282958984375,10.686668747711181,2.7335797454833983,0.7070376777648926
1763696718712790500,5.35279052734375,10.809521220397949,2.9146412460327147,0.5740098480224609
1763696718722750500,5.36275048828125,11.074080503845215,3.07086290435791,0.45025954971313475
1763696718732711700,5.372711669921875,11.442039371490479,3.1844378456115723,0.45400048980712887
1763696718742671600,5.382671630859375,12.119897716522216,3.1302690330505367,0.6516717643737793
1763696718752632300,5.39263232421875,12.899359994506835,2.94307239074707,1.1441291183471678
1763696718762593500,5.402593505859375,13.17723702468872,2.543390351104736,1.9457377616882323
1763696718772553500,5.412553466796875,13.297246382904053,1.9231424835205078,2.804059056854248
1763696718782514700,5.4225146484375,13.34976918182373,1.2919710708618164,3.474435521697998
1763696718792474600,5.432474609375,13.287819213867186,0.8129811012268066,3.7358524154663084
1763696718802435300,5.442435302734375,13.095235617828369,0.49545010604858397,3.638288697814941
1763696718812396500,5.452396484375,12.773664407348631,0.405368268585205,3.1411925781249996
1763696718822356500,5.4623564453125,12.355277667236328,0.4950011932373047,2.361431024932861
1763696718832317700,5.472317626953125,12.002881110382079,0.7586626510620117,1.7398364189147948
1763696718842277600,5.482277587890625,11.66335338745117,1.0926537826538085,1.3557166900634765
1763696718852238300,5.49223828125,11.052532688903808,1.3033435287475585,1.39177935256958
1763696718862198500,5.502198486328125,10.30479358291626,1.3814543579101561,1.6579846496582031
1763696718872159500,5.512159423828125,9.424475559997559,1.485602130126953,1.989282304382324
1763696718882120700,5.52212060546875,8.896404456329345,1.6491560310363769,2.311751340484619
1763696718892080600,5.53208056640625,8.334664891815185,1.8094179046630858,2.2539912254333494
1763696718902041300,5.542041259765625,8.148814987945556,2.0102315689086914,2.0968717414855957
1763696718912002600,5.55200244140625,8.226776179504395,2.0682909591674803,2.0299837326049803
1763696718921962500,5.56196240234375,7.99992557220459,2.0060417160034176,1.9527707290649412
1763696718931923500,5.57192333984375,7.9001172904968255,1.8167501472473144,2.0383634384155274
1763696718941883600,5.581883544921875,7.945457484436035,1.6633716033935546,1.9461866744995115
1763696718951844400,5.59184423828125,8.134749053192138,1.8462287551879881,1.7139491134643554
1763696718961804300,5.60180419921875,8.327332649230957,1.9819500617980956,1.5976806953430174
1763696718971765500,5.611765625,8.52380682296753,1.9885341163635253,1.7278654106140137
1763696718981726500,5.6217265625,8.630797709655761,1.989431941986084,1.8094179046630858
1763696718991686700,5.631686767578125,8.653991538238525,2.092831526184082,1.852663172149658
1763696719001647400,5.6416474609375,8.651298061370849,2.2870611358642576,1.9149124153137207
1763696719011607600,5.651607666015625,8.706065424346923,2.4256255569458007,1.9002479301452635
1763696719021568500,5.661568603515625,8.700229557800293,2.4173954887390137,1.8932149627685546
1763696719031529700,5.67152978515625,8.661623056030272,2.3792378997802732,1.9265841484069823
1763696719041489700,5.68148974609375,8.622268366241455,2.3886650688171387,1.932569652557373
1763696719051450400,5.691450439453125,8.573336869812012,2.4123078102111815,1.9813515113830564
1763696719061410600,5.70141064453125,8.483554307556151,2.3665187034606934,1.9939210700988768
1763696719071371500,5.71137158203125,8.372074292755126,2.31130242767334,1.9783587593078613
1763696719081332700,5.721332763671875,8.252214572143554,2.3910592704772946,2.0566192260742184
1763696719091292700,5.731292724609375,8.116493265533446,2.4806921951293943,2.131886940765381
1763696719101253600,5.741253662109375,7.997082457733153,2.5465327407836913,2.0982184799194337
1763696719111213600,5.751213623046875,7.990947315979003,2.5172037704467773,1.9874866531372068
1763696719121174500,5.761174560546875,7.772177139282226,2.501791097259521,1.8510171585083006
1763696719131135500,5.771135498046875,7.727435495758056,2.805106520080566,1.5958850440979002
1763696719141095700,5.781095703125,7.5587939163208,2.9703064346313477,1.1228805786132812
1763696719151056600,5.791056640625,7.41184978942871,3.028515462493896,0.8034042945861816
1763696719161016600,5.8010166015625,7.403918996429443,3.145083155822754,0.5029319862365722
1763696719170977500,5.8109775390625,7.540987041473389,3.19236863861084,0.25737667846679685
1763696719180938500,5.8209384765625,7.448062089538574,3.1860838592529297,0.24181436767578124
1763696719190898700,5.830898681640625,7.868693393707275,3.162890030670166,0.35568858413696286
1763696719200859600,5.840859619140625,8.03838243637085,2.830095999908447,0.5210381362915039
1763696719210819600,5.850819580078125,8.215553359222412,2.57301859664917,0.7820061172485351
1763696719220780500,5.860780517578125,8.466495620727539,2.4543559768676757,0.7911340110778808
1763696719230741500,5.870741455078125,8.608651344299316,2.440140404510498,0.7722796730041503
1763696719240701700,5.88070166015625,8.656086464691162,2.535908470916748,0.6839934867858887
1763696719250662700,5.89066259765625,8.635137200164795,2.6382605918884274,0.5279214660644531
1763696719260622600,5.90062255859375,8.55493144454956,2.727294966125488,0.404769718170166
1763696719270583600,5.91058349609375,8.590096281433105,2.8022634056091307,0.45325230178833004
1763696719280543500,5.92054345703125,8.708010713195801,2.852392002868652,0.5473743545532226
1763696719290504700,5.930504638671875,8.70262375946045,2.941875289916992,0.6622960342407226
1763696719300465700,5.940465576171875,8.602366564941406,2.9722517234802246,0.8179191421508789
1763696719310425600,5.950425537109375,8.550591954040527,2.9734488243103026,0.7451952667236328
1763696719320386600,5.960386474609375,8.632443723297119,2.9550433990478515,0.7080851409912109
1763696719330346500,5.970346435546875,8.85555339050293,2.8583775070190427,0.725293465423584
1763696719340307500,5.980307373046875,9.04035583114624,2.689735927581787,0.7815572044372558
1763696719350268700,5.9902685546875,9.196876764678954,2.423530630493164,0.9189245246887207
1763696719360228600,6.000228515625,9.352350234985352,2.1300912895202635,1.0815805999755859
1763696719370189600,6.010189453125,9.415646941375732,1.8529624473571775,1.1827356201171875
1763696719380149500,6.0201494140625,9.565733457946777,1.6967407890319823,1.1837830833435057
1763696719390110500,6.0301103515625,9.725546418762207,1.6531962463378904,1.1969511924743652
1763696719400071700,6.04007177734375,9.726593881988524,1.5689502754211424,1.3661913223266602
1763696719410031600,6.050031494140625,9.566332008361815,1.265934127807617,1.6359879219055176
1763696719419992600,6.05999267578125,9.413252739715576,1.2675801414489745,1.8013374740600585
1763696719429952500,6.069952392578125,9.161263014984131,1.3485340850830076,1.5541361526489257
1763696719439913500,6.07991357421875,9.69801309967041,2.211494145965576,1.2644377517700194
1763696719449874700,6.089874755859375,9.449465039825439,1.898003366088867,1.3563152404785155
1763696719459834600,6.099834716796875,9.354744436645507,1.6617255897521972,1.6819266662597656
1763696719469795600,6.109795654296875,9.277531433105468,1.795800882720947,1.678335363769531
1763696719479755500,6.119755615234375,9.444826274108886,1.82587804107666,1.692401298522949
1763696719489716500,6.129716552734375,9.332598071289063,1.788319002532959,1.8351555725097655
1763696719499677700,6.139677734375,9.743951844024657,1.9065327095031737,1.6885107208251953
1763696719509637600,6.1496376953125,9.751583361816406,2.064550019073486,1.546205359649658
1763696719519598600,6.1595986328125,9.900173502349853,2.065896757507324,1.7660229995727539
1763696719529558800,6.169558837890625,10.121637155914305,1.9200000938415527,2.2297499336242677
1763696719539519500,6.17951953125,10.241646514129638,1.6537947967529296,2.7385177864074706
1763696719549479400,6.1894794921875,10.181492197418212,1.3295301094055174,3.246537451171875
1763696719559440600,6.199440673828125,10.112060349273682,1.0975918235778808,3.5110967346191404
1763696719569401600,6.209401611328125,10.328735599517822,1.1519102737426756,3.403956210327148
1763696719579361800,6.21936181640625,10.303147569274902,1.285835929107666,3.257311358642578
1763696719589322500,6.229322509765625,10.487052184295655,1.3435960441589354,3.0747534820556637
1763696719599282400,6.239282470703125,10.785130290985107,1.375169578552246,3.0699650787353514
1763696719609243600,6.24924365234375,11.122563087463378,1.279401512145996,3.316118936920166
1763696719619204600,6.25920458984375,11.426327423095703,1.0299556266784666,3.7020343170166012
1763696719629164800,6.269164794921875,11.729942121124267,0.7748235122680663,4.087800059509277
1763696719639125500,6.27912548828125,11.965471709442138,0.5776011505126952,4.369866942596436
1763696719649085400,6.28908544921875,12.080842301940917,0.36002807464599607,4.541201998901367
1763696719659046700,6.299046630859375,12.07919628829956,0.20231004028320312,4.598662838745117
1763696719669006600,6.309006591796875,12.158504218292236,0.09187748870849609,4.530577729034423
1763696719678967600,6.318967529296875,12.32235739440918,0.02483984222412109,4.491671952056884
1763696719688928500,6.328928466796875,12.415282346343993,-0.044292730712890624,4.584746541595459
1763696719698888400,6.338888427734375,12.426205891418457,-0.15726912155151365,4.682010984039306
1763696719708849700,6.348849609375,12.345251947784423,-0.27578210372924805,4.64789361038208
1763696719718809600,6.3588095703125,12.234669758605957,-0.37065234451293944,4.630386010742187
1763696719728770600,6.3687705078125,11.928960134124756,-0.47195700225830073,4.726004439544678
1763696719738731500,6.3787314453125,11.349563332366943,-0.5587468124389648,4.772541734313965
1763696719748691500,6.38869140625,10.787674130249023,-0.649277562713623,4.957194537353515
1763696719758652700,6.398652587890625,10.390236654663086,-0.7882908966064452,5.148730670166016
1763696719768612600,6.408612548828125,10.165032061004638,-1.0167875175476073,5.019443780517578
1763696719778573600,6.418573486328125,10.102333905029296,-1.2077250999450684,4.613028048706054
1763696719788534500,6.428534423828125,9.967660061645507,-1.2228384979248046,3.9296331123352046
1763696719798494500,6.438494384765625,9.842563024902343,-1.248127252960205,3.4222119979858396
1763696719808455400,6.448455322265625,9.738564890289306,-1.3848960227966307,3.1765070526123047
1763696719818415600,6.45841552734375,9.566930558776855,-1.5815198341369627,3.05799407043457
1763696719828376600,6.46837646484375,9.223362620544433,-1.6626234153747557,3.0654759506225586
1763696719838336500,6.47833642578125,8.877250843048095,-1.6536451591491699,3.156006700897217
1763696719848297500,6.48829736328125,8.631396260070801,-1.6570868240356444,3.1521161231994625
1763696719858258400,6.498258544921875,8.42160433959961,-1.5894506271362303,3.0386908195495606
1763696719868218600,6.508218505859375,8.322544245910644,-1.5040075553894041,2.9083564666748045
1763696719878179600,6.5181796875,8.30593447189331,-1.4284405654907226,2.8344354904174804
1763696719888139500,6.528139404296875,8.26179137878418,-1.3156138122558594,2.794182975006103
1763696719898100700,6.538100830078125,8.235455160522461,-1.1616367179870606,2.7275942413330077
1763696719908061400,6.5480615234375,8.163479473114013,-0.9344868354797363,2.7123312057495115
1763696719918021600,6.558021728515625,8.077886763763427,-0.7408557762145995,2.721010186767578
1763696719927982600,6.567982666015625,8.090605960083007,-0.5895721588134766,2.6746225296020505
1763696719937942500,6.577942626953125,7.810185090637207,-0.09816226806640624,2.836081504058838
1763696719947903700,6.58790380859375,7.27163935470581,0.5623381149291992,3.052457479095459
1763696719957864400,6.597864501953125,6.8697127510070795,1.0803834991455077,3.202992908477783
1763696719967824400,6.607824462890625,6.698377694702148,2.417096213531494,3.277063522338867
1763696719977785600,6.61778564453125,6.873154415893555,4.473865077209473,3.199102330780029
1763696719987745500,6.62774560546875,7.18859048461914,5.620687672424316,3.2785598983764648
1763696719997707000,6.63770703125,7.212233226013183,5.459228697967529,3.1961095787048337
1763696720007667000,6.6476669921875,7.229142275238036,4.828506198120117,3.1892262489318846
1763696720017628200,6.657628173828125,6.861033769989013,4.989516259765625,2.914940521240234
1763696720027589000,6.667589111328125,6.12257219543457,3.7325603881835936,2.148945627593994
1763696720037549000,6.677549072265625,8.43971048965454,1.5969325073242187,3.344101168823242
1763696720047510300,6.68751025390625,7.823652474975585,0.7037456504821777,3.5529952636718747
1763696720057470200,6.69747021484375,6.711994716644287,0.4429273071289062,2.8080992721557614
1763696720067431000,6.707430908203125,7.266252400970458,-0.6832452987670898,2.840271356964111
1763696720077392100,6.71739208984375,7.633463080596924,-1.8758570007324218,4.0903438987731935
1763696720087352000,6.72735205078125,7.101351761627197,-2.0540753868103026,3.137900550842285
1763696720097313300,6.737313232421875,6.9162500457763665,-2.300827795410156,3.378667455291748
1763696720107273200,6.747273193359375,7.1607578903198235,-2.302922721862793,3.9625533851623533
1763696720117234000,6.75723388671875,7.818115883636474,-0.7924807495117187,3.5968390815734863
1763696720127194000,6.767194091796875,9.022698593902588,-0.08230068206787108,2.457348728942871
1763696720137155000,6.777155029296875,9.762806182098387,-0.03980360260009765,1.9324200149536133
1763696720147116300,6.7871162109375,9.09706848297119,-0.13542203140258788,1.695094775390625
1763696720157076200,6.797076171875,8.635436475372314,-0.4203320289611816,2.0883423980712887
1763696720167037000,6.807036865234375,8.683021233367919,-0.3983353012084961,2.2035633529663086
1763696720176997000,6.8169970703125,9.017311640167236,-0.23044190979003906,2.212691246795654
1763696720186958000,6.8269580078125,9.145401428985595,-0.03396773605346679,2.391358545684814
1763696720196919000,6.8369189453125,9.109488404083251,0.1475426773071289,2.4820389335632322
1763696720206879200,6.846879150390625,9.070732264709472,0.43409868850708005,2.452410688018799
1763696720216840000,6.85683984375,9.2060046585083,0.7411550514221191,2.404377017211914
1763696720226799900,6.8667998046875,9.322572351837158,0.9653121818542479,2.5840917793273923
1763696720236761000,6.876760986328125,9.256282893371582,1.0723030685424804,2.7819126914978027
1763696720246721000,6.886720947265625,9.215282189941405,1.0717045181274414,2.816778253173828
1763696720256682200,6.89668212890625,9.349207845306395,1.0057143348693847,2.8501474388122556
1763696720266643000,6.906642822265625,9.256731806182861,0.8152256652832031,2.81543151473999
1763696720276603000,6.916602783203125,9.488221179199218,0.7275380294799805,2.7169699714660642
1763696720286564000,6.926564208984375,9.216628928375243,0.7203554244995117,2.659060218811035
1763696720296524000,6.93652392578125,9.147346717834472,0.704194563293457,2.482637483978271
1763696720306485200,6.9464853515625,9.196128576660156,0.697161595916748,2.216132911682129
1763696720316446000,6.956446044921875,9.60808089981079,0.7710825721740722,1.904437783050537
1763696720326406000,6.966406005859375,9.578751929473876,0.8310872512817382,1.7597382202148437
1763696720336367000,6.9763671875,9.28306802444458,0.7465420051574707,1.7458219230651855
1763696720346327000,6.9863271484375,9.145551066589356,0.6590040069580078,1.559074193572998
1763696720356288300,6.996288330078125,9.242665871429443,0.7902361854553223,1.1996446693420408
1763696720366248200,7.006248291015625,9.405770859527587,0.9383774131774901,1.0743979949951172
1763696720376209000,7.016208984375,9.40352629547119,0.9807248550415039,1.1463736824035644
1763696720386170000,7.026170166015625,9.00878229675293,0.9142857589721679,1.4287398406982421
1763696720396130000,7.036130126953125,8.908525102233886,0.7734767738342284,1.452981132507324
1763696720406091000,7.046091064453125,9.114725720214842,0.6738181297302246,1.430685129547119
1763696720416051200,7.05605126953125,9.452607429504393,0.7131728195190429,1.3332710494995117
1763696720426012200,7.06601220703125,9.808894564056397,0.9853636207580566,0.956333925628662
1763696720435972000,7.07597216796875,10.100837528991699,1.336862351989746,0.601992079925537
1763696720445933000,7.08593310546875,10.044274514770507,1.2446855880737304,1.1014824012756348
1763696720455894000,7.09589404296875,9.66614029006958,0.963366893005371,1.3801076194763182
1763696720465854200,7.105854248046875,9.569474398040771,1.013794765472412,1.202787059020996
1763696720475815200,7.115815185546875,10.242843614959716,1.2307692909240722,0.8761281700134277
1763696720485775000,7.125775146484375,10.347739575195313,1.5364789154052734,0.7082347785949706
1763696720495736000,7.135736083984375,10.287285983276366,1.6832734046936033,0.5708674583435058
1763696720505697000,7.145697021484375,10.152312864685058,1.5958850440979002,0.32920272827148434
1763696720515657200,7.1556572265625,10.046668716430663,1.5625158584594725,0.17043723068237304
1763696720525618200,7.1656181640625,9.728838446044922,1.5035586425781249,-0.016909049224853513
1763696720535578000,7.175578125,9.792584065246581,1.5257050079345702,-0.09831190567016601
1763696720545539000,7.1855390625,9.949404273986817,1.4707880073547361,-0.21951836471557615
1763696720555499000,7.1954990234375,10.11939259185791,1.4227543365478514,-0.14948796615600585
1763696720565460000,7.2054599609375,9.952546663665771,1.5708955642700195,0.17432780838012693
1763696720575421200,7.215421142578125,9.555109188079834,1.5840636734008788,0.2480991470336914
1763696720585381000,7.225381103515625,9.613916766357422,1.6234183631896972,0.10893617553710937
1763696720595342000,7.235342041015625,9.677063835144043,1.7794903839111327,-0.13377601776123046
1763696720605302000,7.245302001953125,9.699958388519287,1.8210896377563475,-0.31274259185791015
1763696720615263000,7.255262939453125,9.974693029022216,1.8415899894714354,-0.26007015533447264
1763696720625223200,7.26522314453125,10.018087934112549,1.694346587371826,0.021697452545166016
1763696720635184000,7.27518408203125,10.096647676086425,1.4812626396179198,0.07197568740844726
1763696720645145000,7.28514501953125,10.508001448822021,1.4124293418884277,-0.035464112091064454
1763696720655105000,7.29510498046875,10.442909091186523,1.2497732666015624,0.03860650177001953
1763696720665066000,7.30506591796875,10.45772321395874,1.0800842239379882,0.25573066482543944
1763696720675026200,7.315026123046875,10.801740065002441,1.196502279663086,0.174926358795166
1763696720684987100,7.324987060546875,11.241973895263671,1.5005658905029295,0.10743979949951171
1763696720694948000,7.334947998046875,11.475408557128906,1.654692622375488,0.3012204963684082
1763696720704908000,7.344907958984375,11.284171699523926,1.7188871543884277,0.6364087287902832
1763696720714869000,7.354868896484375,10.812962885284422,1.7539023536682128,1.0978910987854003
1763696720724829000,7.364828857421875,11.197681164550781,1.656787548828125,1.06616792678833
1763696720734790100,7.3747900390625,11.597063928985595,1.6690578323364256,1.1035773277282714
1763696720744750000,7.38475,12.127379596710204,1.6660650802612305,1.0601824226379395
1763696720754711000,7.3947109375,12.427103717041016,1.6998831787109374,1.0609306106567382
1763696720764672000,7.404672119140625,12.445658779907227,1.8293197059631348,1.1264718811035155
1763696720774632000,7.4146318359375,13.229909461212157,1.7217302688598632,1.108964281463623
1763696720784593200,7.42459326171875,13.24711778564453,1.632396619415283,1.4564227973937987
1763696720794553000,7.434552978515625,13.114239593505859,1.4181155708312987,1.8113631935119627
1763696720804514000,7.44451416015625,12.873921601867675,1.2119149528503417,2.073079362487793
1763696720814474000,7.454473876953125,12.518382655334472,1.1112088455200195,2.335244444274902
1763696720824435000,7.46443505859375,12.188282101440429,1.1299135459899903,2.395398760986328
1763696720834396200,7.474396240234375,11.82331598587036,1.235408056640625,2.4250270065307618
1763696720844356000,7.484356201171875,11.353304272460937,1.1979986557006834,2.321477784729004
1763696720854317300,7.4943173828125,11.2500543258667,1.0893617553710937,2.2426187675476075
1763696720864277200,7.50427734375,11.183465592193603,1.0178349807739258,2.1103391258239745
1763696720874238000,7.514238037109375,10.465205094146729,0.7178115852355956,1.5714941146850585
1763696720884198100,7.5241982421875,10.082132828521727,0.8851064262390136,1.1496657096862792
1763696720894159000,7.5341591796875,10.370783766174316,0.8222586326599121,0.932691184234619
1763696720904120000,7.5441201171875,10.487800372314453,0.5144540817260742,1.627308940887451
1763696720914080300,7.554080322265625,10.17011973953247,0.4739022911071777,2.30456873550415
1763696720924041000,7.564041015625,10.007014751434326,0.755220986175537,2.6294319732666014
1763696720934001000,7.5740009765625,10.181492197418212,1.0166378799438476,2.8658593872070313
1763696720943962000,7.583962158203125,10.00417163696289,1.242291386413574,2.776525737762451
1763696720953923000,7.593923095703125,9.660603698730467,1.492036547088623,2.4721628517150878
1763696720963883300,7.60388330078125,9.398588254547118,1.8026842124938964,2.2616227432250975
1763696720973844000,7.613843994140625,9.16096373977661,2.0407576400756833,2.166752502441406
1763696720983804000,7.623803955078125,8.998307664489746,2.255786876678467,2.1279963630676266
1763696720993765000,7.63376513671875,8.971372895812987,2.4133552734375,2.0498855339050293
1763696721003724300,7.643724365234375,9.082703273010253,2.4899697265625,1.9780594841003416
1763696721013685200,7.653685302734375,9.143905052947998,2.413953823852539,1.9521721786499022
1763696721023646500,7.663646484375,9.183858293151856,2.2801778060913085,1.9654899253845213
1763696721033606400,7.6736064453125,9.23757819290161,2.2405238410949706,1.909525461578369
1763696721043567000,7.683567138671875,9.291148455047606,2.265214045715332,1.9726725303649901
1763696721053527300,7.69352734375,9.294590119934082,2.2827216453552244,2.0780174034118652
1763696721063488300,7.70348828125,9.354744436645507,2.3460183517456055,2.044797855377197
1763696721073448200,7.7134482421875,9.415347666168213,2.4078186820983887,2.0406080024719238
1763696721083409400,7.723409423828125,9.362675229644775,2.357690084838867,2.1185691940307616
1763696721093370000,7.7333701171875,9.228001386260987,2.3014263458251953,2.227056456756592
1763696721103330000,7.743330078125,9.151835845947264,2.287510048675537,2.264465857696533
1763696721113291300,7.753291259765625,9.092579354858398,2.254440138244629,2.2049100914001465
1763696721123251200,7.763251220703125,8.987833032226561,2.148347077178955,2.17692785949707
1763696721133212400,7.77321240234375,8.72072990951538,2.090138049316406,2.1785738731384274
1763696721143172400,7.78317236328125,8.513781103515624,2.0994155807495116,2.105700360107422
1763696721153133000,7.793133056640625,8.345588436889647,2.1799206115722654,1.9405004455566406
1763696721163094300,7.80309423828125,8.144924410247802,2.2424691299438475,1.7440262718200683
1763696721173054200,7.81305419921875,8.05080235748291,2.2098481323242187,1.548898836517334
1763696721183015400,7.823015380859375,7.958027043151855,2.1480478019714355,1.4181155708312987
1763696721192975400,7.832975341796875,7.834875295257568,2.090736599731445,1.3224971420288085
1763696721202936000,7.84293603515625,7.764395983886718,2.070385885620117,1.2925696212768554
1763696721212896300,7.852896240234375,7.743147444152831,1.9901801300048827,1.3379098152160644
1763696721222857200,7.862857177734375,7.453598680877685,1.909525461578369,1.4673463424682616
1763696721232818200,7.872818115234375,7.502530177307128,1.8598457771301269,1.5152303756713865
1763696721242778400,7.8827783203125,7.519738501739502,1.7944541442871094,1.5277999343872068
1763696721252739000,7.892739013671875,7.406313198089599,1.8365023109436034,1.557128904724121
1763696721262699000,7.902698974609375,7.437587457275391,1.8351555725097655,1.498470964050293
1763696721272660200,7.91266015625,7.499537425231933,1.8423381774902343,1.4730325714111328
1763696721282620200,7.9226201171875,7.6470801025390625,1.8997990173339843,1.4175170204162597
1763696721292581400,7.932581298828125,7.678204724121093,1.9107225624084472,1.4368202713012694
1763696721302542300,7.942542236328125,7.624484824371337,1.9430442848205565,1.4842553916931152
1763696721312502300,7.952502197265625,7.509862419891357,2.0693384223937987,1.4853028549194336
1763696721322463200,7.962463134765625,7.410652688598632,2.2092495819091797,1.5028104545593262
1763696721332423200,7.972423095703125,7.247547700500488,2.338536471557617,1.565957523345947
1763696721342384400,7.98238427734375,7.0470333114624015,2.446874096679687,1.7052701324462889
1763696721352344300,7.99234423828125,6.874800429534912,2.4033295539855954,1.938255881500244
1763696721362305300,8.00230517578125,6.809109521484374,2.356343346405029,2.069637697601318
1763696721372266200,8.012266357421876,6.853102976989746,2.419041502380371,2.1128829650878904
1763696721382226200,8.02222607421875,6.956951473999023,2.5597008499145506,2.0464438690185545
1763696721392187400,8.0321875,7.108833641815185,2.6568156547546384,1.935712042236328
1763696721402147300,8.042147216796875,7.24620096206665,2.6138696624755857,1.8721160606384277
1763696721412108300,8.0521083984375,7.329998020172119,2.484732410430908,1.8418892646789549
1763696721422068500,8.062068359375,7.3457099685668945,2.428468671417236,2.103605433654785
1763696721432029200,8.072029296875,7.459584185028076,2.596511700439453,2.5248352882385254
1763696721441990100,8.081990234375,7.473799757385254,2.8107927490234372,2.867206125640869
1763696721451950300,8.091950439453125,7.5631334068298335,2.832639839172363,3.006369097137451
1763696721461911300,8.101911376953124,7.385663208770752,2.8000188415527343,3.1102175941467283
1763696721471871200,8.111871337890625,7.279570147705078,2.820519193267822,3.178153066253662
1763696721481832200,8.121832275390625,7.110330017852783,2.934842322540283,3.2665888900756834
1763696721491792100,8.131792236328126,7.247846975708008,3.0169933670043942,3.3557729019165037
1763696721501753300,8.14175341796875,7.550713485717773,3.0322564025878904,3.403507297515869
1763696721511714300,8.15171435546875,7.873631434631347,2.880673509979248,3.375225790405273
1763696721521674200,8.16167431640625,8.167968601226805,2.683151873016357,3.3060932174682613
1763696721531635200,8.17163525390625,8.40185217590332,2.5469816535949708,3.3385645774841306
1763696721541595100,8.18159521484375,8.590545194244385,2.3719056571960446,3.3565210899353026
1763696721551556400,8.191556396484375,8.620622352600098,2.2459107948303223,3.3467946456909177
1763696721561516300,8.201516357421875,9.094075730895996,2.377142973327637,3.5372833152770995
1763696721571477200,8.211477294921876,9.108141665649413,2.6418518943786617,3.9023990684509275
1763696721581438200,8.221438232421875,8.756194021606445,2.8603227958679196,4.3150995796203615
1763696721591398100,8.231398193359375,9.292644831085205,3.109768681335449,4.50768317565918
1763696721601359000,8.241359130859376,9.297732509613036,2.7515362579345704,4.272452862548828
1763696721611319300,8.2513193359375,9.324368003082276,2.7162217834472653,4.011035968780518
1763696721621280300,8.2612802734375,9.467122277069091,2.830095999908447,4.089296435546875
1763696721631240200,8.271240234375,9.561842880249023,2.9366379737854,4.155735531616211
1763696721641201200,8.281201171875,9.67242506942749,2.957886513519287,4.244769905853271
1763696721651162000,8.291162109375,9.72330185470581,2.872293804168701,4.387075267028808
1763696721661122300,8.301122314453124,9.725097505950927,2.7651532798767087,4.567687854766845
1763696721671083300,8.311083251953125,9.741108729553222,2.769642407989502,4.764760578918457
1763696721681043200,8.321043212890626,9.719411277008057,2.8507459892272946,4.865466686248779
1763696721691004200,8.331004150390624,9.781361244964598,2.9058126274108886,5.0005894424438475
1763696721700964000,8.340964111328125,9.9215716796875,2.846256861114502,5.257217932891845
1763696721710925300,8.35092529296875,10.237905574035643,2.826953610229492,5.6051253616333
1763696721720886300,8.36088623046875,10.136002365875244,2.9204771125793454,5.475090283966064
1763696721730846200,8.37084619140625,10.223091451263427,2.4947581298828125,4.886266313171387
1763696721740807200,8.38080712890625,9.968557887268066,1.717989328765869,4.48209514541626
1763696721750767000,8.39076708984375,10.155604891967773,1.8320131828308104,4.38632707901001
1763696721760728300,8.400728271484375,10.906336750030517,1.8257284034729002,4.810848960876465
1763696721770688300,8.410688232421874,11.00000988998413,1.6787842765808105,4.978293439483642
1763696721780649200,8.420649169921875,11.049839212036131,1.6977882522583008,5.008669873046875
1763696721790610400,8.4306103515625,11.151443144989013,1.6232687255859375,4.927715929412842
1763696721800570400,8.4405703125,11.345972029876709,1.5910966407775877,4.910507604980468
1763696721810531000,8.450531005859375,11.484686088562011,1.5933412048339843,5.185391883087158
1763696721820491300,8.4604912109375,11.235539478302002,1.4457985275268554,5.558288791656494
1763696721830452200,8.4704521484375,10.957063897705078,1.2984054878234863,5.787084687805176
1763696721840412200,8.480412109375,10.883741471862793,1.3314753982543945,5.787084687805176
1763696721850373400,8.490373291015626,10.939406660461426,1.50026661529541,5.710619872283935
1763696721860333300,8.500333251953125,10.971878020477295,1.600523809814453,5.748029273223876
1763696721870294300,8.510294189453125,10.86024836807251,1.5834651229858399,5.942408520507812
1763696721880255200,8.520255126953124,10.72632271270752,1.4863503181457518,6.184671800994873
1763696721890215200,8.530215087890625,10.55962642211914,1.3150152618408202,6.355408306884765
1763696721900176400,8.54017626953125,10.446500393676757,1.16193599319458,6.439355002593993
1763696721910136300,8.55013623046875,10.336816030120849,1.0622773490905761,6.516717643737793
1763696721920097300,8.56009716796875,10.231022244262695,0.9430161788940429,6.554575957489013
1763696721930057200,8.57005712890625,10.152911415100098,0.8515876029968261,6.5032502593994135
1763696721940018200,8.58001806640625,10.020482135772705,0.7972691528320313,6.468683972930908
1763696721949979400,8.5899794921875,9.836427883148193,0.7251438278198242,6.400898138427734
1763696721959939300,8.599939208984376,9.668983404541015,0.6959644950866699,6.287173559570312
1763696721969900000,8.609900146484375,9.535207386779785,0.7115268058776855,6.174346806335449
1763696721979860200,8.619860107421875,9.380931017303466,0.6697779144287109,6.1261634979248045
1763696721989821200,8.6298212890625,9.183559017944335,0.6711246528625487,6.190208392333984
1763696721999782100,8.6397822265625,8.913463143157959,0.7173626724243164,6.312163039398193
1763696722009743000,8.6497431640625,8.629002058410643,0.82360537109375,6.436212612915039
1763696722019704000,8.6597041015625,8.382100012207031,0.8833107749938964,6.547842265319824
1763696722029664300,8.669664306640625,8.093000161743163,0.9144353965759277,6.599167963409424
1763696722039625200,8.679625244140626,7.813327480316162,0.9074024291992187,6.580014350128174
1763696722049585200,8.689585205078124,7.605929761505126,0.9293991569519042,6.43501551208496
1763696722059546000,8.699546142578125,7.433547241973876,1.0369885940551757,6.256048937988281
1763696722069506000,8.709506103515626,7.339874102020263,1.1465233200073242,6.023512101745605
1763696722079467300,8.71946728515625,7.263110011291504,1.1640309196472167,5.7894788894653315
1763696722089427200,8.72942724609375,7.188291209411621,1.1183914505004882,5.596596018218994
1763696722099388200,8.73938818359375,7.123348489379882,1.074547632598877,5.399822569274902
1763696722109349400,8.749349365234375,7.050774251556396,1.0645219131469725,5.186588983917236
1763696722119309300,8.759309326171875,6.860285581970214,1.1041758781433104,4.980986916351318
1763696722129270300,8.769270263671874,6.667103435516357,1.1833341705322264,4.732588494110107
1763696722139230200,8.779230224609375,6.528239739227295,1.2701239807128906,4.36043977355957
1763696722149191200,8.789191162109375,6.478111141967773,1.3606547309875487,3.935917891693115
1763696722159151400,8.7991513671875,6.449081446838378,1.4082394889831542,3.572597789764404
1763696722169112300,8.8091123046875,6.4649430328369135,1.4366706336975097,3.2097266006469725
1763696722179073000,8.819072998046876,6.506392649078369,1.4202104972839356,2.7768250129699705
1763696722189033200,8.829033203125,6.715885294342041,1.341950030517578,2.430563597869873
1763696722198994200,8.838994140625,6.969521032714844,1.2671312286376952,2.1262007118225097
1763696722208954000,8.8489541015625,7.215674890899658,1.233462767791748,1.958157682800293
1763696722218915300,8.858915283203125,7.460631648254394,1.1471218704223631,1.8787001152038574
1763696722228875300,8.868875244140625,7.675211972045898,1.0116998390197753,1.9231424835205078
1763696722238836200,8.878836181640626,7.842207537841796,0.9163806854248047,1.8601450523376464
1763696722248796200,8.888796142578125,7.972392253112792,0.8907926551818847,1.758241844177246
1763696722258757000,8.898757080078125,8.007257814788819,0.9478045822143554,1.668758557128906
1763696722268718300,8.90871826171875,8.035988234710693,1.0164882423400878,1.520766967010498
1763696722278678300,8.91867822265625,8.026710703277587,1.1243769546508788,1.387290224456787
1763696722288639200,8.92863916015625,7.943661833190918,1.2144587921142578,1.2958616485595702
1763696722298599200,8.93859912109375,7.869890494537353,1.3066355560302734,1.2440870376586914
1763696722308560100,8.94856005859375,7.761552869415283,1.4440028762817383,1.2384008087158203
1763696722318520300,8.958520263671875,7.579593543243408,1.6039654747009275,1.345840608215332
1763696722328481300,8.968481201171874,7.385363933563232,1.7791911087036132,1.5203180541992187
1763696722338442000,8.97844189453125,7.300818687438964,2.0757728393554684,1.6754922492980957
1763696722348402200,8.988402099609376,7.209090836334228,2.3006781578063964,1.7658733619689941
1763696722358363100,8.998363037109375,7.089380753326416,2.2520459365844725,1.7634791603088378
1763696722368323000,9.008322998046875,7.266551676177978,2.3225252479553222,1.8761562759399413
1763696722378284300,9.0182841796875,7.562235581207275,2.4705168380737303,2.0820576187133786
1763696722388244200,9.028244140625,7.709030070495605,2.5088240646362303,2.393453472137451
1763696722398205200,9.038205078125,7.5917141891479485,2.130540202331543,2.957138325500488
1763696722408165000,9.0481650390625,7.34825380783081,2.1434090362548828,2.9314006576538083
1763696722418126000,9.0581259765625,7.742548893737792,2.1646575759887696,2.953397385406494
1763696722428087300,9.06808740234375,7.972841165924072,2.233191598510742,2.8411691825866696
1763696722438047200,9.078047119140624,8.086266469573975,2.3472154525756834,2.800168479156494
1763696722448008200,9.08800830078125,8.294711651611328,2.5362077461242674,2.665494635772705
1763696722457968000,9.097968017578125,8.3885344291687,2.779967402648926,2.388814706420898
1763696722467929000,9.10792919921875,8.487893798065185,2.6868928131103513,2.2272060943603513
1763696722477889300,9.11788916015625,8.450484397125244,2.7443536529541013,2.3198317710876464
1763696722487850200,9.127850341796876,8.36908154067993,3.012204963684082,2.3508067550659177
1763696722497811200,9.137811279296875,8.48460177078247,2.9287071807861325,2.421585341644287
1763696722507771100,9.147771240234375,8.464849607086181,2.709338453674316,2.6077345207214355
1763696722517732000,9.157732177734376,8.483554307556151,2.7908909477233883,2.9049148017883297
1763696722527692300,9.1676923828125,8.329876488494872,2.807949634552002,2.717718159484863
1763696722537653200,9.1776533203125,8.793004872131347,2.9677625953674314,2.596511700439453
1763696722547613200,9.18761328125,8.91166749191284,3.1581016273498532,2.591573659515381
1763696722557574400,9.197574462890625,8.805574430847168,3.3705870246887204,2.5704747573852536
1763696722567534300,9.207534423828125,8.978854776000976,3.554790914916992,2.4823382087707517
1763696722577495000,9.2174951171875,8.875006278991698,3.7237317695617675,2.3802853630065917
1763696722587456300,9.227456298828125,8.83565158920288,3.8967128395080564,2.3650223274230955
1763696722597416200,9.237416259765626,8.772953433227539,4.0541315986633295,2.3229741607666012
1763696722607377400,9.24737744140625,8.49747060470581,3.9200563056945796,2.263268756866455
1763696722617337300,9.25733740234375,8.264933768463134,3.86888024520874,2.414103461456299
1763696722627298000,9.267298095703126,8.074744374084473,3.83685779800415,2.830095999908447
1763696722637258200,9.27725830078125,7.828889791107177,3.688267657470703,3.2665888900756834
1763696722647219200,9.28721923828125,7.696460511779785,3.5042134048461913,3.4994250015258785
1763696722657179100,9.29717919921875,7.766790185546874,3.3877953491210935,3.573345977783203
1763696722667140400,9.307140380859375,8.020425923919678,3.3125276344299315,3.6303579048156736
1763696722677101000,9.31710107421875,8.276455863952636,3.199700881195068,3.791517604064941
1763696722687061200,9.327061279296874,8.410531156921387,2.9882629470825193,3.84987626953125
1763696722697022200,9.337022216796875,8.523956460571288,2.7898434844970703,3.8512230079650878
1763696722706982100,9.346982177734375,8.647856396484375,2.6626515213012696,3.796006732177734
1763696722716943400,9.356943359375,8.862586357879637,2.5308207923889157,3.687669107055664
1763696722726903300,9.3669033203125,9.017610915374755,2.405125205230713,3.6694133193969725
1763696722736864000,9.376864013671875,9.102156161499023,2.2457611572265623,3.584269522857666
1763696722746825200,9.3868251953125,9.055768504333496,2.1333833168029783,3.604021686553955
1763696722756785200,9.39678515625,9.066542411804198,2.1019594200134275,3.6810850524902343
1763696722766746400,9.406746337890626,9.373449137115477,2.001702225494385,3.623175299835205
1763696722776706300,9.416706298828124,9.962572383117676,1.8140566703796386,3.4748844345092773
1763696722786667000,9.4266669921875,10.166229161834716,1.9702783287048338,3.555539102935791
1763696722796627200,9.436627197265626,10.426748229980468,1.924189946746826,3.6692636817932125
1763696722806588200,9.446588134765625,10.312125825500488,1.7755998062133789,3.5968390815734863
1763696722816548000,9.456548095703125,10.274417149353027,1.8388965126037597,3.489548919677734
1763696722826509300,9.46650927734375,10.395174695587158,2.020855838775635,3.310283070373535
1763696722836469200,9.47646923828125,10.59149923171997,2.2863129478454587,3.0933085449218747
1763696722846430200,9.48643017578125,10.695946279144286,2.6008511909484864,2.992452799987793
1763696722856391200,9.49639111328125,10.401459474945067,2.759467050933838,3.1370027252197263
1763696722866351000,9.50635107421875,10.19600704498291,2.644994284057617,3.4205659843444822
1763696722876312300,9.516312255859376,10.181043284606933,2.646341022491455,3.6851252677917476
1763696722886272300,9.526272216796874,10.21545993347168,2.7632079910278318,3.934870428466797
1763696722896233200,9.536233154296875,10.28504141921997,2.794931163024902,4.21349564666748
1763696722906193200,9.546193115234376,10.33651675491333,2.722356925201416,4.3999441009521485
1763696722916154000,9.556154052734374,10.441113439941406,2.629282335662842,4.489726663208008
1763696722926114300,9.5661142578125,10.59194814453125,2.597858438873291,4.450970523834228
1763696722936075300,9.5760751953125,10.740388647460938,2.6663924613952634,4.3345524681091305
1763696722946036200,9.5860361328125,10.879701256561278,2.73253228225708,4.198681523895264
1763696722955996200,9.59599609375,11.036671102905272,2.657264567565918,4.070741372680664
1763696722965957000,9.60595703125,11.12151562423706,2.4871266120910644,4.036773636627197
1763696722975917000,9.6159169921875,11.247809761810302,2.280626718902588,3.9579146194458006
1763696722985878300,9.625878173828125,11.445481036376952,2.110638401031494,3.819200560760498
1763696722995838200,9.635838134765624,11.657517520904541,1.9399018951416014,3.744381758880615
1763696723005799200,9.645799072265625,11.725901905822754,1.6727987724304199,3.775057467651367
1763696723015760100,9.655760009765626,11.69043779373169,1.3371616271972655,3.8801030654907223
1763696723025720000,9.665719970703124,11.61950956954956,1.0001777435302734,3.9305309379577635
1763696723035681300,9.675681396484375,11.437400605773925,0.7007528984069824,3.931428763580322
1763696723045641200,9.68564111328125,11.219079341888428,0.5169979209899902,3.8181530975341795
1763696723055602400,9.6956025390625,11.003601192474365,0.41090485992431636,3.610306465911865
1763696723065562400,9.705562255859375,10.767024140930175,0.45070846252441404,3.3809120193481443
1763696723075523000,9.715523193359376,10.688165123748778,0.6615478462219238,3.153313224029541
1763696723085483300,9.725483154296874,10.604517703247069,0.8981248977661133,3.0214824951171875
1763696723095444200,9.7354443359375,10.491541312408447,1.1189900009155274,2.926462616729736
1763696723105404200,9.745404052734376,10.39981346130371,1.3293804718017577,2.8687025016784666
1763696723115365400,9.755365478515625,10.149619387817383,1.4223054237365722,3.0538042175292968
1763696723125326000,9.765326171875,9.85737714767456,1.3308768478393553,3.39018955078125
1763696723135286000,9.7752861328125,9.603142858886718,1.2331634925842285,3.695300624847412
1763696723145247200,9.785247314453125,9.411606726074218,1.193359889984131,3.8530186592102047
1763696723155207200,9.795207275390625,9.21962168045044,1.2220903099060059,3.8233904136657713
1763696723165168400,9.80516845703125,8.968230506134033,1.2856862915039062,3.589207563781738
1763696723175128300,9.81512841796875,8.748562503814696,1.354070676422119,3.136553812408447
1763696723185089000,9.825089111328126,8.655637551879883,1.4459481651306152,2.658611305999756
1763696723195049200,9.83504931640625,8.689754925537109,1.4288894783020019,2.2475568084716797
1763696723205010200,9.84501025390625,8.729857803344727,1.237951895904541,1.9815011489868164
1763696723214971400,9.854971435546876,8.796446537017822,1.0194809944152832,1.8528128097534178
1763696723224931300,9.864931396484375,8.888623300933837,0.8487444885253905,1.8028338500976562
1763696723234892000,9.87489208984375,8.968978694152831,0.7224503509521484,1.8282722427368163
1763696723244852200,9.884852294921876,8.909722203063964,0.6486790122985839,1.8454805671691894
1763696723254813200,9.894813232421875,8.812008847808837,0.665887336730957,1.8391957878112792
1763696723264773000,9.904773193359375,8.851213899993896,0.6405985816955566,1.7993921852111816
1763696723274734300,9.914734375,8.93770443496704,0.5259761772155761,1.8083704414367674
1763696723284694300,9.9246943359375,8.850016799163818,0.419434203338623,1.8631378044128417
1763696723294655000,9.934655029296875,8.733000193023681,0.49036242752075193,1.7663222747802734
1763696723304616200,9.9446162109375,8.809614646148681,0.690128628540039,1.537975291442871
1763696723314576100,9.954576171875,8.903138148498535,0.8900444671630859,1.3519757499694824
1763696723324537300,9.964537353515626,9.031676850128173,0.9437643669128417,1.2337620429992675
1763696723334497300,9.974497314453124,9.010428310394287,0.9015665626525878,1.261444999694824
1763696723344458000,9.9844580078125,8.883984535217285,0.8282441368103027,1.347785897064209
1763696723354418200,9.994418212890626,8.801534215545654,0.8747814315795898,1.3913304397583006
1763696723364379100,10.004379150390625,8.769362130737305,0.9683049339294433,1.4199112220764158
1763696723374339000,10.014339111328125,8.650250598144531,1.0755950958251952,1.4752771354675291
1763696723384300300,10.02430029296875,8.548197752380371,1.148468608856201,1.472134745788574
1763696723394260200,10.03426025390625,8.486846334838866,1.2075754623413084,1.4252981758117675
1763696723404221200,10.04422119140625,8.44614490661621,1.248725803375244,1.3938742790222167
1763696723414182100,10.05418212890625,8.422651802825927,1.271171443939209,1.4101847778320311
1763696723424142000,10.06414208984375,8.287977959442138,1.337460902404785,1.5150807380676268
1763696723434103300,10.074103271484375,8.096591464233398,1.4929343727111815,1.6476596549987792
1763696723444063200,10.084063232421874,7.9661074737548825,1.59603468170166,1.6463129165649413
1763696723454024200,10.094024169921875,7.8715365081787105,1.6068085891723631,1.5828665725708007
1763696723463984000,10.103984130859375,7.8058456001281735,1.6903063720703124,1.5415665939331054
1763696723473945000,10.113945068359374,7.825148851013183,1.7669208251953124,1.501014803314209
1763696723483905300,10.1239052734375,7.860762600708007,1.8831892433166504,1.46195938873291
1763696723493866200,10.1338662109375,7.86540136642456,1.990030492401123,1.5171756645202636
1763696723503827200,10.1438271484375,7.91014300994873,2.0235493156433106,1.5816694717407225
1763696723513787400,10.153787353515625,7.966556386566162,2.057068138885498,1.6998831787109374
1763696723523748000,10.163748046875,8.011298030090332,2.1062989105224608,1.8694225837707519
1763696723533708000,10.1737080078125,7.989750215148925,2.1534347557067868,2.0302830078125
1763696723543669200,10.183669189453125,7.975983555603027,2.220472402191162,2.1326351287841794
1763696723553629200,10.193629150390626,8.027309253692627,2.3110031524658203,2.21538472366333
1763696723563590400,10.20359033203125,8.05633894882202,2.4301146850585935,2.286911498260498
1763696723573550300,10.21355029296875,8.0184806350708,2.5406968742370606,2.3024738090515133
1763696723583511000,10.223510986328124,8.064868292236328,2.6122236488342283,2.3044190979003907
1763696723593471200,10.23347119140625,8.17784468307495,2.6780641944885253,2.3306056785583493
1763696723603432200,10.24343212890625,8.246528343200684,2.757222486877441,2.3484125534057614
1763696723613393400,10.253393310546874,8.24847363204956,2.858227869415283,2.3165397438049316
1763696723623353300,10.263353271484375,8.329876488494872,2.934692684936523,2.3288100273132324
1763696723633314000,10.27331396484375,8.372373567962645,2.9741970123291015,2.3306056785583493
1763696723643274200,10.283274169921874,8.429235857391356,2.9876643966674803,2.3171382942199705
1763696723653235200,10.293235107421875,8.424447454071045,2.9568390502929685,2.323273435974121
1763696723663195100,10.303195068359376,8.480411917877197,2.938882537841797,2.264465857696533
1763696723673156400,10.31315625,8.633191911315917,2.9249662406921386,2.2144868980407715
1763696723683116300,10.3231162109375,8.757989672851561,2.926013703918457,2.1914427070617672
1763696723693077000,10.333076904296876,8.906280538177489,2.939331450653076,2.1830630012512207
1763696723703038200,10.3430380859375,8.965686666870116,2.897283283996582,2.2246622550964354
1763696723712998100,10.352998046875,8.912864592742919,2.64304899520874,2.2979846809387205
1763696723722959400,10.36295947265625,9.044695321655272,2.6033950302124023,2.3241712615966796
1763696723732919300,10.372919189453125,9.341875602722167,2.908655741882324,2.1282956382751466
1763696723742880000,10.3828798828125,9.425373385620116,2.9550433990478515,1.9569605819702147
1763696723752840200,10.392840087890624,9.296086495971679,2.8565818557739258,1.9542671051025389
1763696723762801200,10.40280126953125,9.412055638885498,2.9888614974975583,1.8857330825805663
1763696723772761000,10.412760986328125,9.540743978118895,3.1287726570129393,1.715445489501953
1763696723782722300,10.422722412109374,9.553612812042235,3.0918121688842772,1.7018284675598143
1763696723792682200,10.43268212890625,9.44856721420288,3.0558991439819336,1.7405846069335937
1763696723802643200,10.442643310546876,9.599551556396484,3.0844799263000486,1.7549498168945312
1763696723812604200,10.452604248046875,9.804255798339844,3.0591911712646485,1.8478747688293455
1763696723822564000,10.462564208984375,9.92740754623413,2.9349919601440426,2.037914525604248
1763696723832525300,10.472525390625,10.041431400299071,2.843563384246826,2.179770973968506
1763696723842485200,10.4824853515625,10.258405925750731,2.8357822288513184,2.2444144187927244
1763696723852446200,10.4924462890625,10.464905818939208,2.8381764305114743,2.3204303215026854
1763696723862406100,10.50240625,10.584615901947021,2.7862521820068356,2.477699443054199
1763696723872367000,10.5123671875,10.619631101226807,2.667589562225342,2.6803087585449217
1763696723882327300,10.522327392578125,10.625317330169677,2.616263864135742,2.869001776885986
1763696723892288300,10.532288330078124,10.637737251281738,2.59202257232666,2.920177837371826
1763696723902248200,10.542248291015625,10.62920790786743,2.6517279762268067,2.826504697418213
1763696723912209200,10.552209228515625,10.676942303466797,2.795529713439941,2.6542718154907226
1763696723922170000,10.562170166015624,10.928782390594481,3.0021792442321775,2.4863784240722655
1763696723932130000,10.572130126953125,11.262324609375,3.1878795104980466,2.4488193855285645
1763696723942091300,10.58209130859375,11.58120234298706,3.2977135116577148,2.607435245513916
1763696723952051200,10.59205126953125,11.805209835815429,3.174412126159668,3.0092122116088866
1763696723962012400,10.602012451171875,11.896488774108885,2.80929637298584,3.633949207305908
1763696723971972400,10.611972412109376,11.809100413513184,2.4064719436645507,4.316446318054199
1763696723981933000,10.62193310546875,11.707197205352783,2.0018518630981443,4.83928010559082
1763696723991893200,10.631893310546875,11.66395193786621,1.7052701324462889,5.141548065185547
1763696724001853200,10.641853271484376,11.667094327545165,1.5755343299865723,5.28609799041748
1763696724011813400,10.6518134765625,11.674276932525634,1.490091258239746,5.210830275726318
1763696724021774300,10.6617744140625,11.720814227294921,1.3289315589904784,5.084087225341796
1763696724031735300,10.6717353515625,11.668740341186522,1.1513117233276366,5.016451028442383
1763696724041695200,10.6816953125,11.417049891662597,0.9373299499511718,4.999841254425048
1763696724051656200,10.69165625,11.030984873962401,0.7945756759643554,4.970063371276855
1763696724061616400,10.701616455078126,10.64297456741333,0.7821557548522948,4.852897127532959
1763696724071577300,10.711577392578125,10.317812054443358,0.8806172981262207,4.608389282989502
1763696724081537300,10.721537353515625,9.97888288192749,1.0567407577514647,4.3257238494873045
1763696724091498500,10.73149853515625,9.62169792175293,1.2288240020751953,4.059069639587402
1763696724101458400,10.74145849609375,9.356091175079346,1.3672387855529784,3.8251860649108886
1763696724111419400,10.75141943359375,9.14151085128784,1.4450503395080565,3.6801872268676754
1763696724121379300,10.76137939453125,8.981847528076171,1.5084966835021971,3.6010289344787596
1763696724131340300,10.77134033203125,8.854655564880371,1.557128904724121,3.5986347328186032
1763696724141300500,10.781300537109376,8.719233533477782,1.5376760162353516,3.630806817626953
1763696724151261400,10.791261474609374,8.56076731109619,1.4513351188659667,3.7042788810729976
1763696724161222100,10.80122216796875,8.45302823638916,1.35990654296875,3.8429929397583007
1763696724171182300,10.811182373046876,8.368482990264893,1.2536638442993164,3.8992566787719722
1763696724181143300,10.821143310546875,8.324190259552001,1.1755530151367186,3.863044378662109
1763696724191103200,10.831103271484375,8.332719602966309,1.1336544860839843,3.781940797424316
1763696724201064400,10.841064453125,8.349479014587402,1.1124059463500975,3.6002807464599607
1763696724211024400,10.8510244140625,8.380453998565674,1.1438298431396483,3.387645711517334
1763696724220985300,10.8609853515625,8.34349351043701,1.1487678840637205,3.1561563385009763
1763696724230945300,10.8709453125,8.276755139160155,1.143979480743408,2.9987375793457027
1763696724240906200,10.88090625,8.150909914398193,1.1897685874938964,2.869151414489746
1763696724250866400,10.890866455078125,8.089408859252929,1.2485761657714842,2.7162217834472653
1763696724260827400,10.900827392578124,7.9849618118286125,1.284489190673828,2.574963885498047
1763696724270787300,10.910787353515625,7.8541785461425775,1.261444999694824,2.461239306640625
1763696724280748300,10.920748291015625,7.658602198028564,1.2234370483398436,2.4028806411743164
1763696724290709200,10.930709228515624,7.455843244934082,1.229572190093994,2.3599346488952637
1763696724300669400,10.94066943359375,7.339275551605224,1.250072541809082,2.2776339668273926
1763696724310630400,10.95063037109375,7.269843703460693,1.2544120323181152,2.205059729003906
1763696724320590300,10.96059033203125,7.162254266357421,1.2629413757324217,2.0777181282043458
1763696724330551300,10.97055126953125,7.138611524963379,1.2681786918640137,1.9443910232543944
1763696724340511200,10.98051123046875,7.109881105041503,1.219995383453369,1.8619407035827635
1763696724350472200,10.99047216796875,6.994959425354003,1.1930606147766112,1.8085200790405271
1763696724360432400,11.000432373046875,6.927772141265868,1.173458088684082,1.8062755149841307
1763696724370393300,11.010393310546876,6.936151847076416,1.087865379333496,1.8368015861511229
1763696724380353300,11.020353271484375,7.039850706481933,0.9967360786437988,1.8649334556579589
1763696724390314200,11.030314208984375,7.038952880859375,0.9409212524414062,1.9051859710693357
1763696724400274200,11.040274169921876,7.007528984069824,0.931494083404541,1.9590555084228514
1763696724410235400,11.0502353515625,7.095665532684325,1.0386346076965332,2.016067435455322
1763696724420196400,11.0601962890625,7.20116004333496,1.2228384979248046,2.0681413215637208
1763696724430156300,11.07015625,7.285705289459228,1.4282909278869629,2.113780790710449
1763696724440117200,11.0801171875,7.376834590148925,1.6391303115844726,2.1199159324645995
1763696724450077200,11.0900771484375,7.35438894958496,1.850268970489502,2.2465093452453613
1763696724460038400,11.100038330078124,7.402422620391845,1.8945617012023925,2.433107437133789
1763696724469998300,11.109998291015625,7.366509595489502,1.9023428565979004,2.728641704559326
1763696724479959300,11.119959228515626,7.474398307800293,1.9602526092529295,2.9225720390319823
1763696724489919500,11.12991943359375,7.80195502243042,1.9557634811401365,3.04527487411499
1763696724499880200,11.139880126953125,8.216002272033691,1.9954174461364744,3.077746234130859
1763696724509840100,11.149840087890626,8.284985207366942,2.150142728424072,3.433434818267822
1763696724519801300,11.15980126953125,8.461557579803467,2.216581824493408,3.841496563720703
1763696724529762300,11.16976220703125,8.704419410705565,2.3594857360839843,4.2606314918518065
1763696724539722500,11.179722412109374,8.84926861114502,2.605190681457519,4.516960707092285
1763696724549683500,11.189683349609375,8.715492593383788,2.67507144241333,4.636072239685058
1763696724559643400,11.199643310546875,8.437615563201904,2.4233809928894043,4.7240591506958
1763696724569604400,11.209604248046874,8.359055821228027,2.159719535064697,4.947168817901611
1763696724579564300,11.219564208984375,9.456049094390869,0.5226841499328613,7.167341944885253
1763696724589525200,11.229525146484375,7.893682873535155,0.5948094749450683,8.053645471954345
1763696724599485400,11.2394853515625,9.90241806640625,0.7094318794250488,7.0196496299743645
1763696724609446400,11.2494462890625,12.138303141784668,0.7083844161987304,5.312583846282958
1763696724619406300,11.25940625,10.56546228866577,1.3524246627807617,3.4497453170776367
1763696724629367300,11.2693671875,9.588179098510741,1.2639888389587401,2.5686791061401366
1763696724639327200,11.2793271484375,9.215880740356445,1.2716203567504882,2.024896054077148
1763696724649288400,11.289288330078126,9.085546387481688,1.0351929428100586,1.7284639610290526
1763696724659248400,11.299248291015624,9.062801471710204,0.7612064903259277,1.6880618080139158
1763696724669209300,11.309209228515625,8.862885633087158,0.5361515342712402,1.8394950630187987
1763696724679170300,11.31917041015625,8.62451293029785,0.31977555923461914,2.0437503921508786
1763696724689130200,11.329130126953125,8.37521668243408,0.23732523956298826,2.205658279418945
1763696724699091500,11.339091552734375,8.42115542678833,0.4704606262207031,2.2444144187927244
1763696724709051400,11.349051513671874,8.74616830215454,0.7499836700439453,2.5152584815979004
1763696724719012400,11.359012451171875,8.26732797012329,1.0871171913146973,2.6259903083801266
1763696724728972500,11.36897265625,7.91612851409912,1.6885107208251953,2.6337714637756346
1763696724738933200,11.378933349609374,8.033893308258056,2.3014263458251953,2.7659014678955076
1763696724748893200,11.38889306640625,8.423699266052246,3.0992940490722654,2.9097032051086424
1763696724758854400,11.3988544921875,8.509441613006592,2.725499314880371,2.740911988067627
1763696724768814300,11.408814453125,8.488492348480223,2.212092696380615,2.599654090118408
1763696724778775300,11.418775390625,8.650849148559569,2.1339818672180173,2.452261050415039
1763696724788735500,11.428735595703126,8.927828353118896,2.2035633529663086,2.3030723594665528
1763696724798696200,11.4386962890625,9.290549904632568,2.29214881439209,3.0322564025878904
1763696724808656100,11.44865625,9.46697263946533,2.628534147644043,3.050362552642822
1763696724818617300,11.458617431640626,9.342773428344726,2.770240958404541,2.503137835693359
1763696724828578300,11.468578369140625,9.279626359558105,2.595613874816894,2.128445275878906
1763696724838538500,11.47853857421875,9.351452409362793,2.0049942527770996,2.249202822113037
1763696724848499200,11.488499267578124,9.004442806243896,1.0532990928649901,2.543689626312256
1763696724858459100,11.498459228515625,8.98932940826416,-0.24121581726074218,2.544138539123535
1763696724868420400,11.50842041015625,9.62693523788452,-1.0245686729431152,3.057245882415771
1763696724878380300,11.51838037109375,10.110863248443604,-1.0657190139770507,3.510049271392822
1763696724888341500,11.528341552734375,10.17565633087158,-1.0579378585815429,4.190451455688477
1763696724898301400,11.538301513671875,10.22129580001831,-0.8846575134277344,4.923376438903809
1763696724908262100,11.54826220703125,10.06821653137207,-0.7308300567626953,5.316923336791992
1763696724918222300,11.558222412109375,9.541192890930175,-0.7173626724243164,5.531054747772217
1763696724928183300,11.568183349609376,8.96359174041748,-0.5140051689147949,5.436034869384765
1763696724938143200,11.578143310546874,8.866626573181152,-0.056114101409912104,5.3384711517333985
1763696724948104400,11.5881044921875,9.166649968719481,0.2877531120300293,5.449951166534423
1763696724958064400,11.598064453125,9.548525133514405,0.1197100830078125,4.990414085388183
1763696724968025300,11.608025390625,9.949703549194336,0.06898293533325195,4.520851284790039
1763696724977986300,11.617986328125,10.401758750152588,0.20335750350952148,4.36717346572876
1763696724987946200,11.6279462890625,10.594491983795166,0.330699104309082,4.342333623504638
1763696724997907500,11.637907470703125,10.270227296447754,0.7237970893859863,4.15618444442749
1763696725007867100,11.6478671875,10.314370389556885,1.1354501373291015,3.8476317054748534
1763696725017828400,11.657828369140624,10.717943006896972,1.2975076622009276,3.907337109375
1763696725027788300,11.667788330078125,10.475829364013672,1.541716231536865,3.831171569061279
1763696725037749200,11.677749267578125,10.982502290344238,-0.17941548690795897,5.9874494392395015
1763696725047709200,11.687709228515626,10.846182433319091,-1.0615291610717772,4.9993923416137696
1763696725057670100,11.697670166015625,10.711807865142822,-1.3415011177062988,5.0748096939086915
1763696725067630300,11.70763037109375,10.232668257904052,-1.4746785850524902,5.310937832641601
1763696725077591300,11.71759130859375,10.05534769744873,-1.3976152191162108,5.051615865325927
1763696725087551200,11.72755126953125,13.302334061431884,-1.6123451805114746,4.81982721710205
1763696725097512200,11.73751220703125,15.34084713745117,-1.987337015533447,3.425952938079834
1763696725107472100,11.74747216796875,14.54327870941162,-2.8145336891174315,2.2384289146423337
1763696725117433300,11.757433349609375,13.61193426361084,-3.4683003799438477,4.340837247467041
1763696725127393300,11.767393310546876,13.286622113037108,-4.466383197021484,6.034286009216308
1763696725137354200,11.777354248046874,12.503568532562255,-5.537788439941406,6.767061354827881
1763696725147315200,11.787315185546875,11.066149710845947,-5.303007039642334,5.67590394821167
1763696725157275100,11.797275146484376,10.052504582977294,-4.338742321014404,4.71133995437622
1763696725167236000,11.807236083984375,9.330054232025146,-3.6846763549804686,3.6337995697021483
1763696725177196300,11.8171962890625,8.967332680511474,-3.0686183403015135,2.3127988037109373
1763696725187157200,11.8271572265625,9.265111511993407,-2.235885075378418,1.6775871757507324
1763696725197117200,11.8371171875,9.280224909973144,-1.6998831787109374,1.7438766342163086
1763696725207078100,11.847078125,8.670750949859618,-1.9168577041625976,2.5852888801574707
1763696725217038000,11.8570380859375,8.442703241729737,-2.1059996353149413,3.4772786361694332
1763696725226999300,11.866999267578125,8.624064017486571,-1.7812860351562498,3.684825992584228
1763696725236959200,11.876959228515625,8.792705596923827,-1.4212579605102538,3.461566687774658
1763696725246920200,11.886920166015624,8.849717523956299,-1.9617489852905272,2.4992472579956053
1763696725256880400,11.89688037109375,9.474903432464599,-1.2298714653015137,2.569128018951416
1763696725266841000,11.906841064453126,9.968707524871826,-0.8032546569824218,2.1257517990112302
1763696725276801000,11.916801025390624,9.8955347366333,-1.2101193016052245,1.6225205375671385
1763696725286762200,11.92676220703125,9.170241271209717,-1.8634370796203612,1.6118962677001951
1763696725296722200,11.93672216796875,8.467243808746337,-2.608482708740234,0.2258031440734863
1763696725306683400,11.946683349609375,11.72111350250244,-2.14490541229248,1.0830769760131835
1763696725316644000,11.95664404296875,10.931026954650878,-2.736123584747314,2.1128829650878904
1763696725326604000,11.96660400390625,10.76462993927002,-3.372831588745117,1.2505214546203614
1763696725336565200,11.976565185546875,10.790517244720458,-3.393930490875244,0.44427404556274414
1763696725346525200,11.986525146484375,10.6616792678833,-2.8170775283813474,-0.19946692581176756
1763696725356486400,11.996486328125,10.678737954711913,-1.7902642913818358,0.031124621582031248
1763696725366446300,12.0064462890625,10.021529598999022,-0.9063549659729003,0.6699275520324707
1763696725376407000,12.016406982421875,9.248352100372314,-0.4918588035583496,1.3747206657409667
1763696725386367200,12.0263671875,8.51707313079834,-0.3113958534240722,1.7426795333862304
1763696725396328200,12.036328125,8.049605256652832,-0.13123217849731444,1.7473182991027831
1763696725406288100,12.0462880859375,7.6470801025390625,0.15876549758911132,1.6416741508483885
1763696725416249300,12.056249267578124,7.377732415771484,0.34925416717529295,1.4571709854125976
1763696725426209300,12.066209228515625,7.283610363006591,0.45968671875,1.2575544219970702
1763696725436170000,12.076169921875,7.37384183807373,0.6196493171691894,1.2138602416992186
1763696725446130200,12.086130126953124,7.316979548645019,0.6141127258300781,1.437119546508789
1763696725456091100,12.096091064453125,7.364115393829345,0.5581482620239258,1.4238017997741699
1763696725466051000,12.106051025390625,7.568520360565185,0.4134486991882324,1.3521253875732422
1763696725476012300,12.11601220703125,7.75721337890625,0.2685994987487793,1.268627604675293
1763696725485972200,12.12597216796875,7.541286316680908,0.11267711563110351,1.1296142707824706
1763696725495933200,12.13593310546875,7.5587939163208,-0.039354689788818356,0.7927800247192383
1763696725505893000,12.14589306640625,7.589619262695312,-0.016609774017333982,0.6446387969970703
1763696725515854000,12.15585400390625,7.565976521301269,0.12434884872436523,0.833182177734375
1763696725525815300,12.165815185546874,7.773074964904785,0.19213468322753904,1.1987468437194824
1763696725535775200,12.175775146484375,8.232013495635986,0.10743979949951171,1.8397943382263182
1763696725545736200,12.185736083984375,8.95042363128662,-0.4342483261108398,2.5781062751770016
1763696725555696000,12.195696044921876,9.05965908203125,-1.571793389892578,2.602197929382324
1763696725565657000,12.205656982421875,7.649474304199218,-1.0072107109069823,-0.616058014678955
1763696725575617300,12.2156171875,7.868394118499755,-0.33578678283691404,0.5961562133789062
1763696725585578200,12.225578125,8.243535591125488,0.1815104133605957,0.7653963432312011
1763696725595538200,12.2355380859375,8.45961229095459,1.167023671722412,0.9792284790039062
1763696725605499400,12.24549951171875,8.838045790863037,0.8141782020568847,1.7100585357666014
1763696725615459300,12.255459228515624,8.696338980102539,0.40985739669799803,1.7120038246154785
1763696725625420000,12.265419921875,8.584858965301514,-0.021098902130126954,1.8397943382263182
1763696725635380200,12.275380126953126,8.603414028167725,-0.21742343826293944,1.7721581413269043
1763696725645341200,12.285341064453124,8.503156833648681,-0.25468320159912106,1.556380716705322
1763696725655301000,12.295301025390625,8.731354179382324,-0.23014263458251952,1.4068927505493163
1763696725665262300,12.305262451171876,9.178321701812743,-0.0326209976196289,1.1866261978149413
1763696725675222300,12.31522216796875,9.376591526794433,0.1792658493041992,1.0206780952453613
1763696725685183200,12.325183349609375,9.400683180999755,0.15382745666503905,0.9051578651428223
1763696725695143200,12.33514306640625,9.2963857711792,0.0770633659362793,0.8143278396606445
1763696725705104100,12.345104248046875,9.094375006103515,0.11911153259277343,0.7535749725341796
1763696725715064300,12.355064208984375,8.79749400024414,0.24839842224121092,0.8586205703735351
1763696725725025300,12.365025390625,8.578274910736084,0.33144729232788084,1.0809820495605469
1763696725734986200,12.374986328125,8.563610425567626,0.4333505004882812,1.1653776580810546
1763696725744946200,12.3849462890625,8.868422224426268,0.49410336761474605,1.1062708045959473
1763696725754907100,12.3949072265625,9.18700068283081,0.5521627578735351,0.8807669357299804
1763696725764867300,12.404867431640625,9.508721530914306,0.6221931564331055,0.7191583236694336
1763696725774828300,12.414828369140626,9.829843828582764,0.7392097625732421,0.682497110748291
1763696725784788200,12.424788330078124,10.073004934692381,1.0057143348693847,0.9057564155578612
1763696725794749200,12.434749267578125,10.162338584136963,1.230320378112793,1.318307289123535
1763696725804709000,12.444709228515626,10.097545501708984,1.2448352256774902,1.5804723709106445
1763696725814670000,12.454670166015624,9.843161575317382,1.17480482711792,1.654842259979248
1763696725824630300,12.46463037109375,9.707889181518555,1.1691185981750487,1.6231190879821777
1763696725834591200,12.47459130859375,9.732280110931397,1.2945149101257323,1.454327870941162
1763696725844551200,12.48455126953125,9.989806427001952,1.392976453399658,1.2313678413391111
1763696725854512000,12.49451220703125,10.24044941329956,1.4413093994140624,1.2006921325683593
1763696725864472000,12.50447216796875,10.360907684326172,1.5623662208557128,1.197100830078125
1763696725874433300,12.514433349609375,10.445752205657959,1.6487071182250976,1.2259808876037597
1763696725884393200,12.524393310546875,10.352527978515624,1.6750433364868162,1.319055477142334
1763696725894354200,12.534354248046874,10.253018972015381,1.697488977050781,1.3226467796325683
1763696725904314400,12.544314453125,10.066420880126952,1.7344494651794433,1.3290811965942382
1763696725914275000,12.554275146484375,9.903914442443847,1.7579425689697266,1.3944728294372557
1763696725924235000,12.564235107421876,9.758915604400634,1.728314323425293,1.3664905975341797
1763696725934196200,12.5741962890625,9.59581061630249,1.7966987083435058,1.3180080139160155
1763696725944156200,12.58415625,9.464428800201416,1.7881693649291992,1.8525135345458983
1763696725954117400,12.594117431640624,9.426420848846435,1.9443910232543944,1.84503165435791
1763696725964077300,12.604077392578125,9.312696269989013,1.9563620315551757,1.5779285316467284
1763696725974038000,12.6140380859375,9.23189196395874,1.8218378257751464,1.5090952339172363
1763696725983999200,12.623999267578125,9.489119004821777,1.6334440826416015,1.783829874420166
1763696725993959200,12.633959228515625,9.894936186218262,1.387290224456787,2.5381530349731443
1763696726003921200,12.643921142578124,10.116250202178955,1.458218448638916,2.5481787544250487
1763696726013881000,12.653881103515625,10.077494062805176,1.492635097503662,2.40048643951416
1763696726023842000,12.663842041015625,10.037840097808838,1.525256095123291,2.3020248962402343
1763696726033802200,12.67380224609375,10.039635749053954,1.5469535476684568,2.1911434318542478
1763696726043763200,12.68376318359375,10.055796610260009,1.5719430274963377,2.0172645362854005
1763696726053723100,12.69372314453125,10.135553453063965,1.598578520965576,1.9048866958618162
1763696726063684400,12.703684326171874,10.318111329650879,1.605611488342285,1.8854338073730468
1763696726073644300,12.713644287109375,10.535235492706299,1.497722776031494,1.9801544105529785
1763696726083605200,12.723605224609376,10.855908877563476,1.2439374000549315,2.1440075866699217
1763696726093565200,12.733565185546874,11.188253995513916,1.0327987411499022,2.2035633529663086
1763696726103526100,12.743526123046875,11.501744775390625,0.9560346504211426,2.255038688659668
1763696726113486300,12.753486328125,11.692083807373047,0.9313444458007812,2.4109610717773435
1763696726123447300,12.763447265625,11.691934169769286,0.858022019958496,2.66205297088623
1763696726133407200,12.7734072265625,11.572373724365233,0.7570166374206543,2.8239608581542965
1763696726143368200,12.7833681640625,11.398345191192627,0.7975684280395507,2.789244934082031
1763696726153328000,12.793328125,11.240627156829833,0.9416694404602051,2.645592834472656
1763696726163289300,12.803289306640625,11.074080503845215,1.1113584831237793,2.48338567199707
1763696726173249300,12.813249267578126,10.966491066741943,1.2406453727722166,2.2846669342041013
1763696726183210200,12.823210205078125,10.937162096405029,1.4302362167358398,2.104203984069824
1763696726193170400,12.83317041015625,10.96245085144043,1.5918448287963867,2.02384859085083
1763696726203131100,12.843131103515624,11.02006132888794,1.6165350334167479,2.0301333702087403
1763696726213091000,12.853091064453125,11.041908419036865,1.5984288833618163,2.0198083755493164
1763696726223052300,12.86305224609375,11.11478193206787,1.6490063934326171,2.0082862800598145
1763696726233012200,12.87301220703125,11.142015975952148,1.6555904479980468,2.024297503662109
1763696726242973200,12.88297314453125,11.094580855560302,1.6270096656799315,2.0670938583374023
