time,seconds_elapsed,z,y,x
1763693834027008800,0.1610087890625,0,0,0
1763693834047179300,0.18117919921875,0,0,0
1763693834067015200,0.20101513671875,-0.023003578186035156,0.08046436309814453,0.023119047284126282
1763693834087079400,0.221079345703125,0.16025972366333008,-0.2201247215270996,-0.0013089776039123535
1763693834097128200,0.231128173828125,0.42494773864746094,-0.2352743148803711,0.03098270297050476
1763693834107208400,0.24120849609375,0.32528209686279297,-0.0025606155395507812,0.1107061505317688
1763693834117288400,0.251288330078125,0.23035478591918945,0.22174739837646484,0.025330767035484314
1763693834128064000,0.26206396484375,-0.027146339416503906,0.1457653045654297,0.07120788097381592
1763693834138144000,0.27214404296875,-0.34135866165161133,-0.08224916458129883,-0.1409461945295334
1763693834148224300,0.282224365234375,-0.18401527404785156,-0.06606674194335938,-0.17173463106155396
1763693834167794000,0.3017939453125,0.385317325592041,0.050305843353271484,-0.161039337515831
1763693834177874200,0.311874267578125,0.46907711029052734,-0.028995990753173828,0.03724931180477142
1763693834187953400,0.321953369140625,-0.06730222702026367,-0.20392274856567383,-0.008158698678016663
1763693834198033400,0.332033447265625,-0.3861045837402344,-0.19388675689697266,-0.11993525922298431
1763693834208113400,0.342113525390625,-0.5999288558959961,0.06528663635253906,0.06750035285949707
1763693834218160400,0.352160400390625,-0.17992305755615234,0.2971816062927246,0.025264620780944824
1763693834228240400,0.362240478515625,0.44184207916259766,0.18222808837890625,0.1330854743719101
1763693834238320400,0.3723203125,0.5127291679382324,-0.25205469131469727,0.14448319375514984
1763693834248434200,0.38243408203125,0.32659006118774414,-0.40006494522094727,-0.06095618009567261
1763693834258514200,0.39251416015625,-0.07195329666137695,-0.0074329376220703125,0.06279878318309784
1763693834268594200,0.40259423828125,-0.42595815658569336,0.19872379302978516,-0.06607337296009064
1763693834278674200,0.412674072265625,-0.2749934196472168,0.22250080108642578,-0.08396606147289276
1763693834288772900,0.42277294921875,-0.21596240997314453,0.05293464660644531,-0.009460046887397766
1763693834298852900,0.432852783203125,0.022479534149169922,-0.2644309997558594,-0.17291906476020813
1763693834308932900,0.442932861328125,0.15076637268066406,-0.21995830535888672,-0.12022095918655396
1763693834318978000,0.45297802734375,0.26536989212036133,0.05138731002807617,0.011184781789779663
1763693834329058000,0.46305810546875,0.33498334884643555,0.12347078323364258,-0.028610989451408386
1763693834339138000,0.473137939453125,0.16199016571044922,0.2232379913330078,0.1183219850063324
1763693834349235700,0.483235595703125,-0.16309595108032227,0.0026807785034179688,0.028256669640541077
1763693834359315700,0.493315673828125,-0.2043476104736328,-0.17385339736938477,0.006344899535179138
1763693834369395700,0.503395751953125,-0.29810190200805664,-0.16153812408447266,0.12470078468322754
1763693834379505700,0.513505615234375,-0.08246898651123047,-0.01719951629638672,-0.03911556303501129
1763693834389585700,0.523585693359375,0.10819244384765625,0.14642000198364258,0.14382967352867126
1763693834399665700,0.533665771484375,0.22376728057861328,0.056421756744384766,0.1329146921634674
1763693834409745700,0.54374560546875,0.1618480682373047,-0.033747196197509766,-0.03369632363319397
1763693834419781600,0.55378173828125,-0.07311773300170898,0.046204566955566406,0.14702777564525604
1763693834429861600,0.563861572265625,-0.23696231842041016,-0.06467294692993164,-0.015273168683052063
1763693834439941600,0.573941650390625,-0.19145631790161133,-0.1423048973083496,-0.12435780465602875
1763693834450021600,0.584021728515625,0.03037548065185547,0.10445451736450195,0.0052103400230407715
1763693834460101600,0.5941015625,0.3007230758666992,0.17937946319580078,-0.1488785743713379
1763693834470181600,0.604181640625,0.4035773277282715,0.15196561813354492,-0.04923062026500702
1763693834480284200,0.6142841796875,0.19314098358154297,-0.09737300872802734,-0.05742226541042328
1763693834490364200,0.6243642578125,-0.06625699996948242,-0.3320150375366211,-0.1333727240562439
1763693834500444200,0.634444091796875,-0.3972463607788086,-0.08617210388183594,0.05708064138889313
1763693834511112400,0.645112548828125,-0.5269856452941895,0.2906184196472168,-0.014497324824333191
1763693834531272400,0.6652724609375,0.16664934158325195,-0.18924665451049805,0.04328702390193939
1763693834541327400,0.675327392578125,0.37916135787963867,-0.3167548179626465,-0.08636371791362762
1763693834551407400,0.685407470703125,0.27342653274536133,-0.03147411346435547,0.05875062942504883
1763693834561487400,0.6954873046875,0.04980945587158203,0.15692472457885742,0.07656405866146088
1763693834571595500,0.705595458984375,-0.12021207809448242,0.0856466293334961,-0.07977010309696198
1763693834581675500,0.715675537109375,-0.2589139938354492,0.11446332931518555,-0.0075971633195877075
1763693834591755800,0.725755859375,-0.09904670715332031,0.08188867568969727,-0.17445816099643707
1763693834611292200,0.745292236328125,0.18221664428710938,-0.2638101577758789,0.009736403822898865
1763693834621372400,0.755372314453125,0.20745611190795898,-0.1252303123474121,-0.053940534591674805
1763693834631443700,0.765443603515625,-0.20554780960083008,0.11911296844482422,0.07377932965755463
1763693834641527300,0.77552734375,-0.3172745704650879,0.11444330215454102,-0.000523105263710022
1763693834671745300,0.805745361328125,0.16144371032714844,-0.2548394203186035,-0.0401950478553772
1763693834681825300,0.8158251953125,-0.0413355827331543,-0.0528874397277832,0.0688319206237793
1763693834691990300,0.825990234375,-0.03809499740600586,0.1809539794921875,0.0252579003572464
1763693834702070300,0.8360703125,0.20974397659301758,0.1592555046081543,-0.050392553210258484
1763693834712150500,0.846150634765625,0.26272153854370117,0.08365774154663086,0.06603188812732697
1763693834722169000,0.856169189453125,0.16659975051879883,-0.09220600128173828,-0.1308320164680481
1763693834742329000,0.8763291015625,-0.5359106063842773,-0.17282915115356445,-0.059152886271476746
1763693834752395800,0.886395751953125,-0.31268835067749023,-0.02146625518798828,-0.11698812246322632
1763693834762475800,0.896475830078125,0.012614250183105469,0.29250001907348633,0.127585306763649
1763693834772555800,0.9065556640625,0.33006858825683594,0.17025184631347656,0.08303247392177582
1763693834782633200,0.91663330078125,0.5245232582092285,-0.15497350692749023,0.08399167656898499
1763693834792713200,0.926713134765625,0.256594181060791,-0.21826696395874023,0.1647159308195114
1763693834802793200,0.936793212890625,-0.28920936584472656,-0.13721418380737305,0.017932996153831482
1763693834812874000,0.9468740234375,-0.6963396072387695,0.06732416152954102,0.03893037140369415
1763693834822954000,0.9569541015625,-0.4823489189147949,0.37972450256347656,-0.03235538303852081
1763693834833034200,0.9670341796875,0.23641014099121094,0.19282245635986328,-0.14465440809726715
1763693834843169500,0.97716943359375,0.8724508285522461,-0.14870405197143555,-0.0031835585832595825
1763693834853249500,0.98724951171875,0.8271379470825195,-0.34157466888427734,-0.13553683459758759
1763693834863329500,0.99732958984375,0.0320286750793457,-0.2825965881347656,-0.17142003774642944
1763693834873356000,1.00735595703125,-0.8297829627990723,-0.0763554573059082,-0.05328527092933655
1763693834883436000,1.01743603515625,-0.9261307716369629,0.24698543548583984,-0.07344886660575867
1763693834893516000,1.02751611328125,-0.2652559280395508,0.5019755363464355,0.0977921336889267
1763693834903629600,1.037629638671875,0.5797019004821777,0.19965314865112305,0.18117733299732208
1763693834913709600,1.04770947265625,0.8689260482788086,-0.4063720703125,0.06270916759967804
1763693834923789600,1.05778955078125,0.4096364974975586,-0.5367112159729004,0.1036914587020874
1763693834933832000,1.06783203125,-0.2723813056945801,-0.15427255630493164,0.02655865252017975
1763693834943912000,1.077911865234375,-0.7780613899230957,0.34183835983276367,-0.023041248321533203
1763693834953992000,1.087991943359375,-0.5602173805236816,0.6495113372802734,0.02005167305469513
1763693834964085500,1.09808544921875,0.08667325973510742,0.23920869827270508,-0.09579744935035706
1763693834974165500,1.10816552734375,0.6052122116088867,-0.4094815254211426,-0.11774101853370667
1763693834984245500,1.11824560546875,0.5152325630187988,-0.5984082221984863,-0.13463562726974487
1763693834994340600,1.128340576171875,-0.08858633041381836,-0.23833894729614258,-0.12778806686401367
1763693835004420600,1.138420654296875,-0.41864013671875,0.3208179473876953,0.06059306859970093
1763693835014500600,1.14850048828125,-0.47283935546875,0.4449467658996582,0.010184422135353088
1763693835024570400,1.1585703125,-0.04351234436035156,0.2752346992492676,0.014661028981208801
1763693835034650400,1.168650390625,0.28665733337402344,-0.11526346206665039,0.06851561367511749
1763693835044730400,1.17873046875,0.17109251022338867,-0.5042777061462402,-0.048169225454330444
1763693835054835700,1.188835693359375,-0.0059356689453125,-0.27225542068481445,0.07283489406108856
1763693835064915700,1.198915771484375,-0.05988597869873047,0.2526984214782715,0.15626177191734314
1763693835074995700,1.20899560546875,0.08252096176147461,0.43920373916625977,0.04318903386592865
1763693835085073400,1.219073486328125,0.23177719116210938,0.2600855827331543,0.04028995335102081
1763693835095153400,1.2291533203125,0.04882192611694336,-0.3189253807067871,-0.09245185554027557
1763693835105233700,1.239233642578125,-0.14959144592285156,-0.504732608795166,-0.13802053034305573
1763693835115293700,1.249293701171875,-0.3258523941040039,-0.07263803482055664,-0.008306175470352173
1763693835125373700,1.259373779296875,-0.2356891632080078,0.2796363830566406,-0.024536609649658203
1763693835135453700,1.26945361328125,0.13080453872680664,0.34351634979248047,0.030027300119400024
1763693835145543200,1.279543212890625,0.3661384582519531,0.036759376525878906,0.015328601002693176
1763693835155623200,1.289623046875,0.23741388320922852,-0.2793393135070801,-0.1074945330619812
1763693835165703200,1.299703125,0.05470132827758789,-0.15252017974853516,0.07325443625450134
1763693835175755800,1.309755859375,-0.32526588439941406,-0.02536773681640625,0.029512569308280945
1763693835185835800,1.319835693359375,-0.43277454376220703,0.07146501541137695,0.00777009129524231
1763693835195915800,1.329915771484375,-0.2395915985107422,0.1622943878173828,0.08328878879547119
1763693835206033000,1.340032958984375,0.0797891616821289,0.1599130630493164,-0.05441172420978546
1763693835216113000,1.35011279296875,0.5351800918579102,-0.08034038543701172,-0.02492949366569519
1763693835226193200,1.360193115234375,0.577949047088623,-0.18483829498291016,0.06262899935245514
1763693835236279000,1.370279052734375,0.038643836975097656,-0.18451452255249023,-0.051574528217315674
1763693835246359000,1.380359130859375,-0.3100142478942871,0.08165168762207031,0.041342660784721375
1763693835266496800,1.400496826171875,-0.10777091979980469,0.1861286163330078,-0.1348133087158203
1763693835276576800,1.41057666015625,0.2751588821411133,-0.09201192855834961,0.0063324421644210815
1763693835286656800,1.42065673828125,0.3268904685974121,-0.2197895050048828,-0.07429030537605286
1763693835296725500,1.4307255859375,0.14267969131469727,-0.17876243591308594,0.004455789923667908
1763693835306805500,1.440805419921875,-0.14681720733642578,0.06415796279907227,0.11007541418075562
1763693835316885500,1.450885498046875,-0.32804059982299805,0.12896156311035156,-0.07800719141960144
1763693835327001900,1.461001953125,-0.1836528778076172,0.16457557678222656,0.0812254250049591
1763693835337081900,1.471081787109375,-0.0018420219421386719,0.06086921691894531,0.09154264628887177
1763693835347161900,1.481161865234375,0.30886030197143555,-0.10942316055297852,0.007720768451690674
1763693835357308000,1.491307861328125,0.3037858009338379,-0.16421747207641602,0.17728857696056366
1763693835367388000,1.501387939453125,0.07514524459838867,-0.06749820709228516,0.01893511414527893
1763693835377468000,1.511468017578125,-0.06939411163330078,0.1310110092163086,-0.07545426487922668
1763693835387478800,1.521478759765625,-0.296658992767334,0.13109922409057617,0.010538965463638306
1763693835397558800,1.531558837890625,-0.26587867736816406,-0.09712982177734375,-0.2016911506652832
1763693835407638800,1.541638671875,-0.030732154846191406,-0.123626708984375,-0.038269102573394775
1763693835417761800,1.55176171875,-0.0020880699157714844,-0.00833749771118164,0.0024005919694900513
1763693835427841800,1.561841796875,0.1746835708618164,0.062392234802246094,-0.14582481980323792
1763693835437921800,1.571921875,0.1928424835205078,0.08741474151611328,0.10617727041244507
1763693835447949000,1.581948974609375,0.19910526275634766,0.0034351348876953125,0.012208715081214905
1763693835458029000,1.592029052734375,0.035878658294677734,-0.08174705505371094,-0.023312419652938843
1763693835468109000,1.602109130859375,-0.20249366760253906,0.004250526428222656,0.1867361068725586
1763693835478177800,1.612177734375,-0.28628110885620117,-0.0146636962890625,-0.028549134731292725
1763693835488257800,1.6222578125,-0.13774585723876953,0.025537490844726562,0.061547666788101196
1763693835498338000,1.632338134765625,0.03866100311279297,0.041840553283691406,0.08635415136814117
1763693835508455000,1.642454833984375,0.2663712501525879,-0.008163928985595703,-0.11538627743721008
1763693835518535000,1.652534912109375,0.17249631881713867,-0.08584785461425781,0.05860231816768646
1763693835528615000,1.662614990234375,0.04241657257080078,-0.10561084747314453,-0.09309014678001404
1763693835538711600,1.672711669921875,-0.08299541473388672,-0.05219411849975586,-0.11970901489257812
1763693835548791600,1.68279150390625,-0.16863107681274414,0.16757583618164062,0.04476875066757202
1763693835558871800,1.692871826171875,-0.17073965072631836,0.1367640495300293,-0.14218711853027344
1763693835568926000,1.702926025390625,0.01806926727294922,-0.046736717224121094,0.03458930552005768
1763693835579006000,1.713005859375,0.03170061111450195,-0.17998218536376953,0.09524476528167725
1763693835589086000,1.7230859375,0.21489906311035156,-0.07333946228027344,-0.03613764047622681
1763693835599168500,1.73316845703125,0.15027523040771484,0.07603168487548828,0.1315920501947403
1763693835609248500,1.74324853515625,0.18074703216552734,0.14778804779052734,-0.02136915922164917
1763693835619328500,1.75332861328125,0.0882883071899414,0.08164358139038086,-0.0540696382522583
1763693835629417200,1.763417236328125,-0.10149574279785156,-0.056505680084228516,0.09508606791496277
1763693835639497200,1.773497314453125,-0.38955163955688477,-0.15449047088623047,-0.09993623197078705
1763693835649577200,1.7835771484375,-0.29831933975219727,0.010694026947021484,0.007825314998626709
1763693835659657200,1.7936572265625,0.03381824493408203,0.12154722213745117,0.012648537755012512
1763693835669709800,1.803709716796875,0.402620792388916,0.09888315200805664,-0.1263120174407959
1763693835679790000,1.8137900390625,0.4311070442199707,-0.027454376220703125,0.014478906989097595
1763693835689870000,1.8238701171875,0.082550048828125,-0.222747802734375,-0.014444082975387573
1763693835700545000,1.834544921875,-0.4156498908996582,-0.17217683792114258,-0.005065232515335083
1763693835710625300,1.844625244140625,-0.48874330520629883,0.20985841751098633,0.19766469299793243
1763693835720705300,1.854705322265625,-0.26199913024902344,0.30350255966186523,0.07649974524974823
1763693835740269600,1.87426953125,0.6345834732055664,-0.21188735961914062,0.022623956203460693
1763693835750349800,1.884349853515625,0.1387476921081543,-0.293154239654541,-0.11479030549526215
1763693835760997400,1.894997314453125,-0.1931309700012207,-0.0694584846496582,0.026102304458618164
1763693835771077600,1.90507763671875,-0.46087074279785156,0.16027116775512695,0.03035151958465576
1763693835781157600,1.91515771484375,-0.3923492431640625,0.20754671096801758,-0.0929490178823471
1763693835791274200,1.925274169921875,0.07077169418334961,0.08678054809570312,-0.006783932447433472
1763693835801354200,1.935354248046875,0.3045492172241211,-0.08824968338012695,-0.10083922743797302
1763693835811434500,1.9454345703125,0.5136280059814453,-0.20195817947387695,-0.09210443496704102
1763693835821493200,1.9554931640625,0.4935488700866699,-0.09998750686645508,0.14461442828178406
1763693835831573200,1.9655732421875,-0.08197784423828125,0.009549617767333984,0.02881692349910736
1763693835841653500,1.975653564453125,-0.46631479263305664,0.09110260009765625,0.004972547292709351
1763693835851720700,1.985720703125,-0.4865403175354004,0.06805419921875,-0.02820463478565216
1763693835861801000,1.995801025390625,-0.11095619201660156,-0.05556774139404297,-0.10986991226673126
1763693835871881000,2.005880859375,0.31760454177856445,-0.03149223327636719,0.11168643832206726
1763693835881416400,2.01541650390625,0.3880634307861328,-0.05968904495239258,0.1545686572790146
1763693835891496400,2.025496337890625,0.24112987518310547,-0.16573429107666016,0.0463540256023407
1763693835901576700,2.03557666015625,-0.1504836082458496,0.01946401596069336,0.11872857809066772
1763693835911604700,2.045604736328125,-0.3830704689025879,0.27062177658081055,-0.07883965969085693
1763693835921684700,2.055684814453125,-0.2871689796447754,0.268463134765625,-0.1480962187051773
1763693835931765000,2.065764892578125,0.15077733993530273,-0.00186920166015625,0.05232049524784088
1763693835941899500,2.0758994140625,0.1953716278076172,-0.2585873603820801,-0.10162244737148285
1763693835951979800,2.085979736328125,0.03914165496826172,-0.25444507598876953,-0.015179440379142761
1763693835962059800,2.096059814453125,-0.215911865234375,-0.08767271041870117,0.03681690990924835
1763693835972125200,2.106125244140625,-0.30626487731933594,0.06894063949584961,-0.1565914750099182
1763693835982205400,2.116205322265625,-0.0373234748840332,0.3645901679992676,0.07962144911289215
1763693835992285400,2.126285400390625,0.3797597885131836,0.3096132278442383,0.04756543040275574
1763693836002345700,2.136345703125,0.6865930557250977,-0.07698726654052734,0.03751249611377716
1763693836012426000,2.146426025390625,0.36670398712158203,-0.36795854568481445,0.13096413016319275
1763693836022506000,2.156506103515625,-0.2610206604003906,-0.24201679229736328,-0.07655312120914459
1763693836032576800,2.16657666015625,-0.6683511734008789,0.07936954498291016,-0.03026440739631653
1763693836042657000,2.176656982421875,-0.5181641578674316,0.4454360008239746,0.07881005108356476
1763693836052737000,2.186737060546875,-0.05557870864868164,0.2150440216064453,-0.0851573795080185
1763693836062824400,2.196824462890625,0.5857372283935547,-0.23569488525390625,0.041429296135902405
1763693836072904700,2.20690478515625,0.4155902862548828,-0.44588422775268555,-0.04444766044616699
1763693836082984700,2.216984619140625,0.029812335968017578,-0.1986703872680664,-0.1074662059545517
1763693836093046000,2.2270458984375,-0.40128135681152344,0.14798784255981445,0.03582048416137695
1763693836103126000,2.2371259765625,-0.4466209411621094,0.4166569709777832,-0.03783954679965973
1763693836113206300,2.247206298828125,0.015188217163085938,0.3676328659057617,-0.001632988452911377
1763693836123313200,2.257313232421875,0.45974111557006836,-0.0007681846618652344,0.08100126683712006
1763693836133393400,2.267393310546875,0.3881382942199707,-0.5798149108886719,-0.1348915994167328
1763693836143473400,2.277473388671875,0.07349395751953125,-0.5117497444152832,0.025194525718688965
1763693836153555200,2.28755517578125,-0.4972515106201172,0.1415576934814453,0.06935639679431915
1763693836163635200,2.29763525390625,-0.5994729995727539,0.4663825035095215,0.009526178240776062
1763693836173715500,2.307715576171875,0.01544332504272461,0.2942814826965332,0.18871231377124786
1763693836183776800,2.31777685546875,0.46207141876220703,0.009871482849121094,0.051193997263908386
1763693836193856800,2.327856689453125,0.43775320053100586,-0.2256913185119629,-0.02266581356525421
1763693836203937000,2.33793701171875,0.018307209014892578,-0.3397865295410156,0.08394081890583038
1763693836214037200,2.348037353515625,-0.43650341033935547,-0.1882314682006836,-0.07086659967899323
1763693836224117500,2.358117431640625,-0.3043045997619629,0.23411226272583008,0.022584840655326843
1763693836234197500,2.368197509765625,0.1102447509765625,0.5369153022766113,0.08611734211444855
1763693836244249000,2.3782490234375,0.28911924362182617,0.1848607063293457,-0.1815219670534134
1763693836254329000,2.3883291015625,0.35463380813598633,-0.293642520904541,-0.09148639440536499
1763693836264409000,2.3984091796875,-0.047353267669677734,-0.4438014030456543,-0.09238648414611816
1763693836274517200,2.408517333984375,-0.4069046974182129,-0.16087961196899414,-0.07911020517349243
1763693836284597200,2.41859716796875,-0.23280572891235352,0.3552260398864746,0.15543818473815918
1763693836294677200,2.42867724609375,-0.10219621658325195,0.4700031280517578,0.058452069759368896
1763693836304735000,2.43873486328125,0.3936500549316406,0.0034737586975097656,-0.01780414581298828
1763693836314815000,2.44881494140625,0.46226930618286133,-0.49337053298950195,0.08836135268211365
1763693836324895000,2.45889501953125,-0.17647027969360352,-0.4571967124938965,-0.052291274070739746
1763693836345042400,2.47904248046875,-0.3088812828063965,0.3708467483520508,0.1571141630411148
1763693836355122400,2.489122314453125,0.31310415267944336,0.3320913314819336,-0.1300567388534546
1763693836365244200,2.499244140625,0.8520383834838867,0.03917074203491211,-0.06392213702201843
1763693836375324200,2.50932421875,0.39289426803588867,-0.2821540832519531,-0.19253388047218323
1763693836385404200,2.519404052734375,-0.2465066909790039,-0.40561437606811523,-0.23881861567497253
1763693836395499000,2.5294990234375,-0.8066606521606445,-0.04916667938232422,0.08582714200019836
1763693836405579000,2.5395791015625,-0.7505497932434082,0.4318709373474121,0.018641501665115356
1763693836415659300,2.5496591796875,0.13555574417114258,0.4957261085510254,0.0443936288356781
1763693836425683000,2.559682861328125,0.6320891380310059,0.012351512908935547,0.11200785636901855
1763693836435763000,2.569762939453125,0.5199184417724609,-0.5268697738647461,-0.12811824679374695
1763693836445843200,2.57984326171875,0.17716312408447266,-0.4502592086791992,0.08844038844108582
1763693836455929900,2.589929931640625,-0.41185712814331055,0.10081958770751953,0.21201123297214508
1763693836466009900,2.600009765625,-0.5105862617492676,0.4590568542480469,0.034476086497306824
1763693836476089900,2.61008984375,-0.10168123245239258,0.4703240394592285,0.10491935908794403
1763693836486153500,2.620153564453125,0.2407670021057129,-0.031211376190185547,-0.1230027973651886
1763693836496233500,2.6302333984375,0.5098052024841309,-0.49684667587280273,-0.2431463599205017
1763693836506313700,2.640313720703125,0.08705615997314453,-0.5101613998413086,0.012909337878227234
1763693836516415500,2.65041552734375,-0.40639686584472656,-0.030939579010009766,-0.1125430166721344
1763693836526495700,2.660495849609375,-0.4651646614074707,0.38131093978881836,-0.04429364204406738
1763693836536575700,2.67057568359375,-0.14208459854125977,0.446014404296875,0.043804630637168884
1763693836546692400,2.6806923828125,0.3896799087524414,0.09304237365722656,-0.19257396459579468
1763693836556772600,2.690772705078125,0.696284294128418,-0.25454044342041016,0.0627899169921875
1763693836566852600,2.7008525390625,0.13353300094604492,-0.4505891799926758,0.15825162827968597
1763693836576881400,2.71088134765625,-0.2851705551147461,-0.1468343734741211,0.07548418641090393
1763693836586961700,2.720961669921875,-0.5202722549438477,0.29090070724487305,0.29120883345603943
1763693836597041700,2.731041748046875,-0.36339330673217773,0.3758058547973633,0.006273180246353149
1763693836607155700,2.74115576171875,0.29475927352905273,0.09206676483154297,-0.12564617395401
1763693836617235700,2.751235595703125,0.4780240058898926,-0.1965198516845703,0.09321275353431702
1763693836627315700,2.761315673828125,0.03419780731201172,-0.3132753372192383,-0.2756916880607605
1763693836637392100,2.77139208984375,-0.04888153076171875,-0.19962739944458008,-0.009827494621276855
1763693836647472400,2.781472412109375,-0.37764692306518555,0.17327356338500977,-0.07583051919937134
1763693836657552400,2.791552490234375,-0.15235185623168945,0.38953065872192383,-0.3572314977645874
1763693836667607800,2.80160791015625,0.25259923934936523,0.2021331787109375,-0.019100874662399292
1763693836677687800,2.811687744140625,0.5002222061157227,-0.2626771926879883,-0.06373968720436096
1763693836687767800,2.821767822265625,0.15280580520629883,-0.4539666175842285,0.045409634709358215
1763693836697866200,2.8318662109375,-0.4028353691101074,-0.12425088882446289,0.39324772357940674
1763693836707946200,2.8419462890625,-0.716346263885498,0.1391291618347168,0.15825845301151276
1763693836718026200,2.852026123046875,-0.31612062454223633,0.45056962966918945,0.205306276679039
1763693836728081400,2.862081298828125,0.2960934638977051,0.2202472686767578,0.23515631258487701
1763693836738161400,2.872161376953125,0.7663154602050781,-0.1665658950805664,-0.013554021716117859
1763693836748241400,2.882241455078125,0.5554685592651367,-0.2530632019042969,0.13704055547714233
1763693836758413000,2.8924130859375,-0.023633956909179688,-0.12423849105834961,0.0430108904838562
1763693836768493000,2.9024931640625,-0.5788745880126953,-0.01884746551513672,-0.24947048723697662
1763693836778573300,2.9125732421875,-0.41373586654663086,0.268829345703125,-0.1907399296760559
1763693836798663000,2.932662841796875,0.24483489990234375,-0.034317970275878906,-0.3065257966518402
1763693836808743200,2.9427431640625,0.43120908737182617,-0.38903093338012695,-0.02850717306137085
1763693836818859000,2.95285888671875,0.056400299072265625,-0.35412025451660156,-0.031113415956497192
1763693836828939000,2.96293896484375,-0.27384471893310547,0.0186767578125,0.15324929356575012
1763693836839019300,2.973019287109375,-0.29976367950439453,0.3361949920654297,0.15772584080696106
1763693836849056500,2.983056396484375,-0.07118940353393555,0.3567361831665039,0.06773114204406738
1763693836859136800,2.99313671875,0.35615968704223633,0.04951620101928711,0.2645649313926697
1763693836869216800,3.003216796875,0.3829936981201172,-0.2808380126953125,0.17994524538516998
1763693836879329800,3.013329833984375,0.08013391494750977,-0.36371564865112305,0.04713551700115204
1763693836889409800,3.023409912109375,-0.13272380828857422,0.023372650146484375,0.10544469952583313
1763693836899490000,3.033489990234375,-0.41539478302001953,0.19242048263549805,-0.16232749819755554
1763693836910145500,3.0441455078125,-0.010225296020507812,0.2361464500427246,-0.18751662969589233
1763693836920225800,3.054225830078125,0.37862157821655273,0.09559345245361328,-0.07566025853157043
1763693836930305800,3.064305908203125,0.22168684005737305,-0.25241851806640625,-0.19670167565345764
1763693836949850000,3.08385009765625,-0.3402366638183594,-0.08325862884521484,0.003147691488265991
1763693836959930000,3.09393017578125,-0.2678041458129883,0.33173608779907227,-0.0414029061794281
1763693836970634200,3.10463427734375,0.11149883270263672,0.5072388648986816,0.17896826565265656
1763693836980714200,3.11471435546875,0.25513601303100586,0.1508045196533203,0.07649055123329163
1763693836990794200,3.124794189453125,0.38036298751831055,-0.3957653045654297,0.10073994100093842
1763693837010354400,3.1443544921875,-0.5310773849487305,0.02630615234375,-0.04952266812324524
1763693837020434400,3.154434326171875,-0.44899845123291016,0.4237079620361328,-0.008622825145721436
1763693837031082800,3.165082763671875,-0.013217926025390625,0.33235931396484375,0.07192137837409973
1763693837041162800,3.175162841796875,0.26919984817504883,-0.15549612045288086,-0.15294858813285828
1763693837051242800,3.18524267578125,0.46022796630859375,-0.3790445327758789,0.016794145107269287
1763693837061314300,3.195314208984375,0.035877227783203125,-0.28824424743652344,-0.014376163482666016
1763693837071394300,3.205394287109375,-0.36705541610717773,-0.03902578353881836,-0.11771300435066223
1763693837081474300,3.215474365234375,-0.502131462097168,0.2394089698791504,0.08679032325744629
1763693837101051000,3.23505078125,0.34411048889160156,0.13205242156982422,-0.019832611083984375
1763693837111131000,3.245130859375,0.7193784713745117,-0.2745819091796875,0.1618770956993103
1763693837121256000,3.255255859375,0.5423493385314941,-0.3758425712585449,-0.046252042055130005
1763693837131336000,3.2653359375,0.09604549407958984,-0.0809025764465332,0.046349555253982544
1763693837141416000,3.275416015625,-0.6966285705566406,0.2238292694091797,0.0030837655067443848
1763693837151442200,3.285442138671875,-0.7651047706604004,0.2672114372253418,-0.14765551686286926
1763693837161522400,3.2955224609375,-0.22502899169921875,0.11239480972290039,0.062218159437179565
1763693837171602400,3.3056025390625,0.3269643783569336,-0.0913233757019043,-0.016445785760879517
1763693837181707500,3.31570751953125,0.6794304847717285,-0.22861671447753906,-0.07726743817329407
1763693837191787500,3.32578759765625,0.4705061912536621,-0.19451570510864258,0.11226734519004822
1763693837201867500,3.335867431640625,-0.1516861915588379,-0.07641410827636719,-0.06904157996177673
1763693837211964000,3.3459638671875,-0.5443530082702637,0.2162947654724121,-0.013682842254638672
1763693837222044000,3.3560439453125,-0.5234360694885254,0.4293222427368164,0.10910192131996155
1763693837232124000,3.3661240234375,0.000621795654296875,0.16370248794555664,-0.06932905316352844
1763693837242184000,3.376183837890625,0.4901084899902344,-0.3378453254699707,0.05912202596664429
1763693837252264200,3.38626416015625,0.35702085494995117,-0.4616880416870117,-0.024561673402786255
1763693837262344200,3.39634423828125,-0.11251354217529297,-0.16718673706054688,-0.1304442286491394
1763693837272434700,3.4064345703125,-0.35285091400146484,0.2567591667175293,0.09583151340484619
1763693837282514700,3.4165146484375,-0.20583724975585938,0.4199695587158203,0.021265894174575806
1763693837292595000,3.426594970703125,0.18141937255859375,0.13046598434448242,0.037548646330833435
1763693837302682400,3.436682373046875,0.32653331756591797,-0.13050031661987305,0.150005042552948
1763693837312762400,3.446762451171875,-0.07949495315551758,-0.34015893936157227,-0.14470511674880981
1763693837322842600,3.456842529296875,-0.15334463119506836,-0.24051523208618164,-0.04105502367019653
1763693837332898600,3.466898681640625,-0.11303853988647461,0.11674737930297852,0.07024744153022766
1763693837342978600,3.476978515625,-0.057179927825927734,0.36945009231567383,-0.048661500215530396
1763693837353058600,3.48705859375,0.20969438552856445,0.21049833297729492,0.05125933885574341
1763693837363143400,3.497143310546875,0.23641681671142578,-0.1034550666809082,-0.03685763478279114
1763693837373223400,3.507223388671875,0.01582956314086914,-0.3915386199951172,-0.16332313418388367
1763693837393361400,3.527361328125,-0.3864302635192871,0.3178248405456543,-0.033959150314331055
1763693837403441400,3.53744140625,-0.022268295288085938,0.23284196853637695,0.009315982460975647
1763693837413521700,3.547521728515625,0.15391063690185547,-0.07855844497680664,0.07317444682121277
1763693837423601700,3.5576015625,0.3105769157409668,-0.06433582305908203,-0.041408032178878784
1763693837433681700,3.567681640625,0.16871309280395508,-0.21864795684814453,0.06770552694797516
1763693837443761700,3.57776171875,-0.04864311218261719,-0.07576990127563477,0.1331736296415329
1763693837453845200,3.58784521484375,-0.22712135314941406,0.09070968627929688,0.032140716910362244
1763693837463925200,3.59792529296875,-0.10319375991821289,0.09390544891357422,0.17782627046108246
1763693837474005500,3.608005615234375,-0.361114501953125,-0.11900663375854492,0.0008182823657989502
1763693837484084500,3.61808447265625,-0.1175680160522461,-0.15422773361206055,-0.14005857706069946
1763693837504244500,3.638244384765625,0.5372295379638672,0.20975589752197266,-0.08803313970565796
1763693837514380300,3.64838037109375,0.5401301383972168,0.1237325668334961,-0.1522766649723053
1763693837524460300,3.658460205078125,0.14043283462524414,-0.07660865783691406,-0.0864972472190857
1763693837534540500,3.66854052734375,-0.49059057235717773,-0.17458438873291016,-0.2526499032974243
1763693837544540700,3.678540771484375,-0.6610293388366699,-0.0920720100402832,-0.10927125811576843
1763693837554620700,3.68862060546875,-0.3697695732116699,0.19220495223999023,0.07613806426525116
1763693837564700700,3.69870068359375,0.14950799942016602,0.13059377670288086,0.034826308488845825
1763693837574792200,3.708792236328125,0.6108760833740234,-0.09748411178588867,0.20169547200202942
1763693837584872200,3.7188720703125,0.318148136138916,-0.27504682540893555,0.1201331615447998
1763693837594952200,3.7289521484375,0.04974555969238281,-0.17713165283203125,0.04951351881027222
1763693837605059000,3.73905908203125,-0.36728572845458984,0.04163789749145508,0.230001300573349
1763693837615139000,3.74913916015625,-0.47861242294311523,0.2996530532836914,0.12015536427497864
1763693837625219000,3.759218994140625,-0.027514934539794922,0.27548933029174805,0.02418781816959381
1763693837635323100,3.7693232421875,0.3120274543762207,0.09438896179199219,0.028914764523506165
1763693837645403400,3.7794033203125,0.35145139694213867,-0.2556443214416504,-0.26123231649398804
1763693837655483400,3.7894833984375,0.4190177917480469,-0.2966341972351074,-0.17226150631904602
1763693837665566000,3.79956591796875,-0.07033348083496094,-0.08504295349121094,-0.16486778855323792
1763693837675646200,3.809646240234375,-0.5137057304382324,0.1134333610534668,-0.2942711412906647
1763693837685726200,3.819726318359375,-0.5539379119873047,0.14134454727172852,-0.09865492582321167
1763693837695802600,3.829802734375,-0.19144868850708008,0.11785888671875,-0.12344056367874146
1763693837705882600,3.839882568359375,0.26138925552368164,-0.020409584045410156,-0.06491470336914062
1763693837715962600,3.849962646484375,0.5726094245910645,-0.14248228073120117,0.22575519979000092
1763693837726068000,3.86006787109375,0.40312957763671875,-0.21109914779663086,0.19064538180828094
1763693837736148200,3.870148193359375,0.14992666244506836,-0.0037021636962890625,0.3070673644542694
1763693837746228500,3.880228515625,-0.32753944396972656,0.17432928085327148,0.34639865159988403
1763693837756250000,3.89025,-0.4796481132507324,0.18994617462158203,0.07412898540496826
1763693837766330400,3.900330322265625,-0.0901036262512207,0.14445161819458008,0.16033439338207245
1763693837786481000,3.92048095703125,0.13225269317626953,-0.23856592178344727,-0.11777439713478088
1763693837796561200,3.93056103515625,0.28075218200683594,-0.1685633659362793,-0.06142862141132355
1763693837806641200,3.94064111328125,-0.09604501724243164,-0.050403594970703125,-0.28415733575820923
1763693837816735000,3.95073486328125,-0.1130218505859375,0.09851598739624023,-0.32410889863967896
1763693837826815200,3.960815185546875,-0.1511845588684082,0.1557607650756836,-0.12798604369163513
1763693837836895500,3.9708955078125,-0.22425365447998047,0.0945277214050293,-0.21314391493797302
1763693837846977300,3.980977294921875,0.04789113998413086,0.0012392997741699219,-0.01405075192451477
1763693837857057500,3.9910576171875,0.41893482208251953,-0.0337224006652832,0.1789804995059967
1763693837867137500,4.001137451171875,0.4494962692260742,-0.08246707916259766,0.027196615934371948
1763693837877237200,4.0112373046875,0.2893657684326172,0.06437969207763672,0.22464017570018768
1763693837887317200,4.021317138671875,-0.29002809524536133,-0.040575504302978516,0.1381022334098816
1763693837897397500,4.0313974609375,-0.544243335723877,-0.06824779510498047,0.09795212745666504
1763693837907453700,4.04145361328125,-0.5729184150695801,-0.008145809173583984,0.2543180584907532
1763693837917534000,4.051533935546875,-0.18680906295776367,0.11959600448608398,0.07362748682498932
1763693837927614000,4.061614013671875,0.4353628158569336,0.06633615493774414,-0.026342526078224182
1763693837937713000,4.071712890625,0.7220883369445801,-0.04256391525268555,-0.014109969139099121
1763693837947793200,4.081793212890625,0.38510608673095703,-0.1998295783996582,-0.2849801182746887
1763693837957873200,4.091873046875,-0.05413484573364258,-0.13362598419189453,-0.17179259657859802
1763693837967921200,4.101921142578125,-0.4652571678161621,0.19814157485961914,-0.044031620025634766
1763693837978001200,4.112001220703125,-0.45292091369628906,0.2986431121826172,-0.19632655382156372
1763693837988081400,4.122081298828125,0.06075239181518555,0.13387823104858398,0.009581252932548523
1763693837998167800,4.132167724609375,0.21232080459594727,-0.24930953979492188,-0.042399048805236816
1763693838008248000,4.142248046875,0.1264629364013672,-0.4384732246398926,-0.05842125415802002
1763693838018328000,4.152328125,-0.0026526451110839844,-0.1063394546508789,0.2839340269565582
1763693838028458800,4.162458740234375,-0.13217639923095703,0.3194451332092285,0.23908711969852448
1763693838038539000,4.1725390625,0.027658939361572266,0.3402719497680664,0.17410114407539368
1763693838048619000,4.182618896484375,0.22225379943847656,0.08546686172485352,0.19479915499687195
1763693838058665000,4.1926650390625,0.09114933013916016,-0.2878880500793457,-0.15459424257278442
1763693838068745000,4.202744873046875,-0.009026050567626953,-0.3046135902404785,-0.10458256304264069
1763693838078825200,4.2128251953125,-0.15950584411621094,0.058351993560791016,-0.008658692240715027
1763693838088934400,4.222934326171875,-0.14507341384887695,0.2505373954772949,-0.11696331202983856
1763693838099014700,4.2330146484375,0.08813714981079102,0.1639876365661621,0.005324691534042358
1763693838109094700,4.2430947265625,0.05812978744506836,-0.055138587951660156,-0.141114741563797
1763693838119159300,4.2531591796875,0.014758586883544922,-0.2991952896118164,-0.2377086877822876
1763693838129239600,4.263239501953125,-0.027888774871826172,-0.1528763771057129,0.04177398979663849
1763693838139319600,4.273319580078125,-0.2607707977294922,0.15371036529541016,-0.0038282573223114014
1763693838149401000,4.283401123046875,-0.044420719146728516,0.3254528045654297,0.1704961657524109
1763693838159481300,4.2934814453125,0.10432291030883789,0.1061553955078125,0.24303388595581055
1763693838169561300,4.303561279296875,0.20583200454711914,-0.1848597526550293,-0.08359326422214508
1763693838179641600,4.3136416015625,0.15987539291381836,-0.26170873641967773,0.031029343605041504
1763693838189702100,4.3237021484375,-0.08554506301879883,-0.0663747787475586,0.035475149750709534
1763693838199782400,4.333782470703125,-0.36214542388916016,0.0808706283569336,-0.049678102135658264
1763693838209862700,4.343862548828125,-0.4056358337402344,0.1055150032043457,0.07622317969799042
1763693838219929300,4.353929443359375,-0.2582740783691406,0.09051084518432617,-0.12294045090675354
1763693838230009600,4.364009521484375,0.36017894744873047,-0.027969837188720703,-0.16996854543685913
1763693838240089600,4.374089599609375,0.6950802803039551,-0.04789543151855469,-0.02534639835357666
1763693838250161700,4.38416162109375,0.5772161483764648,0.05216026306152344,-0.05596160888671875
1763693838260242000,4.394241943359375,0.11800384521484375,-0.07395505905151367,0.05063536763191223
1763693838270322000,4.404322021484375,-0.47258758544921875,-0.05184745788574219,0.11331242322921753
1763693838281016300,4.415016357421875,-0.8178410530090332,-0.02297496795654297,-0.07727530598640442
1763693838291096600,4.4250966796875,-0.2272195816040039,0.10476255416870117,0.07495924830436707
1763693838301176600,4.435176513671875,0.22352266311645508,0.0990304946899414,0.05477246642112732
1763693838321325800,4.455325927734375,0.41309213638305664,-0.25927114486694336,0.12078908085823059
1763693838331406000,4.465406005859375,-0.15652036666870117,-0.18460512161254883,-0.03475120663642883
1763693838351591400,4.48559130859375,-0.43122196197509766,0.2851533889770508,0.012472078204154968
1763693838361671400,4.49567138671875,-0.11337566375732422,0.26894330978393555,-0.14352267980575562
1763693838371723500,4.5057236328125,0.43024158477783203,-0.048754215240478516,-0.03949093818664551
1763693838381803500,4.515803466796875,0.46075868606567383,-0.28349733352661133,0.019977211952209473
1763693838391883800,4.5258837890625,0.31468868255615234,-0.2465224266052246,-0.03249874711036682
1763693838411425500,4.545425537109375,-0.5072011947631836,0.22259807586669922,0.09039688110351562
1763693838421505800,4.555505859375,-0.49357128143310547,0.2583651542663574,-0.005396485328674316
1763693838431674600,4.565674560546875,-0.16026687622070312,0.1103668212890625,0.09859724342823029
1763693838441755000,4.5757548828125,0.0986933708190918,-0.15943622589111328,-0.04190364480018616
1763693838451835000,4.5858349609375,0.421994686126709,-0.2178664207458496,-0.0032591819763183594
1763693838461840100,4.595840087890625,0.34194231033325195,0.03545188903808594,0.10994330048561096
1763693838471920400,4.60592041015625,-0.05700826644897461,0.15719270706176758,-0.09928542375564575
1763693838482000400,4.61600048828125,-0.14058399200439453,0.23197698593139648,0.0155467689037323
1763693838492070000,4.62606982421875,-0.2561526298522949,0.12462854385375977,-0.027124911546707153
1763693838502150000,4.63614990234375,-0.08725833892822266,-0.1527252197265625,-0.2056269645690918
1763693838512230100,4.646230224609375,0.21558618545532227,-0.22775888442993164,0.05239096283912659
1763693838522335000,4.6563349609375,0.21184825897216797,-0.04712867736816406,-0.03348490595817566
1763693838542495200,4.6764951171875,-0.25962018966674805,0.09708213806152344,0.12171308696269989
1763693838552545000,4.686544921875,-0.29076528549194336,0.05087566375732422,-0.03582298755645752
1763693838562625000,4.696625,0.15903234481811523,0.01972341537475586,0.07825884222984314
1763693838572705300,4.706705322265625,0.25269603729248047,0.026781558990478516,0.17588943243026733
1763693838582794200,4.716794189453125,0.0930795669555664,-0.10329627990722656,-0.03906881809234619
1763693838592874200,4.726874267578125,-0.1957097053527832,-0.16769838333129883,0.07232359051704407
1763693838602954500,4.73695458984375,-0.16666507720947266,0.09672880172729492,0.04306623339653015
1763693838613021000,4.74702099609375,0.05754661560058594,0.2081904411315918,-0.04428526759147644
1763693838623101000,4.757100830078125,0.47582435607910156,0.233062744140625,0.11696840822696686
1763693838633181200,4.76718115234375,0.28374767303466797,-0.1566476821899414,-0.12095209956169128
1763693838643315500,4.7773154296875,-0.17525768280029297,-0.41119861602783203,-0.22696566581726074
1763693838653395500,4.7873955078125,-0.6688251495361328,-0.1105504035949707,-0.04885590076446533
1763693838663475700,4.797475830078125,-0.5705990791320801,0.3106651306152344,-0.142451673746109
1763693838673564400,4.807564453125,0.13576602935791016,0.30360984802246094,0.006143540143966675
1763693838683644400,4.81764453125,0.5570368766784668,0.07768917083740234,0.12138441205024719
1763693838693724700,4.827724609375,0.5736551284790039,-0.2816486358642578,-0.0693371593952179
1763693838703773400,4.8377734375,0.2443399429321289,-0.3436393737792969,0.11558189988136292
1763693838713853700,4.847853759765625,-0.4635276794433594,-0.03703784942626953,0.11579376459121704
1763693838723933700,4.85793359375,-0.6109390258789062,0.2505607604980469,0.07629480957984924
1763693838734002000,4.868001953125,-0.3064250946044922,0.33133888244628906,0.23327717185020447
1763693838744082000,4.87808203125,0.14093351364135742,0.18756866455078125,-0.017662957310676575
1763693838754162000,4.888161865234375,0.5881719589233398,-0.20853614807128906,-0.0925697535276413
1763693838764255000,4.8982548828125,0.5877904891967773,-0.40528440475463867,0.003116205334663391
1763693838774335000,4.9083349609375,0.07193279266357422,-0.21291255950927734,-0.20201987028121948
1763693838784415000,4.9184150390625,-0.4067111015319824,0.18312692642211914,-0.043037742376327515
1763693838794512000,4.928511962890625,-0.6848340034484863,0.36128950119018555,-0.033300161361694336
1763693838804591900,4.938591796875,-0.28037309646606445,0.21198225021362305,-0.27765482664108276
1763693838814672000,4.948671875,0.18802356719970703,-0.1067967414855957,-0.03957054018974304
1763693838824770000,4.95877001953125,0.44823741912841797,-0.2811121940612793,-0.0013436377048492432
1763693838834850000,4.96885009765625,0.5162811279296875,-0.20120906829833984,0.0742049366235733
1763693838844930000,4.978929931640625,-0.026629924774169922,-0.042874813079833984,0.22153101861476898
1763693838854988500,4.988988525390625,-0.32277870178222656,0.18608617782592773,0.0838153064250946
1763693838865068500,4.999068603515625,-0.3997039794921875,0.2016587257385254,0.1200711578130722
1763693838875148500,5.0091484375,-0.15761613845825195,0.13486242294311523,0.047618091106414795
1763693838885249000,5.0192490234375,0.20986223220825195,-0.0036754608154296875,-0.018702328205108643
1763693838895329000,5.0293291015625,0.3170127868652344,-0.2579326629638672,0.09717999398708344
1763693838905409000,5.039408935546875,0.23883581161499023,-0.3103189468383789,-0.07157829403877258
1763693838915478300,5.049478271484375,-0.1629638671875,-0.006312370300292969,-0.10792583227157593
1763693838925558300,5.059558349609375,-0.3037900924682617,0.27393579483032227,-0.08229947090148926
1763693838935638300,5.06963818359375,-0.10347938537597656,0.30738019943237305,-0.16337057948112488
1763693838945694700,5.07969482421875,-0.06432437896728516,0.026976585388183594,-0.06861889362335205
1763693838955774700,5.089774658203125,0.12276887893676758,-0.29374074935913086,0.019800379872322083
1763693838965854700,5.099854736328125,-0.133819580078125,-0.33344221115112305,-0.009116679430007935
1763693838975972400,5.109972412109375,-0.09376049041748047,0.12892723083496094,0.11126524209976196
1763693838986052400,5.12005224609375,0.13374614715576172,0.29190731048583984,0.06254282593727112
1763693838996132400,5.13013232421875,0.34796905517578125,0.24260425567626953,0.06866341829299927
1763693839006204700,5.14020458984375,0.436525821685791,-0.03719663619995117,0.11947542428970337
1763693839016284700,5.15028466796875,-0.06522655487060547,-0.3477439880371094,-0.019259870052337646
1763693839026364700,5.16036474609375,-0.3865199089050293,-0.17275333404541016,0.04929324984550476
1763693839036433400,5.170433349609375,-0.4882969856262207,0.02312183380126953,-0.017335504293441772
1763693839046513400,5.180513427734375,-0.15285444259643555,0.2419600486755371,-0.08737549185752869
1763693839056593400,5.190593505859375,0.24509763717651367,0.19121646881103516,-0.09761497378349304
1763693839066641000,5.200640869140625,0.5328965187072754,-0.07790327072143555,-0.12671712040901184
1763693839076721000,5.210720947265625,0.2130718231201172,-0.3474912643432617,-0.14841508865356445
1763693839086801000,5.22080078125,-0.04925823211669922,-0.11832952499389648,-0.02587282657623291
1763693839096853500,5.230853515625,-0.476959228515625,0.02944660186767578,-0.04925093054771423
1763693839106933500,5.24093359375,-0.4170541763305664,0.31145668029785156,-0.04378354549407959
1763693839117013500,5.251013427734375,-0.021631717681884766,0.3371267318725586,0.03476148843765259
1763693839127153700,5.261153564453125,0.5318799018859863,0.09644222259521484,0.07184422016143799
1763693839137233700,5.271233642578125,0.7230281829833984,-0.3100738525390625,0.1411256045103073
1763693839147313700,5.281313720703125,0.34854650497436523,-0.39246177673339844,0.15751025080680847
1763693839157378000,5.2913779296875,-0.5563664436340332,-0.16538667678833008,0.07212002575397491
1763693839167458000,5.3014580078125,-0.9352917671203613,0.19013500213623047,-0.023288041353225708
1763693839177538000,5.3115380859375,-0.5971770286560059,0.41333913803100586,-0.017784953117370605
1763693839187647500,5.3216474609375,0.14012384414672852,0.2092294692993164,-0.019373059272766113
1763693839197727500,5.3317275390625,0.8674869537353516,-0.17050504684448242,0.00231209397315979
1763693839207807500,5.341807373046875,0.6550822257995605,-0.4667363166809082,-0.007483422756195068
1763693839217866500,5.351866455078125,0.14773082733154297,-0.2924337387084961,-0.06871065497398376
1763693839227946500,5.361946533203125,-0.4453754425048828,0.11686515808105469,-0.053415924310684204
1763693839238026500,5.372026611328125,-0.6616129875183105,0.4963541030883789,-0.03887420892715454
1763693839248045300,5.38204541015625,-0.09264469146728516,0.3800525665283203,-0.08697769045829773
1763693839258125300,5.392125244140625,-0.21417617797851562,-0.05433988571166992,0.129760280251503
1763693839268205300,5.402205322265625,0.8064084053039551,-0.4436321258544922,-0.029715120792388916
1763693839278376400,5.41237646484375,0.06777143478393555,-0.5096645355224609,0.11388704180717468
1763693839288456400,5.42245654296875,0.006295204162597656,-0.06627845764160156,0.060519516468048096
1763693839298536400,5.432536376953125,-0.5090274810791016,0.4546823501586914,0.05175364017486572
1763693839308539400,5.442539306640625,-0.062277793884277344,0.44937849044799805,0.048098281025886536
1763693839318619400,5.452619384765625,0.07482242584228516,0.0609288215637207,0.039280056953430176
1763693839328699400,5.462699462890625,0.2683711051940918,-0.3798527717590332,-0.01909235119819641
1763693839338854000,5.47285400390625,0.1696462631225586,-0.3500485420227051,0.025417625904083252
1763693839348934000,5.482933837890625,-0.1390552520751953,0.03454446792602539,-0.030712902545928955
1763693839359014000,5.493013916015625,0.013987064361572266,0.29315948486328125,-0.06919670104980469
1763693839369064000,5.50306396484375,0.11501359939575195,0.16586065292358398,-0.10710829496383667
1763693839379144000,5.51314404296875,0.009327888488769531,-0.3007936477661133,-0.24183452129364014
1763693839389224000,5.523223876953125,-0.11560630798339844,-0.14275407791137695,-0.1861269474029541
1763693839399246600,5.53324658203125,-0.31359338760375977,0.3562483787536621,-0.013998150825500488
1763693839409326600,5.54332666015625,-0.24492883682250977,0.18086719512939453,-0.08538156747817993
1763693839419406600,5.553406494140625,0.22493553161621094,-0.06641387939453125,0.04468955099582672
1763693839429509400,5.56350927734375,0.4022655487060547,-0.28169918060302734,0.09002277255058289
1763693839439589400,5.57358935546875,0.4546208381652832,-0.17831659317016602,0.10406039655208588
1763693839449669400,5.58366943359375,0.004402637481689453,0.15410280227661133,0.2982069253921509
1763693839459784000,5.593783935546875,-0.2848081588745117,0.20725774765014648,0.36407583951950073
1763693839469864000,5.603864013671875,-0.7981061935424805,-0.22065162658691406,0.9382196664810181
1763693839479944000,5.61394384765625,-0.6588969230651855,0.04586982727050781,1.8615809679031372
1763693839490024000,5.62402392578125,0.9294681549072266,0.1170511245727539,0.6145496964454651
1763693839500115700,5.63411572265625,0.5556764602661133,-0.1554698944091797,-0.19871053099632263
1763693839510195700,5.64419580078125,0.6066336631774902,-0.18229436874389648,-0.7880779504776001
1763693839520275700,5.654275634765625,0.07327842712402344,-0.21652603149414062,-0.8231541514396667
1763693839530355700,5.664355712890625,-0.8981509208679199,-0.10236072540283203,-1.0042088031768799
1763693839540436000,5.67443603515625,-0.9632411003112793,0.5867395401000977,-1.3394625186920166
1763693839550516000,5.684515869140625,0.039412498474121094,0.5984148979187012,-0.6709006428718567
1763693839560596000,5.694595947265625,0.6168627738952637,-0.20029115676879883,0.19620324671268463
1763693839570676000,5.704676025390625,0.7704625129699707,-0.4074373245239258,0.07453404366970062
1763693839581298000,5.7152978515625,0.17907047271728516,-0.23763084411621094,0.17080652713775635
1763693839591378000,5.7253779296875,-0.22214508056640625,0.04418802261352539,0.12692904472351074
1763693839601458000,5.7354580078125,-0.45349740982055664,0.3190288543701172,0.13148893415927887
1763693839611009500,5.745009521484375,-0.3686981201171875,0.44964170455932617,0.1080198884010315
1763693839621089500,5.755089599609375,0.04561901092529297,0.22405147552490234,-0.38038966059684753
1763693839631169500,5.76516943359375,0.25620031356811523,-0.19499731063842773,-0.6401435136795044
1763693839641249500,5.77524951171875,0.5952625274658203,-0.1832880973815918,-0.27589380741119385
1763693839651327200,5.7853271484375,0.3949737548828125,-0.0011315345764160156,-0.07596263289451599
1763693839661407200,5.7954072265625,-0.10525035858154297,0.2803816795349121,-0.24504876136779785
1763693839671487200,5.8054873046875,-0.32666492462158203,0.3623971939086914,-0.41266220808029175
1763693839681519900,5.815519775390625,-0.16307544708251953,0.3226304054260254,-0.46424931287765503
1763693839691600000,5.825599853515625,0.13937711715698242,0.09114503860473633,-0.7668139338493347
1763693839701679900,5.835679931640625,0.38315391540527344,0.049327850341796875,-1.3686155080795288
1763693839711803100,5.84580322265625,0.13983631134033203,0.18303442001342773,-1.4763209819793701
1763693839721883100,5.855883056640625,-0.18356895446777344,0.30115222930908203,-1.204891324043274
1763693839731963100,5.865963134765625,-0.07714462280273438,0.3575582504272461,-0.943015992641449
1763693839741968600,5.87596875,0.29753732681274414,0.07796573638916016,-0.32663625478744507
1763693839752048600,5.886048583984375,0.5212149620056152,-0.1250615119934082,0.8116805553436279
1763693839762128600,5.896128662109375,0.6381359100341797,-0.47194337844848633,1.4659690856933594
1763693839772265700,5.906265625,0.23796701431274414,-0.4867715835571289,1.5359817743301392
1763693839782345700,5.916345703125,-0.6634526252746582,0.13323259353637695,1.3349297046661377
1763693839792425700,5.92642578125,-0.41309309005737305,-0.0908808708190918,1.0403138399124146
1763693839802485000,5.936485107421875,0.0768280029296875,-0.2553215026855469,0.6559689044952393
1763693839812565000,5.94656494140625,0.12977170944213867,-0.3563375473022461,0.07093226909637451
1763693839822644700,5.956644775390625,0.3655986785888672,-0.6646223068237305,-0.08074986934661865
1763693839832694000,5.966694091796875,-0.3518400192260742,-0.47386789321899414,0.30821698904037476
1763693839842774000,5.97677392578125,-0.8459768295288086,-0.13730573654174805,0.8669848442077637
1763693839852854000,5.98685400390625,-0.9354038238525391,0.2369527816772461,0.49773654341697693
1763693839863025000,5.99702490234375,0.2934246063232422,0.48999929428100586,-0.5277584195137024
1763693839873105000,6.00710498046875,0.41811132431030273,0.22015047073364258,-0.6885287761688232
1763693839883184600,6.0171845703125,1.4528279304504395,-0.17844772338867188,-0.40126508474349976
1763693839893225700,6.027225830078125,0.0662541389465332,0.2533440589904785,-0.9249913692474365
1763693839903305700,6.0373056640625,-0.8270282745361328,1.3675737380981445,-0.8593350052833557
1763693839913385700,6.0473857421875,-0.63787841796875,2.0227880477905273,-0.45563918352127075
1763693839923447800,6.05744775390625,-0.0009665489196777344,1.9523496627807617,-0.11392980813980103
1763693839933527600,6.067527587890625,1.1125116348266602,0.1097707748413086,-0.37554317712783813
1763693839943607600,6.077607666015625,0.8600807189941406,-0.7293848991394043,-0.48343247175216675
1763693839953707500,6.08770751953125,-0.301516056060791,0.4842844009399414,0.4287044107913971
1763693839963787500,6.09778759765625,-0.085784912109375,0.8746037483215332,1.3025195598602295
1763693839973867500,6.107867431640625,0.31326913833618164,0.2330770492553711,1.2171306610107422
1763693839983888600,6.117888671875,1.0997085571289062,0.053028106689453125,1.3181685209274292
1763693839993968600,6.12796875,2.1432905197143555,0.4847841262817383,1.3840795755386353
1763693840004048600,6.138048583984375,2.7916412353515625,0.823453426361084,1.323566198348999
1763693840014194200,6.148194091796875,3.152069091796875,0.8009886741638184,1.4688022136688232
1763693840024274200,6.158274169921875,3.2892494201660156,0.476409912109375,1.6015405654907227
1763693840034354200,6.168354248046875,3.270078659057617,-0.02534341812133789,1.54676353931427
1763693840044409600,6.17840966796875,3.050731658935547,-0.7344722747802734,1.4327877759933472
1763693840054489600,6.188489501953125,2.709671974182129,-1.5788300037384033,1.4645644426345825
1763693840064569600,6.198569580078125,2.30617618560791,-1.9725000858306885,1.4780774116516113
1763693840074664000,6.208663818359375,1.573770523071289,-1.8685171604156494,1.250003695487976
1763693840084743700,6.21874365234375,0.28301525115966797,-1.7352960109710693,0.9153639078140259
1763693840094823700,6.22882373046875,-0.49382781982421875,-1.6001546382904053,0.794625997543335
1763693840104902100,6.238902099609375,-0.2162303924560547,-1.407740831375122,0.6436754465103149
1763693840114982100,6.248982177734375,0.4104576110839844,-1.3440945148468018,0.16902697086334229
1763693840125062100,6.259062255859375,1.113875389099121,-1.3213989734649658,-0.18650782108306885
1763693840135134500,6.269134521484375,1.3775701522827148,-1.1979920864105225,-0.49252599477767944
1763693840145214500,6.27921435546875,1.0081825256347656,-1.0017082691192627,-1.207870364189148
1763693840155294500,6.28929443359375,0.46089744567871094,-0.9398934841156006,-1.9701393842697144
1763693840165361200,6.299361083984375,-0.1277637481689453,-1.045102834701538,-2.064199447631836
1763693840175441200,6.309441162109375,-0.8522195816040039,-1.069488763809204,-1.4688283205032349
1763693840185521200,6.319521240234375,-1.8643193244934082,-0.7016270160675049,-0.740958571434021
1763693840195634000,6.329634033203125,-2.559169292449951,0.05017805099487305,-0.3088231086730957
1763693840205713700,6.339713623046875,-2.6218175888061523,0.7575759887695312,-0.5003036260604858
1763693840215793700,6.349793701171875,-3.346409320831299,1.67348051071167,-1.9551337957382202
1763693840235920600,6.369920654296875,-1.5585813522338867,1.7781333923339844,-1.3528231382369995
1763693840246000600,6.380000732421875,-1.301098346710205,0.5446257591247559,-0.9065794944763184
1763693840256080100,6.390080078125,-1.058894157409668,-0.5699639320373535,0.11720895767211914
1763693840266160000,6.40016015625,-1.0568270683288574,-0.9473893642425537,0.6962642669677734
1763693840276240100,6.410240234375,-0.9446988105773926,-0.7806026935577393,0.3528172969818115
1763693840286327000,6.4203271484375,-0.5517520904541016,-0.8225805759429932,0.2211294174194336
1763693840296406800,6.43040673828125,-0.01674365997314453,-0.7606403827667236,0.12908387184143066
1763693840306486800,6.44048681640625,0.372955322265625,-0.8513801097869873,0.04916214942932129
1763693840316574700,6.45057470703125,0.4813394546508789,-1.0754249095916748,0.0428006649017334
1763693840326654700,6.46065478515625,0.6576213836669922,-1.2174150943756104,0.15038371086120605
1763693840336734700,6.470734619140625,0.9696502685546875,-1.1905491352081299,0.359097957611084
1763693840346812000,6.48081201171875,0.9868717193603516,-0.8380300998687744,0.5406129360198975
1763693840356891600,6.4908916015625,2.0920190811157227,0.2782320976257324,0.69565749168396
1763693840366971600,6.5009716796875,1.4276113510131836,-0.05361127853393555,-0.1783301830291748
1763693840377063200,6.511063232421875,-1.8791227340698242,-0.64642333984375,-0.24610090255737305
1763693840387143200,6.52114306640625,-2.7858972549438477,0.021268844604492188,-0.0803980827331543
1763693840397223000,6.531222900390625,-2.728992462158203,0.5866727828979492,-0.0607450008392334
1763693840407292400,6.54129248046875,-7.622624397277832,0.5812158584594727,0.31630659103393555
1763693840417372400,6.551372314453125,-0.31481504440307617,0.5404109954833984,-0.306704044342041
1763693840427452400,6.561452392578125,-0.6633148193359375,-0.14432287216186523,0.5412008762359619
1763693840437483000,6.57148291015625,-0.8326692581176758,0.17220592498779297,0.5803296566009521
1763693840447563000,6.58156298828125,-0.7511258125305176,0.4554319381713867,0.32871508598327637
1763693840457643000,6.59164306640625,-0.48512697219848633,0.6143956184387207,0.3813133239746094
1763693840467780600,6.601780517578125,-0.7269191741943359,0.5852065086364746,0.24312949180603027
1763693840477860600,6.611860595703125,-0.3719778060913086,0.49485254287719727,-0.3831217288970947
1763693840487940600,6.621940673828125,0.011720657348632812,0.616459846496582,0.33635401725769043
1763693840498015500,6.632015380859375,0.09082508087158203,0.8949198722839355,0.3907437324523926
1763693840508095500,6.642095458984375,-0.09485149383544922,0.808351993560791,0.8408112525939941
1763693840518175200,6.65217529296875,-0.22835350036621094,0.552180290222168,0.7132997512817383
1763693840528232000,6.66223193359375,-0.32470130920410156,0.5101227760314941,0.6077775955200195
1763693840538312000,6.67231201171875,-0.16553878784179688,0.4264945983886719,0.6401903629302979
1763693840548392000,6.682391845703125,0.008927345275878906,0.2751011848449707,0.7902159690856934
1763693840558598400,6.692598388671875,0.0937347412109375,0.2068781852722168,0.7457132339477539
1763693840568678400,6.702678466796875,0.2665386199951172,0.17374229431152344,0.4978513717651367
1763693840578758100,6.712758056640625,0.6861634254455566,0.21713781356811523,0.2070627212524414
1763693840588755500,6.72275537109375,0.7112598419189453,0.7350583076477051,-0.21500945091247559
1763693840598835200,6.732835205078125,-0.15186834335327148,0.4351334571838379,-0.6797871589660645
1763693840608915200,6.742915283203125,0.2712574005126953,0.47962045669555664,-0.5034685134887695
1763693840618995200,6.7529951171875,0.725982666015625,0.3598055839538574,-0.24718737602233887
1763693840629073700,6.76307373046875,0.9646387100219727,0.02360820770263672,0.2073349952697754
1763693840639153400,6.7731533203125,1.3401856422424316,-0.591566801071167,0.21566414833068848
1763693840649233400,6.7832333984375,1.647939682006836,-1.509098768234253,0.2834324836730957
1763693840659256300,6.79325634765625,1.609090805053711,-1.3323724269866943,1.082657814025879
1763693840669336300,6.80333642578125,1.4232807159423828,-1.080549955368042,1.1477549076080322
1763693840679416000,6.813416015625,1.6628074645996094,-1.0103552341461182,0.9250471591949463
1763693840689539600,6.82353955078125,2.119990348815918,-0.8988602161407471,0.40563488006591797
1763693840699619600,6.83361962890625,3.0483570098876953,-0.7893264293670654,-0.42151927947998047
1763693840709699600,6.843699462890625,0.7894835472106934,-0.3057265281677246,-0.6699142456054688
1763693840719777800,6.85377783203125,-1.07753324508667,0.8032169342041016,1.6284542083740234
1763693840729857800,6.86385791015625,0.0665292739868164,0.3003396987915039,1.2617299556732178
1763693840739937800,6.873937744140625,-0.6021323204040527,-0.3384895324707031,-0.1834115982055664
1763693840749989400,6.8839892578125,0.135162353515625,0.2903265953063965,0.06828594207763672
1763693840760069400,6.8940693359375,1.0478200912475586,-0.27456140518188477,0.15210771560668945
1763693840770149400,6.9041494140625,2.325225353240967,-0.8242452144622803,0.2124004364013672
1763693840780228400,6.914228271484375,2.5044150352478027,-1.7888593673706055,-0.6531758308410645
1763693840790308400,6.924308349609375,2.2722058296203613,-1.8568034172058105,0.7977652549743652
1763693840800388400,6.934388427734375,1.7748594284057617,-2.390536069869995,-0.6113653182983398
1763693840810500000,6.9445,1.7683420181274414,-2.2762856483459473,-1.2904291152954102
1763693840830660000,6.96466015625,2.4802193641662598,-1.4998385906219482,-0.46857261657714844
1763693840841314600,6.975314453125,2.3033008575439453,-1.716554880142212,-0.8939270973205566
1763693840851394600,6.98539453125,2.0018606185913086,-1.6413476467132568,-1.2805991172790527
1763693840861474600,6.995474609375,1.7506060600280762,-1.769120216369629,-0.38064146041870117
1763693840871539000,7.0055390625,1.3266897201538086,-1.7251853942871094,0.5369277000427246
1763693840881619000,7.015618896484375,0.38595008850097656,-1.7222535610198975,0.6299076080322266
1763693840891699000,7.025698974609375,-0.6405825614929199,-2.518604040145874,0.6285700798034668
1763693840901220400,7.035220458984375,-0.2336416244506836,-2.190584897994995,1.736452579498291
1763693840911300400,7.04530029296875,-0.21239185333251953,-1.5728542804718018,0.9483346939086914
1763693840921380400,7.05538037109375,-0.1412949562072754,-1.2416412830352783,0.8279671669006348
1763693840931463000,7.065462890625,0.23647165298461914,-1.2057058811187744,0.8090367317199707
1763693840941543000,7.07554296875,0.4684324264526367,-1.2301266193389893,0.5089631080627441
1763693840951623000,7.085622802734375,0.3741488456726074,-1.2865450382232666,0.2280559539794922
1763693840961684700,7.095684814453125,0.31938838958740234,-1.5080702304840088,-0.12630081176757812
1763693840971764700,7.1057646484375,0.42764902114868164,-1.8616235256195068,-0.3663778305053711
1763693840981844700,7.1158447265625,0.5191640853881836,-2.2231414318084717,-0.0777745246887207
1763693840991922000,7.125921875,0.3698735237121582,-2.4901514053344727,0.10677862167358398
1763693841002002000,7.136001953125,0.39994239807128906,-1.987215518951416,0.48871707916259766
1763693841012082000,7.14608203125,0.34268808364868164,-1.6315228939056396,1.691016674041748
1763693841022154500,7.156154541015625,-0.39998817443847656,-1.4759178161621094,2.0793261528015137
1763693841032234500,7.166234375,-1.2388548851013184,-1.6670904159545898,1.0477709770202637
1763693841042314500,7.176314453125,-1.8949878215789795,-1.8449108600616455,0.8993639945983887
1763693841052428000,7.186427978515625,-2.0455267429351807,-2.0990707874298096,1.603327751159668
1763693841062508000,7.196508056640625,-1.995162010192871,-2.4726860523223877,2.0958924293518066
1763693841072588000,7.206588134765625,-1.9800934791564941,-2.6252803802490234,2.136556625366211
1763693841082665700,7.216665771484375,-2.0973219871520996,-2.5512032508850098,1.88493013381958
1763693841092745700,7.226745849609375,-2.3198401927948,-2.3785042762756348,1.9206128120422363
1763693841102825700,7.23682568359375,-2.549966812133789,-2.174762725830078,2.1049461364746094
1763693841112908800,7.24690869140625,-2.8331079483032227,-2.0940651893615723,2.3235363960266113
1763693841122988800,7.25698876953125,-3.004401922225952,-2.131037950515747,2.36857271194458
1763693841133068800,7.26706884765625,-2.950483560562134,-2.247606039047241,2.22171688079834
1763693841143139600,7.2771396484375,-2.7848060131073,-2.22373104095459,1.9808101654052734
1763693841153219600,7.287219482421875,-2.6978352069854736,-1.870513916015625,1.7323241233825684
1763693841163299600,7.297299560546875,-2.4079880714416504,-1.2907145023345947,1.5488085746765137
1763693841173396700,7.307396728515625,-2.1734793186187744,-0.8776288032531738,1.2741637229919434
1763693841183476700,7.317476806640625,-1.8285088539123535,-0.26792478561401367,0.6950721740722656
1763693841193556700,7.327556640625,-1.5900380611419678,0.174971342086792,0.1296539306640625
1763693841203641000,7.33764111328125,-1.3894085884094238,0.28466129302978516,-0.20757770538330078
1763693841213721000,7.34772119140625,-1.152141809463501,0.5358281135559082,-0.4344310760498047
1763693841223801000,7.357801025390625,-1.0892200469970703,0.9976754188537598,-0.7206220626831055
1763693841233857000,7.36785693359375,-1.1765072345733643,1.46470046043396,-0.959568977355957
1763693841243937000,7.37793701171875,-1.0005760192871094,1.676548719406128,-1.0746078491210938
1763693841254017000,7.38801708984375,-0.5948803424835205,1.6078740358352661,-1.1297531127929688
1763693841274187300,7.408187255859375,0.13522815704345703,1.823922872543335,-0.8835983276367188
1763693841284267300,7.418267333984375,0.37322330474853516,2.075106620788574,-0.6532602310180664
1763693841294337500,7.428337646484375,0.6518917083740234,2.262335777282715,-0.7306756973266602
1763693841304417500,7.43841748046875,0.9602503776550293,2.4746248722076416,-0.6952724456787109
1763693841314497500,7.44849755859375,1.1031315326690674,2.633124351501465,-0.47768688201904297
1763693841324577800,7.458577880859375,1.1987621784210205,2.597750186920166,-0.1924276351928711
1763693841334657800,7.46865771484375,1.3259210586547852,2.3352160453796387,0.1308279037475586
1763693841344737800,7.47873779296875,1.5408556461334229,2.137871265411377,0.3916158676147461
1763693841354820000,7.488820068359375,1.5275120735168457,2.3022470474243164,0.46169185638427734
1763693841364900000,7.498900146484375,1.4968724250793457,2.668692111968994,0.19652462005615234
1763693841374980000,7.50897998046875,1.481260061264038,2.9173507690429688,-0.5052413940429688
1763693841385058800,7.519058837890625,1.4925737380981445,2.8580989837646484,-1.6048517227172852
1763693841395138800,7.529138916015625,1.506014347076416,2.7769992351531982,-2.6480712890625
1763693841405218800,7.53921875,1.539454460144043,2.82686185836792,-3.3626813888549805
1763693841415297500,7.549297607421875,1.6187005043029785,2.8032665252685547,-3.8803977966308594
1763693841425377500,7.55937744140625,1.715653657913208,2.5847339630126953,-4.222893714904785
1763693841435457500,7.56945751953125,1.6575865745544434,2.3356406688690186,-4.216662406921387
1763693841445534500,7.579534423828125,1.5130221843719482,2.0537967681884766,-4.027076721191406
1763693841455614500,7.589614501953125,1.233076572418213,1.875052571296692,-3.7652273178100586
1763693841465694500,7.599694580078125,0.8886692523956299,1.9604946374893188,-3.7647809982299805
1763693841475781400,7.609781494140625,0.44756555557250977,2.301204204559326,-3.9967222213745117
1763693841485861400,7.619861328125,0.024614572525024414,2.472891330718994,-4.249809265136719
1763693841495941400,7.62994140625,-0.24849653244018555,2.1420462131500244,-4.5720109939575195
1763693841506002000,7.640001953125,-0.2326030731201172,1.6151407957077026,-4.667908668518066
1763693841516082000,7.65008203125,-0.09517574310302734,1.1940664052963257,-4.515572547912598
1763693841526162000,7.660161865234375,-0.023846149444580078,0.9218578338623047,-4.146319389343262
1763693841536270600,7.6702705078125,0.019549131393432617,0.6936866044998169,-3.621583938598633
1763693841546350600,7.6803505859375,0.11208438873291016,0.3531545400619507,-3.068571090698242
1763693841556430600,7.6904306640625,0.13808369636535645,0.08725792169570923,-2.4791994094848633
1763693841566478300,7.700478271484375,0.15737009048461914,-0.0011092424392700195,-1.866567611694336
1763693841576558300,7.710558349609375,0.16633319854736328,-0.12536698579788208,-1.341928482055664
1763693841586638300,7.720638427734375,0.12419319152832031,-0.35152220726013184,-0.8288393020629883
1763693841596746500,7.73074658203125,0.015062808990478516,-0.4925687313079834,-0.40644264221191406
1763693841606826500,7.740826416015625,-0.24546194076538086,-0.49765104055404663,-0.2265491485595703
1763693841616906500,7.750906494140625,-0.5602772235870361,-0.46001899242401123,-0.21372699737548828
1763693841626971100,7.76097119140625,-0.7627310752868652,-0.17835521697998047,-0.2775239944458008
1763693841637051100,7.771051025390625,-0.826749324798584,0.3684200644493103,-0.32276248931884766
1763693841647131100,7.781131103515625,-0.9241752624511719,0.8618651032447815,-0.3943338394165039
1763693841657226200,7.791226318359375,-1.0391334295272827,0.8558663725852966,-0.48495960235595703
1763693841667306200,7.80130615234375,-1.054658055305481,0.7587283849716187,-0.49851036071777344
1763693841677386200,7.81138623046875,-1.0581566095352173,0.7785205245018005,-0.3102445602416992
1763693841687446000,7.821446044921875,-1.1067852973937988,0.7969463467597961,0.010205268859863281
1763693841697526000,7.831526123046875,-1.1693449020385742,0.7971510291099548,0.4186286926269531
1763693841707606000,7.84160595703125,-1.0818220376968384,0.7833084464073181,0.8986902236938477
1763693841717697800,7.85169775390625,-0.8266071081161499,0.5359381437301636,1.519815444946289
1763693841727777800,7.86177783203125,-0.7404458522796631,0.7086248993873596,0.7199182510375977
1763693841737857800,7.87185791015625,-1.354947566986084,0.4006918668746948,0.27336883544921875
1763693841747932000,7.881931884765625,-1.2334007024765015,0.3749818205833435,0.7301235198974609
1763693841758012000,7.892011962890625,-0.6638985872268677,0.6216903328895569,0.7202129364013672
1763693841768092000,7.902091796875,-0.07267987728118896,0.8486201763153076,-0.01557159423828125
1763693841778156000,7.912156005859375,0.3469043970108032,1.1491930484771729,-0.6889982223510742
1763693841788236000,7.922236083984375,0.5396093130111694,1.5057358741760254,-0.5963459014892578
1763693841798316000,7.93231591796875,0.6400232315063477,1.6308181285858154,-0.5909605026245117
1763693841808484400,7.942484375,0.5646414756774902,1.5484753847122192,-0.6818313598632812
1763693841818564400,7.952564453125,0.40598058700561523,1.4288170337677002,-0.8104076385498047
1763693841828644400,7.962644287109375,0.41873979568481445,1.2439658641815186,-0.9825334548950195
1763693841838656300,7.97265625,0.5433176755905151,0.9467673897743225,-1.4942960739135742
1763693841848736300,7.982736328125,0.6980694532394409,0.7453679442405701,-2.0992298126220703
1763693841858816300,7.992816162109375,0.7580292224884033,0.7167121171951294,-2.397830009460449
1763693841868895000,8.00289501953125,0.8405053615570068,0.8466174602508545,-2.1645708084106445
1763693841878975000,8.01297509765625,1.0556743144989014,0.9913159608840942,-1.7215280532836914
1763693841889055000,8.023054931640624,1.3034820556640625,0.9873279333114624,-1.1462211608886719
1763693841899128300,8.03312841796875,3.0134105682373047,1.0226284265518188,0.2461233139038086
1763693841909208300,8.043208251953125,5.4015889167785645,1.5167884826660156,2.1607789993286133
1763693841919288300,8.053288330078125,3.007256507873535,1.3035086393356323,0.9603347778320312
1763693841929387500,8.063387451171875,-0.4320507049560547,0.5772931575775146,-0.8786392211914062
1763693841939467300,8.07346728515625,-0.5775835514068604,-0.6971597671508789,-1.0132465362548828
1763693841949547300,8.08354736328125,0.25739097595214844,-1.6319425106048584,-0.5452156066894531
1763693841959627300,8.093627197265626,0.5615507960319519,-1.8224594593048096,-0.049599647521972656
1763693841969699800,8.103699951171874,0.5567378997802734,-1.5065853595733643,0.5322198867797852
1763693841979779800,8.11377978515625,0.07247436046600342,-1.3002012968063354,1.4452648162841797
1763693841989859800,8.12385986328125,-0.4096544682979584,-1.1099319458007812,1.0384788513183594
1763693841999922000,8.133921875,-0.7039949893951416,-1.0300116539001465,-0.1737079620361328
1763693842010002000,8.144001953125,-0.7421427965164185,-1.189095377922058,-1.5765810012817383
1763693842020082000,8.15408203125,-0.46076151728630066,-1.9675909280776978,-2.5219545364379883
1763693842030177300,8.16417724609375,-0.46919992566108704,-1.980841040611267,-2.8264474868774414
1763693842040257300,8.17425732421875,-0.06682509183883667,-1.5470857620239258,-2.294496536254883
1763693842050337300,8.184337158203125,0.8775652647018433,-1.2901861667633057,-1.3821287155151367
1763693842061020700,8.195020751953125,2.3086605072021484,-2.144878387451172,-0.2985649108886719
1763693842071100700,8.2051005859375,2.8265867233276367,-2.029501438140869,1.8525390625
1763693842081180700,8.2151806640625,2.398054361343384,-1.3042961359024048,1.9342446327209473
1763693842100715000,8.234715087890624,0.9954313039779663,-1.6034982204437256,0.7400503158569336
1763693842110795000,8.244794921875,0.5942947864532471,-1.1889407634735107,0.8520803451538086
1763693842121468000,8.255468017578124,0.18646776676177979,-1.1609646081924438,1.5639162063598633
1763693842131548000,8.2655478515625,-0.4444526433944702,-0.9745386838912964,2.200982093811035
1763693842141628000,8.2756279296875,-1.2099111080169678,-0.9290605187416077,2.679255962371826
1763693842151711200,8.285711181640625,-1.8970367908477783,-0.9309450387954712,3.0201945304870605
1763693842161791200,8.295791259765625,-2.098139762878418,-0.9657764434814453,2.6105103492736816
1763693842171871200,8.305871337890625,-1.755092978477478,-1.0397602319717407,1.7782373428344727
1763693842191431000,8.325430908203124,0.8977422714233398,-0.49004611372947693,2.2174129486083984
1763693842201511000,8.335510986328124,4.074463844299316,0.32443967461586,3.4028544425964355
1763693842211623700,8.345623779296876,4.875497341156006,1.043161153793335,4.40145206451416
1763693842221703700,8.35570361328125,4.012827396392822,0.7511395215988159,4.797540187835693
1763693842231783700,8.36578369140625,3.316800594329834,0.3820403516292572,3.7782812118530273
1763693842241865700,8.37586572265625,2.7932116985321045,-0.057835519313812256,2.355764865875244
1763693842251945700,8.38594580078125,2.7425312995910645,-0.9078291654586792,1.6650657653808594
1763693842262025700,8.396025634765625,2.075216770172119,-1.6601345539093018,1.9206852912902832
1763693842272093000,8.406093017578126,1.3176816701889038,-1.4227617979049683,2.927063465118408
1763693842282173000,8.4161728515625,1.1360865831375122,-1.290000081062317,4.019538879394531
1763693842292253000,8.4262529296875,1.0738178491592407,-1.150268316268921,4.7101850509643555
1763693842302335200,8.436335205078125,0.8132785558700562,-1.251410961151123,4.980390548706055
1763693842312415200,8.446415283203125,-0.007811427116394043,-1.6636301279067993,5.549361228942871
1763693842322495200,8.4564951171875,-0.6820360422134399,-2.2685956954956055,5.560375213623047
1763693842332572400,8.466572509765625,-1.0370430946350098,-2.867551565170288,4.7950873374938965
1763693842342652400,8.47665234375,0.03435415029525757,-2.9089272022247314,1.9186315536499023
1763693842352732400,8.486732421875,2.21824049949646,-2.2016875743865967,-1.1761703491210938
1763693842362822100,8.496822265625,3.5920979976654053,-1.2522149085998535,-3.672809600830078
1763693842372902100,8.506902099609375,1.4977198839187622,-1.065260410308838,-8.935072898864746
1763693842382982100,8.516982177734375,-0.25896787643432617,-0.463120698928833,-12.012946128845215
1763693842393057800,8.527057861328124,-0.5822606086730957,-0.33591127395629883,-12.74528694152832
1763693842403137800,8.5371376953125,0.3337011933326721,-1.2815024852752686,-8.01107120513916
1763693842413217800,8.5472177734375,1.5708751678466797,-0.4609029293060303,-2.902766227722168
1763693842423302400,8.557302490234376,2.1503450870513916,1.627004861831665,-0.6015033721923828
1763693842433382400,8.56738232421875,2.539254903793335,2.004164934158325,-0.9415245056152344
1763693842443462400,8.57746240234375,-0.34266242384910583,1.6096084117889404,-1.6050310134887695
1763693842453542100,8.587542236328124,-2.9622607231140137,1.5858211517333984,-1.155013084411621
1763693842463622100,8.5976220703125,-2.940099000930786,-1.619743824005127,-0.626896858215332
1763693842473702100,8.6077021484375,-1.1395087242126465,-4.118387699127197,-1.5405902862548828
1763693842483776800,8.61777685546875,-0.1373884081840515,-4.395214080810547,-2.660977363586426
1763693842493856800,8.627856689453125,-1.2747849225997925,-4.229265213012695,-2.616183280944824
1763693842503936800,8.637936767578125,-1.863566279411316,-1.8389134407043457,-1.4221992492675781
1763693842514034000,8.648033935546875,-3.803074836730957,-4.439540386199951,-1.404952049255371
1763693842524114000,8.658114013671875,-3.994276523590088,-3.5581254959106445,-0.436248779296875
1763693842534194000,8.66819384765625,-2.0164098739624023,-1.827162742614746,2.4043946266174316
1763693842544273700,8.678273681640626,-1.3474756479263306,-1.4959278106689453,4.534211158752441
1763693842554353700,8.688353759765626,-0.9640001058578491,-0.43517112731933594,5.612497329711914
1763693842564433700,8.69843359375,-0.2628138065338135,0.4038667678833008,6.170550346374512
1763693842574456800,8.708456787109375,-0.09749531745910645,0.469510555267334,4.479537010192871
1763693842584536800,8.718536865234375,-0.8813943862915039,0.658513069152832,3.574744701385498
1763693842594616800,8.728616943359375,-1.3448426723480225,0.18337011337280273,-1.6032123565673828
1763693842604679400,8.738679443359375,-1.1026232242584229,-0.18666601181030273,-2.2924394607543945
1763693842614759400,8.748759521484375,-1.3042235374450684,0.26517391204833984,-0.858680248260498
1763693842624839400,8.75883935546875,-1.416116714477539,0.4080181121826172,0.38258886337280273
1763693842634937900,8.768937744140626,-1.3519749641418457,-0.2773885726928711,0.5010113716125488
1763693842645017900,8.779017822265626,-1.4756312370300293,-0.9737915992736816,0.5960559844970703
1763693842655097900,8.789097900390624,-1.148956298828125,-0.542208194732666,2.3393211364746094
1763693842665195800,8.79919580078125,-0.9161629676818848,0.9611997604370117,6.089135646820068
1763693842675275800,8.80927587890625,-1.7137243747711182,3.8908331394195557,9.417867660522461
1763693842685355800,8.819355712890625,-1.6240463256835938,7.148158550262451,3.8172061443328857
1763693842695442000,8.82944189453125,5.427557468414307,4.394102096557617,-9.177692413330078
1763693842705522000,8.83952197265625,8.600834846496582,0.9785518646240234,-9.459558486938477
1763693842715602000,8.849601806640624,3.0079164505004883,1.1146831512451172,-6.189406394958496
1763693842725704200,8.8597041015625,-1.0508348941802979,1.7781333923339844,-2.9447622299194336
1763693842735784200,8.8697841796875,-0.04448199272155762,3.4591641426086426,-1.75830078125
1763693842745864200,8.8798642578125,1.312951922416687,4.876805305480957,-0.44754600524902344
1763693842755924000,8.889924072265625,3.5155415534973145,5.886260509490967,-1.323622226715088
1763693842766004000,8.90000390625,3.300121784210205,6.9930009841918945,-2.028186798095703
1763693842776084000,8.910083984375,3.007315158843994,8.152002334594727,-2.2163190841674805
1763693842786149000,8.920149169921874,3.8582847118377686,8.62193489074707,-2.3512182235717773
1763693842796229000,8.93022900390625,3.7659401893615723,8.060005187988281,-2.5597715377807617
1763693842806309000,8.94030908203125,1.9621638059616089,6.781330108642578,-1.9441931247711182
1763693842816449500,8.950449462890624,0.5765237808227539,4.744416236877441,-1.024566888809204
1763693842826529500,8.960529541015624,-0.36912477016448975,3.072279930114746,0.27708005905151367
1763693842836609500,8.970609619140625,-0.6568748950958252,-2.5118465423583984,1.3337585926055908
1763693842846656300,8.98065625,-2.6726527214050293,-4.458230972290039,0.6400942802429199
1763693842856736300,8.990736328125,-4.004176139831543,-6.893711090087891,0.7918424606323242
1763693842866816300,9.000816162109375,0.04568040370941162,-9.030522346496582,1.793778657913208
1763693842876907500,9.010907470703126,2.0920839309692383,-7.541843414306641,0.7873029708862305
1763693842886987500,9.020987548828124,0.3376615047454834,-7.952596664428711,-1.802999496459961
1763693842897067500,9.031067626953124,-0.6988571882247925,-6.764162063598633,-4.014404773712158
1763693842907126300,9.041126220703125,0.18463575839996338,-4.777392387390137,-4.264131546020508
1763693842917206300,9.051206298828125,0.5529739260673523,-2.57700252532959,-3.2303152084350586
1763693842927286300,9.061286376953126,1.6126905679702759,-1.2396183013916016,-2.4952456951141357
1763693842937355800,9.071355712890625,1.9315062761306763,-1.3673982620239258,-2.269524574279785
1763693842947435800,9.081435791015625,2.2324914932250977,-2.349609375,-2.432258367538452
1763693842967741700,9.10174169921875,0.11784958839416504,-0.6846790313720703,-1.9184303283691406
1763693842977821700,9.11182177734375,-0.09930974245071411,1.5560855865478516,-4.08928108215332
1763693842987901700,9.121901611328125,0.7424459457397461,-0.5825433731079102,-5.05463171005249
1763693842997864400,9.131864501953125,0.3538048267364502,-2.241591453552246,-4.460087299346924
1763693843007944400,9.1419443359375,-0.43588072061538696,-1.8349924087524414,-3.8610260486602783
1763693843018024400,9.1520244140625,-0.43494492769241333,-1.8905982971191406,-2.774482011795044
1763693843028133600,9.162133544921875,1.3878577947616577,-2.585474967956543,-1.3683390617370605
1763693843038213600,9.172213623046876,3.5047154426574707,-3.5017929077148438,0.7952257394790649
1763693843048293600,9.182293701171876,2.829613208770752,-4.034013748168945,2.7891101837158203
1763693843058375700,9.192375732421874,-0.031175613403320312,-4.023136138916016,3.2155542373657227
1763693843068455700,9.20245556640625,-2.6707763671875,-3.7404117584228516,2.0588462352752686
1763693843078535700,9.21253564453125,-3.968806743621826,-3.340853691101074,0.4747626781463623
1763693843088582400,9.22258251953125,-3.078157901763916,-3.779449462890625,0.40502238273620605
1763693843098662400,9.232662353515625,-1.146115779876709,-3.92437744140625,0.6640859842300415
1763693843108742400,9.242742431640625,-0.23258817195892334,-3.5825700759887695,0.7168973684310913
1763693843118824200,9.25282421875,-1.0434645414352417,-3.1185951232910156,0.7714066505432129
1763693843128904200,9.262904296875,-1.709344506263733,-2.662602424621582,0.8320741653442383
1763693843138984200,9.272984130859374,-1.6316639184951782,-2.182575225830078,1.4314757585525513
1763693843149049000,9.283049072265625,-1.0708569288253784,-1.1608572006225586,1.883200764656067
1763693843159129000,9.293129150390625,-0.9723478555679321,-0.09961605072021484,1.599845051765442
1763693843169209000,9.303208984375,-1.2611404657363892,0.7223453521728516,1.324250340461731
1763693843179292200,9.313292236328126,-1.7393934726715088,1.7744064331054688,1.3354653120040894
1763693843189372200,9.3233720703125,-2.218763828277588,2.7133474349975586,1.536095380783081
1763693843199452200,9.3334521484375,-2.3489956855773926,3.3337621688842773,1.9619110822677612
1763693843209532200,9.3435322265625,-2.3614282608032227,3.685821533203125,2.4749741554260254
1763693843219596500,9.353596435546875,-2.161409854888916,4.213618278503418,2.4731106758117676
1763693843229676500,9.363676513671875,-1.6921314001083374,4.894804000854492,2.5590949058532715
1763693843239756500,9.373756591796875,-1.3011806011199951,6.218265533447266,3.1474814414978027
1763693843249849300,9.383849365234376,-1.344459056854248,6.65501594543457,3.44185209274292
1763693843259929300,9.393929443359376,-1.2943073511123657,5.621703147888184,3.3750410079956055
1763693843270009300,9.40400927734375,-1.2753206491470337,4.346392631530762,3.089171886444092
1763693843280061000,9.41406103515625,-1.3128657341003418,3.119267463684082,2.9623565673828125
1763693843290140700,9.424140625,-1.1081629991531372,2.5196104049682617,2.8233799934387207
1763693843300220700,9.434220703125,-0.5832560062408447,2.2884721755981445,2.715742588043213
1763693843310300700,9.44430078125,-0.13276171684265137,2.16433048248291,2.517082452774048
1763693843320998000,9.454997802734376,0.37178659439086914,2.1226062774658203,2.2237727642059326
1763693843341158000,9.475157958984376,1.0079004764556885,2.0248241424560547,1.68907630443573
1763693843351230000,9.48522998046875,0.7720828056335449,1.6100082397460938,0.9669221639633179
1763693843361310000,9.49531005859375,0.4959571361541748,0.6095609664916992,-0.24801397323608398
1763693843371390000,9.505389892578124,0.676687479019165,-0.9591445922851562,-1.5394601821899414
1763693843381489200,9.5154892578125,1.6139225959777832,-2.204517364501953,-2.481550693511963
1763693843391569200,9.525569091796875,2.7048792839050293,-2.8021230697631836,-3.12540602684021
1763693843401649200,9.535649169921875,3.3472485542297363,-3.1561384201049805,-3.6944820880889893
1763693843411713000,9.545713134765625,3.9245376586914062,-2.6424055099487305,-4.034601211547852
1763693843421793000,9.55579296875,3.998661756515503,-1.1698369979858398,-3.5678234100341797
1763693843431873000,9.565873046875,3.73614239692688,0.23554134368896484,-2.875293254852295
1763693843451444700,9.58544482421875,2.478147268295288,2.299020767211914,-0.09979248046875
1763693843461524700,9.595524658203125,1.47422456741333,1.6394500732421875,0.4338407516479492
1763693843471596800,9.6055966796875,0.3723149299621582,1.2340421676635742,0.515526533126831
1763693843481676800,9.6156767578125,0.13673973083496094,0.08225631713867188,-0.07851934432983398
1763693843491756800,9.6257568359375,-0.427532434463501,-2.110790252685547,-0.5663082599639893
1763693843501877800,9.635877685546875,-1.899278998374939,-3.1291675567626953,-0.5982606410980225
1763693843511957800,9.645957763671875,-3.452136278152466,-2.9307823181152344,-0.8213992118835449
1763693843522037800,9.656037841796875,-2.975788116455078,-2.8169708251953125,-0.4768240451812744
1763693843542183000,9.676182861328124,4.251986980438232,-5.161591529846191,3.1624341011047363
1763693843552263000,9.686262939453124,2.1393985748291016,-4.726499557495117,2.5607457160949707
1763693843562332400,9.69633251953125,-2.2359209060668945,-3.4600257873535156,2.3583383560180664
1763693843572412400,9.706412353515624,-4.648685932159424,-2.024651527404785,3.6495251655578613
1763693843582492400,9.716492431640624,-4.452265739440918,-0.02312946319580078,4.825994968414307
1763693843592560600,9.726560546875,-4.447329521179199,2.3060693740844727,4.2970452308654785
1763693843602640600,9.736640625,-4.85416316986084,3.263920783996582,2.828312397003174
1763693843612720600,9.746720703125,-5.230607986450195,3.032504081726074,2.009514808654785
1763693843622818300,9.756818359375,-4.980524063110352,3.1773223876953125,1.9817819595336914
1763693843632898300,9.766898193359374,-3.6822829246520996,3.841470718383789,2.0105600357055664
1763693843642978300,9.776978271484374,-1.5537928342819214,4.948322772979736,2.4831080436706543
1763693843653072000,9.78707177734375,0.9663197994232178,5.159852027893066,2.8222169876098633
1763693843663151900,9.79715185546875,1.9062962532043457,3.8408937454223633,1.5971322059631348
1763693843673232000,9.80723193359375,1.1766676902770996,1.694143295288086,-0.0148162841796875
1763693843683301400,9.81730126953125,0.1667843461036682,-1.1672449111938477,-1.6946086883544922
1763693843693381400,9.82738134765625,-0.6019963026046753,-1.3268232345581055,-2.947139263153076
1763693843703461400,9.83746142578125,-0.4842209219932556,-0.9965572357177734,-3.0401415824890137
1763693843713540400,9.847540283203125,0.26413482427597046,-0.48527050018310547,-1.7509441375732422
1763693843723620400,9.857620361328125,0.5661348104476929,-0.052176475524902344,-0.544687032699585
1763693843733700400,9.867700439453126,0.08112284541130066,0.5660839080810547,0.12567561864852905
1763693843743776000,9.87777587890625,-0.0425022691488266,-0.7061243057250977,-0.48168808221817017
1763693843753856000,9.88785595703125,-0.20126695930957794,-1.513035774230957,-1.019453763961792
1763693843763936000,9.89793603515625,-0.751400351524353,-1.2777652740478516,-1.8945488929748535
1763693843774029600,9.908029541015624,-0.7278648614883423,0.024988174438476562,-2.405503511428833
1763693843784109600,9.918109619140624,-0.5336182117462158,0.29651355743408203,-2.1427040100097656
1763693843794189600,9.928189453125,-0.19867441058158875,0.6763753890991211,-1.0471084117889404
1763693843804262700,9.9382626953125,-0.038488805294036865,1.555983543395996,0.4076522886753082
1763693843814342700,9.9483427734375,0.39162835478782654,6.021280288696289,1.2213882207870483
1763693843824422700,9.958422607421875,0.06040453910827637,4.974281311035156,2.5813369750976562
1763693843834501400,9.96850146484375,-0.08852088451385498,1.7051687240600586,3.11659574508667
1763693843844581600,9.97858154296875,0.2455388307571411,2.0508651733398438,2.5563952922821045
1763693843854661600,9.98866162109375,-0.7018921375274658,2.5759191513061523,1.1155099868774414
1763693843864743200,9.9987431640625,0.25679099559783936,1.2971735000610352,0.7090998888015747
1763693843874823200,10.0088232421875,1.236802339553833,1.4698400497436523,1.095672607421875
1763693843884903200,10.018903076171876,1.6597729921340942,2.9607620239257812,1.5955623388290405
1763693843894976500,10.0289765625,1.2542617321014404,3.4651803970336914,1.4138041734695435
1763693843905056500,10.039056396484375,0.7503550052642822,2.5815744400024414,0.28896284103393555
1763693843915136500,10.049136474609375,0.6883522272109985,1.3185157775878906,-1.2334767580032349
1763693843925225000,10.059224853515625,1.7948206663131714,-5.346031188964844,-5.366752624511719
1763693843935305000,10.069304931640625,2.4307827949523926,-16.436573028564453,-12.340972900390625
1763693843945385000,10.079385009765625,0.8029829263687134,-13.124436378479004,-14.513174057006836
1763693843955472600,10.08947265625,0.6147094964981079,-5.978642463684082,-9.568262100219727
1763693843965552600,10.099552734375,2.188103437423706,-3.390162467956543,-2.76584529876709
1763693843975633000,10.1096328125,2.8942813873291016,-3.655153274536133,0.8809299468994141
1763693843985709800,10.119709716796875,3.3644964694976807,-3.5136613845825195,0.43555402755737305
1763693843995790000,10.1297900390625,4.243631362915039,-6.637784004211426,-3.4314002990722656
1763693844005870000,10.1398701171875,3.3914713859558105,-5.989001274108887,-5.604086875915527
1763693844015952000,10.149951904296875,4.596527099609375,-4.268102645874023,-4.770295143127441
1763693844026031900,10.160031982421875,5.946372032165527,-4.671613693237305,-2.6695961952209473
1763693844036112000,10.17011181640625,7.1881327629089355,-4.24592399597168,-1.847724199295044
1763693844046184200,10.18018408203125,8.405921936035156,-4.695479393005371,-2.391552448272705
1763693844056264200,10.19026416015625,6.942776679992676,-6.478071212768555,-3.0062599182128906
1763693844066344200,10.20034423828125,1.2735579013824463,-7.435315132141113,-3.5743746757507324
1763693844076393500,10.2103935546875,-0.8688483834266663,-8.748245239257812,-1.793018102645874
1763693844086473500,10.220473388671875,0.36318638920783997,-9.105998992919922,1.9710466861724854
1763693844096553700,10.2305537109375,-0.6451289653778076,-9.608768463134766,5.756716728210449
1763693844106634800,10.240634765625,-3.229898691177368,-9.375751495361328,7.863507270812988
1763693844116714800,10.25071484375,-5.5540924072265625,-6.956325531005859,6.134117126464844
1763693844126794800,10.260794677734374,-6.465970993041992,-2.9308090209960938,3.276757001876831
1763693844136907000,10.270906982421875,-5.77461051940918,-2.517838478088379,1.3839170932769775
1763693844146987000,10.280987060546876,-2.3430027961730957,-5.113788604736328,0.9000798463821411
1763693844157067000,10.29106689453125,0.051274776458740234,-6.326805114746094,-0.11159193515777588
1763693844167128800,10.30112890625,0.4853365421295166,-6.367733001708984,-0.4537081718444824
1763693844177208800,10.311208740234376,0.030432462692260742,-6.44120979309082,1.028522253036499
1763693844187288800,10.321288818359376,-0.8046743869781494,-5.976681709289551,3.095526695251465
1763693844197402400,10.33140234375,-1.8497804403305054,-4.420319557189941,4.037832260131836
1763693844207482400,10.341482421875,-2.567833185195923,-0.48126220703125,3.375858783721924
1763693844217562400,10.351562255859376,-3.7495033740997314,3.627018928527832,0.958726704120636
1763693844227605800,10.361605712890626,-5.054500579833984,6.015995025634766,-0.9067882299423218
1763693844237685800,10.371685791015626,-5.90787410736084,6.921947479248047,-0.6093785166740417
1763693844247765800,10.381765869140626,-5.908083438873291,6.9914398193359375,0.7397140264511108
1763693844257856500,10.3918564453125,-5.472519874572754,6.605230331420898,2.230961799621582
1763693844267936500,10.4019365234375,-5.106293201446533,5.8245954513549805,2.6704084873199463
1763693844278016800,10.412016845703125,-5.208061218261719,5.774327278137207,2.096327543258667
1763693844288066000,10.422066162109376,-5.516101837158203,5.571830749511719,2.0852553844451904
1763693844298146000,10.43214599609375,-5.5291242599487305,5.487030506134033,2.465700387954712
1763693844308226000,10.44222607421875,-5.644514083862305,5.767717361450195,2.5920305252075195
1763693844318483500,10.4524833984375,-5.738992214202881,6.129911422729492,2.5608978271484375
1763693844328563500,10.4625634765625,-5.851161479949951,6.327215194702148,2.493220329284668
1763693844338643500,10.4726435546875,-5.8830671310424805,6.437304496765137,2.399672508239746
1763693844348602000,10.48260205078125,-5.838075160980225,6.366057872772217,2.298804521560669
1763693844358682000,10.49268212890625,-5.580871105194092,6.2387309074401855,2.2091102600097656
1763693844368762000,10.50276220703125,-4.917364120483398,6.273375988006592,1.9332780838012695
1763693844378810400,10.512810302734374,-4.216845989227295,6.3835954666137695,1.4557713270187378
1763693844388890400,10.522890380859375,-3.6053872108459473,6.167484760284424,0.8192402124404907
1763693844398970600,10.532970703125,-2.5095882415771484,5.5747528076171875,0.05894804000854492
1763693844409064000,10.54306396484375,-0.3020455837249756,4.84002685546875,-0.18774628639221191
1763693844419144000,10.55314404296875,1.9728572368621826,3.807976722717285,-0.07940292358398438
1763693844429224000,10.563223876953124,3.9333064556121826,2.709360122680664,-0.6688215732574463
1763693844439277000,10.573277099609374,5.594944000244141,0.7374553680419922,-1.453782320022583
1763693844449357300,10.583357421875,7.74327278137207,-2.2381763458251953,-1.5222208499908447
1763693844459437300,10.593437255859374,8.895018577575684,-5.876805305480957,0.03167581558227539
1763693844469563000,10.60356298828125,7.555438995361328,-9.886759757995605,0.8784503936767578
1763693844479643000,10.613642822265625,6.90216064453125,-13.242931365966797,0.5531610250473022
1763693844489723000,10.623722900390625,8.270920753479004,-13.559622764587402,0.30284780263900757
1763693844499803100,10.63380322265625,7.070333480834961,-9.527912139892578,0.8646330237388611
1763693844509845200,10.64384521484375,3.8804378509521484,-2.9646215438842773,2.0282042026519775
1763693844519925200,10.65392529296875,1.377434253692627,2.7155399322509766,2.1234679222106934
1763693844530005200,10.664005126953125,-0.5968689918518066,7.239236831665039,2.1561331748962402
1763693844540099000,10.67409912109375,-3.3906595706939697,8.378357887268066,0.8934053182601929
1763693844550179000,10.684178955078124,-6.341485977172852,4.915646553039551,-1.5156975984573364
1763693844560259000,10.694259033203124,-5.374795913696289,0.4704465866088867,0.6096028089523315
1763693844570319000,10.704319091796876,-1.7587634325027466,-5.194151878356934,4.635454177856445
1763693844580399000,10.714399169921874,1.6117424964904785,-13.047200202941895,7.412731647491455
1763693844590479400,10.724479248046874,1.8456432819366455,-18.123397827148438,5.499749183654785
1763693844601150200,10.735150146484376,-0.5959963798522949,-16.683387756347656,-0.06749105453491211
1763693844611230200,10.745230224609376,-4.6790547370910645,-9.520769119262695,-1.722625970840454
1763693844621310200,10.755310302734374,-8.923456192016602,-1.5086278915405273,1.6455658674240112
1763693844631413800,10.765413818359375,-9.380064964294434,5.591611862182617,4.848339080810547
1763693844641493800,10.77549365234375,-6.465022087097168,11.158499717712402,5.850378036499023
1763693844651573800,10.78557373046875,-3.266376495361328,13.876906394958496,4.65223503112793
1763693844671144000,10.80514404296875,-3.163510799407959,7.045109272003174,-2.394287347793579
1763693844681224000,10.815223876953125,-4.450535774230957,1.7276830673217773,-4.62516450881958
1763693844691304200,10.82530419921875,-3.1647720336914062,-2.038811683654785,-5.443778991699219
1763693844701389000,10.83538916015625,-0.6573669910430908,-6.165400505065918,-4.981420993804932
1763693844711469000,10.845468994140624,1.5212476253509521,-7.749683380126953,-4.011735916137695
1763693844721549000,10.855549072265624,1.9902300834655762,-6.62227725982666,-2.073326826095581
1763693844731622700,10.86562255859375,1.8672676086425781,-4.235591888427734,-0.3004704713821411
1763693844741702700,10.87570263671875,2.2548372745513916,-1.873915672302246,0.4155089855194092
1763693844761848300,10.895848388671874,1.6116000413894653,3.898056983947754,-0.4568057060241699
1763693844771928600,10.905928466796874,1.3578174114227295,5.7856011390686035,-0.07227694988250732
1763693844782008600,10.916008544921874,1.2757441997528076,6.166380882263184,0.8806419372558594
1763693844792059100,10.92605908203125,0.9004524350166321,6.059817314147949,2.081458568572998
1763693844802139100,10.93613916015625,0.3857719898223877,5.486955642700195,2.02775502204895
1763693844812219400,10.946219482421874,-0.22539661824703217,4.185251235961914,0.852929949760437
1763693844822326000,10.956325927734374,-0.5956469774246216,2.694390296936035,0.24239563941955566
1763693844832406000,10.966406005859374,-0.7891558408737183,1.4200563430786133,0.1250154972076416
1763693844842486000,10.976486083984375,-0.5560068488121033,1.3830986022949219,-0.4401050806045532
1763693844852586000,10.9865859375,-0.19047731161117554,1.9877681732177734,-1.3803582191467285
1763693844862666000,10.996666015625,-0.5858905911445618,1.668309211730957,-1.6667033433914185
1763693844872746000,11.00674609375,-0.5318460464477539,1.6685304641723633,-2.0334296226501465
1763693844882832000,11.016831787109375,-0.4014091491699219,0.7283611297607422,-2.281494617462158
1763693844892911900,11.026911865234375,-0.002969503402709961,-0.9129047393798828,-1.6626179218292236
1763693844902992000,11.036991943359375,1.6019716262817383,-0.48120784759521484,-1.902387022972107
1763693844913015300,11.047015380859374,2.2411720752716064,0.5122833251953125,-2.6395184993743896
1763693844923095300,11.05709521484375,2.7102737426757812,0.5110282897949219,-2.450174331665039
1763693844933175300,11.06717529296875,4.05208683013916,-0.5070304870605469,-1.9860602617263794
1763693844943259100,11.077259033203125,3.9997048377990723,-2.6595582962036133,-1.9393510818481445
1763693844953339100,11.087339111328125,2.835489273071289,-3.9288291931152344,-2.8745198249816895
1763693844963419100,11.097419189453126,2.1519579887390137,-3.804415702819824,-4.266746520996094
1763693844973532000,11.107531982421875,2.021552324295044,-2.9153432846069336,-5.041814804077148
1763693844983612000,11.11761181640625,1.9385993480682373,-2.619455337524414,-5.45154333114624
1763693844993692000,11.12769189453125,1.5362926721572876,-3.5179367065429688,-6.098442077636719
1763693845003751700,11.137751708984375,2.027825117111206,-4.951593399047852,-6.311318397521973
1763693845013831700,11.147831787109375,3.0884084701538086,-5.564095497131348,-5.954573631286621
1763693845023911700,11.15791162109375,3.388608932495117,-5.703989028930664,-5.385390281677246
1763693845033997000,11.1679970703125,4.012887001037598,-5.875711441040039,-4.585019111633301
1763693845044077000,11.1780771484375,4.853044033050537,-5.797143936157227,-3.9406821727752686
1763693845054157000,11.188156982421875,5.252299785614014,-5.167807579040527,-3.5561115741729736
1763693845064265200,11.19826513671875,5.705798149108887,-4.610750198364258,-3.047255516052246
1763693845074345200,11.20834521484375,6.928136825561523,-5.13076114654541,-2.4544591903686523
1763693845084425200,11.21842529296875,6.999241352081299,-6.791791915893555,-2.5426902770996094
1763693845094491100,11.2284912109375,5.007867813110352,-8.12238597869873,-3.2973883152008057
1763693845104571100,11.238571044921875,2.0852465629577637,-7.513219833374023,-2.720391273498535
1763693845114651100,11.248651123046875,0.7497278451919556,-4.521904945373535,0.3064248561859131
1763693845124757200,11.25875732421875,1.7392133474349976,-1.7072811126708984,4.090612411499023
1763693845134837200,11.268837158203125,-0.6349064707756042,-1.7127485275268555,5.380799293518066
1763693845144917200,11.278917236328125,-4.122254371643066,-4.425922393798828,5.252645492553711
1763693845154931500,11.288931396484376,-4.8085222244262695,-7.582660675048828,5.450587272644043
1763693845165011500,11.299011474609374,-3.010108470916748,-9.364171981811523,5.704583168029785
1763693845175091500,11.309091552734374,-1.180788278579712,-9.633607864379883,5.37539005279541
1763693845185233400,11.3192333984375,-0.4559326171875,-8.916840553283691,4.143897533416748
1763693845195313400,11.3293134765625,-1.4784456491470337,-7.8149003982543945,2.767515182495117
1763693845205393400,11.339393310546875,-2.269059419631958,-6.469625473022461,1.884179711341858
1763693845215453400,11.349453369140624,-2.353264093399048,-4.753994941711426,1.6147754192352295
1763693845225533400,11.359533447265624,-3.716360569000244,-3.06210994720459,1.7822368144989014
1763693845235613400,11.369613525390625,-4.895300388336182,-1.006239891052246,1.6196420192718506
1763693845245661200,11.3796611328125,-4.990711212158203,1.4705610275268555,0.8246833682060242
1763693845255741200,11.3897412109375,-5.154665946960449,3.780193328857422,-0.6304981708526611
1763693845265821200,11.3998212890625,-5.602595329284668,4.9901323318481445,-1.042049527168274
1763693845275951900,11.409951904296875,-6.093010902404785,5.946470260620117,-0.3775147497653961
1763693845286032000,11.420031982421875,-6.662534713745117,7.117707252502441,0.41123300790786743
1763693845296111900,11.43011181640625,-7.29935359954834,8.103110313415527,0.5725122690200806
1763693845306173000,11.4401728515625,-7.780665874481201,8.982135772705078,-0.025287985801696777
1763693845316253000,11.4502529296875,-8.20174789428711,9.15998649597168,-0.3790343701839447
1763693845326333000,11.4603330078125,-8.36207389831543,8.716914176940918,-0.11588141322135925
1763693845336422000,11.470421875,-8.10211181640625,8.579572677612305,0.5048511624336243
1763693845346502000,11.480501953125,-8.162854194641113,8.857108116149902,1.5683757066726685
1763693845356582000,11.490581787109376,-8.213369369506836,8.88058853149414,3.1706154346466064
1763693845366661600,11.50066162109375,-8.128227233886719,8.664268493652344,4.336565971374512
1763693845376741600,11.51074169921875,-7.5638580322265625,8.467445373535156,4.239328384399414
1763693845386821600,11.520821533203126,-6.397356986999512,8.061188697814941,3.1133859157562256
1763693845396896300,11.530896240234375,-4.537342071533203,7.373106479644775,1.6549723148345947
1763693845406976300,11.540976318359375,-1.3648302555084229,6.398301124572754,0.6503113508224487
1763693845417056300,11.55105615234375,3.4384565353393555,5.173938751220703,0.6500501036643982
1763693845427144200,11.561144287109375,6.896524906158447,3.415896415710449,0.749382734298706
1763693845437224200,11.57122412109375,7.226518630981445,1.1148128509521484,0.9058050513267517
1763693845447304200,11.58130419921875,8.146358489990234,-1.7468242645263672,1.4887466430664062
1763693845457401600,11.591401611328125,10.053555488586426,-5.786847114562988,1.3711405992507935
1763693845467481600,11.601481689453125,8.737579345703125,-10.812846183776855,0.583268404006958
1763693845477561600,11.6115615234375,6.065342903137207,-14.744805335998535,-0.36214515566825867
1763693845487605500,11.62160546875,5.922538757324219,-14.611513137817383,-1.2834608554840088
1763693845497685500,11.631685546875,6.768209457397461,-9.096627235412598,-1.5246981382369995
1763693845507765500,11.641765625,4.934650897979736,-2.6403703689575195,0.6448520421981812
1763693845517860900,11.65186083984375,2.037540912628174,2.018627166748047,2.4587273597717285
1763693845527940900,11.66194091796875,-0.4977705478668213,4.149289131164551,3.3818602561950684
1763693845538020900,11.672020751953125,-0.7132542133331299,4.37523078918457,4.5452728271484375
1763693845548064800,11.682064697265625,-1.4001121520996094,2.7451257705688477,1.891596794128418
1763693845558144800,11.692144775390625,-1.7340044975280762,0.5968399047851562,0.011370062828063965
1763693845568224800,11.702224853515625,0.7957451343536377,-2.6594629287719727,5.166722774505615
1763693845578353400,11.712353515625,7.664082050323486,-10.898395538330078,11.643588066101074
1763693845588433400,11.722433349609375,2.6830291748046875,-21.070247650146484,8.694896697998047
1763693845598513400,11.732513427734375,-15.962959289550781,-15.305891990661621,2.790022850036621
1763693845608576800,11.74257666015625,-17.06126594543457,-0.4541196823120117,1.1008727550506592
1763693845618656800,11.75265673828125,-8.425793647766113,7.389052391052246,1.0411159992218018
1763693845628736800,11.76273681640625,-6.332104682922363,8.940851211547852,-0.49639251828193665
1763693845648924000,11.782923828125,-11.02549934387207,5.799008369445801,-0.44033411145210266
1763693845659004000,11.79300390625,-7.574063301086426,3.816807746887207,-0.40562862157821655
1763693845669069600,11.803069580078125,-5.503957748413086,0.5185041427612305,1.2189443111419678
1763693845679149600,11.813149658203125,-3.9305214881896973,-2.996835708618164,2.843961238861084
1763693845689229600,11.8232294921875,-2.784968852996826,-5.19040584564209,2.9226460456848145
1763693845699294000,11.8332939453125,-2.0220067501068115,-5.530234336853027,1.5826060771942139
1763693845709374000,11.8433740234375,-0.9256711006164551,-4.406262397766113,-0.13969075679779053
1763693845719454000,11.853453857421876,-0.5284652709960938,-2.502532958984375,-1.0992447137832642
1763693845729533200,11.863533203125,-1.155295491218567,-0.3285245895385742,-0.87001633644104
1763693845739613200,11.87361328125,-1.4004251956939697,1.5791921615600586,-0.4256056547164917
1763693845749693200,11.883693115234376,-1.5323772430419922,3.088059425354004,-0.5654958486557007
1763693845759758600,11.893758544921875,-1.4853124618530273,4.403458595275879,-1.7232162952423096
1763693845769838600,11.903838623046875,-0.8739346265792847,5.182927131652832,-3.139146089553833
1763693845779918600,11.913918701171875,-0.09483316540718079,4.974886894226074,-3.876906156539917
1763693845790009900,11.924009765625,0.28521156311035156,3.932880401611328,-3.579216480255127
1763693845800089600,11.934089599609376,0.3793480098247528,2.50537109375,-2.667623996734619
1763693845810169900,11.944169921875,0.9498934149742126,0.7644577026367188,-1.8447757959365845
1763693845820266500,11.9542666015625,2.2059082984924316,-0.04276847839355469,-1.5961298942565918
1763693845830346500,11.964346435546876,3.077569007873535,0.06549739837646484,-1.413004755973816
1763693845840426500,11.974426513671874,3.9409167766571045,1.0268754959106445,-0.6343309879302979
1763693845851065000,11.985065185546874,3.9765193462371826,1.7877483367919922,0.505307674407959
1763693845861146400,11.995146484375,3.2061586380004883,1.8138198852539062,1.030944585800171
1763693845871227400,12.005227294921875,2.908310890197754,0.9039421081542969,0.13147354125976562
1763693845881326600,12.01532666015625,2.757293701171875,-0.36647701263427734,-1.7651623487472534
1763693845891408000,12.025407958984376,2.993739128112793,-1.4270391464233398,-3.622499942779541
1763693845901489000,12.035489013671874,3.3203649520874023,-1.264237403869629,-4.64991569519043
1763693845921050000,12.055050048828125,4.218112945556641,0.21207523345947266,-3.9955058097839355
1763693845931131100,12.065131103515625,2.9680166244506836,-0.2423553466796875,-3.9252066612243652
1763693845941245400,12.075245361328125,1.4410319328308105,-1.5779953002929688,-4.688259601593018
1763693845951326700,12.08532666015625,1.221283197402954,-3.000804901123047,-5.863323211669922
1763693845961407700,12.09540771484375,1.4451509714126587,-3.883882522583008,-6.45959997177124
1763693845971453700,12.10545361328125,1.6557416915893555,-4.226654052734375,-6.150052070617676
1763693845981534700,12.11553466796875,1.9927704334259033,-4.346256256103516,-5.6820220947265625
1763693845991616000,12.125615966796875,2.67509126663208,-4.613277435302734,-5.056018829345703
1763693846001690000,12.135690185546874,4.072169780731201,-4.761649131774902,-4.026533126831055
1763693846011771100,12.145771240234374,4.412059783935547,-4.943943977355957,-3.028010606765747
1763693846021852200,12.15585205078125,4.530977249145508,-5.52117919921875,-2.509368896484375
1763693846031902000,12.16590185546875,5.34406042098999,-5.879145622253418,-3.04487943649292
1763693846041983200,12.175983154296874,5.630273818969727,-5.730947494506836,-4.7656755447387695
1763693846052064300,12.186064208984375,6.237632751464844,-5.5365800857543945,-6.228553295135498
1763693846062180600,12.1961806640625,7.082213878631592,-5.531442642211914,-7.45328426361084
1763693846072262000,12.206261962890625,6.293015480041504,-5.538440704345703,-8.53780746459961
1763693846082343000,12.216343017578126,3.915308713912964,-4.939139366149902,-8.047358512878418
1763693846092436200,12.226436279296875,1.3212555646896362,-2.553560256958008,-5.083017349243164
1763693846102517200,12.236517333984375,2.406066417694092,0.4707183837890625,-1.1454854011535645
1763693846112598500,12.2465986328125,3.1049506664276123,2.0216121673583984,0.5915896892547607
1763693846122670300,12.25667041015625,0.004349023103713989,0.9242391586303711,-0.4190809726715088
1763693846132751600,12.266751708984375,-2.772599935531616,-1.7322559356689453,-1.6076477766036987
1763693846142832600,12.27683251953125,-2.9856173992156982,-4.746187210083008,-1.1541786193847656
1763693846152918000,12.28691796875,-2.1896512508392334,-7.893373489379883,1.164259910583496
1763693846162999000,12.2969990234375,-1.627030849456787,-10.425983428955078,3.5440587997436523
1763693846173080300,12.307080322265625,-0.9970093965530396,-11.34083080291748,4.4631500244140625
1763693846183150800,12.31715087890625,-0.33971643447875977,-10.323738098144531,4.594448566436768
1763693846193232100,12.327232177734375,-0.23368656635284424,-9.005979537963867,5.373410224914551
1763693846203313200,12.337313232421875,-0.3735811710357666,-8.179333686828613,6.399135589599609
1763693846213394400,12.34739453125,-0.09859609603881836,-7.628354072570801,6.43152379989624
1763693846223475500,12.357475341796874,0.09165573120117188,-7.276802062988281,5.692491054534912
1763693846233556500,12.367556396484375,-0.3424112796783447,-7.078054428100586,4.499743461608887
1763693846243636000,12.377635986328125,-0.6081392765045166,-7.032157897949219,2.954501152038574
1763693846253717200,12.38771728515625,-0.6967587471008301,-7.408143043518066,1.3287283182144165
1763693846263798300,12.39779833984375,-1.3658089637756348,-8.023733139038086,0.31955868005752563
1763693846273856800,12.407856689453125,-1.9714150428771973,-8.318378448486328,0.7539145946502686
1763693846283937800,12.417937744140625,-2.62192440032959,-8.246843338012695,1.617540717124939
1763693846294019000,12.42801904296875,-2.9293477535247803,-7.078134536743164,1.6423741579055786
1763693846304079600,12.43807958984375,-3.3448286056518555,-4.597468376159668,1.805679202079773
1763693846314161000,12.448160888671875,-4.355208873748779,-0.9650278091430664,2.3783674240112305
1763693846324242000,12.458241943359376,-5.797603607177734,3.357110023498535,2.7473678588867188
1763693846334321700,12.46832177734375,-7.020974159240723,7.72049617767334,2.950589418411255
1763693846344402700,12.478402587890624,-7.734236717224121,11.902275085449219,3.5932064056396484
1763693846354484000,12.48848388671875,-8.219133377075195,15.31269359588623,4.069994926452637
1763693846364568000,12.498568115234375,-8.580445289611816,16.792621612548828,3.426056385040283
1763693846374649300,12.5086494140625,-8.339019775390625,17.183422088623047,2.4769153594970703
1763693846384730400,12.51873046875,-7.862252712249756,16.223312377929688,2.367311954498291
1763693846394807600,12.5288076171875,-6.788717269897461,14.342945098876953,2.284452199935913
1763693846404888600,12.538888671875,-5.243500709533691,12.876221656799316,1.640317678451538
1763693846425098800,12.5590986328125,0.3222193717956543,10.395099639892578,0.10554778575897217
1763693846435180000,12.569179931640624,2.7842695713043213,9.424590110778809,0.37981176376342773
1763693846445261000,12.579260986328125,4.009878158569336,8.234373092651367,0.6142019033432007
1763693846455317000,12.58931689453125,4.182195663452148,5.93198299407959,0.25085389614105225
1763693846465398000,12.59939794921875,3.941840410232544,3.6854171752929688,-0.23547613620758057
1763693846475479300,12.609479248046876,4.8030242919921875,2.1145401000976562,0.10544377565383911
1763693846485554000,12.619553955078125,5.708052635192871,1.3222837448120117,0.9292327761650085
1763693846495635000,12.629635009765625,4.859195232391357,1.6363716125488281,0.9427105784416199
1763693846505716200,12.63971630859375,2.5850415229797363,3.026949882507324,1.0862305164337158
1763693846515786500,12.649786376953125,-0.2561514377593994,4.741353511810303,2.5510013103485107
1763693846525867500,12.659867431640626,-3.93914794921875,4.553506851196289,7.44128942489624
1763693846535948800,12.66994873046875,-5.852969169616699,-0.3889799118041992,17.876848220825195
1763693846546017500,12.680017578125,4.645764350891113,-9.8993501663208,24.378742218017578
1763693846556098800,12.690098876953124,18.236101150512695,-21.83969497680664,13.593412399291992
1763693846566179800,12.700179931640625,-5.273499488830566,-28.515419006347656,-13.134016036987305
1763693846576254500,12.71025439453125,-28.680423736572266,-17.329143524169922,-15.69323444366455
1763693846586335700,12.720335693359376,-17.45150375366211,-0.24361038208007812,-7.2584357261657715
1763693846596416800,12.730416748046874,-13.428632736206055,10.082494735717773,-6.445212364196777
1763693846606485500,12.740485595703126,-16.807687759399414,15.139214515686035,-5.218225955963135
1763693846616566500,12.75056640625,-9.934837341308594,11.783023834228516,0.5985828638076782
1763693846626647800,12.760647705078124,-1.5777121782302856,3.1687402725219727,7.05057954788208
1763693846636737000,12.770737060546875,-3.4689364433288574,-6.902287483215332,14.504598617553711
1763693846646818000,12.780818115234375,-2.316793203353882,-14.675639152526855,20.625171661376953
1763693846656899300,12.7908994140625,-2.3245325088500977,-15.893638610839844,15.677565574645996
1763693846666995200,12.8009951171875,-4.759231090545654,-10.82533073425293,5.12992000579834
1763693846677076200,12.811076171875,-6.262199401855469,-6.932714462280273,0.8955289125442505
1763693846687157200,12.8211572265625,-6.4792938232421875,-4.706836700439453,-1.0551049709320068
1763693846697257000,12.831257080078124,-5.496757984161377,-3.957479476928711,-3.734731674194336
1763693846707338200,12.841338134765625,-4.737978935241699,-5.204315185546875,-6.514482498168945
1763693846717419300,12.851419189453125,-2.8160417079925537,-7.738916397094727,-8.753582954406738
1763693846727436500,12.8614365234375,1.4604532718658447,-10.775918960571289,-10.137764930725098
1763693846737517800,12.871517822265625,5.594491958618164,-12.979384422302246,-7.590682029724121
1763693846747598800,12.881598876953126,8.444662094116211,-11.842007637023926,-2.910522937774658
1763693846757746700,12.89174658203125,9.781003952026367,-8.02985668182373,0.17998743057250977
1763693846767828000,12.901827880859376,10.307577133178711,-4.25582218170166,1.3448712825775146
1763693846777909000,12.911908935546874,11.111827850341797,-1.030191421508789,1.442615032196045
1763693846787935000,12.92193505859375,10.176610946655273,1.0538854598999023,0.2048952579498291
1763693846798016000,12.93201611328125,7.828426837921143,2.5997228622436523,-2.16249942779541
1763693846808097300,12.94209716796875,6.045689105987549,4.074263572692871,-5.736347198486328
1763693846818144500,12.95214453125,5.097500801086426,5.5714592933654785,-9.256668090820312
1763693846828225500,12.9622255859375,5.994119167327881,6.419775485992432,-11.17781925201416
1763693846838306800,12.972306884765626,8.450773239135742,5.672760963439941,-11.856002807617188
1763693846848503800,12.98250390625,8.944358825683594,4.038622856140137,-12.662118911743164
1763693846858584800,12.992584716796875,7.067558765411377,3.2803897857666016,-13.947958946228027
1763693846868665900,13.002665771484375,4.801515102386475,3.5321044921875,-14.51672649383545
1763693846878678800,13.0126787109375,2.9901514053344727,4.240549564361572,-13.710468292236328
1763693846888758800,13.0227587890625,2.407041549682617,5.178866386413574,-12.340261459350586
1763693846898838500,13.032838623046874,2.3272507190704346,5.822958946228027,-10.832141876220703
1763693846908893400,13.0428935546875,2.0225155353546143,6.071093559265137,-9.579633712768555
1763693846918973200,13.05297314453125,1.4131929874420166,6.19981575012207,-8.797185897827148
1763693846929053200,13.06305322265625,1.0320440530776978,6.113041877746582,-8.07895278930664
1763693846939169000,13.0731689453125,0.9611247181892395,5.708466529846191,-6.871960639953613
1763693846949249000,13.0832490234375,1.0424683094024658,5.027398109436035,-5.030265808105469
1763693846959328800,13.093328857421875,1.240691900253296,3.8635644912719727,-3.224193811416626
1763693846969361200,13.103361083984375,1.0821459293365479,1.4173355102539062,-2.277498960494995
