time,seconds_elapsed,z,y,x
1763693834027008800,0.1610087890625,7.701217174530029,6.066393852233887,-0.24597226083278656
1763693834047179300,0.18117919921875,7.562511444091797,6.234478950500488,-0.33177450299263
1763693834067015200,0.20101513671875,7.426577091217041,6.398594856262207,-0.2726050317287445
1763693834087079400,0.221079345703125,7.489048957824707,6.326991558074951,-0.23174889385700226
1763693834097128200,0.231128173828125,7.54750394821167,6.257396221160889,-0.22489041090011597
1763693834107208400,0.24120849609375,7.569921016693115,6.230925559997559,-0.2055387645959854
1763693834117288400,0.251288330078125,7.567499160766602,6.234024524688721,-0.20069994032382965
1763693834128064000,0.26206396484375,7.557202339172363,6.246794700622559,-0.19139200448989868
1763693834138144000,0.27214404296875,7.546102046966553,6.25969123840332,-0.2073860615491867
1763693834148224300,0.282224365234375,7.541563987731934,6.26455545425415,-0.22481092810630798
1763693834167794000,0.3017939453125,7.551924705505371,6.251433372497559,-0.2416992336511612
1763693834177874200,0.311874267578125,7.567495346069336,6.232710361480713,-0.2381574511528015
1763693834187953400,0.321953369140625,7.572442531585693,6.226682662963867,-0.23857402801513672
1763693834198033400,0.332033447265625,7.567857265472412,6.231919765472412,-0.24719171226024628
1763693834208113400,0.342113525390625,7.550605773925781,6.252947807312012,-0.24366897344589233
1763693834218160400,0.352160400390625,7.53798770904541,6.268215179443359,-0.2420891970396042
1763693834228240400,0.362240478515625,7.5436201095581055,6.261729717254639,-0.2343592792749405
1763693834238320400,0.3723203125,7.561457633972168,6.24047327041626,-0.22636792063713074
1763693834248434200,0.38243408203125,7.577414035797119,6.220980167388916,-0.229312002658844
1763693834258514200,0.39251416015625,7.575802326202393,6.223056316375732,-0.22619979083538055
1763693834268594200,0.40259423828125,7.563257217407227,6.238185882568359,-0.22926850616931915
1763693834278674200,0.412674072265625,7.553584575653076,6.249758243560791,-0.23297999799251556
1763693834288772900,0.42277294921875,7.549132347106934,6.255122184753418,-0.23335489630699158
1763693834298852900,0.432852783203125,7.554736137390137,6.2480974197387695,-0.24007822573184967
1763693834308932900,0.442932861328125,7.5611796379089355,6.240111827850342,-0.24486073851585388
1763693834318978000,0.45297802734375,7.5643510818481445,6.236287593841553,-0.24429945647716522
1763693834329058000,0.46305810546875,7.566864967346191,6.233214378356934,-0.2449217438697815
1763693834339138000,0.473137939453125,7.565164566040039,6.235438823699951,-0.2407473921775818
1763693834349235700,0.483235595703125,7.562902450561523,6.238234519958496,-0.23942746222019196
1763693834359315700,0.493315673828125,7.562920093536377,6.238219261169434,-0.239287331700325
1763693834369395700,0.503395751953125,7.561764717102051,6.239753723144531,-0.23575112223625183
1763693834379505700,0.513505615234375,7.561053276062012,6.24055814743042,-0.23726758360862732
1763693834389585700,0.523585693359375,7.560503005981445,6.241375923156738,-0.2332676202058792
1763693834399665700,0.533665771484375,7.56256103515625,6.2390241622924805,-0.22942616045475006
1763693834409745700,0.54374560546875,7.564741611480713,6.236344337463379,-0.23042377829551697
1763693834419781600,0.55378173828125,7.5632004737854,6.23834753036499,-0.22674165666103363
1763693834429861600,0.563861572265625,7.561513423919678,6.240365505218506,-0.22746451199054718
1763693834439941600,0.573941650390625,7.56138277053833,6.240390777587891,-0.23108583688735962
1763693834450021600,0.584021728515625,7.560605525970459,6.241327285766602,-0.2312442809343338
1763693834460101600,0.5941015625,7.561553478240967,6.2400360107421875,-0.23502932488918304
1763693834470181600,0.604181640625,7.5637593269348145,6.237318992614746,-0.23621967434883118
1763693834480284200,0.6142841796875,7.5665740966796875,6.233851909637451,-0.23754943907260895
1763693834490364200,0.6243642578125,7.569383144378662,6.230318069458008,-0.2407677173614502
1763693834500444200,0.634444091796875,7.566456317901611,6.23391056060791,-0.23978738486766815
1763693834511112400,0.645112548828125,7.558620929718018,6.2433929443359375,-0.24018879234790802
1763693834531272400,0.6652724609375,7.558664798736572,6.243329048156738,-0.24044787883758545
1763693834541327400,0.675327392578125,7.565032005310059,6.235533714294434,-0.24248841404914856
1763693834551407400,0.685407470703125,7.5672173500061035,6.2329230308532715,-0.2413925677537918
1763693834561487400,0.6954873046875,7.566002368927002,6.234452724456787,-0.23998664319515228
1763693834571595500,0.705595458984375,7.564101696014404,6.236690521240234,-0.2417583465576172
1763693834581675500,0.715675537109375,7.560940742492676,6.24050760269165,-0.24212327599525452
1763693834591755800,0.725755859375,7.559469223022461,6.242164611816406,-0.2453281134366989
1763693834611292200,0.745292236328125,7.565056800842285,6.2353081703186035,-0.24743309617042542
1763693834621372400,0.755372314453125,7.567439079284668,6.232379913330078,-0.2483910322189331
1763693834631443700,0.765443603515625,7.564775466918945,6.235674858093262,-0.2468031644821167
1763693834671745300,0.805745361328125,7.564685344696045,6.23583459854126,-0.24551579356193542
1763693834681825300,0.8158251953125,7.564728260040283,6.235827922821045,-0.244386687874794
1763693834691990300,0.825990234375,7.562783241271973,6.238205432891846,-0.24389860033988953
1763693834702070300,0.8360703125,7.56301212310791,6.237892150878906,-0.24478569626808167
1763693834712150500,0.846150634765625,7.564194202423096,6.236499786376953,-0.24373213946819305
1763693834722169000,0.856169189453125,7.565924167633057,6.234327793121338,-0.2456473857164383
1763693834742329000,0.8763291015625,7.56309175491333,6.237663269042969,-0.24819514155387878
1763693834752395800,0.886395751953125,7.561160564422607,6.239917755126953,-0.25034236907958984
1763693834762475800,0.896475830078125,7.559136867523193,6.242456436157227,-0.24811190366744995
1763693834772555800,0.9065556640625,7.560352802276611,6.241048336029053,-0.24653373658657074
1763693834782633200,0.91663330078125,7.565506458282471,6.234861373901367,-0.2449793666601181
1763693834792713200,0.926713134765625,7.569182395935059,6.230518341064453,-0.24186158180236816
1763693834802793200,0.936793212890625,7.568099021911621,6.231854438781738,-0.24133636057376862
1763693834812874000,0.9468740234375,7.562533855438232,6.238621711730957,-0.24098318815231323
1763693834822954000,0.9569541015625,7.556281089782715,6.246169567108154,-0.2416120022535324
1763693834833034200,0.9670341796875,7.55692195892334,6.24529504776001,-0.2441510409116745
1763693834843169500,0.97716943359375,7.564842224121094,6.2357025146484375,-0.2440454661846161
1763693834853249500,0.98724951171875,7.573390960693359,6.225254058837891,-0.2456468790769577
1763693834863329500,0.99732958984375,7.575155735015869,6.223007678985596,-0.2481357604265213
1763693834873356000,1.00735595703125,7.569266319274902,6.230128765106201,-0.24918018281459808
1763693834883436000,1.01743603515625,7.560343265533447,6.2408881187438965,-0.25080588459968567
1763693834893516000,1.02751611328125,7.554391860961914,6.248141765594482,-0.24953104555606842
1763693834903629600,1.037629638671875,7.557168960571289,6.244905948638916,-0.24645455181598663
1763693834913709600,1.04770947265625,7.566744327545166,6.2333502769470215,-0.24519965052604675
1763693834923789600,1.05778955078125,7.57359504699707,6.225107669830322,-0.2430907040834427
1763693834933832000,1.06783203125,7.572162628173828,6.226861476898193,-0.24274539947509766
1763693834943912000,1.077911865234375,7.563087463378906,6.237848281860352,-0.2436056286096573
1763693834953992000,1.087991943359375,7.553953170776367,6.248907566070557,-0.24358795583248138
1763693834964085500,1.09808544921875,7.553348541259766,6.249582290649414,-0.2450145035982132
1763693834974165500,1.10816552734375,7.56143045425415,6.2397260665893555,-0.24692396819591522
1763693834984245500,1.11824560546875,7.569637298583984,6.229678153991699,-0.24916867911815643
1763693834994340600,1.128340576171875,7.570230007171631,6.228872776031494,-0.2513042986392975
1763693835004420600,1.138420654296875,7.564139366149902,6.236299514770508,-0.25050023198127747
1763693835014500600,1.14850048828125,7.557168483734131,6.244748115539551,-0.25043243169784546
1763693835024570400,1.1585703125,7.554800033569336,6.2476277351379395,-0.2500593066215515
1763693835034650400,1.168650390625,7.558072566986084,6.243720054626465,-0.24876375496387482
1763693835044730400,1.17873046875,7.563467979431152,6.23715353012085,-0.24953310191631317
1763693835054835700,1.188835693359375,7.5655646324157715,6.234652519226074,-0.24845193326473236
1763693835064915700,1.198915771484375,7.562989234924316,6.237888336181641,-0.24561218917369843
1763693835074995700,1.20899560546875,7.5598626136779785,6.241702079772949,-0.2449861317873001
1763693835085073400,1.219073486328125,7.559436321258545,6.242244243621826,-0.24434207379817963
1763693835095153400,1.2291533203125,7.562442302703857,6.23854398727417,-0.24580521881580353
1763693835105233700,1.239233642578125,7.5652756690979,6.235008716583252,-0.24831369519233704
1763693835115293700,1.249293701171875,7.563379287719727,6.237289905548096,-0.24879689514636993
1763693835125373700,1.259373779296875,7.559517860412598,6.241948127746582,-0.2493329495191574
1763693835135453700,1.26945361328125,7.557775020599365,6.24408483505249,-0.2486678659915924
1763693835145543200,1.279543212890625,7.5603790283203125,6.2409491539001465,-0.24821408092975616
1763693835155623200,1.289623046875,7.564404487609863,6.236000061035156,-0.24994011223316193
1763693835165703200,1.299703125,7.565792083740234,6.234368324279785,-0.24866610765457153
1763693835175755800,1.309755859375,7.563601970672607,6.237044334411621,-0.2481612116098404
1763693835185835800,1.319835693359375,7.559920787811279,6.2415080070495605,-0.2481020987033844
1763693835195915800,1.329915771484375,7.557086944580078,6.2449822425842285,-0.24700772762298584
1763693835206033000,1.340032958984375,7.556553363800049,6.2455830574035645,-0.24816752970218658
1763693835216113000,1.35011279296875,7.561126232147217,6.240023136138916,-0.24874478578567505
1763693835226193200,1.360193115234375,7.566748142242432,6.23325252532959,-0.24753902852535248
1763693835236279000,1.370279052734375,7.568186283111572,6.231473922729492,-0.24834948778152466
1763693835246359000,1.380359130859375,7.564800262451172,6.23560094833374,-0.2479267716407776
1763693835266496800,1.400496826171875,7.556507110595703,6.2455058097839355,-0.251482218503952
1763693835276576800,1.41057666015625,7.5596208572387695,6.241746425628662,-0.25122982263565063
1763693835286656800,1.42065673828125,7.563859939575195,6.236577033996582,-0.25199833512306213
1763693835296725500,1.4307255859375,7.566046237945557,6.2339372634887695,-0.2516973614692688
1763693835306805500,1.440805419921875,7.564292907714844,6.236152172088623,-0.24956797063350677
1763693835316885500,1.450885498046875,7.5609002113342285,6.240214824676514,-0.250792920589447
1763693835327001900,1.461001953125,7.5583696365356445,6.243328094482422,-0.24955347180366516
1763693835337081900,1.471081787109375,7.558159828186035,6.243649005889893,-0.2478892207145691
1763693835347161900,1.481161865234375,7.561440467834473,6.239678382873535,-0.2478373646736145
1763693835357308000,1.491307861328125,7.5648512840271,6.235657691955566,-0.2448979616165161
1763693835367388000,1.501387939453125,7.565724849700928,6.2346086502075195,-0.2446417659521103
1763693835377468000,1.511468017578125,7.56373929977417,6.236960411071777,-0.2460479885339737
1763693835387478800,1.521478759765625,7.5605692863464355,6.240811347961426,-0.24586717784404755
1763693835397558800,1.531558837890625,7.559565544128418,6.241889953613281,-0.24931888282299042
1763693835407638800,1.541638671875,7.560495376586914,6.240742206573486,-0.24988847970962524
1763693835417761800,1.55176171875,7.560686111450195,6.240511894226074,-0.24983835220336914
1763693835427841800,1.561841796875,7.561244487762451,6.239731311798096,-0.25243398547172546
1763693835437921800,1.571921875,7.562004566192627,6.238890647888184,-0.2504412829875946
1763693835447949000,1.581948974609375,7.563283443450928,6.237364292144775,-0.24983352422714233
1763693835458029000,1.592029052734375,7.5639238357543945,6.236571311950684,-0.25025179982185364
1763693835468109000,1.602109130859375,7.562431812286377,6.238502502441406,-0.2471923977136612
1763693835478177800,1.612177734375,7.560595512390137,6.240711212158203,-0.24759556353092194
1763693835488257800,1.6222578125,7.559387683868408,6.242210388183594,-0.2467089742422104
1763693835498338000,1.632338134765625,7.559536933898926,6.242091178894043,-0.24515213072299957
1763693835508455000,1.642454833984375,7.561521530151367,6.239616394042969,-0.24692924320697784
1763693835518535000,1.652534912109375,7.563349723815918,6.237435340881348,-0.2460213601589203
1763693835528615000,1.662614990234375,7.564484596252441,6.235994815826416,-0.24764199554920197
1763693835538711600,1.672711669921875,7.564169406890869,6.236290454864502,-0.24979466199874878
1763693835548791600,1.68279150390625,7.561512470245361,6.239544868469238,-0.24900037050247192
1763693835558871800,1.692871826171875,7.559380054473877,6.242035865783691,-0.2512897849082947
1763693835568926000,1.702926025390625,7.560027599334717,6.241270542144775,-0.2508111894130707
1763693835579006000,1.713005859375,7.5619659423828125,6.238986968994141,-0.24923448264598846
1763693835589086000,1.7230859375,7.564031600952148,6.236466884613037,-0.24954956769943237
1763693835599168500,1.73316845703125,7.564268112182617,6.2362775802612305,-0.24714750051498413
1763693835609248500,1.74324853515625,7.564274311065674,6.236259460449219,-0.24739518761634827
1763693835619328500,1.75332861328125,7.5641188621521,6.236417293548584,-0.24817363917827606
1763693835629417200,1.763417236328125,7.563791275024414,6.236880779266357,-0.24647663533687592
1763693835639497200,1.773497314453125,7.562391757965088,6.238515377044678,-0.24804195761680603
1763693835649577200,1.7835771484375,7.560329914093018,6.2410125732421875,-0.24810238182544708
1763693835659657200,1.7936572265625,7.559820175170898,6.241631507873535,-0.24809050559997559
1763693835669709800,1.803709716796875,7.56217098236084,6.238694190979004,-0.25028613209724426
1763693835679790000,1.8137900390625,7.565478801727295,6.234708786010742,-0.24961282312870026
1763693835689870000,1.8238701171875,7.567688941955566,6.232033729553223,-0.24947012960910797
1763693835700545000,1.834544921875,7.566077709197998,6.233989715576172,-0.2494525909423828
1763693835710625300,1.844625244140625,7.561006546020508,6.240264415740967,-0.24629844725131989
1763693835720705300,1.854705322265625,7.557205677032471,6.2449212074279785,-0.24492068588733673
1763693835740269600,1.87426953125,7.566830635070801,6.233312129974365,-0.24347124993801117
1763693835750349800,1.884349853515625,7.570171356201172,6.2291951179504395,-0.24501554667949677
1763693835760997400,1.894997314453125,7.569225788116455,6.2303571701049805,-0.24465949833393097
1763693835771077600,1.90507763671875,7.564843654632568,6.23569393157959,-0.24422819912433624
1763693835781157600,1.91515771484375,7.5608296394348145,6.24050760269165,-0.24555522203445435
1763693835791274200,1.925274169921875,7.560993671417236,6.240314483642578,-0.24543718993663788
1763693835801354200,1.935354248046875,7.5643720626831055,6.236152648925781,-0.24711279571056366
1763693835811434500,1.9454345703125,7.569708347320557,6.229616641998291,-0.2485353946685791
1763693835821493200,1.9554931640625,7.573673725128174,6.224912643432617,-0.24559444189071655
1763693835831573200,1.9655732421875,7.57265567779541,6.226181507110596,-0.244810551404953
1763693835841653500,1.975653564453125,7.568122386932373,6.231682777404785,-0.24504712224006653
1763693835851720700,1.985720703125,7.56396484375,6.236708641052246,-0.2455437332391739
1763693835861801000,1.995801025390625,7.563621997833252,6.23703670501709,-0.2477562129497528
1763693835871881000,2.005880859375,7.5657243728637695,6.2345380783081055,-0.24644680321216583
1763693835881416400,2.01541650390625,7.568531513214111,6.231236934661865,-0.24372485280036926
1763693835891496400,2.025496337890625,7.570678234100342,6.228646755218506,-0.24327649176120758
1763693835901576700,2.03557666015625,7.568450450897217,6.231424808502197,-0.24144919216632843
1763693835911604700,2.045604736328125,7.563116073608398,6.237846851348877,-0.24274733662605286
1763693835921684700,2.055684814453125,7.5588836669921875,6.24287223815918,-0.24535684287548065
1763693835931765000,2.065764892578125,7.560210704803467,6.241299629211426,-0.24451111257076263
1763693835941899500,2.0758994140625,7.563650131225586,6.237061977386475,-0.24626664817333221
1763693835951979800,2.085979736328125,7.565875053405762,6.234353065490723,-0.2465265542268753
1763693835962059800,2.096059814453125,7.565140724182129,6.2352681159973145,-0.24592135846614838
1763693835972125200,2.106125244140625,7.562155246734619,6.238765239715576,-0.24900342524051666
1763693835982205400,2.116205322265625,7.55889892578125,6.242750644683838,-0.24798399209976196
1763693835992285400,2.126285400390625,7.559427738189697,6.242155075073242,-0.24686792492866516
1763693836002345700,2.136345703125,7.564883232116699,6.235568046569824,-0.24619774520397186
1763693836012426000,2.146426025390625,7.570321083068848,6.229059219360352,-0.24383018910884857
1763693836022506000,2.156506103515625,7.570262432098389,6.229090213775635,-0.24486063420772552
1763693836032576800,2.16657666015625,7.56450080871582,6.23604679107666,-0.24582524597644806
1763693836042657000,2.176656982421875,7.557237148284912,6.2448883056640625,-0.24476483464241028
1763693836052737000,2.186737060546875,7.5557332038879395,6.246659278869629,-0.2460361272096634
1763693836062824400,2.196824462890625,7.562017917633057,6.239068984985352,-0.24553830921649933
1763693836072904700,2.20690478515625,7.568724632263184,6.2309184074401855,-0.2458798587322235
1763693836082984700,2.216984619140625,7.570133686065674,6.229137897491455,-0.24756979942321777
1763693836093046000,2.2270458984375,7.565718173980713,6.2345147132873535,-0.24722278118133545
1763693836103126000,2.2371259765625,7.559425354003906,6.242119312286377,-0.2478519082069397
1763693836113206300,2.247206298828125,7.556750774383545,6.245349884033203,-0.24801978468894958
1763693836123313200,2.257313232421875,7.560319423675537,6.241082191467285,-0.2466718554496765
1763693836133393400,2.267393310546875,7.568047523498535,6.231624603271484,-0.24877963960170746
1763693836143473400,2.277473388671875,7.5723724365234375,6.226381301879883,-0.2484864443540573
1763693836153555200,2.28755517578125,7.567314624786377,6.232575416564941,-0.24726928770542145
1763693836163635200,2.29763525390625,7.559169769287109,6.242445945739746,-0.24739611148834229
1763693836173715500,2.307715576171875,7.5573625564575195,6.244749546051025,-0.2444622665643692
1763693836183776800,2.31777685546875,7.561129570007324,6.240232944488525,-0.24334175884723663
1763693836193856800,2.327856689453125,7.566097736358643,6.234194278717041,-0.24365752935409546
1763693836203937000,2.33793701171875,7.568979740142822,6.230737686157227,-0.2425614446401596
1763693836214037200,2.348037353515625,7.567422866821289,6.23258638381958,-0.24364373087882996
1763693836224117500,2.358117431640625,7.5633392333984375,6.237537860870361,-0.24370749294757843
1763693836234197500,2.368197509765625,7.560078144073486,6.241542339324951,-0.24239258468151093
1763693836244249000,2.3782490234375,7.56113862991333,6.240145206451416,-0.24527567625045776
1763693836254329000,2.3883291015625,7.5662841796875,6.233851432800293,-0.2466302216053009
1763693836264409000,2.3984091796875,7.569939136505127,6.2293477058410645,-0.24824859201908112
1763693836274517200,2.408517333984375,7.5684123039245605,6.231144428253174,-0.24971561133861542
1763693836284597200,2.41859716796875,7.563870429992676,6.236762046813965,-0.24711067974567413
1763693836294677200,2.42867724609375,7.55978536605835,6.241761207580566,-0.2458590418100357
1763693836304735000,2.43873486328125,7.562965393066406,6.237897872924805,-0.24612604081630707
1763693836314815000,2.44881494140625,7.570411205291748,6.22892427444458,-0.24449007213115692
1763693836324895000,2.45889501953125,7.5727105140686035,6.226093769073486,-0.24534451961517334
1763693836345042400,2.47904248046875,7.563385486602783,6.237560272216797,-0.2417154759168625
1763693836355122400,2.489122314453125,7.5630574226379395,6.237861633300781,-0.24418948590755463
1763693836365244200,2.499244140625,7.568495273590088,6.2312164306640625,-0.24534796178340912
1763693836375324200,2.50932421875,7.5731682777404785,6.225416660308838,-0.24840687215328217
1763693836385404200,2.519404052734375,7.57396125793457,6.224283218383789,-0.2525845468044281
1763693836395499000,2.5294990234375,7.567829132080078,6.2317705154418945,-0.2517372667789459
1763693836405579000,2.5395791015625,7.558877468109131,6.242626667022705,-0.2517574727535248
1763693836415659300,2.5496591796875,7.556039333343506,6.246091842651367,-0.2509823143482208
1763693836425683000,2.559682861328125,7.560882568359375,6.240309238433838,-0.24892979860305786
1763693836435763000,2.569762939453125,7.56907844543457,6.230296611785889,-0.25070345401763916
1763693836445843200,2.57984326171875,7.57362174987793,6.224826812744141,-0.24934931099414825
1763693836455929900,2.589929931640625,7.5695905685424805,6.229857444763184,-0.2460944950580597
1763693836466009900,2.600009765625,7.561922073364258,6.239171504974365,-0.24587006866931915
1763693836476089900,2.61008984375,7.557427883148193,6.244673728942871,-0.2443670928478241
1763693836496233500,2.6302333984375,7.567786693572998,6.231865882873535,-0.2506771385669708
1763693836506313700,2.640313720703125,7.572264194488525,6.226431369781494,-0.2505291700363159
1763693836516415500,2.65041552734375,7.569405555725098,6.229838848114014,-0.25216928124427795
1763693836526495700,2.660495849609375,7.562652587890625,6.237986087799072,-0.2533876597881317
1763693836536575700,2.67057568359375,7.558332920074463,6.24324369430542,-0.252781480550766
1763693836546692400,2.6806923828125,7.560770034790039,6.240169525146484,-0.2557693123817444
1763693836556772600,2.690772705078125,7.567825794219971,6.231656551361084,-0.25466081500053406
1763693836566852600,2.7008525390625,7.572447299957275,6.2261481285095215,-0.2520107626914978
1763693836576881400,2.71088134765625,7.571287631988525,6.227606773376465,-0.2508354187011719
1763693836586961700,2.720961669921875,7.565023422241211,6.235393524169922,-0.24630393087863922
1763693836597041700,2.731041748046875,7.55963659286499,6.241918087005615,-0.24644684791564941
1763693836607155700,2.74115576171875,7.561244964599609,6.2398881912231445,-0.2485361099243164
1763693836617235700,2.751235595703125,7.5664238929748535,6.233670711517334,-0.2469196766614914
1763693836627315700,2.761315673828125,7.569231986999512,6.230067729949951,-0.2517450749874115
1763693836637392100,2.77139208984375,7.570608615875244,6.228392124176025,-0.2517823874950409
1763693836647472400,2.781472412109375,7.5663838386535645,6.233478546142578,-0.2529231309890747
1763693836657552400,2.791552490234375,7.562073230743408,6.238462448120117,-0.25887683033943176
1763693836667607800,2.80160791015625,7.5625128746032715,6.237921237945557,-0.25909844040870667
1763693836677687800,2.811687744140625,7.568277359008789,6.230894565582275,-0.259868860244751
1763693836687767800,2.821767822265625,7.572953224182129,6.225250244140625,-0.25891053676605225
1763693836697866200,2.8318662109375,7.570909023284912,6.228001594543457,-0.2524418532848358
1763693836707946200,2.8419462890625,7.5648016929626465,6.235515117645264,-0.2500331699848175
1763693836718026200,2.852026123046875,7.559371471405029,6.2422261238098145,-0.24677987396717072
1763693836728081400,2.862081298828125,7.560445785522461,6.241074085235596,-0.24296464025974274
1763693836738161400,2.872161376953125,7.567711353302002,6.232254981994629,-0.24317854642868042
1763693836748241400,2.882241455078125,7.573824882507324,6.224931716918945,-0.24037402868270874
1763693836758413000,2.8924130859375,7.5745015144348145,6.224130630493164,-0.23981328308582306
1763693836768493000,2.9024931640625,7.570365905761719,6.228976726531982,-0.24452507495880127
1763693836778573300,2.9125732421875,7.565244197845459,6.235052108764648,-0.24819494783878326
1763693836798663000,2.932662841796875,7.5642523765563965,6.2358078956604,-0.25917068123817444
1763693836808743200,2.9427431640625,7.570733547210693,6.227932929992676,-0.25927433371543884
1763693836818859000,2.95285888671875,7.574184894561768,6.223740577697754,-0.2591453492641449
1763693836828939000,2.96293896484375,7.5717453956604,6.226807117462158,-0.2567683160305023
1763693836839019300,2.973019287109375,7.566842555999756,6.23287296295166,-0.25408652424812317
1763693836849056500,2.983056396484375,7.563637733459473,6.236821174621582,-0.25266000628471375
1763693836859136800,2.99313671875,7.565937042236328,6.234210968017578,-0.2481772005558014
1763693836869216800,3.003216796875,7.571126937866211,6.228034496307373,-0.2449806183576584
1763693836879329800,3.013329833984375,7.574358940124512,6.2241411209106445,-0.24400167167186737
1763693836889409800,3.023409912109375,7.572817325592041,6.226077556610107,-0.2424733191728592
1763693836899490000,3.033489990234375,7.568212985992432,6.231557369232178,-0.24545060098171234
1763693836910145500,3.0441455078125,7.565973281860352,6.234138488769531,-0.24891942739486694
1763693836920225800,3.054225830078125,7.5677266120910645,6.2319488525390625,-0.2504192292690277
1763693836930305800,3.064305908203125,7.571116924285889,6.227688789367676,-0.25390806794166565
1763693836949850000,3.08385009765625,7.570858001708984,6.227950572967529,-0.2551901042461395
1763693836959930000,3.09393017578125,7.565467834472656,6.2344584465026855,-0.2561447024345398
1763693836970634200,3.10463427734375,7.561791896820068,6.239020347595215,-0.2535771131515503
1763693836980714200,3.11471435546875,7.562867164611816,6.237799167633057,-0.25159820914268494
1763693836990794200,3.124794189453125,7.568828105926514,6.230648040771484,-0.2494974285364151
1763693837010354400,3.1443544921875,7.568040370941162,6.231664180755615,-0.24801667034626007
1763693837020434400,3.154434326171875,7.561272144317627,6.239866256713867,-0.24822476506233215
1763693837031082800,3.165082763671875,7.558879852294922,6.242804050445557,-0.24724438786506653
1763693837041162800,3.175162841796875,7.562422275543213,6.238405704498291,-0.24987678229808807
1763693837051242800,3.18524267578125,7.568685054779053,6.230822563171387,-0.24949447810649872
1763693837061314300,3.195314208984375,7.571046829223633,6.2279510498046875,-0.24953193962574005
1763693837071394300,3.205394287109375,7.568363666534424,6.231124401092529,-0.25171250104904175
1763693837081474300,3.215474365234375,7.562852382659912,6.23786735534668,-0.2503170967102051
1763693837101051000,3.23505078125,7.559083461761475,6.242395401000977,-0.2512996792793274
1763693837111131000,3.245130859375,7.5669074058532715,6.233024597167969,-0.2484171986579895
1763693837121256000,3.255255859375,7.573825836181641,6.224606990814209,-0.24861526489257812
1763693837131336000,3.2653359375,7.574284553527832,6.224082946777344,-0.24779078364372253
1763693837141416000,3.275416015625,7.567310333251953,6.2325592041015625,-0.247812882065773
1763693837151442200,3.285442138671875,7.559838771820068,6.241510391235352,-0.2505436837673187
1763693837161522400,3.2955224609375,7.557716369628906,6.244115352630615,-0.2496659904718399
1763693837171602400,3.3056025390625,7.561305999755859,6.239756107330322,-0.24996685981750488
1763693837181707500,3.31570751953125,7.56792688369751,6.231673240661621,-0.25125324726104736
1763693837191787500,3.32578759765625,7.572495937347412,6.2262067794799805,-0.24906469881534576
1763693837201867500,3.335867431640625,7.571619987487793,6.227240085601807,-0.24987632036209106
1763693837211964000,3.3459638671875,7.565586090087891,6.234554290771484,-0.2502581775188446
1763693837222044000,3.3560439453125,7.5584397315979,6.243285179138184,-0.24854791164398193
1763693837232124000,3.3661240234375,7.5576066970825195,6.244245529174805,-0.24972347915172577
1763693837242184000,3.376183837890625,7.564220428466797,6.236270904541016,-0.24875639379024506
1763693837252264200,3.38626416015625,7.570527076721191,6.228607177734375,-0.24892063438892365
1763693837262344200,3.39634423828125,7.570633888244629,6.228397846221924,-0.2509019076824188
1763693837272434700,3.4064345703125,7.565731525421143,6.234402179718018,-0.2496642917394638
1763693837282514700,3.4165146484375,7.561070442199707,6.240067958831787,-0.24931453168392181
1763693837292595000,3.426594970703125,7.561373233795166,6.239722728729248,-0.2487376630306244
1763693837302682400,3.436682373046875,7.5649895668029785,6.235441207885742,-0.24616050720214844
1763693837312762400,3.446762451171875,7.567350387573242,6.232479572296143,-0.2485882043838501
1763693837322842600,3.456842529296875,7.568073272705078,6.231571197509766,-0.24934351444244385
1763693837332898600,3.466898681640625,7.566300392150879,6.2337751388549805,-0.24807371199131012
1763693837342978600,3.476978515625,7.563049793243408,6.237687110900879,-0.24885067343711853
1763693837353058600,3.48705859375,7.563017845153809,6.237757205963135,-0.24804110825061798
1763693837363143400,3.497143310546875,7.565878391265869,6.234270095825195,-0.24850279092788696
1763693837373223400,3.507223388671875,7.569095611572266,6.230244159698486,-0.2514704763889313
1763693837393361400,3.527361328125,7.562987327575684,6.237652778625488,-0.25159767270088196
1763693837403441400,3.53744140625,7.561241626739502,6.2397637367248535,-0.2516965866088867
1763693837413521700,3.547521728515625,7.563831329345703,6.236659049987793,-0.2508543133735657
1763693837423601700,3.5576015625,7.567418098449707,6.23229455947876,-0.2511657774448395
1763693837433681700,3.567681640625,7.570456027984619,6.2286458015441895,-0.25010013580322266
1763693837443761700,3.57776171875,7.570984840393066,6.22806453704834,-0.24854516983032227
1763693837453845200,3.58784521484375,7.568973064422607,6.230525493621826,-0.24817603826522827
1763693837463925200,3.59792529296875,7.567544937133789,6.232369899749756,-0.24537305533885956
1763693837474005500,3.608005615234375,7.566603183746338,6.233497619628906,-0.24577799439430237
1763693837484084500,3.61808447265625,7.567417144775391,6.232394218444824,-0.24868978559970856
1763693837504244500,3.638244384765625,7.572548866271973,6.22610330581665,-0.2500457465648651
1763693837514380300,3.64838037109375,7.575065612792969,6.222936153411865,-0.2526370882987976
1763693837524460300,3.658460205078125,7.576290130615234,6.221404075622559,-0.2537021040916443
1763693837534540500,3.66854052734375,7.574064254760742,6.22394323348999,-0.2578073740005493
1763693837544540700,3.678540771484375,7.569885730743408,6.228930473327637,-0.2600889801979065
1763693837554620700,3.68862060546875,7.565875053405762,6.233856678009033,-0.2587343752384186
1763693837564700700,3.69870068359375,7.566227912902832,6.233456134796143,-0.2580622136592865
1763693837574792200,3.708792236328125,7.571442127227783,6.227261066436768,-0.2546982765197754
1763693837584872200,3.7188720703125,7.575788497924805,6.222075939178467,-0.2521766722202301
1763693837594952200,3.7289521484375,7.576873779296875,6.220798969268799,-0.25106731057167053
1763693837605059000,3.73905908203125,7.573375701904297,6.225209712982178,-0.24724537134170532
1763693837615139000,3.74913916015625,7.567354679107666,6.232604503631592,-0.24528749287128448
1763693837625219000,3.759218994140625,7.564621448516846,6.235929489135742,-0.24507559835910797
1763693837635323100,3.7693232421875,7.566095352172852,6.234149932861328,-0.24488604068756104
1763693837645403400,3.7794033203125,7.5706400871276855,6.228454113006592,-0.24929872155189514
1763693837655483400,3.7894833984375,7.575467586517334,6.222476005554199,-0.2519504129886627
1763693837665566000,3.79956591796875,7.575110912322998,6.222803592681885,-0.2545773684978485
1763693837675646200,3.809646240234375,7.569924831390381,6.228909969329834,-0.2594238817691803
1763693837685726200,3.819726318359375,7.564273357391357,6.23569917678833,-0.2611446678638458
1763693837695802600,3.829802734375,7.5620293617248535,6.2383551597595215,-0.26272985339164734
1763693837705882600,3.839882568359375,7.5642242431640625,6.235653877258301,-0.2636711001396179
1763693837715962600,3.849962646484375,7.56944465637207,6.229487895965576,-0.25957146286964417
1763693837726068000,3.86006787109375,7.573744297027588,6.224426746368408,-0.2555577754974365
1763693837736148200,3.870148193359375,7.574038028717041,6.224301338195801,-0.2498108297586441
1763693837746228500,3.880228515625,7.56962776184082,6.229905128479004,-0.24374136328697205
1763693837756250000,3.89025,7.564563751220703,6.236110687255859,-0.24227756261825562
1763693837766330400,3.900330322265625,7.5628581047058105,6.238271236419678,-0.23986075818538666
1763693837786481000,3.92048095703125,7.566408634185791,6.233880043029785,-0.24203088879585266
1763693837796561200,3.93056103515625,7.5697431564331055,6.229784965515137,-0.2432250678539276
1763693837806641200,3.94064111328125,7.569352626800537,6.230067729949951,-0.24807238578796387
1763693837816735000,3.95073486328125,7.567393779754639,6.232223987579346,-0.2536008358001709
1763693837826815200,3.960815185546875,7.565038681030273,6.234999179840088,-0.25568076968193054
1763693837836895500,3.9708955078125,7.562870025634766,6.237484455108643,-0.2591777741909027
1763693837846977300,3.980977294921875,7.5633087158203125,6.236942291259766,-0.2594273090362549
1763693837857057500,3.9910576171875,7.566840648651123,6.23280143737793,-0.25592347979545593
1763693837867137500,4.001137451171875,7.570731163024902,6.228115558624268,-0.25493302941322327
1763693837877237200,4.0112373046875,7.571764945983887,6.227015495300293,-0.25107622146606445
1763693837887317200,4.021317138671875,7.569990634918213,6.229275703430176,-0.24851123988628387
1763693837897397500,4.0313974609375,7.566821575164795,6.233189105987549,-0.24690096080303192
1763693837907453700,4.04145361328125,7.563125133514404,6.237826824188232,-0.242989644408226
1763693837917534000,4.051533935546875,7.561216831207275,6.24017858505249,-0.24199585616588593
1763693837927614000,4.061614013671875,7.564087390899658,6.2366790771484375,-0.24247409403324127
1763693837937713000,4.071712890625,7.569814205169678,6.229726791381836,-0.24250668287277222
1763693837947793200,4.081793212890625,7.573863506317139,6.224625587463379,-0.24700400233268738
1763693837957873200,4.091873046875,7.573935508728027,6.224417209625244,-0.250026673078537
1763693837967921200,4.101921142578125,7.568929672241211,6.23046875,-0.25092068314552307
1763693837978001200,4.112001220703125,7.563446998596191,6.236982345581055,-0.25437259674072266
1763693837988081400,4.122081298828125,7.563082218170166,6.237431049346924,-0.25421255826950073
1763693837998167800,4.132167724609375,7.567105770111084,6.2325215339660645,-0.2549244165420532
1763693838008248000,4.142248046875,7.571434020996094,6.227227210998535,-0.2557434141635895
1763693838018328000,4.152328125,7.572195529937744,6.226502418518066,-0.2508246898651123
1763693838028458800,4.162458740234375,7.568753242492676,6.230851173400879,-0.24669107794761658
1763693838038539000,4.1725390625,7.56638240814209,6.23383903503418,-0.24391025304794312
1763693838048619000,4.182618896484375,7.567710876464844,6.232354640960693,-0.24058805406093597
1763693838058665000,4.1926650390625,7.570856094360352,6.228427410125732,-0.24335266649723053
1763693838068745000,4.202744873046875,7.572992324829102,6.225743770599365,-0.24552099406719208
1763693838078825200,4.2128251953125,7.571299076080322,6.227798938751221,-0.24566107988357544
1763693838088934400,4.222934326171875,7.568211555480957,6.231475353240967,-0.2475128173828125
1763693838099014700,4.2330146484375,7.567513942718506,6.232323169708252,-0.24755747616291046
1763693838109094700,4.2430947265625,7.568591117858887,6.230931758880615,-0.2496153563261032
1763693838119159300,4.2531591796875,7.571081161499023,6.2277421951293945,-0.25367438793182373
1763693838129239600,4.263239501953125,7.572166919708252,6.226449966430664,-0.25294405221939087
1763693838139319600,4.273319580078125,7.56927490234375,6.229969024658203,-0.25290152430534363
1763693838149401000,4.283401123046875,7.566340446472168,6.233652114868164,-0.24991001188755035
1763693838159481300,4.2934814453125,7.566655158996582,6.23343563079834,-0.24576406180858612
1763693838169561300,4.303561279296875,7.569952011108398,6.229371547698975,-0.24728679656982422
1763693838179641600,4.3136416015625,7.5733323097229,6.225274562835693,-0.24694772064685822
1763693838189702100,4.3237021484375,7.573445796966553,6.225149154663086,-0.24665141105651855
1763693838199782400,4.333782470703125,7.570372581481934,6.2288384437561035,-0.2478235363960266
1763693838209862700,4.343862548828125,7.566827297210693,6.23318338394165,-0.24687722325325012
1763693838219929300,4.353929443359375,7.565018653869629,6.235293865203857,-0.2489788681268692
1763693838230009600,4.364009521484375,7.56830358505249,6.231179237365723,-0.2521195709705353
1763693838240089600,4.374089599609375,7.574069976806641,6.224142074584961,-0.252786785364151
1763693838250161700,4.38416162109375,7.577815532684326,6.219569683074951,-0.2531001567840576
1763693838260242000,4.394241943359375,7.578917980194092,6.2182745933532715,-0.2518925666809082
1763693838270322000,4.404322021484375,7.575916290283203,6.222003936767578,-0.2500811219215393
1763693838281016300,4.415016357421875,7.570322513580322,6.228756427764893,-0.25140073895454407
1763693838291096600,4.4250966796875,7.568058490753174,6.231548309326172,-0.25037986040115356
1763693838301176600,4.435176513671875,7.5693864822387695,6.22998046875,-0.24926377832889557
1763693838321325800,4.455325927734375,7.578815937042236,6.218554973602295,-0.24798911809921265
1763693838331406000,4.465406005859375,7.579013347625732,6.21830415725708,-0.24825452268123627
1763693838351591400,4.48559130859375,7.569534778594971,6.229763984680176,-0.25013402104377747
1763693838361671400,4.49567138671875,7.566773414611816,6.233036041259766,-0.2521883249282837
1763693838371723500,4.5057236328125,7.570138454437256,6.228912353515625,-0.2530759572982788
1763693838381803500,4.515803466796875,7.575611114501953,6.2222747802734375,-0.25258442759513855
1763693838391883800,4.5258837890625,7.579172611236572,6.217929363250732,-0.25276920199394226
1763693838411425500,4.545425537109375,7.572035312652588,6.2267746925354,-0.2488856464624405
1763693838421505800,4.555505859375,7.566075325012207,6.234011173248291,-0.24900378286838531
1763693838431674600,4.565674560546875,7.564092636108398,6.2364702224731445,-0.24763032793998718
1763693838441755000,4.5757548828125,7.566537857055664,6.233470916748047,-0.2484671026468277
1763693838451835000,4.5858349609375,7.5713276863098145,6.2276434898376465,-0.24870169162750244
1763693838461840100,4.595840087890625,7.573389053344727,6.225209712982178,-0.24681414663791656
1763693838471920400,4.60592041015625,7.571547031402588,6.227389335632324,-0.2483503669500351
1763693838482000400,4.61600048828125,7.568408012390137,6.2312116622924805,-0.2481844276189804
1763693838492070000,4.62606982421875,7.5657639503479,6.234402179718018,-0.24867798388004303
1763693838502150000,4.63614990234375,7.566627502441406,6.233209133148193,-0.2522733509540558
1763693838512230100,4.646230224609375,7.570112705230713,6.229004859924316,-0.25157609581947327
1763693838522335000,4.6563349609375,7.572074890136719,6.226606369018555,-0.2518766224384308
1763693838542495200,4.6764951171875,7.569056034088135,6.230293273925781,-0.25144460797309875
1763693838552545000,4.686544921875,7.56678581237793,6.2330241203308105,-0.2520885169506073
1763693838562625000,4.696625,7.567982196807861,6.23160982131958,-0.25113645195961
1763693838572705300,4.706705322265625,7.5698041915893555,6.229518413543701,-0.2480907142162323
1763693838582794200,4.716794189453125,7.5712127685546875,6.227781295776367,-0.2487175315618515
1763693838592874200,4.726874267578125,7.5711493492126465,6.227900981903076,-0.24764195084571838
1763693838602954500,4.73695458984375,7.569362163543701,6.2300920486450195,-0.2471630573272705
1763693838613021000,4.74702099609375,7.568009376525879,6.231687068939209,-0.24835923314094543
1763693838623101000,4.757100830078125,7.5694146156311035,6.230055809020996,-0.24651609361171722
1763693838633181200,4.76718115234375,7.573007106781006,6.2256245613098145,-0.24807754158973694
1763693838643315500,4.7773154296875,7.5747833251953125,6.22329044342041,-0.2523888945579529
1763693838653395500,4.7873955078125,7.5705976486206055,6.22833776473999,-0.2534809410572052
1763693838663475700,4.797475830078125,7.564175605773926,6.23604154586792,-0.25579386949539185
1763693838673564400,4.807564453125,7.562989234924316,6.237483024597168,-0.25573816895484924
1763693838683644400,4.81764453125,7.566652297973633,6.233131408691406,-0.2534087002277374
1763693838693724700,4.827724609375,7.572859764099121,6.225558280944824,-0.25420239567756653
1763693838703773400,4.8377734375,7.576779365539551,6.2208638191223145,-0.25230419635772705
1763693838713853700,4.847853759765625,7.573460102081299,6.224984645843506,-0.25030356645584106
1763693838723933700,4.85793359375,7.56693172454834,6.2329607009887695,-0.24927560985088348
1763693838734002000,4.868001953125,7.562297821044922,6.2387189865112305,-0.24579909443855286
1763693838744082000,4.87808203125,7.5623040199279785,6.238692283630371,-0.24628354609012604
1763693838754162000,4.888161865234375,7.568325519561768,6.231324195861816,-0.24788154661655426
1763693838764255000,4.8982548828125,7.575658321380615,6.222415447235107,-0.24766600131988525
1763693838774335000,4.9083349609375,7.577446937561035,6.220105171203613,-0.2509413957595825
1763693838784415000,4.9184150390625,7.572425842285156,6.2261786460876465,-0.251899778842926
1763693838794512000,4.928511962890625,7.56465482711792,6.2356061935424805,-0.25218310952186584
1763693838804591900,4.938591796875,7.5612335205078125,6.239559650421143,-0.25695595145225525
1763693838814672000,4.948671875,7.563706398010254,6.236525058746338,-0.2578465938568115
1763693838824770000,4.95877001953125,7.569555759429932,6.22943115234375,-0.25767263770103455
1763693838834850000,4.96885009765625,7.574608325958252,6.223337650299072,-0.25645601749420166
1763693838844930000,4.978929931640625,7.574447154998779,6.223677635192871,-0.25291916728019714
1763693838854988500,4.988988525390625,7.570540904998779,6.2284746170043945,-0.2518126368522644
1763693838865068500,4.999068603515625,7.5660576820373535,6.233998775482178,-0.24983547627925873
1763693838875148500,5.0091484375,7.564016819000244,6.236497402191162,-0.24926698207855225
1763693838885249000,5.0192490234375,7.565732479095459,6.23438835144043,-0.24994578957557678
1763693838895329000,5.0293291015625,7.570111274719238,6.229131698608398,-0.24842776358127594
1763693838905409000,5.039408935546875,7.574138164520264,6.22418212890625,-0.2497428059577942
1763693838915478300,5.049478271484375,7.572776794433594,6.225756645202637,-0.25176239013671875
1763693838925558300,5.059558349609375,7.568276882171631,6.231158256530762,-0.2534467279911041
1763693838935638300,5.06963818359375,7.565248012542725,6.234724998474121,-0.25614413619041443
1763693838945694700,5.07969482421875,7.56482458114624,6.235184192657471,-0.25747549533843994
1763693838955774700,5.089774658203125,7.568159103393555,6.231143951416016,-0.25730451941490173
1763693838965854700,5.099854736328125,7.570140361785889,6.228737831115723,-0.25727346539497375
1763693838975972400,5.109972412109375,7.568335056304932,6.23100471496582,-0.25549542903900146
1763693838986052400,5.12005224609375,7.5670485496521,6.232604503631592,-0.25456273555755615
1763693838996132400,5.13013232421875,7.567698955535889,6.231865882873535,-0.25332188606262207
1763693839006204700,5.14020458984375,7.570875644683838,6.228086471557617,-0.25131505727767944
1763693839016284700,5.15028466796875,7.573101997375488,6.225367546081543,-0.2516324818134308
1763693839026364700,5.16036474609375,7.571584224700928,6.2272419929504395,-0.2509002983570099
1763693839036433400,5.170433349609375,7.567929744720459,6.231658935546875,-0.25149768590927124
1763693839046513400,5.180513427734375,7.564980983734131,6.235165119171143,-0.2532929480075836
1763693839056593400,5.190593505859375,7.565370559692383,6.234628200531006,-0.25488176941871643
1763693839066641000,5.200640869140625,7.569802761077881,6.229170322418213,-0.2567448318004608
1763693839076721000,5.210720947265625,7.574072360992432,6.223883152008057,-0.259006530046463
1763693839086801000,5.22080078125,7.574368953704834,6.223505020141602,-0.25942641496658325
1763693839096853500,5.230853515625,7.570680141448975,6.227962493896484,-0.26015394926071167
1763693839106933500,5.24093359375,7.565121173858643,6.234683990478516,-0.2608804404735565
1763693839117013500,5.251013427734375,7.562399387359619,6.238008499145508,-0.26029032468795776
1763693839127153700,5.261153564453125,7.565659523010254,6.2341132164001465,-0.2588459849357605
1763693839137233700,5.271233642578125,7.573385715484619,6.224839210510254,-0.25612717866897583
1763693839147313700,5.281313720703125,7.578703880310059,6.218475818634033,-0.25336527824401855
1763693839157378000,5.2913779296875,7.575597763061523,6.2223124504089355,-0.2520621418952942
1763693839167458000,5.3014580078125,7.567193031311035,6.2325029373168945,-0.2527303099632263
1763693839177538000,5.3115380859375,7.559886455535889,6.241332054138184,-0.25352343916893005
1763693839187647500,5.3216474609375,7.559632301330566,6.241612434387207,-0.25422003865242004
1763693839197727500,5.3317275390625,7.567481517791748,6.232098579406738,-0.254100501537323
1763693839207807500,5.341807373046875,7.57585334777832,6.221930980682373,-0.25379738211631775
1763693839217866500,5.351866455078125,7.578647136688232,6.218482494354248,-0.25487425923347473
1763693839227946500,5.361946533203125,7.574041843414307,6.2240495681762695,-0.25590643286705017
1763693839238026500,5.372026611328125,7.565317630767822,6.234640598297119,-0.25615939497947693
1763693839248045300,5.38204541015625,7.5618486404418945,6.238858699798584,-0.25589117407798767
1763693839258125300,5.392125244140625,7.561471939086914,6.239459037780762,-0.25236082077026367
1763693839268205300,5.402205322265625,7.571199893951416,6.227518558502197,-0.25560352206230164
1763693839278376400,5.41237646484375,7.575583457946777,6.222281455993652,-0.2532203495502472
1763693839288456400,5.42245654296875,7.575287342071533,6.222474098205566,-0.25733089447021484
1763693839298536400,5.432536376953125,7.567439079284668,6.23198127746582,-0.25818774104118347
1763693839308539400,5.442539306640625,7.563189506530762,6.237096309661865,-0.25921007990837097
1763693839318619400,5.452619384765625,7.563775062561035,6.236454963684082,-0.257548451423645
1763693839328699400,5.462699462890625,7.569450378417969,6.229698181152344,-0.25431209802627563
1763693839338854000,5.47285400390625,7.5735273361206055,6.2248759269714355,-0.25097814202308655
1763693839348934000,5.482933837890625,7.57193660736084,6.2268500328063965,-0.2499876618385315
1763693839359014000,5.493013916015625,7.5696210861206055,6.229578495025635,-0.2521245777606964
1763693839369064000,5.50306396484375,7.569030284881592,6.23018741607666,-0.25482842326164246
1763693839379144000,5.51314404296875,7.571615695953369,6.226869106292725,-0.25908493995666504
1763693839389224000,5.523223876953125,7.571877956390381,6.22642183303833,-0.26214736700057983
1763693839399246600,5.53324658203125,7.5664896965026855,6.232982158660889,-0.26181119680404663
1763693839409326600,5.54332666015625,7.563462734222412,6.236633777618408,-0.2623208463191986
1763693839419406600,5.553406494140625,7.566182613372803,6.2334065437316895,-0.2605947256088257
1763693839429509400,5.56350927734375,7.571572780609131,6.2269673347473145,-0.2579805552959442
1763693839439589400,5.57358935546875,7.575990676879883,6.221706867218018,-0.25516799092292786
1763693839449669400,5.58366943359375,7.574644088745117,6.223631381988525,-0.24811197817325592
1763693839459784000,5.593783935546875,7.570519924163818,6.2289719581604,-0.23983056843280792
1763693839469864000,5.603864013671875,7.567013740539551,6.234034061431885,-0.2179722785949707
1763693839479944000,5.61394384765625,7.563934326171875,6.23894739151001,-0.18116027116775513
1763693839490024000,5.62402392578125,7.570295810699463,6.231273651123047,-0.1795453429222107
1763693839500115700,5.63411572265625,7.575562000274658,6.224769115447998,-0.18301229178905487
1763693839510195700,5.64419580078125,7.582009792327881,6.216559410095215,-0.19469405710697174
1763693839520275700,5.654275634765625,7.584381103515625,6.213173866271973,-0.20981734991073608
1763693839530355700,5.664355712890625,7.578567028045654,6.21945858001709,-0.23248359560966492
1763693839540436000,5.67443603515625,7.577250957489014,6.2207865715026855,-0.23975247144699097
1763693839550516000,5.684515869140625,7.577475547790527,6.2204132080078125,-0.24232670664787292
1763693839560596000,5.694595947265625,7.579051971435547,6.218494415283203,-0.2422465980052948
1763693839570676000,5.704676025390625,7.580497741699219,6.216714382171631,-0.2427225559949875
1763693839581298000,5.7152978515625,7.580239772796631,6.217010974884033,-0.24317361414432526
1763693839591378000,5.7253779296875,7.579306602478027,6.21808385848999,-0.24480745196342468
1763693839601458000,5.7354580078125,7.578596591949463,6.218958377838135,-0.2445874810218811
1763693839611009500,5.745009521484375,7.57765007019043,6.220091819763184,-0.24506984651088715
1763693839621089500,5.755089599609375,7.577390670776367,6.220209121704102,-0.2500806748867035
1763693839631169500,5.76516943359375,7.57743501663208,6.219907283782959,-0.2561745345592499
1763693839641249500,5.77524951171875,7.575470447540283,6.221996784210205,-0.26342129707336426
1763693839651327200,5.7853271484375,7.571579933166504,6.226169109344482,-0.2763875126838684
1763693839661407200,5.7954072265625,7.566195964813232,6.231904029846191,-0.2940090298652649
1763693839671487200,5.8054873046875,7.560101509094238,6.238485336303711,-0.3107225298881531
1763693839681519900,5.815519775390625,7.55447244644165,6.244518280029297,-0.32608550786972046
1763693839691600000,5.825599853515625,7.548731803894043,6.250476837158203,-0.34436047077178955
1763693839701679900,5.835679931640625,7.541435718536377,6.258096218109131,-0.36519038677215576
1763693839711803100,5.84580322265625,7.530374050140381,6.269970417022705,-0.3890249729156494
1763693839721883100,5.855883056640625,7.515931129455566,6.285712242126465,-0.4135196805000305
1763693839731963100,5.865963134765625,7.500248908996582,6.303088665008545,-0.4332747161388397
1763693839741968600,5.87596875,7.484453201293945,6.320961952209473,-0.4458619952201843
1763693839752048600,5.886048583984375,7.468774318695068,6.338943004608154,-0.45342081785202026
1763693839772265700,5.906265625,7.431524753570557,6.379506587982178,-0.4946947991847992
1763693839782345700,5.916345703125,7.407011032104492,6.404485702514648,-0.5377064943313599
1763693839792425700,5.92642578125,7.38758659362793,6.42315149307251,-0.5805819034576416
1763693839802485000,5.936485107421875,7.369996547698975,6.4391984939575195,-0.6247114539146423
1763693839812565000,5.94656494140625,7.355755805969238,6.451719760894775,-0.6622352600097656
1763693839822644700,5.956644775390625,7.345479488372803,6.460762023925781,-0.6876522302627563
1763693839832694000,5.966694091796875,7.3358869552612305,6.469753265380859,-0.7052936553955078
1763693839842774000,5.97677392578125,7.328501224517822,6.476991653442383,-0.7155641913414001
1763693839852854000,5.98685400390625,7.32560920715332,6.479762554168701,-0.7200844287872314
1763693839863025000,5.99702490234375,7.322200775146484,6.48205041885376,-0.7340189814567566
1763693839873105000,6.00710498046875,7.321133613586426,6.482758045196533,-0.7384088039398193
1763693839883184600,6.0171845703125,7.321789264678955,6.482060432434082,-0.7380298972129822
1763693839893225700,6.027225830078125,7.316097259521484,6.488118648529053,-0.7412300705909729
1763693839903305700,6.0373056640625,7.312835693359375,6.491962432861328,-0.7397575974464417
1763693839913385700,6.0473857421875,7.320775032043457,6.484498500823975,-0.7265768051147461
1763693839923447800,6.05744775390625,7.342414855957031,6.461953639984131,-0.7088720202445984
1763693839933527600,6.067527587890625,7.388589382171631,6.4109954833984375,-0.6915764808654785
1763693839943607600,6.077607666015625,7.4674553871154785,6.323503017425537,-0.6486976742744446
1763693839953707500,6.08770751953125,7.581151008605957,6.196011543273926,-0.553157389163971
1763693839963787500,6.09778759765625,7.725070953369141,6.026900768280029,-0.41246429085731506
1763693839973867500,6.107867431640625,7.882067680358887,5.828818321228027,-0.26130321621894836
1763693839983888600,6.117888671875,8.036205291748047,5.618951320648193,-0.13110220432281494
1763693839993968600,6.12796875,8.175233840942383,5.416168212890625,-0.03260365501046181
1763693840004048600,6.138048583984375,8.288801193237305,5.240718841552734,0.03205610811710358
1763693840014194200,6.148194091796875,8.37594223022461,5.100076198577881,0.056600380688905716
1763693840024274200,6.158274169921875,8.437451362609863,4.997862339019775,0.034275636076927185
1763693840034354200,6.168354248046875,8.476423263549805,4.931532382965088,-0.02520379051566124
1763693840044409600,6.17840966796875,8.496574401855469,4.895687580108643,-0.10420360416173935
1763693840054489600,6.188489501953125,8.503630638122559,4.8807477951049805,-0.19223350286483765
1763693840064569600,6.198569580078125,8.502583503723145,4.877986907958984,-0.2858482897281647
1763693840074664000,6.208663818359375,8.49878978729248,4.878910541534424,-0.370374858379364
1763693840084743700,6.21874365234375,8.499798774719238,4.871181488037109,-0.4420410394668579
1763693840094823700,6.22882373046875,8.512655258178711,4.841021537780762,-0.5192314386367798
1763693840104902100,6.238902099609375,8.538536071777344,4.784632682800293,-0.6091564297676086
1763693840114982100,6.248982177734375,8.570833206176758,4.712716102600098,-0.708167552947998
1763693840125062100,6.259062255859375,8.599254608154297,4.6425981521606445,-0.8182273507118225
1763693840135134500,6.269134521484375,8.614102363586426,4.59092378616333,-0.9439579844474792
1763693840145214500,6.27921435546875,8.611017227172852,4.566793918609619,-1.079433560371399
1763693840155294500,6.28929443359375,8.59276008605957,4.5693793296813965,-1.2064956426620483
1763693840165361200,6.299361083984375,8.566852569580078,4.5908379554748535,-1.3052341938018799
1763693840175441200,6.309441162109375,8.541739463806152,4.618474006652832,-1.3706834316253662
1763693840185521200,6.319521240234375,8.523256301879883,4.638209819793701,-1.4182746410369873
1763693840195634000,6.329634033203125,8.513848304748535,4.638734340667725,-1.4720462560653687
1763693840205713700,6.339713623046875,8.511064529418945,4.61885929107666,-1.5486496686935425
1763693840215793700,6.349793701171875,8.504209518432617,4.589330673217773,-1.6693857908248901
1763693840235920600,6.369920654296875,8.46513557434082,4.541392803192139,-1.9717037677764893
1763693840246000600,6.380000732421875,8.44410228729248,4.532528400421143,-2.0793519020080566
1763693840256080100,6.390080078125,8.42744255065918,4.525106906890869,-2.1614837646484375
1763693840266160000,6.40016015625,8.416739463806152,4.511548042297363,-2.2304272651672363
1763693840276240100,6.410240234375,8.410369873046875,4.4901442527771,-2.296664237976074
1763693840286327000,6.4203271484375,8.405081748962402,4.463940143585205,-2.3660547733306885
1763693840296406800,6.43040673828125,8.395614624023438,4.438620567321777,-2.445955753326416
1763693840306486800,6.44048681640625,8.379927635192871,4.419439315795898,-2.5329360961914062
1763693840316574700,6.45057470703125,8.358168601989746,4.408923149108887,-2.6216039657592773
1763693840326654700,6.46065478515625,8.333104133605957,4.4048614501953125,-2.706836700439453
1763693840336734700,6.470734619140625,8.308375358581543,4.404144763946533,-2.7829437255859375
1763693840346812000,6.48081201171875,8.2835693359375,4.4058027267456055,-2.853374481201172
1763693840356891600,6.4908916015625,8.262616157531738,4.432415008544922,-2.87284779548645
1763693840366971600,6.5009716796875,8.222973823547363,4.5223894119262695,-2.8462371826171875
1763693840377063200,6.511063232421875,8.139910697937012,4.646528720855713,-2.88478946685791
1763693840387143200,6.52114306640625,8.034270286560059,4.766104698181152,-2.984147310256958
1763693840397223000,6.531222900390625,7.927113056182861,4.870424270629883,-3.1000380516052246
1763693840407292400,6.54129248046875,7.860224723815918,4.921208381652832,-3.1888811588287354
1763693840417372400,6.551372314453125,7.848886489868164,4.878338813781738,-3.281338930130005
1763693840427452400,6.561452392578125,7.851600646972656,4.831373691558838,-3.343738317489624
1763693840437483000,6.57148291015625,7.86671781539917,4.777298450469971,-3.385640859603882
1763693840447563000,6.58156298828125,7.889031410217285,4.717869281768799,-3.416910409927368
1763693840457643000,6.59164306640625,7.913191318511963,4.664947032928467,-3.4336659908294678
1763693840467780600,6.601780517578125,7.937635898590088,4.620647430419922,-3.4371414184570312
1763693840477860600,6.611860595703125,7.958515644073486,4.581830978393555,-3.4408204555511475
1763693840487940600,6.621940673828125,7.974395275115967,4.553630352020264,-3.4414920806884766
1763693840498015500,6.632015380859375,7.980769157409668,4.535989284515381,-3.4500012397766113
1763693840508095500,6.642095458984375,7.981986999511719,4.5268025398254395,-3.459238052368164
1763693840518175200,6.65217529296875,7.981717109680176,4.522110462188721,-3.465989589691162
1763693840528232000,6.66223193359375,7.980359077453613,4.51895809173584,-3.4732229709625244
1763693840538312000,6.67231201171875,7.977261543273926,4.514177322387695,-3.486530065536499
1763693840548392000,6.682391845703125,7.9708251953125,4.507684230804443,-3.5095748901367188
1763693840558598400,6.692598388671875,7.960547924041748,4.497040271759033,-3.546363115310669
1763693840568678400,6.702678466796875,7.948093891143799,4.482236385345459,-3.5927343368530273
1763693840578758100,6.712758056640625,7.9369988441467285,4.464649200439453,-3.638864278793335
1763693840588755500,6.72275537109375,7.926737308502197,4.46065616607666,-3.666030168533325
1763693840598835200,6.732835205078125,7.917308330535889,4.4679036140441895,-3.6775600910186768
1763693840608915200,6.742915283203125,7.907403945922852,4.472969055175781,-3.6926820278167725
1763693840618995200,6.7529951171875,7.894237995147705,4.47918701171875,-3.7132568359375
1763693840629073700,6.76307373046875,7.877068996429443,4.488717079162598,-3.738126754760742
1763693840639153400,6.7731533203125,7.852405548095703,4.501699924468994,-3.774231195449829
1763693840649233400,6.7832333984375,7.81225061416626,4.513067245483398,-3.8433523178100586
1763693840659256300,6.79325634765625,7.764794826507568,4.518096446990967,-3.932574510574341
1763693840669336300,6.80333642578125,7.713571071624756,4.517631530761719,-4.032642841339111
1763693840679416000,6.813416015625,7.660455703735352,4.511651515960693,-4.13917875289917
1763693840689539600,6.82353955078125,7.606500148773193,4.50202751159668,-4.247738838195801
1763693840699619600,6.83361962890625,7.548784255981445,4.495455741882324,-4.356273651123047
1763693840709699600,6.843699462890625,7.480798244476318,4.5114827156066895,-4.455845832824707
1763693840719777800,6.85377783203125,7.3961615562438965,4.524890899658203,-4.581760406494141
1763693840729857800,6.86385791015625,7.30056619644165,4.51095724105835,-4.745879650115967
1763693840739937800,6.873937744140625,7.216330528259277,4.491781234741211,-4.890690803527832
1763693840749989400,6.8839892578125,7.168985366821289,4.473743915557861,-4.976108074188232
1763693840760069400,6.8940693359375,7.16085958480835,4.458418369293213,-5.001497268676758
1763693840770149400,6.9041494140625,7.167538166046143,4.446285724639893,-5.0027313232421875
1763693840780228400,6.914228271484375,7.167917251586914,4.4297661781311035,-5.016822814941406
1763693840790308400,6.924308349609375,7.164641857147217,4.404065132141113,-5.044055461883545
1763693840800388400,6.934388427734375,7.155627250671387,4.362671375274658,-5.092589378356934
1763693840810500000,6.9445,7.138992786407471,4.317273139953613,-5.1542534828186035
1763693840830660000,6.96466015625,7.072105884552002,4.238189697265625,-5.309751033782959
1763693840841314600,6.975314453125,7.031341075897217,4.202255725860596,-5.391815185546875
1763693840851394600,6.98539453125,7.0094499588012695,4.178473949432373,-5.438599109649658
1763693840861474600,6.995474609375,6.9937238693237305,4.176163196563721,-5.460574150085449
1763693840871539000,7.0055390625,6.9677629470825195,4.194401741027832,-5.479750633239746
1763693840881619000,7.015618896484375,6.923535346984863,4.223165988922119,-5.513610363006592
1763693840891699000,7.025698974609375,6.864131450653076,4.249927520751953,-5.567063331604004
1763693840901220400,7.035220458984375,6.813551425933838,4.2665815353393555,-5.616241931915283
1763693840911300400,7.04530029296875,6.766433238983154,4.273115158081055,-5.668003559112549
1763693840921380400,7.05538037109375,6.7145490646362305,4.27132511138916,-5.73070764541626
1763693840931463000,7.065462890625,6.657371520996094,4.262741565704346,-5.803347110748291
1763693840941543000,7.07554296875,6.594573974609375,4.249528884887695,-5.884172439575195
1763693840951623000,7.085622802734375,6.5225934982299805,4.234704971313477,-5.974399089813232
1763693840961684700,7.095684814453125,6.4397783279418945,4.221981048583984,-6.072439193725586
1763693840971764700,7.1057646484375,6.34721565246582,4.21420431137085,-6.174441814422607
1763693840981844700,7.1158447265625,6.247941017150879,4.212245941162109,-6.276193618774414
1763693840991922000,7.125921875,6.148028373718262,4.214317798614502,-6.37272834777832
1763693841002002000,7.136001953125,6.055527687072754,4.217799663543701,-6.4584150314331055
1763693841012082000,7.14608203125,5.974608898162842,4.21600341796875,-6.534503936767578
1763693841022154500,7.156154541015625,5.894917011260986,4.199515342712402,-6.616978168487549
1763693841032234500,7.166234375,5.803433895111084,4.160911560058594,-6.721410274505615
1763693841042314500,7.176314453125,5.706914901733398,4.10459566116333,-6.837676048278809
1763693841052428000,7.186427978515625,5.613462924957275,4.031905174255371,-6.957237720489502
1763693841062508000,7.196508056640625,5.523205280303955,3.942551374435425,-7.079610824584961
1763693841072588000,7.206588134765625,5.434622287750244,3.8405263423919678,-7.203167915344238
1763693841082665700,7.216665771484375,5.346182346343994,3.7342634201049805,-7.324206829071045
1763693841092745700,7.226745849609375,5.259942054748535,3.6298491954803467,-7.4382524490356445
1763693841102825700,7.23682568359375,5.178972244262695,3.5278854370117188,-7.543385028839111
1763693841112908800,7.24690869140625,5.10569953918457,3.424440383911133,-7.640380859375
1763693841122988800,7.25698876953125,5.040361404418945,3.3139779567718506,-7.731927394866943
1763693841133068800,7.26706884765625,4.981884479522705,3.191716194152832,-7.820752143859863
1763693841143139600,7.2771396484375,4.928531646728516,3.055431604385376,-7.908496379852295
1763693841153219600,7.287219482421875,4.879064559936523,2.9054110050201416,-7.995230197906494
1763693841163299600,7.297299560546875,4.834470272064209,2.74375057220459,-8.07899284362793
1763693841173396700,7.307396728515625,4.794291019439697,2.570934534072876,-8.159378051757812
1763693841183476700,7.317476806640625,4.757613658905029,2.3899874687194824,-8.23550033569336
1763693841193556700,7.327556640625,4.721161842346191,2.2076187133789062,-8.307071685791016
1763693841203641000,7.33764111328125,4.678891181945801,2.030014753341675,-8.376001358032227
1763693841213721000,7.34772119140625,4.6354756355285645,1.8592875003814697,-8.43953800201416
1763693841223801000,7.357801025390625,4.591110706329346,1.695752501487732,-8.498030662536621
1763693841233857000,7.36785693359375,4.543356895446777,1.5413978099822998,-8.552916526794434
1763693841243937000,7.37793701171875,4.493260860443115,1.3955050706863403,-8.604276657104492
1763693841254017000,7.38801708984375,4.440736770629883,1.2570775747299194,-8.652745246887207
1763693841274187300,7.408187255859375,4.31602144241333,1.0031540393829346,-8.748486518859863
1763693841284267300,7.418267333984375,4.241936683654785,0.8853251338005066,-8.797304153442383
1763693841294337500,7.428337646484375,4.160528182983398,0.7691970467567444,-8.84696102142334
1763693841304417500,7.43841748046875,4.0733232498168945,0.6544180512428284,-8.896637916564941
1763693841314497500,7.44849755859375,3.9841251373291016,0.5432294607162476,-8.94438648223877
1763693841324577800,7.458577880859375,3.896977424621582,0.43677645921707153,-8.988502502441406
1763693841334657800,7.46865771484375,3.8145716190338135,0.334786057472229,-9.028141975402832
1763693841344737800,7.47873779296875,3.738041639328003,0.23472298681735992,-9.063241004943848
1763693841354820000,7.488820068359375,3.671942949295044,0.1322709321975708,-9.092288970947266
1763693841364900000,7.498900146484375,3.6206142902374268,0.024167215451598167,-9.113778114318848
1763693841374980000,7.50897998046875,3.5824999809265137,-0.09070204198360443,-9.128409385681152
1763693841385058800,7.519058837890625,3.552534580230713,-0.21137316524982452,-9.138118743896484
1763693841395138800,7.529138916015625,3.5268185138702393,-0.33155322074890137,-9.14450740814209
1763693841405218800,7.53921875,3.5069222450256348,-0.4434974193572998,-9.147414207458496
1763693841415297500,7.549297607421875,3.4935262203216553,-0.5415999293327332,-9.147258758544922
1763693841425377500,7.55937744140625,3.4813082218170166,-0.6241874098777771,-9.14665412902832
1763693841435457500,7.56945751953125,3.466069221496582,-0.692835807800293,-9.14749813079834
1763693841445534500,7.579534423828125,3.446544647216797,-0.7526094317436218,-9.150153160095215
1763693841455614500,7.589614501953125,3.423816680908203,-0.8076511025428772,-9.15399169921875
1763693841465694500,7.599694580078125,3.4010374546051025,-0.8585318922996521,-9.157852172851562
1763693841475781400,7.609781494140625,3.3791520595550537,-0.9035096168518066,-9.161625862121582
1763693841485861400,7.619861328125,3.3582546710968018,-0.9399228692054749,-9.165645599365234
1763693841495941400,7.62994140625,3.333510637283325,-0.9672190546989441,-9.171835899353027
1763693841506002000,7.640001953125,3.3024117946624756,-0.9852942228317261,-9.181158065795898
1763693841516082000,7.65008203125,3.2625625133514404,-0.9942854642868042,-9.194425582885742
1763693841526162000,7.660161865234375,3.212590217590332,-0.9941985607147217,-9.212015151977539
1763693841536270600,7.6702705078125,3.155168056488037,-0.9856648445129395,-9.232754707336426
1763693841546350600,7.6803505859375,3.096980571746826,-0.9703854918479919,-9.254050254821777
1763693841556430600,7.6904306640625,3.041107416152954,-0.9508963823318481,-9.274580955505371
1763693841566478300,7.700478271484375,2.9899823665618896,-0.9294607043266296,-9.293356895446777
1763693841576558300,7.710558349609375,2.9470763206481934,-0.9081957340240479,-9.309151649475098
1763693841586638300,7.720638427734375,2.912419080734253,-0.890505313873291,-9.321760177612305
1763693841596746500,7.73074658203125,2.8780009746551514,-0.8812466859817505,-9.333322525024414
1763693841606826500,7.740826416015625,2.8395166397094727,-0.8832782506942749,-9.344910621643066
1763693841616906500,7.750906494140625,2.7932326793670654,-0.8990985751152039,-9.357342720031738
1763693841626971100,7.76097119140625,2.7330214977264404,-0.9287838339805603,-9.372210502624512
1763693841637051100,7.771051025390625,2.6615185737609863,-0.967140793800354,-9.388895034790039
1763693841647131100,7.781131103515625,2.5875303745269775,-1.004876732826233,-9.405599594116211
1763693841657226200,7.791226318359375,2.5142571926116943,-1.034346580505371,-9.422262191772461
1763693841667306200,7.80130615234375,2.4421310424804688,-1.0518956184387207,-9.439274787902832
1763693841677386200,7.81138623046875,2.3700668811798096,-1.0548861026763916,-9.457291603088379
1763693841687446000,7.821446044921875,2.297804355621338,-1.0424492359161377,-9.476486206054688
1763693841697526000,7.831526123046875,2.2276785373687744,-1.0168758630752563,-9.495988845825195
1763693841707606000,7.84160595703125,2.1656694412231445,-0.9822752475738525,-9.513958930969238
1763693841717697800,7.85169775390625,2.1109776496887207,-0.9395381808280945,-9.530552864074707
1763693841727777800,7.86177783203125,2.0477287769317627,-0.8856059908866882,-9.549497604370117
1763693841737857800,7.87185791015625,1.9830821752548218,-0.8489832282066345,-9.566452026367188
1763693841747932000,7.881931884765625,1.9132581949234009,-0.8309112191200256,-9.582244873046875
1763693841758012000,7.892011962890625,1.8457154035568237,-0.8263407945632935,-9.595878601074219
1763693841768092000,7.902091796875,1.7610678672790527,-0.8209927082061768,-9.612231254577637
1763693841778156000,7.912156005859375,1.6681947708129883,-0.8148898482322693,-9.629302978515625
1763693841788236000,7.922236083984375,1.6030757427215576,-0.802577018737793,-9.641390800476074
1763693841798316000,7.93231591796875,1.5604954957962036,-0.7817004919052124,-9.650087356567383
1763693841808484400,7.942484375,1.5235340595245361,-0.7546910643577576,-9.658140182495117
1763693841818564400,7.952564453125,1.483623743057251,-0.7263045907020569,-9.666525840759277
1763693841828644400,7.962644287109375,1.4470629692077637,-0.6997508406639099,-9.67402458190918
1763693841838656300,7.97265625,1.4134446382522583,-0.6757150292396545,-9.68070125579834
1763693841848736300,7.982736328125,1.371143102645874,-0.651573657989502,-9.688437461853027
1763693841858816300,7.992816162109375,1.3183372020721436,-0.6253158450126648,-9.697492599487305
1763693841868895000,8.00289501953125,1.2600113153457642,-0.5948617458343506,-9.707157135009766
1763693841878975000,8.01297509765625,1.2009507417678833,-0.5578446388244629,-9.716836929321289
1763693841889055000,8.023054931640624,1.1453373432159424,-0.5136999487876892,-9.725980758666992
1763693841899128300,8.03312841796875,1.1009998321533203,-0.46595677733421326,-9.733502388000488
1763693841909208300,8.043208251953125,1.075636863708496,-0.42676201462745667,-9.73813533782959
1763693841919288300,8.053288330078125,1.0487661361694336,-0.4078976511955261,-9.741873741149902
1763693841929387500,8.063387451171875,0.9961162209510803,-0.40036559104919434,-9.747709274291992
1763693841939467300,8.07346728515625,0.9316736459732056,-0.39549720287323,-9.754279136657715
1763693841949547300,8.08354736328125,0.864239513874054,-0.3901861011981964,-9.760697364807129
1763693841959627300,8.093627197265626,0.7935991287231445,-0.379494309425354,-9.767117500305176
1763693841969699800,8.103699951171874,0.7324535250663757,-0.36036473512649536,-9.772616386413574
1763693841979779800,8.11377978515625,0.693015992641449,-0.33493363857269287,-9.776396751403809
1763693841989859800,8.12385986328125,0.6938228011131287,-0.3148144483566284,-9.777008056640625
1763693841999922000,8.133921875,0.7359283566474915,-0.3062290549278259,-9.774201393127441
1763693842010002000,8.144001953125,0.8061556816101074,-0.29807499051094055,-9.768912315368652
1763693842020082000,8.15408203125,0.8728427290916443,-0.2861456573009491,-9.76353645324707
1763693842030177300,8.16417724609375,0.9299303889274597,-0.27057376503944397,-9.758709907531738
1763693842040257300,8.17425732421875,0.969435453414917,-0.24471735954284668,-9.755546569824219
1763693842050337300,8.184337158203125,0.9943719506263733,-0.2052326500415802,-9.753947257995605
1763693842061020700,8.195020751953125,1.0097090005874634,-0.15162433683872223,-9.753352165222168
1763693842071100700,8.2051005859375,1.0260632038116455,-0.09563338756561279,-9.752355575561523
1763693842081180700,8.2151806640625,1.03329598903656,-0.03860033303499222,-9.751984596252441
1763693842100715000,8.234715087890624,1.046779751777649,0.050588324666023254,-9.75049114227295
1763693842110795000,8.244794921875,1.0527695417404175,0.09283343702554703,-9.74953556060791
1763693842121468000,8.255468017578124,1.0749595165252686,0.1336599886417389,-9.746639251708984
1763693842131548000,8.2655478515625,1.1070945262908936,0.16242551803588867,-9.742605209350586
1763693842141628000,8.2756279296875,1.153960943222046,0.17672370374202728,-9.736915588378906
1763693842151711200,8.285711181640625,1.2182502746582031,0.17400506138801575,-9.729129791259766
1763693842161791200,8.295791259765625,1.2945891618728638,0.15415340662002563,-9.71960163116455
1763693842171871200,8.305871337890625,1.3727333545684814,0.120880626142025,-9.709344863891602
1763693842191431000,8.325430908203124,1.4911439418792725,0.027622327208518982,-9.692581176757812
1763693842201511000,8.335510986328124,1.5107929706573486,-0.03864270821213722,-9.689498901367188
1763693842211623700,8.345623779296876,1.4970309734344482,-0.12165749073028564,-9.690948486328125
1763693842221703700,8.35570361328125,1.4585938453674316,-0.22871150076389313,-9.694873809814453
1763693842231783700,8.36578369140625,1.3851929903030396,-0.35685601830482483,-9.701767921447754
1763693842241865700,8.37586572265625,1.2875239849090576,-0.49087798595428467,-9.70936107635498
1763693842251945700,8.38594580078125,1.1956809759140015,-0.6149349808692932,-9.714041709899902
1763693842262025700,8.396025634765625,1.1072224378585815,-0.7219709753990173,-9.71716022491455
1763693842272093000,8.406093017578126,1.0134226083755493,-0.8249101042747498,-9.719202041625977
1763693842282173000,8.4161728515625,0.9234955906867981,-0.9504512548446655,-9.716696739196777
1763693842292253000,8.4262529296875,0.838753342628479,-1.1143255233764648,-9.706964492797852
1763693842302335200,8.436335205078125,0.7628570795059204,-1.3226516246795654,-9.687055587768555
1763693842312415200,8.446415283203125,0.7035965323448181,-1.5773906707763672,-9.653350830078125
1763693842322495200,8.4564951171875,0.6601572632789612,-1.8770743608474731,-9.602664947509766
1763693842332572400,8.466572509765625,0.6230157017707825,-2.216513156890869,-9.532540321350098
1763693842342652400,8.47665234375,0.6058064699172974,-2.57808256149292,-9.442292213439941
1763693842352732400,8.486732421875,0.6206610798835754,-2.9172847270965576,-9.342087745666504
1763693842362822100,8.496822265625,0.6713671684265137,-3.199622392654419,-9.245651245117188
1763693842372902100,8.506902099609375,0.7254558205604553,-3.397704601287842,-9.170589447021484
1763693842382982100,8.516982177734375,0.7574689388275146,-3.4791948795318604,-9.1373872756958
1763693842393057800,8.527057861328124,0.7550811767578125,-3.4570565223693848,-9.14598274230957
1763693842403137800,8.5371376953125,0.7006134986877441,-3.3891830444335938,-9.17567253112793
1763693842413217800,8.5472177734375,0.5712796449661255,-3.345397710800171,-9.20067024230957
1763693842423302400,8.557302490234376,0.3704710006713867,-3.3633077144622803,-9.20441722869873
1763693842433382400,8.56738232421875,0.14022238552570343,-3.451687812805176,-9.178048133850098
1763693842443462400,8.57746240234375,-0.09609296917915344,-3.5816259384155273,-9.128697395324707
1763693842453542100,8.587542236328124,-0.3406165838241577,-3.7183921337127686,-9.067960739135742
1763693842463622100,8.5976220703125,-0.5797767043113708,-3.863203287124634,-8.994993209838867
1763693842473702100,8.6077021484375,-0.7933953404426575,-4.01107931137085,-8.913593292236328
1763693842483776800,8.61777685546875,-0.9537391662597656,-4.139898777008057,-8.838665008544922
1763693842493856800,8.627856689453125,-1.0803909301757812,-4.239739418029785,-8.776545524597168
1763693842503936800,8.637936767578125,-1.2097810506820679,-4.3240838050842285,-8.718320846557617
1763693842514034000,8.648033935546875,-1.3576685190200806,-4.431415557861328,-8.642318725585938
1763693842524114000,8.658114013671875,-1.5076663494110107,-4.545915603637695,-8.557568550109863
1763693842534194000,8.66819384765625,-1.6577125787734985,-4.661183834075928,-8.467333793640137
1763693842544273700,8.678273681640626,-1.8124618530273438,-4.806401252746582,-8.353673934936523
1763693842554353700,8.688353759765626,-1.9465386867523193,-4.9901957511901855,-8.214580535888672
1763693842564433700,8.69843359375,-2.0498557090759277,-5.207316875457764,-8.053094863891602
1763693842574456800,8.708456787109375,-2.1132586002349854,-5.4494242668151855,-7.8745341300964355
1763693842584536800,8.718536865234375,-2.152090311050415,-5.6990485191345215,-7.685032844543457
1763693842594616800,8.728616943359375,-2.173840045928955,-5.927682876586914,-7.503824710845947
1763693842604679400,8.738679443359375,-2.16589093208313,-6.112334728240967,-7.356538772583008
1763693842614759400,8.748759521484375,-2.134422779083252,-6.2708048820495605,-7.231295108795166
1763693842624839400,8.75883935546875,-2.1069090366363525,-6.430834770202637,-7.097582817077637
1763693842634937900,8.768937744140626,-2.092153310775757,-6.605024337768555,-6.940239906311035
1763693842645017900,8.779017822265626,-2.073864459991455,-6.788837432861328,-6.766178607940674
1763693842655097900,8.789097900390624,-2.0445446968078613,-6.979704856872559,-6.578293323516846
1763693842665195800,8.79919580078125,-2.0094611644744873,-7.185161113739014,-6.364426136016846
1763693842675275800,8.80927587890625,-1.9878321886062622,-7.420742988586426,-6.095202445983887
1763693842685355800,8.819355712890625,-1.9950224161148071,-7.6906208992004395,-5.748444557189941
1763693842695442000,8.82944189453125,-1.9988889694213867,-7.925487995147705,-5.418622970581055
1763693842705522000,8.83952197265625,-1.9399878978729248,-8.072616577148438,-5.219165325164795
1763693842715602000,8.849601806640624,-1.785583257675171,-8.168180465698242,-5.124734878540039
1763693842725704200,8.8597041015625,-1.6282687187194824,-8.245894432067871,-5.0521650314331055
1763693842735784200,8.8697841796875,-1.5179094076156616,-8.327821731567383,-4.9511332511901855
1763693842745864200,8.8798642578125,-1.4641168117523193,-8.414456367492676,-4.819095134735107
1763693842755924000,8.889924072265625,-1.4338330030441284,-8.511635780334473,-4.654736518859863
1763693842766004000,8.90000390625,-1.4051356315612793,-8.614423751831055,-4.470757007598877
1763693842776084000,8.910083984375,-1.3759820461273193,-8.719322204589844,-4.272058010101318
1763693842786149000,8.920149169921874,-1.3337349891662598,-8.82677173614502,-4.059510231018066
1763693842796229000,8.93022900390625,-1.2653506994247437,-8.931702613830566,-3.846292018890381
1763693842806309000,8.94030908203125,-1.1809605360031128,-9.026841163635254,-3.6458005905151367
1763693842816449500,8.950449462890624,-1.1019834280014038,-9.112353324890137,-3.4526870250701904
1763693842826529500,8.960529541015624,-1.0529612302780151,-9.183918952941895,-3.2737250328063965
1763693842836609500,8.970609619140625,-1.0353291034698486,-9.241311073303223,-3.113943576812744
1763693842846656300,8.98065625,-1.0378003120422363,-9.289790153503418,-2.9653263092041016
1763693842856736300,8.990736328125,-1.0770474672317505,-9.324719429016113,-2.8390092849731445
1763693842866816300,9.000816162109375,-1.1360077857971191,-9.360309600830078,-2.695269823074341
1763693842876907500,9.010907470703126,-1.1537787914276123,-9.407215118408203,-2.518622398376465
1763693842886987500,9.020987548828124,-1.1243263483047485,-9.455840110778809,-2.3437914848327637
1763693842897067500,9.031067626953124,-1.0825369358062744,-9.49268913269043,-2.2107365131378174
1763693842907126300,9.041126220703125,-1.0473928451538086,-9.515861511230469,-2.126436710357666
1763693842917206300,9.051206298828125,-1.027052640914917,-9.528613090515137,-2.078723192214966
1763693842927286300,9.061286376953126,-1.0157111883163452,-9.532654762268066,-2.065722942352295
1763693842937355800,9.071355712890625,-1.0013095140457153,-9.532702445983887,-2.072524309158325
1763693842947435800,9.081435791015625,-0.9808992743492126,-9.533538818359375,-2.0784308910369873
1763693842967741700,9.10174169921875,-0.8859764933586121,-9.540945053100586,-2.0870563983917236
1763693842977821700,9.11182177734375,-0.7734783291816711,-9.548177719116211,-2.0986688137054443
1763693842987901700,9.121901611328125,-0.6039769053459167,-9.559019088745117,-2.10493540763855
1763693842997864400,9.131864501953125,-0.3928152918815613,-9.566638946533203,-2.12025785446167
1763693843007944400,9.1419443359375,-0.14799484610557556,-9.56910228729248,-2.140272617340088
1763693843018024400,9.1520244140625,0.11525670439004898,-9.567426681518555,-2.1497578620910645
1763693843028133600,9.162133544921875,0.38157418370246887,-9.56032943725586,-2.1505579948425293
1763693843038213600,9.172213623046876,0.6432819962501526,-9.546082496643066,-2.1514816284179688
1763693843048293600,9.182293701171876,0.8963096141815186,-9.525372505187988,-2.1527411937713623
1763693843058375700,9.192375732421874,1.1217831373214722,-9.500237464904785,-2.158120632171631
1763693843068455700,9.20245556640625,1.2992693185806274,-9.472495079040527,-2.180394172668457
1763693843078535700,9.21253564453125,1.4295661449432373,-9.444896697998047,-2.2182538509368896
1763693843088582400,9.22258251953125,1.5250858068466187,-9.418695449829102,-2.2655417919158936
1763693843098662400,9.232662353515625,1.616255760192871,-9.388404846191406,-2.327221632003784
1763693843108742400,9.242742431640625,1.7265167236328125,-9.352075576782227,-2.3933680057525635
1763693843118824200,9.25282421875,1.8529362678527832,-9.312585830688477,-2.452094793319702
1763693843128904200,9.262904296875,1.978257656097412,-9.273781776428223,-2.500770092010498
1763693843138984200,9.272984130859374,2.0911550521850586,-9.238869667053223,-2.5378618240356445
1763693843149049000,9.283049072265625,2.1912307739257812,-9.208867073059082,-2.56235408782959
1763693843159129000,9.293129150390625,2.2894439697265625,-9.179794311523438,-2.5807409286499023
1763693843169209000,9.303208984375,2.3780441284179688,-9.150405883789062,-2.604874610900879
1763693843179292200,9.313292236328126,2.4465386867523193,-9.121322631835938,-2.6431632041931152
1763693843189372200,9.3233720703125,2.5004794597625732,-9.091748237609863,-2.6940879821777344
1763693843199452200,9.3334521484375,2.5485403537750244,-9.061518669128418,-2.7503087520599365
1763693843209532200,9.3435322265625,2.59425950050354,-9.032264709472656,-2.8032853603363037
1763693843219596500,9.353596435546875,2.638761043548584,-9.004789352416992,-2.8497514724731445
1763693843229676500,9.363676513671875,2.682786703109741,-8.978516578674316,-2.891244888305664
1763693843239756500,9.373756591796875,2.724745988845825,-8.955330848693848,-2.9237308502197266
1763693843249849300,9.383849365234376,2.7465765476226807,-8.944622993469238,-2.9360594749450684
1763693843259929300,9.393929443359376,2.73703670501709,-8.948983192443848,-2.931670904159546
1763693843280061000,9.41406103515625,2.6622586250305176,-8.97333812713623,-2.926084518432617
1763693843290140700,9.424140625,2.613649606704712,-8.989886283874512,-2.9191036224365234
1763693843310300700,9.44430078125,2.52435040473938,-9.023833274841309,-2.8928327560424805
1763693843320998000,9.454997802734376,2.491166591644287,-9.038113594055176,-2.8769712448120117
1763693843341158000,9.475157958984376,2.461702585220337,-9.055861473083496,-2.846362590789795
1763693843351230000,9.48522998046875,2.454211950302124,-9.06385326385498,-2.8273303508758545
1763693843361310000,9.49531005859375,2.4407870769500732,-9.072711944580078,-2.8104889392852783
1763693843371390000,9.505389892578124,2.414975881576538,-9.081506729125977,-2.804375410079956
1763693843381489200,9.5154892578125,2.3767454624176025,-9.088807106018066,-2.8133723735809326
1763693843391569200,9.525569091796875,2.3494620323181152,-9.090010643005371,-2.8323357105255127
1763693843401649200,9.535649169921875,2.358100414276123,-9.081839561462402,-2.8513026237487793
1763693843411713000,9.545713134765625,2.393341541290283,-9.06766414642334,-2.867013692855835
1763693843421793000,9.55579296875,2.436616897583008,-9.045634269714355,-2.8999626636505127
1763693843431873000,9.565873046875,2.4820444583892822,-9.012797355651855,-2.9629945755004883
1763693843451444700,9.58544482421875,2.5829880237579346,-8.93692398071289,-3.1032164096832275
1763693843461524700,9.595524658203125,2.6290555000305176,-8.903341293334961,-3.1605324745178223
1763693843471596800,9.6055966796875,2.6511785984039307,-8.87935733795166,-3.2091493606567383
1763693843481676800,9.6156767578125,2.6401383876800537,-8.867961883544922,-3.24950909614563
1763693843491756800,9.6257568359375,2.585613965988159,-8.8694486618042,-3.289053201675415
1763693843501877800,9.635877685546875,2.475886821746826,-8.88237190246582,-3.3382408618927
1763693843511957800,9.645957763671875,2.3094022274017334,-8.905567169189453,-3.3952794075012207
1763693843522037800,9.656037841796875,2.1026558876037598,-8.937561988830566,-3.445173978805542
1763693843542183000,9.676182861328124,1.7509346008300781,-9.020707130432129,-3.425121307373047
1763693843552263000,9.686262939453124,1.6569864749908447,-9.072419166564941,-3.3340680599212646
1763693843562332400,9.69633251953125,1.5700104236602783,-9.13295841217041,-3.208508014678955
1763693843572412400,9.706412353515624,1.471444845199585,-9.201688766479492,-3.055187702178955
1763693843582492400,9.716492431640624,1.382538080215454,-9.27607536315918,-2.865900993347168
1763693843592560600,9.726560546875,1.3200021982192993,-9.349886894226074,-2.647183895111084
1763693843602640600,9.736640625,1.27853524684906,-9.416842460632324,-2.4205009937286377
1763693843612720600,9.746720703125,1.2304831743240356,-9.474727630615234,-2.2103915214538574
1763693843622818300,9.756818359375,1.1383988857269287,-9.528220176696777,-2.021745443344116
1763693843632898300,9.766898193359374,0.9927303194999695,-9.580005645751953,-1.8461711406707764
1763693843642978300,9.776978271484374,0.8217687606811523,-9.626545906066895,-1.6806836128234863
1763693843653072000,9.78707177734375,0.6610870957374573,-9.664395332336426,-1.527355432510376
1763693843663151900,9.79715185546875,0.5274624228477478,-9.694013595581055,-1.3850228786468506
1763693843673232000,9.80723193359375,0.41235509514808655,-9.716679573059082,-1.2595542669296265
1763693843683301400,9.81730126953125,0.31119802594184875,-9.733566284179688,-1.1537853479385376
1763693843693381400,9.82738134765625,0.22045348584651947,-9.7471342086792,-1.0560226440429688
1763693843703461400,9.83746142578125,0.14384421706199646,-9.757927894592285,-0.9656772017478943
1763693843713540400,9.847540283203125,0.08576290309429169,-9.766897201538086,-0.8779208660125732
1763693843723620400,9.857620361328125,0.05228579416871071,-9.775687217712402,-0.7769230604171753
1763693843733700400,9.867700439453126,0.04389367625117302,-9.78447151184082,-0.6576985716819763
1763693843743776000,9.87777587890625,0.04057331383228302,-9.791964530944824,-0.5349523425102234
1763693843753856000,9.88785595703125,0.007923651486635208,-9.79797649383545,-0.412293940782547
1763693843763936000,9.89793603515625,-0.04995191469788551,-9.802299499511719,-0.2878004312515259
1763693843774029600,9.908029541015624,-0.132736474275589,-9.804224967956543,-0.17298221588134766
1763693843784109600,9.918109619140624,-0.24469150602817535,-9.803346633911133,-0.07007081061601639
1763693843794189600,9.928189453125,-0.3798443078994751,-9.799248695373535,0.028926974162459373
1763693843804262700,9.9382626953125,-0.5247830152511597,-9.791664123535156,0.13527822494506836
1763693843814342700,9.9483427734375,-0.6674582958221436,-9.78051471710205,0.257704496383667
1763693843824422700,9.958422607421875,-0.7964410781860352,-9.76618766784668,0.3970471918582916
1763693843834501400,9.96850146484375,-0.9251955151557922,-9.746789932250977,0.5607819557189941
1763693843844581600,9.97858154296875,-1.0460833311080933,-9.721123695373535,0.758852481842041
1763693843854661600,9.98866162109375,-1.152989149093628,-9.689172744750977,0.9802691340446472
1763693843864743200,9.9987431640625,-1.2780911922454834,-9.64723014831543,1.211533546447754
1763693843874823200,10.0088232421875,-1.4222466945648193,-9.593633651733398,1.4525099992752075
1763693843884903200,10.018903076171876,-1.5633928775787354,-9.529818534851074,1.705506682395935
1763693843894976500,10.0289765625,-1.6909133195877075,-9.457758903503418,1.9651985168457031
1763693843905056500,10.039056396484375,-1.801355242729187,-9.377982139587402,2.231358766555786
1763693843915136500,10.049136474609375,-1.8886975049972534,-9.292731285095215,2.499671697616577
1763693843925225000,10.059224853515625,-1.956382393836975,-9.20828914642334,2.7477893829345703
1763693843935305000,10.069304931640625,-1.9949922561645508,-9.142184257507324,2.9344279766082764
1763693843945385000,10.079385009765625,-2.0161895751953125,-9.090790748596191,3.0761823654174805
1763693843955472600,10.08947265625,-2.0517218112945557,-9.047511100769043,3.1785807609558105
1763693843965552600,10.099552734375,-2.0837230682373047,-9.011557579040527,3.2588789463043213
1763693843975633000,10.1096328125,-2.0935328006744385,-8.981741905212402,3.334038734436035
1763693843985709800,10.119709716796875,-2.078559637069702,-8.95210075378418,3.4219717979431152
1763693843995790000,10.1297900390625,-2.0479846000671387,-8.926162719726562,3.50710391998291
1763693844005870000,10.1398701171875,-1.9854850769042969,-8.919631004333496,3.559272050857544
1763693844015952000,10.149951904296875,-1.8758316040039062,-8.929606437683105,3.5935745239257812
1763693844026031900,10.160031982421875,-1.7407755851745605,-8.956720352172852,3.594057083129883
1763693844036112000,10.17011181640625,-1.581951379776001,-8.996404647827148,3.568265438079834
1763693844046184200,10.18018408203125,-1.3805543184280396,-9.048861503601074,3.5188844203948975
1763693844056264200,10.19026416015625,-1.1216425895690918,-9.117087364196777,3.4338040351867676
1763693844066344200,10.20034423828125,-0.8231592774391174,-9.194826126098633,3.3087728023529053
1763693844076393500,10.2103935546875,-0.5023230910301208,-9.273415565490723,3.149893283843994
1763693844086473500,10.220473388671875,-0.1395355463027954,-9.342794418334961,2.9770994186401367
1763693844096553700,10.2305537109375,0.26428645849227905,-9.39282512664795,2.8063101768493652
1763693844106634800,10.240634765625,0.6778391003608704,-9.419397354125977,2.643080949783325
1763693844116714800,10.25071484375,1.0788758993148804,-9.427201271057129,2.4767508506774902
1763693844126794800,10.260794677734374,1.439205527305603,-9.426789283752441,2.287954568862915
1763693844136907000,10.270906982421875,1.7288368940353394,-9.428413391113281,2.0703964233398438
1763693844146987000,10.280987060546876,1.9493423700332642,-9.434623718261719,1.8325773477554321
1763693844157067000,10.29106689453125,2.122096300125122,-9.44276237487793,1.5815671682357788
1763693844167128800,10.30112890625,2.271728754043579,-9.448993682861328,1.3138355016708374
1763693844177208800,10.311208740234376,2.4094579219818115,-9.448884963989258,1.0409051179885864
1763693844187288800,10.321288818359376,2.537167549133301,-9.439801216125488,0.7895091772079468
1763693844197402400,10.33140234375,2.6626152992248535,-9.420595169067383,0.5772801637649536
1763693844207482400,10.341482421875,2.791733980178833,-9.391670227050781,0.4160865843296051
1763693844217562400,10.351562255859376,2.9276161193847656,-9.353606224060059,0.3309176564216614
1763693844227605800,10.361605712890626,3.076317310333252,-9.306241035461426,0.31704550981521606
1763693844237685800,10.371685791015626,3.2415482997894287,-9.249567985534668,0.328985333442688
1763693844247765800,10.381765869140626,3.4188380241394043,-9.18542194366455,0.331592321395874
1763693844257856500,10.3918564453125,3.596626043319702,-9.116951942443848,0.3403734862804413
1763693844267936500,10.4019365234375,3.764849901199341,-9.047117233276367,0.3820578157901764
1763693844278016800,10.412016845703125,3.92755126953125,-8.974536895751953,0.4499187767505646
1763693844288066000,10.422066162109376,4.0746283531188965,-8.905027389526367,0.5179529190063477
1763693844298146000,10.43214599609375,4.1912126541137695,-8.84718132019043,0.5757775902748108
1763693844308226000,10.44222607421875,4.2796311378479,-8.800575256347656,0.6364076137542725
1763693844318483500,10.4524833984375,4.343443870544434,-8.764106750488281,0.703785240650177
1763693844328563500,10.4625634765625,4.3802666664123535,-8.740204811096191,0.7697112560272217
1763693844338643500,10.4726435546875,4.390069961547852,-8.729696273803711,0.8307103514671326
1763693844348602000,10.48260205078125,4.375803470611572,-8.731529235839844,0.8849434852600098
1763693844358682000,10.49268212890625,4.340758800506592,-8.743756294250488,0.935377836227417
1763693844368762000,10.50276220703125,4.289516925811768,-8.764081954956055,0.9804704189300537
1763693844378810400,10.512810302734374,4.227250576019287,-8.790181159973145,1.016584038734436
1763693844388890400,10.522890380859375,4.155171871185303,-8.82211971282959,1.0368881225585938
1763693844398970600,10.532970703125,4.07183313369751,-8.861157417297363,1.0346297025680542
1763693844409064000,10.54306396484375,3.979220390319824,-8.905755996704102,1.011783242225647
1763693844419144000,10.55314404296875,3.88427734375,-8.950769424438477,0.983105480670929
1763693844429224000,10.563223876953124,3.7882285118103027,-8.994906425476074,0.9546592235565186
1763693844439277000,10.573277099609374,3.6845083236694336,-9.041974067687988,0.9151489734649658
1763693844449357300,10.583357421875,3.570063591003418,-9.09290599822998,0.8626142144203186
1763693844459437300,10.593437255859374,3.4525604248046875,-9.142448425292969,0.8159965872764587
1763693844469563000,10.60356298828125,3.337575912475586,-9.186419486999512,0.800421953201294
1763693844479643000,10.613642822265625,3.2411537170410156,-9.218460083007812,0.8278430700302124
1763693844489723000,10.623722900390625,3.1991159915924072,-9.226916313171387,0.894465982913971
1763693844499803100,10.63380322265625,3.2305567264556885,-9.207707405090332,0.9757081270217896
1763693844509845200,10.64384521484375,3.3040542602539062,-9.173842430114746,1.046055555343628
1763693844519925200,10.65392529296875,3.369032382965088,-9.143115997314453,1.106092929840088
1763693844530005200,10.664005126953125,3.391695737838745,-9.128836631774902,1.1537444591522217
1763693844540099000,10.67409912109375,3.3501856327056885,-9.141064643859863,1.1779637336730957
1763693844550179000,10.684178955078124,3.2203078269958496,-9.188970565795898,1.167402744293213
1763693844560259000,10.694259033203124,3.006903648376465,-9.263362884521484,1.1484947204589844
1763693844570319000,10.704319091796876,2.776516914367676,-9.333009719848633,1.1645869016647339
1763693844580399000,10.714399169921874,2.6060383319854736,-9.375470161437988,1.2163537740707397
1763693844590479400,10.724479248046874,2.5124001502990723,-9.392822265625,1.2779351472854614
1763693844601150200,10.735150146484376,2.446836233139038,-9.40982723236084,1.2800474166870117
1763693844611230200,10.745230224609376,2.3543128967285156,-9.445368766784668,1.1885311603546143
1763693844621310200,10.755310302734374,2.19508957862854,-9.494627952575684,1.0972685813903809
1763693844631413800,10.765413818359375,1.9964206218719482,-9.53897476196289,1.0920922756195068
1763693844641493800,10.77549365234375,1.8073354959487915,-9.56598949432373,1.1814348697662354
1763693844651573800,10.78557373046875,1.647747278213501,-9.574365615844727,1.3367292881011963
1763693844671144000,10.80514404296875,1.3742164373397827,-9.57303237915039,1.6244957447052002
1763693844681224000,10.815223876953125,1.2004328966140747,-9.583295822143555,1.6999396085739136
1763693844691304200,10.82530419921875,0.9969106912612915,-9.602117538452148,1.725082278251648
1763693844701389000,10.83538916015625,0.7926302552223206,-9.623652458190918,1.7109794616699219
1763693844711469000,10.845468994140624,0.6175614595413208,-9.64355182647705,1.6706033945083618
1763693844721549000,10.855549072265624,0.48494765162467957,-9.660492897033691,1.6155821084976196
1763693844731622700,10.86562255859375,0.3838418424129486,-9.674633026123047,1.5570944547653198
1763693844741702700,10.87570263671875,0.30638086795806885,-9.686038970947266,1.5023859739303589
1763693844761848300,10.895848388671874,0.2018139660358429,-9.69882583618164,1.4361159801483154
1763693844771928600,10.905928466796874,0.15944252908229828,-9.700886726379395,1.427498459815979
1763693844782008600,10.916008544921874,0.11061327159404755,-9.701180458068848,1.430120825767517
1763693844792059100,10.92605908203125,0.04363655671477318,-9.69975471496582,1.4433488845825195
1763693844802139100,10.93613916015625,-0.046808961778879166,-9.695384979248047,1.4723124504089355
1763693844812219400,10.946219482421874,-0.1557866483926773,-9.687634468078613,1.5152108669281006
1763693844822326000,10.956325927734374,-0.27575743198394775,-9.676526069641113,1.5681848526000977
1763693844832406000,10.966406005859374,-0.4047498404979706,-9.660869598388672,1.6352875232696533
1763693844842486000,10.976486083984375,-0.5436121821403503,-9.63951587677002,1.7188975811004639
1763693844852586000,10.9865859375,-0.6857141852378845,-9.612565994262695,1.81625235080719
1763693844862666000,10.996666015625,-0.8263481259346008,-9.580657005310059,1.9231573343276978
1763693844872746000,11.00674609375,-0.968635082244873,-9.542860984802246,2.0410616397857666
1763693844882832000,11.016831787109375,-1.1129528284072876,-9.49928092956543,2.166884422302246
1763693844892911900,11.026911865234375,-1.2613025903701782,-9.450090408325195,2.296802282333374
1763693844902992000,11.036991943359375,-1.411445140838623,-9.394003868103027,2.4353458881378174
1763693844913015300,11.047015380859374,-1.5498417615890503,-9.335074424743652,2.5738606452941895
1763693844923095300,11.05709521484375,-1.6669037342071533,-9.278064727783203,2.703575849533081
1763693844933175300,11.06717529296875,-1.7534507513046265,-9.227556228637695,2.8192200660705566
1763693844943259100,11.077259033203125,-1.8056946992874146,-9.187654495239258,2.9149374961853027
1763693844953339100,11.087339111328125,-1.828473448753357,-9.156502723693848,2.997589349746704
1763693844963419100,11.097419189453126,-1.8363491296768188,-9.130730628967285,3.070502519607544
1763693844973532000,11.107531982421875,-1.8397339582443237,-9.110367774963379,3.1284146308898926
1763693844983612000,11.11761181640625,-1.8380980491638184,-9.094252586364746,3.1759023666381836
1763693844993692000,11.12769189453125,-1.8354017734527588,-9.079954147338867,3.2180941104888916
1763693845003751700,11.137751708984375,-1.8325023651123047,-9.06683349609375,3.2565104961395264
1763693845013831700,11.147831787109375,-1.8211932182312012,-9.056928634643555,3.2902417182922363
1763693845023911700,11.15791162109375,-1.796893835067749,-9.051895141601562,3.31734037399292
1763693845033997000,11.1679970703125,-1.7589212656021118,-9.052572250366211,3.3357927799224854
1763693845044077000,11.1780771484375,-1.7070492506027222,-9.059090614318848,3.3450331687927246
1763693845054157000,11.188156982421875,-1.633992075920105,-9.07123851776123,3.3485939502716064
1763693845064265200,11.19826513671875,-1.5224182605743408,-9.090856552124023,3.3479788303375244
1763693845074345200,11.20834521484375,-1.3632982969284058,-9.121733665466309,3.332533121109009
1763693845084425200,11.21842529296875,-1.1528573036193848,-9.166802406311035,3.288017511367798
1763693845094491100,11.2284912109375,-0.8859333395957947,-9.22481632232666,3.2075326442718506
1763693845104571100,11.238571044921875,-0.580333411693573,-9.289085388183594,3.0897417068481445
1763693845114651100,11.248651123046875,-0.2747146785259247,-9.348876953125,2.948460102081299
1763693845124757200,11.25875732421875,0.040643997490406036,-9.398695945739746,2.798793077468872
1763693845134837200,11.268837158203125,0.3746921122074127,-9.437822341918945,2.6377081871032715
1763693845144917200,11.278917236328125,0.7024799585342407,-9.468472480773926,2.454575538635254
1763693845154931500,11.288931396484376,1.0021520853042603,-9.491987228393555,2.251281261444092
1763693845165011500,11.299011474609374,1.2807809114456177,-9.506739616394043,2.0376179218292236
1763693845175091500,11.309091552734374,1.539502739906311,-9.50958251953125,1.8352547883987427
1763693845185233400,11.3192333984375,1.7788581848144531,-9.502205848693848,1.6474660634994507
1763693845195313400,11.3293134765625,2.000363826751709,-9.488814353942871,1.459913730621338
1763693845205393400,11.339393310546875,2.2061760425567627,-9.471508979797363,1.2624200582504272
1763693845215453400,11.349453369140624,2.401121139526367,-9.448286056518555,1.0653185844421387
1763693845225533400,11.359533447265624,2.5920724868774414,-9.416223526000977,0.8867267966270447
1763693845235613400,11.369613525390625,2.7778286933898926,-9.375792503356934,0.7406542301177979
1763693845245661200,11.3796611328125,2.9647350311279297,-9.326692581176758,0.6273279786109924
1763693845255741200,11.3897412109375,3.162170648574829,-9.26732349395752,0.5364462733268738
1763693845265821200,11.3998212890625,3.3671915531158447,-9.199177742004395,0.45554879307746887
1763693845275951900,11.409951904296875,3.5732648372650146,-9.124333381652832,0.3856261372566223
1763693845286032000,11.420031982421875,3.7744572162628174,-9.0445556640625,0.3462153375148773
1763693845296111900,11.43011181640625,3.973318576812744,-8.958789825439453,0.35102376341819763
1763693845306173000,11.4401728515625,4.165158748626709,-8.86935043334961,0.39555609226226807
1763693845316253000,11.4502529296875,4.341752529144287,-8.781017303466797,0.4618479907512665
1763693845326333000,11.4603330078125,4.493469715118408,-8.700495719909668,0.529615581035614
1763693845336422000,11.470421875,4.613959789276123,-8.632305145263672,0.6041977405548096
1763693845346502000,11.480501953125,4.701889991760254,-8.578898429870605,0.6819878816604614
1763693845356582000,11.490581787109376,4.758656978607178,-8.541547775268555,0.7533441185951233
1763693845366661600,11.50066162109375,4.7827935218811035,-8.522078514099121,0.8181951642036438
1763693845376741600,11.51074169921875,4.775244235992432,-8.520965576171875,0.8721113204956055
1763693845386821600,11.520821533203126,4.7369561195373535,-8.538573265075684,0.9079688787460327
1763693845396896300,11.530896240234375,4.671546936035156,-8.573345184326172,0.9191234707832336
1763693845406976300,11.540976318359375,4.5865559577941895,-8.620892524719238,0.9022787809371948
1763693845417056300,11.55105615234375,4.495660781860352,-8.672951698303223,0.8598337769508362
1763693845427144200,11.561144287109375,4.407346248626709,-8.723559379577637,0.8032400012016296
1763693845437224200,11.57122412109375,4.30902624130249,-8.777334213256836,0.7490550875663757
1763693845447304200,11.58130419921875,4.1926679611206055,-8.836446762084961,0.7135351300239563
1763693845457401600,11.591401611328125,4.083641052246094,-8.888052940368652,0.7048224806785583
1763693845467481600,11.601481689453125,4.005903720855713,-8.921849250793457,0.7236911654472351
1763693845477561600,11.6115615234375,3.9552948474884033,-8.939705848693848,0.7795345783233643
1763693845487605500,11.62160546875,3.9364044666290283,-8.939191818237305,0.8751852512359619
1763693845497685500,11.631685546875,3.972876787185669,-8.91281509399414,0.9738423824310303
1763693845507765500,11.641765625,4.054470062255859,-8.867691993713379,1.0467555522918701
1763693845517860900,11.65186083984375,4.129419803619385,-8.826465606689453,1.1008187532424927
1763693845527940900,11.66194091796875,4.162398815155029,-8.807046890258789,1.1317028999328613
1763693845538020900,11.672020751953125,4.149608135223389,-8.811312675476074,1.1453851461410522
1763693845548064800,11.682064697265625,4.083215236663818,-8.842541694641113,1.143328070640564
1763693845558144800,11.692144775390625,3.95975399017334,-8.90504264831543,1.0913070440292358
1763693845568224800,11.702224853515625,3.8284389972686768,-8.972652435302734,1.0024759769439697
1763693845578353400,11.712353515625,3.7837119102478027,-8.999044418334961,0.9333353042602539
1763693845588433400,11.722433349609375,3.853764057159424,-8.974299430847168,0.8836467266082764
1763693845598513400,11.732513427734375,3.8691935539245605,-8.973824501037598,0.8186521530151367
1763693845608576800,11.74257666015625,3.754175901412964,-9.027148246765137,0.7662450671195984
1763693845618656800,11.75265673828125,3.603710651397705,-9.08987808227539,0.7468406558036804
1763693845628736800,11.76273681640625,3.4788334369659424,-9.137293815612793,0.760248601436615
1763693845648924000,11.782923828125,3.1459732055664062,-9.247970581054688,0.8650407791137695
1763693845659004000,11.79300390625,2.885190010070801,-9.327147483825684,0.9221606850624084
1763693845669069600,11.803069580078125,2.5939390659332275,-9.407773971557617,0.9672896862030029
1763693845679149600,11.813149658203125,2.296071767807007,-9.47955322265625,1.0180902481079102
1763693845689229600,11.8232294921875,2.01059889793396,-9.537500381469727,1.078870177268982
1763693845699294000,11.8332939453125,1.7462642192840576,-9.582066535949707,1.1423405408859253
1763693845709374000,11.8433740234375,1.4968219995498657,-9.61743450164795,1.197864294052124
1763693845719454000,11.853453857421876,1.2623440027236938,-9.646759033203125,1.2316275835037231
1763693845729533200,11.863533203125,1.0416669845581055,-9.67147445678711,1.2441487312316895
1763693845739613200,11.87361328125,0.8300296068191528,-9.690800666809082,1.2529226541519165
1763693845749693200,11.883693115234376,0.6249585747718811,-9.703150749206543,1.2761895656585693
1763693845759758600,11.893758544921875,0.4227117598056793,-9.707742691040039,1.323418378829956
1763693845769838600,11.903838623046875,0.2234242707490921,-9.705808639526367,1.3848263025283813
1763693845779918600,11.913918701171875,0.035414278507232666,-9.698307991027832,1.4532550573349
1763693845790009900,11.924009765625,-0.1397852897644043,-9.685491561889648,1.530388593673706
1763693845800089600,11.934089599609376,-0.3144174814224243,-9.666687965393066,1.620704174041748
1763693845810169900,11.944169921875,-0.49594128131866455,-9.641461372375488,1.72239089012146
1763693845820266500,11.9542666015625,-0.6754242181777954,-9.611546516418457,1.8254777193069458
1763693845830346500,11.964346435546876,-0.8396209478378296,-9.580138206481934,1.9199912548065186
1763693845840426500,11.974426513671874,-0.9815326929092407,-9.548892974853516,2.0063929557800293
1763693845851065000,11.985065185546874,-1.105721116065979,-9.514901161193848,2.101057767868042
1763693845861146400,11.995146484375,-1.207440972328186,-9.478707313537598,2.2060322761535645
1763693845871227400,12.005227294921875,-1.3048584461212158,-9.436727523803711,2.327207565307617
1763693845881326600,12.01532666015625,-1.4027763605117798,-9.389350891113281,2.45818829536438
1763693845891408000,12.025407958984376,-1.5023397207260132,-9.337618827819824,2.592726469039917
1763693845901489000,12.035489013671874,-1.6036871671676636,-9.281770706176758,2.7289793491363525
1763693845921050000,12.055050048828125,-1.762547254562378,-9.175168991088867,2.9799489974975586
1763693845931131100,12.065131103515625,-1.8137973546981812,-9.126944541931152,3.095062255859375
1763693845941245400,12.075245361328125,-1.8511476516723633,-9.083352088928223,3.199429750442505
1763693845951326700,12.08532666015625,-1.880202054977417,-9.046292304992676,3.286306381225586
1763693845961407700,12.09540771484375,-1.9022802114486694,-9.018369674682617,3.349733352661133
1763693845971453700,12.10545361328125,-1.9204941987991333,-8.9981689453125,3.393383741378784
1763693845981534700,12.11553466796875,-1.9357002973556519,-8.980362892150879,3.4316959381103516
1763693845991616000,12.125615966796875,-1.9439271688461304,-8.962987899780273,3.472228527069092
1763693846001690000,12.135690185546874,-1.9386333227157593,-8.948822975158691,3.5115041732788086
1763693846011771100,12.145771240234374,-1.9156553745269775,-8.940408706665039,3.545382261276245
1763693846021852200,12.15585205078125,-1.8727270364761353,-8.937870979309082,3.5745959281921387
1763693846031902000,12.16590185546875,-1.8079267740249634,-8.941363334655762,3.5991384983062744
1763693846041983200,12.175983154296874,-1.7175443172454834,-8.952073097229004,3.616741418838501
1763693846052064300,12.186064208984375,-1.5873115062713623,-8.972229957580566,3.626279592514038
1763693846062180600,12.1961806640625,-1.4075124263763428,-9.005279541015625,3.61859393119812
1763693846072262000,12.206261962890625,-1.1850217580795288,-9.054946899414062,3.5740795135498047
1763693846082343000,12.216343017578126,-0.9267042279243469,-9.121150970458984,3.4808349609375
1763693846092436200,12.226436279296875,-0.6537014842033386,-9.193154335021973,3.350965976715088
1763693846102517200,12.236517333984375,-0.3708314299583435,-9.258214950561523,3.2122156620025635
1763693846112598500,12.2465986328125,-0.06620772927999496,-9.313258171081543,3.0707032680511475
1763693846122670300,12.25667041015625,0.2317655086517334,-9.362937927246094,2.9072442054748535
1763693846132751600,12.266751708984375,0.4913257658481598,-9.412752151489258,2.7072296142578125
1763693846142832600,12.27683251953125,0.7232986092567444,-9.461993217468262,2.473440647125244
1763693846152918000,12.28691796875,0.958175003528595,-9.503283500671387,2.2225863933563232
1763693846162999000,12.2969990234375,1.199312686920166,-9.529181480407715,1.9816023111343384
1763693846173080300,12.307080322265625,1.436104655265808,-9.539107322692871,1.7644885778427124
1763693846183150800,12.31715087890625,1.671014666557312,-9.536022186279297,1.562809944152832
1763693846193232100,12.327232177734375,1.9125993251800537,-9.520773887634277,1.3664684295654297
1763693846203313200,12.337313232421875,2.155045509338379,-9.493511199951172,1.1829637289047241
1763693846213394400,12.34739453125,2.3893606662750244,-9.45594310760498,1.022976279258728
1763693846223475500,12.357475341796874,2.6169347763061523,-9.409747123718262,0.8824447989463806
1763693846233556500,12.367556396484375,2.8408267498016357,-9.35611629486084,0.7504532933235168
1763693846243636000,12.377635986328125,3.058915615081787,-9.296920776367188,0.6169964671134949
1763693846253717200,12.38771728515625,3.2647268772125244,-9.235001564025879,0.4761202931404114
1763693846263798300,12.39779833984375,3.4472081661224365,-9.175030708312988,0.32550886273384094
1763693846273856800,12.407856689453125,3.5956003665924072,-9.122177124023438,0.16709314286708832
1763693846283937800,12.417937744140625,3.7063372135162354,-9.079268455505371,0.01799056865274906
1763693846294019000,12.42801904296875,3.7851359844207764,-9.046258926391602,-0.09114492684602737
1763693846304079600,12.43807958984375,3.850231409072876,-9.0181245803833,-0.13981685042381287
1763693846314161000,12.448160888671875,3.924259662628174,-8.986422538757324,-0.12159029394388199
1763693846324242000,12.458241943359376,4.0220489501953125,-8.94381332397461,-0.041153986006975174
1763693846334321700,12.46832177734375,4.137523651123047,-8.890637397766113,0.08855034410953522
1763693846344402700,12.478402587890624,4.248671531677246,-8.834884643554688,0.25290754437446594
1763693846354484000,12.48848388671875,4.326013088226318,-8.790353775024414,0.43090906739234924
1763693846364568000,12.498568115234375,4.33870267868042,-8.77458381652832,0.5939281582832336
1763693846374649300,12.5086494140625,4.2680583000183105,-8.799985885620117,0.7171591520309448
1763693846384730400,12.51873046875,4.114717960357666,-8.865839958190918,0.7977191209793091
1763693846394807600,12.5288076171875,3.8935210704803467,-8.960183143615723,0.8520532250404358
1763693846404888600,12.538888671875,3.623819589614868,-9.069158554077148,0.888074517250061
1763693846425098800,12.5590986328125,3.027958869934082,-9.284706115722656,0.8922299146652222
1763693846435180000,12.569179931640624,2.768716812133789,-9.366127014160156,0.8833288550376892
1763693846445261000,12.579260986328125,2.5655136108398438,-9.423633575439453,0.8852381706237793
1763693846455317000,12.58931689453125,2.422089099884033,-9.461034774780273,0.8903398513793945
1763693846465398000,12.59939794921875,2.328315258026123,-9.484711647033691,0.8885883092880249
1763693846475479300,12.609479248046876,2.2819340229034424,-9.497146606445312,0.8760014176368713
1763693846485554000,12.619553955078125,2.2895419597625732,-9.49748420715332,0.8521662354469299
1763693846495635000,12.629635009765625,2.338740587234497,-9.488990783691406,0.8122307062149048
1763693846505716200,12.63971630859375,2.398707628250122,-9.478734016418457,0.75511234998703
1763693846515786500,12.649786376953125,2.442598581314087,-9.471975326538086,0.6969819664955139
1763693846525867500,12.659867431640626,2.45648455619812,-9.47082805633545,0.6629425883293152
1763693846535948800,12.66994873046875,2.441746473312378,-9.472277641296387,0.6958498358726501
1763693846546017500,12.680017578125,2.4608802795410156,-9.455432891845703,0.8421626687049866
1763693846556098800,12.690098876953124,2.6389129161834717,-9.386127471923828,1.052211046218872
1763693846566179800,12.700179931640625,2.882025957107544,-9.312800407409668,1.0658626556396484
1763693846576254500,12.71025439453125,2.882633924484253,-9.33925724029541,0.7994194030761719
1763693846586335700,12.720335693359376,2.7069759368896484,-9.411413192749023,0.5176703333854675
1763693846596416800,12.730416748046874,2.5582127571105957,-9.459556579589844,0.37777888774871826
1763693846606485500,12.740485595703126,2.426079511642456,-9.495787620544434,0.3384280204772949
1763693846616566500,12.75056640625,2.2446558475494385,-9.538646697998047,0.3822583556175232
1763693846626647800,12.760647705078124,2.045225143432617,-9.577238082885742,0.5137757658958435
1763693846636737000,12.770737060546875,1.8435522317886353,-9.60486888885498,0.7198704481124878
1763693846646818000,12.780818115234375,1.6114799976348877,-9.620397567749023,1.0106747150421143
1763693846656899300,12.7908994140625,1.3694255352020264,-9.617308616638184,1.342551589012146
1763693846666995200,12.8009951171875,1.1506725549697876,-9.609304428100586,1.5835431814193726
1763693846677076200,12.811076171875,0.9177146553993225,-9.615141868591309,1.6962428092956543
1763693846687157200,12.8211572265625,0.627252995967865,-9.62717342376709,1.7591123580932617
1763693846697257000,12.831257080078124,0.30722737312316895,-9.631253242492676,1.8207060098648071
1763693846707338200,12.841338134765625,-0.011344905942678452,-9.623104095458984,1.8884167671203613
1763693846717419300,12.851419189453125,-0.3186679780483246,-9.603898048400879,1.9580576419830322
1763693846727436500,12.8614365234375,-0.591557502746582,-9.57722282409668,2.0241706371307373
1763693846737517800,12.871517822265625,-0.8100923299789429,-9.545296669006348,2.0979647636413574
1763693846747598800,12.881598876953126,-0.976215124130249,-9.507004737854004,2.19869327545166
1763693846757746700,12.89174658203125,-1.1028255224227905,-9.461711883544922,2.3302724361419678
1763693846767828000,12.901827880859376,-1.1926268339157104,-9.41335391998291,2.477257013320923
1763693846777909000,12.911908935546874,-1.2550970315933228,-9.365748405456543,2.6225714683532715
1763693846787935000,12.92193505859375,-1.2945902347564697,-9.31971549987793,2.763573169708252
1763693846798016000,12.93201611328125,-1.3140472173690796,-9.271631240844727,2.9121322631835938
1763693846808097300,12.94209716796875,-1.3156734704971313,-9.219904899597168,3.0712742805480957
1763693846818144500,12.95214453125,-1.3002458810806274,-9.167779922485352,3.2297942638397217
1763693846828225500,12.9622255859375,-1.2643764019012451,-9.119515419006348,3.3773043155670166
1763693846838306800,12.972306884765626,-1.1981732845306396,-9.08034610748291,3.5045783519744873
1763693846848503800,12.98250390625,-1.0970042943954468,-9.054159164428711,3.6040494441986084
1763693846858584800,12.992584716796875,-0.979766845703125,-9.042621612548828,3.666257619857788
1763693846868665900,13.002665771484375,-0.8632482290267944,-9.044806480407715,3.690075159072876
1763693846878678800,13.0126787109375,-0.7529057860374451,-9.058451652526855,3.6807568073272705
1763693846888758800,13.0227587890625,-0.6414548754692078,-9.079805374145508,3.6491167545318604
1763693846898838500,13.032838623046874,-0.5225395560264587,-9.1063814163208,3.601548671722412
1763693846908893400,13.0428935546875,-0.3984421491622925,-9.136448860168457,3.540755033493042
1763693846918973200,13.05297314453125,-0.2757832407951355,-9.168834686279297,3.4679675102233887
1763693846929053200,13.06305322265625,-0.15073952078819275,-9.202914237976074,3.3843801021575928
1763693846939169000,13.0731689453125,-0.007035187445580959,-9.238322257995605,3.2899467945098877
1763693846949249000,13.0832490234375,0.16245099902153015,-9.272122383117676,3.189317226409912
1763693846959328800,13.093328857421875,0.35707858204841614,-9.300564765930176,3.0890777111053467
1763693846969361200,13.103361083984375,0.573451578617096,-9.321842193603516,2.990786075592041
1763693846979441200,13.113441162109375,0.8087129592895508,-9.337942123413086,2.8843040466308594
1763693846989521000,13.12352099609375,1.0543497800827026,-9.35253620147705,2.7547788619995117
1763693846999602000,13.133601806640625,1.2916332483291626,-9.370664596557617,2.5870296955108643
1763693847009681700,13.143681640625,1.4968907833099365,-9.399008750915527,2.3639655113220215
1763693847019761700,13.15376171875,1.6939868927001953,-9.433873176574707,2.074326753616333
1763693847029835500,13.16383544921875,1.9089763164520264,-9.461621284484863,1.733181118965149
1763693847039915300,13.173915283203126,2.118640661239624,-9.474692344665527,1.3827351331710815
1763693847049995300,13.183995361328124,2.3181378841400146,-9.468923568725586,1.065886378288269
1763693847060081000,13.194080810546875,2.516780376434326,-9.445660591125488,0.7846660614013672
1763693847070161000,13.204160888671876,2.7085492610931396,-9.41048812866211,0.5261674523353577
1763693847080240600,13.21424072265625,2.8839704990386963,-9.368749618530273,0.2822021245956421
1763693847090336000,13.2243359375,3.053245782852173,-9.31912899017334,0.04389474168419838
1763693847100415700,13.234415771484375,3.2241640090942383,-9.259830474853516,-0.17519019544124603
1763693847110495500,13.24449560546875,3.382625102996826,-9.198657989501953,-0.33604955673217773
1763693847121199400,13.255199462890625,3.5251638889312744,-9.141594886779785,-0.4181666076183319
1763693847131279000,13.265279052734375,3.6447765827178955,-9.094473838806152,-0.42015206813812256
1763693847141359000,13.275359130859375,3.7662158012390137,-9.046953201293945,-0.3723576068878174
1763693847151399400,13.2853994140625,3.88647198677063,-8.999170303344727,-0.2840307056903839
1763693847161479200,13.295479248046876,4.00067663192749,-8.952238082885742,-0.149728462100029
1763693847171559000,13.305558837890626,4.100944995880127,-8.907941818237305,0.034809090197086334
1763693847181632000,13.315632080078124,4.166067123413086,-8.874191284179688,0.2510194480419159
1763693847191711700,13.325711669921875,4.161652088165283,-8.868518829345703,0.4477028548717499
1763693847201791700,13.335791748046875,4.063320636749268,-8.905767440795898,0.5891604423522949
1763693847211307300,13.345307373046875,3.8824615478515625,-8.978797912597656,0.691430389881134
1763693847221387300,13.35538720703125,3.623765468597412,-9.078020095825195,0.7926257848739624
1763693847231467000,13.365467041015625,3.3385305404663086,-9.178333282470703,0.884753942489624
1763693847241548000,13.375548095703126,3.0681467056274414,-9.264105796813965,0.9660260677337646
1763693847251627800,13.385627685546876,2.837682008743286,-9.329268455505371,1.0405187606811523
1763693847261707500,13.39570751953125,2.6586503982543945,-9.3743257522583,1.106337070465088
1763693847271761400,13.405761474609376,2.53580904006958,-9.402148246765137,1.1574413776397705
1763693847291921200,13.425921142578124,2.400090217590332,-9.437484741210938,1.1592408418655396
1763693847302045400,13.43604541015625,2.3319549560546875,-9.465301513671875,1.0679126977920532
1763693847312125200,13.446125244140624,2.25301194190979,-9.500432014465332,0.9143860936164856
1763693847322205200,13.456205078125,2.159797430038452,-9.538155555725098,0.7274926900863647
