time,seconds_elapsed,z,y,x
1763696718571110700,0.052110595703125,0.08696253597736359,0.22557377815246582,0.5559958815574646
1763696718581062000,0.062061767578125,0.04056877642869949,0.3425695300102234,0.5370953679084778
1763696718591012600,0.0720126953125,0.004645396489650011,0.4180222153663635,0.4598485231399536
1763696718600963800,0.0819638671875,-0.004730774089694023,0.42130792140960693,0.3449859023094177
1763696718610915000,0.0919150390625,-0.007413376122713089,0.3557523488998413,0.21778401732444763
1763696718620865800,0.10186572265625,-0.013631816022098064,0.26671549677848816,0.09824416786432266
1763696718630817800,0.11181787109375,-0.021419430151581764,0.1707572638988495,-0.004124013241380453
1763696718640768800,0.121768798828125,-0.030299436300992966,0.0898980051279068,-0.07246023416519165
1763696718650720000,0.131719970703125,-0.04171134904026985,-0.005120913963764906,-0.10273824632167816
1763696718660670700,0.141670654296875,-0.04017603024840355,-0.11515174806118011,-0.1030246764421463
1763696718670622000,0.1516220703125,-0.03228934854269028,-0.19083371758460999,-0.09871621429920197
1763696718680572700,0.16157275390625,-0.020273983478546143,-0.19122803211212158,-0.10084788501262665
1763696718690524000,0.17152392578125,0.0022534294985234737,-0.13870756328105927,-0.10461758822202682
1763696718700474600,0.181474609375,0.02475287951529026,-0.10195675492286682,-0.09516549855470657
1763696718710425900,0.19142578125,0.040252476930618286,-0.11580785363912582,-0.059058625251054764
1763696718720376800,0.201376953125,0.0578455813229084,-0.15943139791488647,-0.0007755502592772245
1763696718730327800,0.211327880859375,0.07258298993110657,-0.19895297288894653,0.07741618901491165
1763696718740278800,0.22127880859375,0.07805963605642319,-0.19341018795967102,0.1502476930618286
1763696718750229800,0.231229736328125,0.06811858713626862,-0.13917304575443268,0.18737375736236572
1763696718760180700,0.2411806640625,0.057284846901893616,-0.04407689347863197,0.17659008502960205
1763696718770131700,0.251131591796875,0.04575507715344429,0.04866250976920128,0.12324433028697968
1763696718780083000,0.2610830078125,0.0411885529756546,0.08579257130622864,0.06662845611572266
1763696718790034000,0.271033935546875,0.033760201185941696,0.07252699881792068,0.029753461480140686
1763696718799985000,0.28098486328125,0.02462117373943329,0.021196216344833374,0.04453437402844429
1763696718809936000,0.290935791015625,0.02566433511674404,-0.024390708655118942,0.10489092022180557
1763696718819886800,0.300886962890625,0.028863469138741493,-0.08744252473115921,0.21520249545574188
1763696718829837800,0.310837890625,0.034520555287599564,-0.17634016275405884,0.3306630551815033
1763696718839788800,0.320788818359375,0.026632804423570633,-0.2332315891981125,0.4178091883659363
1763696718849739800,0.33073974609375,0.01084531843662262,-0.2526945173740387,0.46155664324760437
1763696718859691000,0.34069091796875,-0.006833319552242756,-0.308472603559494,0.4751721918582916
1763696718869641700,0.350641845703125,-0.00869833119213581,-0.3889879584312439,0.5004581212997437
1763696718879593000,0.360593017578125,0.00871345680207014,-0.3363504111766815,0.5195057988166809
1763696718889543700,0.370543701171875,0.027001649141311646,-0.2577775716781616,0.5137408375740051
1763696718899495000,0.380494873046875,0.03471435233950615,-0.1123751848936081,0.4113956689834595
1763696718909446000,0.39044580078125,-0.0038167969323694706,0.03741005063056946,0.18819615244865417
1763696718919396900,0.40039697265625,-0.0604340024292469,0.006041740532964468,-0.08706285059452057
1763696718929347800,0.410347900390625,-0.09265230596065521,-0.14577257633209229,-0.3149358928203583
1763696718939298800,0.420298828125,-0.1122707724571228,-0.25943753123283386,-0.4559662938117981
1763696718949249800,0.430249755859375,-0.11157462000846863,-0.2594236731529236,-0.48190122842788696
1763696718959200800,0.44020068359375,-0.09042736142873764,-0.1918005645275116,-0.3975186049938202
1763696718969151700,0.45015185546875,-0.06802165508270264,-0.08774181455373764,-0.2535494565963745
1763696718979103000,0.46010302734375,-0.059099696576595306,-0.000983700854703784,-0.12299560010433197
1763696718989053700,0.4700537109375,-0.06983170658349991,0.05599702522158623,-0.052996281534433365
1763696718999005700,0.480005615234375,-0.09345076233148575,0.11186661571264267,-0.053956352174282074
1763696719008957000,0.48995703125,-0.11437788605690002,0.1809186488389969,-0.1079665943980217
1763696719018908000,0.499907958984375,-0.1286468803882599,0.2486136257648468,-0.1865614801645279
1763696719028859000,0.50985888671875,-0.13365735113620758,0.3123182952404022,-0.2709357738494873
1763696719038809900,0.519809814453125,-0.14388073980808258,0.39898577332496643,-0.3620290458202362
1763696719048760800,0.5297607421875,-0.1648145169019699,0.4627082943916321,-0.4454677402973175
1763696719058711800,0.5397119140625,-0.20934011042118073,0.49771052598953247,-0.5176956057548523
1763696719068662800,0.549662841796875,-0.2714511752128601,0.5445401072502136,-0.5797924995422363
1763696719078613800,0.55961376953125,-0.3390826880931854,0.6790726184844971,-0.6253018975257874
1763696719088565000,0.56956494140625,-0.3940702974796295,0.8584487438201904,-0.6511508226394653
1763696719098515700,0.579515625,-0.4244905710220337,1.0787603855133057,-0.6605342030525208
1763696719108467000,0.589467041015625,-0.44327622652053833,1.2962006330490112,-0.6478671431541443
1763696719118417700,0.599417724609375,-0.44486427307128906,1.4733750820159912,-0.602540910243988
1763696719128369000,0.609368896484375,-0.4373549520969391,1.6066628694534302,-0.5290073156356812
1763696719138319600,0.619319580078125,-0.4395376741886139,1.72151517868042,-0.43456190824508667
1763696719148270800,0.629270751953125,-0.45514142513275146,1.838287353515625,-0.320926696062088
1763696719158221800,0.639221923828125,-0.48001760244369507,2.0037386417388916,-0.2076539546251297
1763696719168172800,0.6491728515625,-0.5044190883636475,2.2478268146514893,-0.12221468985080719
1763696719178123800,0.659123779296875,-0.5120453238487244,2.544511318206787,-0.09478573501110077
1763696719188074800,0.66907470703125,-0.4949718117713928,3.067626953125,-0.1869755983352661
1763696719198026000,0.67902587890625,-0.44287994503974915,2.837784767150879,-0.22756551206111908
1763696719207976700,0.688976806640625,-0.7594823837280273,2.25165057182312,-0.28255367279052734
1763696719217928000,0.698927978515625,-0.8082347512245178,1.6013662815093994,-0.48283934593200684
1763696719227879000,0.70887890625,-0.6856616735458374,1.7986655235290527,-0.7146310210227966
1763696719237830000,0.718829833984375,-0.6126840710639954,2.0983846187591553,-0.8727259635925293
1763696719247780900,0.72878076171875,-0.5966709852218628,2.4293019771575928,-0.8874197006225586
1763696719257731800,0.73873193359375,-0.5962794423103333,2.8591363430023193,-0.8418522477149963
1763696719267682800,0.748682861328125,-0.5890827775001526,3.38441801071167,-0.7910311818122864
1763696719277633800,0.7586337890625,-0.5586497187614441,3.891273021697998,-0.7660648226737976
1763696719287584800,0.768584716796875,-0.49550431966781616,4.239681720733643,-0.7695474028587341
1763696719297536000,0.778535888671875,-0.41990357637405396,4.361662864685059,-0.7935742735862732
1763696719307486700,0.78848681640625,-0.33607152104377747,4.285970687866211,-0.8343395590782166
1763696719317438000,0.79843798828125,-0.24124176800251007,4.119007587432861,-0.8633005619049072
1763696719327388700,0.808388671875,-0.12381313741207123,3.814673900604248,-0.8505133986473083
1763696719337340000,0.81833984375,-0.016293175518512726,3.3796865940093994,-0.7845355868339539
1763696719347290600,0.82829052734375,0.03193480893969536,2.9335556030273438,-0.6072460412979126
1763696719357241600,0.83824169921875,0.06184075400233269,2.461324691772461,-0.35920169949531555
1763696719367192600,0.848192626953125,0.05952513590455055,2.0448853969573975,-0.08930522948503494
1763696719377143600,0.8581435546875,-0.008178459480404854,1.712661862373352,0.1614457070827484
1763696719387095600,0.868095458984375,-0.10592126846313477,1.2385321855545044,0.34061840176582336
1763696719397046500,0.878046630859375,-0.1840069591999054,0.6396600008010864,0.3868555426597595
1763696719406997500,0.88799755859375,-0.25184887647628784,-0.04475587233901024,0.354723185300827
1763696719416948500,0.897948486328125,-0.29575011134147644,-0.5708157420158386,0.328125
1763696719426899500,0.9078994140625,-0.3052815794944763,-0.7401975989341736,0.326779842376709
1763696719436850400,0.917850341796875,-0.2770027816295624,-0.7706465721130371,0.33236050605773926
1763696719446801400,0.927801513671875,-0.20714770257472992,-0.7334754467010498,0.3514717221260071
1763696719456752600,0.937752685546875,-0.058701060712337494,-0.6341243386268616,0.38713961839675903
1763696719466703600,0.94770361328125,0.09488849341869354,-0.6373392939567566,0.49922701716423035
1763696719476654600,0.957654541015625,0.19065314531326294,-0.6748566627502441,0.6312944293022156
1763696719486605600,0.96760546875,0.2073487788438797,-0.7236369848251343,0.7628593444824219
1763696719496556500,0.977556640625,0.19858808815479279,-0.7441685199737549,0.8869182467460632
1763696719506507500,0.987507568359375,0.228328138589859,-0.7060056924819946,0.9862469434738159
1763696719516458500,0.99745849609375,0.2757910192012787,-0.5517122745513916,1.072213053703308
1763696719526409700,1.00740966796875,0.3122907280921936,-0.33474162220954895,1.1578246355056763
1763696719536360400,1.0173603515625,0.3274244964122772,-0.08643855899572372,1.2090033292770386
1763696719546311700,1.027311767578125,0.3493468165397644,0.1893770396709442,1.2413990497589111
1763696719556262400,1.037262451171875,0.3889174163341522,0.4640730321407318,1.2336522340774536
1763696719566213600,1.047213623046875,0.42061302065849304,0.6323933601379395,1.1976739168167114
1763696719576164600,1.05716455078125,0.4126850962638855,0.6047097444534302,1.166213035583496
1763696719586115600,1.067115478515625,0.3575558066368103,0.5297404527664185,1.1251603364944458
1763696719596066600,1.077066650390625,0.2615535259246826,0.3877282440662384,1.0716571807861328
1763696719606017500,1.087017578125,0.17161884903907776,0.26558953523635864,0.9860277771949768
1763696719615968500,1.096968505859375,0.14671821892261505,0.3231230676174164,0.8621956706047058
1763696719625919500,1.10691943359375,0.09787371754646301,0.3517368733882904,0.7760205864906311
1763696719635870500,1.116870361328125,0.0568825863301754,0.48208990693092346,0.6796101331710815
1763696719645821700,1.12682177734375,0.015704257413744926,0.718103289604187,0.5346390604972839
1763696719655772400,1.1367724609375,-0.024565689265727997,0.915991485118866,0.3577977120876312
1763696719665723600,1.1467236328125,-0.008196570910513401,0.9321441054344177,0.21833887696266174
1763696719675674400,1.15667431640625,-0.02538631111383438,0.845970869064331,0.15064775943756104
1763696719685625600,1.16662548828125,-0.08035209029912949,0.4937595725059509,0.23120279610157013
1763696719695576300,1.176576416015625,-0.24947886168956757,-0.0884215235710144,0.41330021619796753
1763696719705527600,1.186527587890625,-0.41509896516799927,-0.18879979848861694,0.453682541847229
1763696719715478500,1.196478515625,-0.469653844833374,0.05488859489560127,0.3060373365879059
1763696719725429500,1.206429443359375,-0.4605668783187866,0.2649422287940979,0.15609337389469147
1763696719735380700,1.216380615234375,-0.42491260170936584,0.4520966112613678,0.10126131772994995
1763696719745331500,1.22633154296875,-0.3435988426208496,0.6718395948410034,0.13391326367855072
1763696719755282700,1.23628271484375,-0.2260843813419342,0.951445996761322,0.20421148836612701
1763696719765233400,1.2462333984375,-0.10338163375854492,1.3108718395233154,0.24998882412910461
1763696719775185700,1.256185546875,-0.00787123292684555,1.5647356510162354,0.32670214772224426
1763696719785136400,1.266136474609375,0.10126058012247086,1.736886739730835,0.5227465033531189
1763696719795087600,1.276087646484375,0.283015638589859,1.8385728597640991,0.841698944568634
1763696719805038300,1.286038330078125,0.5367679595947266,1.8976542949676514,1.2622005939483643
1763696719814989600,1.295989501953125,0.8036643862724304,2.0331339836120605,1.6628504991531372
1763696719824940500,1.3059404296875,0.9766904711723328,2.2067997455596924,1.8786672353744507
1763696719834891500,1.3158916015625,0.986359179019928,2.181772232055664,1.9411203861236572
1763696719844842500,1.325842529296875,0.8656948208808899,1.9771875143051147,1.943433403968811
1763696719854793500,1.33579345703125,0.5958819389343262,1.7661021947860718,1.8413138389587402
1763696719864744400,1.345744384765625,0.308901846408844,1.5893371105194092,1.665732502937317
1763696719874695400,1.3556953125,0.07123915106058121,1.5337002277374268,1.4064419269561768
1763696719884646700,1.365646728515625,-0.09100674837827682,1.6117655038833618,1.148864984512329
1763696719894597600,1.37559765625,-0.15581880509853363,1.7410742044448853,1.0115773677825928
1763696719904548600,1.385548583984375,-0.18127010762691498,1.9082621335983276,1.0235631465911865
1763696719914499600,1.39549951171875,-0.24900096654891968,1.9660453796386719,1.1139966249465942
1763696719924450600,1.405450439453125,-0.3696802258491516,1.931825876235962,1.1902741193771362
1763696719934401500,1.415401611328125,-0.5067388415336609,1.89809250831604,1.222373127937317
1763696719944352500,1.4253525390625,-0.5649816393852234,1.9169026613235474,1.2112482786178589
1763696719954303500,1.435303466796875,-0.45992445945739746,1.950088620185852,1.1650408506393433
1763696719964254700,1.445254638671875,-0.21512363851070404,2.0455551147460938,1.0282096862792969
1763696719974205400,1.455205322265625,0.040015965700149536,2.1393918991088867,0.7868631482124329
1763696719984156700,1.46515673828125,0.18881955742835999,2.077178478240967,0.5553702712059021
1763696719994107400,1.475107421875,0.19727742671966553,1.9344547986984253,0.3470659554004669
1763696720004058600,1.48505859375,0.14216330647468567,1.8734718561172485,0.2316426932811737
1763696720014009600,1.495009521484375,-0.02429337054491043,1.8126015663146973,0.17277862131595612
1763696720023960600,1.504960693359375,-0.2914901673793793,1.8422462940216064,0.17175117135047913
1763696720033911600,1.51491162109375,-0.5252919793128967,2.0037002563476562,0.21412907540798187
1763696720043862500,1.524862548828125,-0.7089661955833435,2.2612743377685547,0.2805302143096924
1763696720053813500,1.5348134765625,-0.849521815776825,2.4205338954925537,0.3833489716053009
1763696720063764500,1.544764404296875,-0.9571194052696228,2.1724460124969482,0.5147626399993896
1763696720073715500,1.554715576171875,-1.0013803243637085,1.4140305519104004,0.6856012344360352
1763696720083666700,1.564666748046875,-0.9385846853256226,0.7085086107254028,0.798977792263031
1763696720093617400,1.574617431640625,-0.8038483262062073,0.3242054283618927,0.803288996219635
1763696720103568600,1.584568603515625,-0.6509871482849121,0.2780033349990845,0.78841233253479
1763696720113519400,1.594519287109375,-0.5133811235427856,0.42254704236984253,0.7689506411552429
1763696720123470600,1.604470703125,-0.41911718249320984,0.7719990015029907,0.6946406960487366
1763696720133421300,1.61442138671875,-0.35092392563819885,1.1017875671386719,0.5352659225463867
1763696720143372500,1.62437255859375,-0.337312787771225,1.1282082796096802,0.35016128420829773
1763696720153323800,1.63432373046875,-0.3704823851585388,0.9544869661331177,0.2086218148469925
1763696720163275500,1.644275634765625,-0.4028046429157257,0.6673771739006042,0.1438492089509964
1763696720173226500,1.6542265625,-0.3916628956794739,0.3325278162956238,0.17541654407978058
1763696720183177500,1.664177490234375,-0.3198230564594269,0.09165184199810028,0.2820543050765991
1763696720193128700,1.674128662109375,-0.26992836594581604,0.04092021286487579,0.4395838677883148
1763696720203079400,1.684079345703125,-0.27975913882255554,0.11566369235515594,0.6197914481163025
1763696720213030700,1.69403076171875,-0.3314337730407715,0.17838555574417114,0.7575048804283142
1763696720222981400,1.7039814453125,-0.39947086572647095,0.18258988857269287,0.8199275135993958
1763696720232932600,1.7139326171875,-0.4352365732192993,0.1413293331861496,0.8068317174911499
1763696720242883300,1.72388330078125,-0.4129214286804199,-0.05506335198879242,0.7458200454711914
1763696720252834600,1.73383447265625,-0.3093617558479309,-0.3580363690853119,0.6537933349609375
1763696720262785500,1.74378564453125,-0.14239564538002014,-0.7315505743026733,0.558563768863678
1763696720272736500,1.753736572265625,0.024624492973089218,-1.1012351512908936,0.45690274238586426
1763696720282687500,1.7636875,0.18240614235401154,-1.3975766897201538,0.327627569437027
1763696720292638500,1.773638427734375,0.3250159025192261,-1.5699278116226196,0.162933349609375
1763696720302589700,1.783589599609375,0.42573851346969604,-1.7191219329833984,-0.049620725214481354
1763696720312540400,1.79354052734375,0.42872104048728943,-1.950706958770752,-0.26706475019454956
1763696720322491600,1.80349169921875,0.36637723445892334,-2.139972686767578,-0.4548932611942291
1763696720332442600,1.813442626953125,0.3328160345554352,-2.1064679622650146,-0.6351467967033386
1763696720342393900,1.823393798828125,0.36071503162384033,-1.7963334321975708,-0.8146215081214905
1763696720352344800,1.8333447265625,0.4170988202095032,-1.4033921957015991,-0.9853801727294922
1763696720362295800,1.8432958984375,0.4017273187637329,-0.977454662322998,-1.1014466285705566
1763696720372246800,1.853246826171875,0.2977195680141449,-0.7082632184028625,-1.1291179656982422
1763696720382197800,1.86319775390625,0.21203848719596863,-0.6081406474113464,-1.061211109161377
1763696720392148700,1.873148681640625,0.1750190407037735,-0.49375849962234497,-0.9395033121109009
1763696720402100000,1.883099853515625,0.19568383693695068,-0.293440043926239,-0.8443301916122437
1763696720412050700,1.89305078125,0.29846563935279846,-0.03753351420164108,-0.8152759075164795
1763696720422002000,1.903001953125,0.4325142502784729,0.22558465600013733,-0.8144809603691101
1763696720431952600,1.91295263671875,0.5276672840118408,0.41671299934387207,-0.8421128988265991
1763696720441903900,1.92290380859375,0.5650801658630371,0.5646928548812866,-0.915347695350647
1763696720451854800,1.932854736328125,0.5682455897331238,0.7950451970100403,-1.0532647371292114
1763696720461805800,1.942805908203125,0.5516977906227112,1.033718466758728,-1.2159146070480347
1763696720471757000,1.952757080078125,0.5267828106880188,1.194541096687317,-1.347399115562439
1763696720481707800,1.962707763671875,0.49493324756622314,1.340158224105835,-1.416817307472229
1763696720491659000,1.972658935546875,0.4647483825683594,1.518410563468933,-1.418878197669983
1763696720501609700,1.982609619140625,0.4650815427303314,1.620192050933838,-1.3213566541671753
1763696720511561000,1.99256103515625,0.4694124162197113,1.5285229682922363,-1.1403679847717285
1763696720521511700,2.00251171875,0.40715861320495605,1.206432580947876,-0.9127600193023682
1763696720531463000,2.012462890625,0.29227215051651,0.7477375864982605,-0.6846492290496826
1763696720541414000,2.022413818359375,0.16216926276683807,0.38263392448425293,-0.49663832783699036
1763696720551364900,2.03236474609375,0.05745508149266243,-0.04210970550775528,-0.3297576904296875
1763696720561315800,2.04231591796875,0.01828157901763916,-0.34747812151908875,-0.17772024869918823
1763696720571267800,2.052267822265625,0.01952240988612175,-0.4615938067436218,-0.05189047008752823
1763696720581218800,2.06221875,0.07135471701622009,-0.4638702869415283,0.0972990170121193
1763696720591169800,2.072169677734375,0.12473044544458389,-0.44844290614128113,0.25975731015205383
1763696720601121000,2.08212109375,0.09632836282253265,-0.3920675218105316,0.3749920427799225
1763696720611071700,2.09207177734375,0.052146606147289276,-0.20482203364372253,0.3812910318374634
1763696720621023000,2.10202294921875,-0.019695894792675972,-0.08279705047607422,0.18918392062187195
1763696720630973700,2.1119736328125,-0.0484166294336319,0.2659878730773926,-0.05152753368020058
1763696720640925000,2.121925048828125,-0.02726660668849945,0.5896165370941162,-0.1734803318977356
1763696720650876000,2.1318759765625,-0.051399413496255875,0.6145433187484741,-0.17322780191898346
1763696720660827000,2.141826904296875,-0.10358911752700806,0.42092907428741455,-0.09421448409557343
1763696720670777900,2.15177783203125,-0.15329933166503906,0.10017865896224976,0.03132936358451843
1763696720680728800,2.161728759765625,-0.20199629664421082,-0.13991223275661469,0.14542078971862793
1763696720690679800,2.1716796875,-0.27132439613342285,-0.30127841234207153,0.21658392250537872
1763696720700630800,2.181630859375,-0.3500325083732605,-0.4534410536289215,0.2676372528076172
1763696720710581800,2.191581787109375,-0.44740599393844604,-0.6648153066635132,0.30904626846313477
1763696720720533000,2.201532958984375,-0.5120755434036255,-0.7933980226516724,0.3144998848438263
1763696720730483700,2.211483642578125,-0.5403443574905396,-0.9522868990898132,0.24359548091888428
1763696720740435000,2.22143505859375,-0.5438647866249084,-1.0616400241851807,0.13592441380023956
1763696720750385700,2.2313857421875,-0.5171568989753723,-1.0878256559371948,-0.0034713386557996273
1763696720760337000,2.2413369140625,-0.4421558380126953,-1.037734031677246,-0.16805309057235718
1763696720770287900,2.251287841796875,-0.3070355951786041,-0.8986222147941589,-0.31981542706489563
1763696720780238800,2.26123876953125,-0.15867862105369568,-0.7023254036903381,-0.4394446313381195
1763696720790189800,2.27118994140625,-0.0332757830619812,-0.5796046257019043,-0.5385642051696777
1763696720800140800,2.281140869140625,0.07175610214471817,-0.4922793209552765,-0.5981673002243042
1763696720810091800,2.291091796875,0.12953561544418335,-0.8554595708847046,0.1950691044330597
1763696720820042800,2.301042724609375,0.25569432973861694,-0.8642072677612305,0.0507580041885376
1763696720829993700,2.31099365234375,0.3467349708080292,-0.6273446083068848,0.22544436156749725
1763696720839945000,2.320945068359375,0.38334622979164124,-0.3834189772605896,0.07171205431222916
1763696720849895700,2.330895751953125,0.26950421929359436,-0.2213003784418106,0.07896731048822403
1763696720859847000,2.340846923828125,0.1095462441444397,-0.08292759954929352,0.21713262796401978
1763696720869798000,2.3507978515625,-0.012407130561769009,-0.1516382247209549,0.3572539985179901
1763696720879748900,2.360748779296875,-0.1275491714477539,-0.37489262223243713,0.4469151794910431
1763696720889699800,2.370699951171875,-0.1782488226890564,-0.4071251153945923,0.46595892310142517
1763696720899650800,2.38065087890625,-0.10985112935304642,-0.31267639994621277,0.3541801869869232
1763696720909602000,2.39060205078125,0.0271565243601799,-0.24511945247650146,0.14683657884597778
1763696720919552800,2.400552734375,0.11551977694034576,-0.19582979381084442,-0.08422178030014038
1763696720929504000,2.41050390625,0.11991624534130096,-0.1419300138950348,-0.2729872167110443
1763696720939454700,2.420454833984375,0.022789165377616882,-0.030939856544137,-0.41999316215515137
1763696720949406000,2.430406005859375,-0.19885306060314178,-0.013671969063580036,-0.4939115643501282
1763696720959357700,2.440357666015625,-0.4988102316856384,-0.00005948683246970177,-0.5273305177688599
1763696720969309000,2.450308837890625,-0.8310624361038208,-0.02238469570875168,-0.5073086619377136
1763696720979259600,2.460259765625,-1.2404487133026123,-0.00039577274583280087,-0.477712482213974
1763696720989211000,2.4702109375,-1.5042532682418823,0.10907910764217377,-0.5711090564727783
1763696720999161600,2.48016162109375,-1.5018082857131958,0.11770667880773544,-0.6269744634628296
1763696721009112800,2.49011279296875,-1.4340641498565674,0.04122311621904373,-0.6309807300567627
1763696721019064000,2.50006396484375,-1.353545069694519,0.2187156081199646,-0.5818800330162048
1763696721029014800,2.510014892578125,-1.2453848123550415,0.2962474524974823,-0.492347776889801
1763696721038966000,2.519966064453125,-1.1483564376831055,0.2906185984611511,-0.3561803698539734
1763696721048916700,2.529916748046875,-1.1210322380065918,0.1982509195804596,-0.16912446916103363
1763696721058868000,2.539867919921875,-1.12184739112854,-0.06978347152471542,0.04207511991262436
1763696721068818700,2.549818603515625,-1.0738762617111206,-0.38322269916534424,0.16778549551963806
1763696721078770000,2.55977001953125,-0.9925472140312195,-0.5581375360488892,0.21269091963768005
1763696721088721000,2.569720947265625,-0.8901734948158264,-0.582678496837616,0.219123974442482
1763696721098671900,2.579671875,-0.7816874980926514,-0.5137311220169067,0.20112445950508118
1763696721108622800,2.589622802734375,-0.7094230055809021,-0.38010865449905396,0.11749834567308426
1763696721118573800,2.59957373046875,-0.5164601802825928,-0.28198927640914917,0.06476456671953201
1763696721128524800,2.60952490234375,-0.4044820964336395,-0.13695111870765686,-0.05763590335845947
1763696721138475800,2.619475830078125,-0.3874426484107971,-0.054376352578401566,-0.19046692550182343
1763696721148426800,2.6294267578125,-0.3407028019428253,0.035895030945539474,-0.27429839968681335
1763696721158378000,2.6393779296875,-0.23342907428741455,0.1682823747396469,-0.33825820684432983
1763696721168328700,2.64932861328125,-0.10436900705099106,0.23313802480697632,-0.3886197507381439
1763696721178280000,2.659280029296875,0.058125365525484085,0.2605707049369812,-0.3931218385696411
1763696721188230700,2.669230712890625,0.22541359066963196,0.2591308653354645,-0.3348766267299652
1763696721198182000,2.679181884765625,0.3419380784034729,0.1918351948261261,-0.24808205664157867
1763696721208132900,2.6891328125,0.3583212196826935,0.09615066647529602,-0.1710982322692871
1763696721218083800,2.699083740234375,0.289235383272171,-0.01105434913188219,-0.11866697669029236
1763696721228034800,2.709034912109375,0.18599726259708405,-0.11980554461479187,-0.11197860538959503
1763696721237985800,2.71898583984375,0.07534930855035782,-0.2397649735212326,-0.1419532746076584
1763696721247936800,2.728936767578125,-0.00871764775365591,-0.3824491798877716,-0.2146846204996109
1763696721257887700,2.7388876953125,-0.010467876680195332,-0.4969981014728546,-0.20306499302387238
1763696721267838700,2.748838623046875,0.056021321564912796,-0.6931142807006836,-0.21063163876533508
1763696721277790000,2.7587900390625,0.14003951847553253,-0.8874001502990723,-0.20239074528217316
1763696721287741000,2.768740966796875,0.19938519597053528,-1.0167155265808105,-0.19722020626068115
1763696721297692000,2.77869189453125,0.1823905110359192,-1.0773396492004395,-0.1950305551290512
1763696721307643000,2.788642822265625,0.06374380737543106,-1.090915322303772,-0.18621575832366943
1763696721317593900,2.79859375,-0.15768684446811676,-1.100766897201538,-0.16620050370693207
1763696721327544800,2.808544921875,-0.42148736119270325,-1.1553515195846558,-0.14952106773853302
1763696721337495800,2.818495849609375,-0.6551126837730408,-1.128582239151001,-0.11353669315576553
1763696721347447000,2.828447021484375,-0.857851505279541,-1.0934914350509644,-0.05148886516690254
1763696721357397800,2.838397705078125,-1.0036593675613403,-0.5899856090545654,-0.1590193212032318
1763696721367349800,2.848349853515625,-1.0681923627853394,0.049968041479587555,0.10875868797302246
1763696721377300700,2.85830078125,-1.1538676023483276,0.37369176745414734,0.23143666982650757
1763696721387252000,2.868251953125,-1.1924951076507568,0.4557451009750366,0.2606933116912842
1763696721397202700,2.87820263671875,-0.8683351278305054,0.006924145855009556,0.3276382386684418
1763696721407154000,2.88815380859375,-0.49652302265167236,-0.0028183781541883945,0.397519052028656
1763696721417104600,2.898104736328125,-0.0636722594499588,0.3018144965171814,0.40137797594070435
1763696721427055900,2.908055908203125,0.2742953598499298,0.46128812432289124,0.39783456921577454
1763696721437006600,2.918006591796875,0.43334388732910156,0.47480449080467224,0.43879956007003784
1763696721446957800,2.927957763671875,0.4514797627925873,0.3691147267818451,0.5085633993148804
1763696721456909000,2.937908935546875,0.39009976387023926,0.34969040751457214,0.5498253703117371
1763696721466859800,2.94785986328125,0.2758045494556427,0.40219730138778687,0.5779101848602295
1763696721476811000,2.95781103515625,0.24552839994430542,0.4720354974269867,0.6035734415054321
1763696721486761700,2.96776171875,0.3264847695827484,0.4998606741428375,0.6352804899215698
1763696721496713000,2.977712890625,0.4428081810474396,0.5822967290878296,0.7303524017333984
1763696721506663700,2.98766357421875,0.5849122405052185,0.5105287432670593,0.8507140278816223
1763696721516615000,2.997614990234375,0.7024199366569519,0.3868342638015747,0.9777334928512573
1763696721526566000,3.00756591796875,0.7514294981956482,0.3601479232311249,1.0628188848495483
1763696721536516900,3.017516845703125,0.7155072093009949,0.39035242795944214,1.0945922136306763
1763696721546467800,3.0274677734375,0.6232445240020752,0.3874064087867737,1.0578652620315552
1763696721556418800,3.037418701171875,0.49403297901153564,0.3535264730453491,0.8913315534591675
1763696721566369800,3.047369873046875,0.3775002062320709,0.226277694106102,0.6580496430397034
1763696721576320800,3.05732080078125,0.1694769561290741,0.05269712582230568,0.5096138715744019
1763696721586271700,3.067271728515625,-0.059206221252679825,-0.14104066789150238,0.417117178440094
1763696721596223000,3.077222900390625,-0.28418663144111633,-0.290264755487442,0.35782748460769653
1763696721606173700,3.087173583984375,-0.454916387796402,-0.34086355566978455,0.3075949549674988
1763696721616125000,3.097125,-0.5024871230125427,-0.39181116223335266,0.2841080129146576
1763696721626075600,3.10707568359375,-0.4461324214935303,-0.39878618717193604,0.30778804421424866
1763696721636027000,3.11702685546875,-0.32501453161239624,-0.4296916425228119,0.39186617732048035
1763696721645977900,3.126977783203125,-0.1075202077627182,-0.33112868666648865,0.4728092551231384
1763696721655928800,3.1369287109375,0.07988004386425018,-0.26298239827156067,0.4848265051841736
1763696721665879800,3.1468798828125,0.1637887805700302,-0.10039391368627548,0.4475991725921631
1763696721675830800,3.156830810546875,0.20676660537719727,0.00533464876934886,0.41122758388519287
1763696721685781800,3.16678173828125,0.22823721170425415,0.07550400495529175,0.3756366968154907
1763696721695732700,3.176732666015625,0.2358487844467163,0.1737261861562729,0.31350329518318176
1763696721705684000,3.18668408203125,0.2530944347381592,0.2952426075935364,0.23626762628555298
1763696721715635000,3.196635009765625,0.25628039240837097,0.3527517318725586,0.2025299072265625
1763696721725586000,3.2065859375,0.26703712344169617,0.3061791956424713,0.2614225149154663
1763696721735537000,3.216536865234375,0.31186795234680176,0.17067301273345947,0.33178430795669556
1763696721745488000,3.22648779296875,0.348193883895874,0.020959196612238884,0.3928447961807251
1763696721755438800,3.23643896484375,0.395981103181839,-0.036710225045681,0.4374479353427887
1763696721765389800,3.246389892578125,0.4778866171836853,-0.017493456602096558,0.44740021228790283
1763696721775340800,3.2563408203125,0.6115472316741943,-0.06323937326669693,0.41373810172080994
1763696721785292000,3.2662919921875,0.6165351867675781,-0.1985510140657425,0.35247886180877686
1763696721795242800,3.27624267578125,0.5278002619743347,-0.19854621589183807,0.27780675888061523
1763696721805194800,3.28619482421875,0.3275710344314575,-0.21297958493232727,0.2223447561264038
1763696721815145700,3.296145751953125,0.09091988950967789,-0.25727859139442444,0.21879129111766815
1763696721825097000,3.306096923828125,-0.12104670703411102,-0.32536762952804565,0.2265460342168808
1763696721835047700,3.316047607421875,-0.25858432054519653,-0.3589167892932892,0.2358125001192093
1763696721844999000,3.3259990234375,-0.2794404625892639,-0.28630444407463074,0.23927929997444153
1763696721854949600,3.33594970703125,-0.20113925635814667,-0.275678426027298,0.2037585824728012
1763696721864900900,3.34590087890625,-0.08824022859334946,-0.24150054156780243,0.1228303462266922
1763696721874851800,3.355851806640625,0.012690909206867218,-0.24517543613910675,0.02282092720270157
1763696721884802800,3.365802734375,0.026464104652404785,-0.22062087059020996,-0.04990823194384575
1763696721894754000,3.375754150390625,0.0057220738381147385,-0.12154754251241684,-0.07257679104804993
1763696721904704800,3.385704833984375,-0.027437685057520866,-0.04580787196755409,-0.07953448593616486
1763696721914656000,3.395656005859375,-0.06902001053094864,-0.09417913109064102,-0.08883611112833023
1763696721924606700,3.405606689453125,-0.1291956752538681,-0.15481187403202057,-0.10670144855976105
1763696721934558000,3.415557861328125,-0.17918801307678223,-0.17641490697860718,-0.13456770777702332
1763696721944508700,3.4255087890625,-0.23729713261127472,-0.2175077497959137,-0.18270154297351837
1763696721954460000,3.4354599609375,-0.29013559222221375,-0.14671000838279724,-0.24843713641166687
1763696721964411000,3.445410888671875,-0.285794734954834,0.05717365816235542,-0.3314879834651947
1763696721974361900,3.45536181640625,-0.17321254312992096,0.2967766523361206,-0.4530216157436371
1763696721984312800,3.465312744140625,-0.006227696314454079,0.5308043956756592,-0.5455436110496521
1763696721994263800,3.475263916015625,0.0711728185415268,0.4242984652519226,-0.5472612977027893
1763696722004214800,3.48521484375,0.021036889404058456,0.07843728363513947,-0.4177990257740021
1763696722014165800,3.495165771484375,-0.10013507306575775,-0.25066497921943665,-0.2320142388343811
1763696722024116700,3.50511669921875,-0.401079922914505,-0.3525474965572357,-0.1077345609664917
1763696722034068000,3.51506787109375,-0.6176785826683044,-0.208469957113266,-0.11506330966949463
1763696722044018700,3.525018798828125,-0.7701869010925293,-0.13430508971214294,-0.26122674345970154
1763696722053970000,3.534969970703125,-0.9327853918075562,-0.279400497674942,-0.46177583932876587
1763696722063920600,3.544920654296875,-1.0729444026947021,-0.5067013502120972,-0.6059786677360535
1763696722073872000,3.554871826171875,-1.1232966184616089,-0.6638675332069397,-0.6776600480079651
1763696722083822800,3.56482275390625,-1.144639253616333,-0.6525912880897522,-0.687112033367157
1763696722093773800,3.57477392578125,-1.1321918964385986,-0.34064561128616333,-0.5588818788528442
1763696722103724800,3.584724853515625,-1.0668039321899414,-0.1999136507511139,-0.361688494682312
1763696722113675800,3.59467578125,-1.0114818811416626,-0.021776137873530388,-0.10033624619245529
1763696722123627000,3.604626953125,-0.9874066114425659,0.24043375253677368,0.11746273189783096
1763696722133577700,3.61457763671875,-0.9851967096328735,0.5043287873268127,0.27670618891716003
1763696722143529000,3.624529052734375,-0.9659728407859802,0.5864372253417969,0.3410438299179077
1763696722153480000,3.63447998046875,-0.8937612175941467,0.5281882882118225,0.3035198748111725
1763696722163431000,3.644430908203125,-0.7919701933860779,0.3855207860469818,0.17675745487213135
1763696722173382000,3.6543818359375,-0.7121486067771912,0.2955584228038788,0.03077147714793682
1763696722183332900,3.664332763671875,-0.6900467872619629,0.3484531342983246,-0.05362425372004509
1763696722193283800,3.674283935546875,-0.6939347386360168,0.4295613169670105,-0.09394211322069168
1763696722203234800,3.68423486328125,-0.741722822189331,0.4601821005344391,-0.15811525285243988
1763696722213185800,3.694185791015625,-0.8536970019340515,0.5337487459182739,-0.20537011325359344
1763696722223137000,3.704136962890625,-0.9383215308189392,0.6022254228591919,-0.24429717659950256
1763696722233087700,3.714087646484375,-0.9790015816688538,0.7076072096824646,-0.2304530143737793
1763696722243039000,3.7240390625,-0.9731325507164001,0.7732277512550354,-0.13411113619804382
1763696722252990700,3.73399072265625,-0.9521047472953796,0.8057907819747925,0.056426044553518295
1763696722262942000,3.74394189453125,-0.9496268630027771,0.7780867218971252,0.21977847814559937
1763696722272892700,3.753892578125,-0.9704434871673584,0.7403503060340881,0.3056713044643402
1763696722282844000,3.763843994140625,-0.9840807914733887,0.6976853013038635,0.3262959122657776
1763696722292795000,3.773794921875,-0.9571685194969177,0.7268701195716858,0.3413052260875702
1763696722302745900,3.783745849609375,-0.8943666219711304,0.8932319283485413,0.4627646207809448
1763696722312696800,3.79369677734375,-0.8580916523933411,1.0994102954864502,0.733079195022583
1763696722322647800,3.803647705078125,-0.8183245062828064,1.2303657531738281,1.0531901121139526
1763696722332599000,3.81359912109375,-0.6010505557060242,1.269760251045227,1.3758858442306519
1763696722342549800,3.8235498046875,-0.351807177066803,1.1736915111541748,1.5007542371749878
1763696722352500700,3.833500732421875,-0.19002920389175415,0.8553961515426636,1.3732538223266602
1763696722362451700,3.84345166015625,-0.05028664320707321,0.5550767779350281,1.1222604513168335
1763696722372403000,3.85340283203125,0.09581836313009262,0.32609763741493225,0.9161560535430908
1763696722382353700,3.863353759765625,0.29897427558898926,0.17401014268398285,0.8176962733268738
1763696722392305000,3.873304931640625,0.5118836164474487,0.22780705988407135,0.8536484241485596
1763696722402256000,3.883255859375,0.6824113726615906,0.6767627000808716,0.9915410280227661
1763696722412206800,3.893206787109375,0.5418864488601685,0.6654391884803772,1.079494595527649
1763696722422157800,3.90315771484375,0.3464486002922058,0.8322950005531311,1.042496919631958
1763696722432108800,3.91310888671875,0.2071966975927353,0.9093199968338013,0.8834516406059265
1763696722442059800,3.923059814453125,0.12964573502540588,0.9292248487472534,0.7709813117980957
1763696722452010800,3.9330107421875,0.16124653816223145,0.9391599893569946,0.7470006346702576
1763696722461961700,3.942961669921875,0.3046328127384186,0.9498053193092346,0.7827045917510986
1763696722471913000,3.952912841796875,0.3924926221370697,0.8620171546936035,0.8561457991600037
1763696722481863700,3.96286376953125,0.3426007628440857,0.6669334173202515,0.6764893531799316
1763696722491815000,3.97281494140625,0.24896161258220673,0.6056039929389954,0.6435228586196899
1763696722501765600,3.982765625,0.15921184420585632,0.60224848985672,0.606100857257843
1763696722511716900,3.992716796875,0.10265908390283585,0.5951871275901794,0.5329278707504272
1763696722521667800,4.002667724609375,0.06775637716054916,0.5111398100852966,0.39097365736961365
1763696722531618800,4.012618896484375,0.06415525078773499,0.49819260835647583,0.24699492752552032
1763696722541569800,4.02256982421875,0.12647899985313416,0.4869559407234192,0.1715938299894333
1763696722551520800,4.032520751953125,0.26919060945510864,0.5041224360466003,0.1578356772661209
1763696722561471700,4.0424716796875,0.4721238911151886,0.48522424697875977,0.14950427412986755
1763696722571422700,4.052422607421875,0.6926724910736084,0.43189603090286255,0.15028510987758636
1763696722581373700,4.062373779296875,0.8366819024085999,0.3567677140235901,0.10800831019878387
1763696722591325000,4.072324951171875,0.88889080286026,0.36845365166664124,0.021728020161390305
1763696722601275600,4.082275634765625,0.8735806941986084,0.4848642945289612,-0.09541989117860794
1763696722611227000,4.092226806640625,0.8486955761909485,0.5271462202072144,-0.23357243835926056
1763696722621177600,4.102177490234375,0.7632293701171875,0.5287244319915771,-0.3103785216808319
1763696722631128800,4.11212890625,0.6477024555206299,0.4746686816215515,-0.37694552540779114
1763696722641079800,4.122079833984375,0.5180826187133789,0.4258391857147217,-0.4805431067943573
1763696722651030800,4.13203076171875,0.42392417788505554,0.3285866677761078,-0.5919505953788757
1763696722660982000,4.14198193359375,0.3743509352207184,0.390155166387558,-0.675642728805542
1763696722670932700,4.1519326171875,0.36036375164985657,0.2109963446855545,-0.7182973027229309
1763696722680884000,4.161884033203125,0.3477752208709717,0.03880700096487999,-0.6851362586021423
1763696722690834700,4.171834716796875,0.34859734773635864,-0.11169728636741638,-0.6527146697044373
1763696722700786000,4.181785888671875,0.3185714781284332,-0.17402970790863037,-0.7055197358131409
1763696722710736600,4.191736572265625,0.256239652633667,-0.14612190425395966,-0.7999626398086548
1763696722720687900,4.20168798828125,0.19511185586452484,-0.08819948881864548,-0.8927006721496582
1763696722730639600,4.2116396484375,0.15495485067367554,-0.046726346015930176,-0.9126195311546326
1763696722740590800,4.2215908203125,0.14861752092838287,0.004860435612499714,-0.8492056131362915
1763696722750541600,4.23154150390625,0.20697590708732605,0.04746222496032715,-0.8031779527664185
1763696722760492800,4.241492919921875,0.24489547312259674,0.05750034376978874,-0.7831478118896484
1763696722770443800,4.25144384765625,0.26429980993270874,0.039225999265909195,-0.7529142498970032
1763696722780394800,4.261394775390625,0.32483720779418945,0.03826955333352089,-0.7154654860496521
1763696722790346000,4.271345947265625,0.3564808964729309,0.025248825550079346,-0.6866263747215271
1763696722800296700,4.281296630859375,0.404742032289505,0.051544561982154846,-0.6731563210487366
1763696722810248000,4.291248046875,0.4470237195491791,0.04513753205537796,-0.6513402462005615
1763696722820198700,4.30119873046875,0.4695201516151428,0.011706460267305374,-0.5921859741210938
1763696722830150000,4.31114990234375,0.481801837682724,0.04676271602511406,-0.5421105623245239
1763696722840100900,4.321100830078125,0.4787753224372864,0.10254603624343872,-0.5167789459228516
1763696722850051800,4.3310517578125,0.45829108357429504,0.13434524834156036,-0.5108941793441772
1763696722860002800,4.3410029296875,0.43375593423843384,0.18886573612689972,-0.5260350108146667
1763696722869953800,4.350953857421875,0.4184581935405731,0.23889988660812378,-0.5422630310058594
1763696722879904800,4.36090478515625,0.40238168835639954,0.29530608654022217,-0.5426782369613647
1763696722889855700,4.370855712890625,0.3945685029029846,0.3522284924983978,-0.5218589901924133
1763696722899806700,4.380806640625,0.3921862244606018,0.39790183305740356,-0.5118083357810974
1763696722909758000,4.390758056640625,0.3674076199531555,0.4773646891117096,-0.5088061690330505
1763696722919708700,4.400708740234375,0.291155606508255,0.5187265276908875,-0.46223270893096924
1763696722929660000,4.410659912109375,0.2316286265850067,0.4805315136909485,-0.37439897656440735
1763696722939610600,4.420610595703125,0.22809220850467682,0.45381733775138855,-0.2724561095237732
1763696722949561900,4.430561767578125,0.16630512475967407,0.45394212007522583,-0.16761502623558044
1763696722959512800,4.440512939453125,0.04872868210077286,0.6107071042060852,-0.054996658116579056
1763696722969463800,4.4504638671875,-0.038705822080373764,0.6295764446258545,0.0833689346909523
1763696722979414800,4.460414794921875,-0.10475128144025803,0.6908168196678162,0.22038155794143677
1763696722989365800,4.47036572265625,-0.19475892186164856,0.8444167375564575,0.23302625119686127
1763696722999316700,4.480316650390625,-0.2801981568336487,0.8868600726127625,0.2297956943511963
1763696723009267700,4.490267822265625,-0.33376845717430115,0.874492883682251,0.19235964119434357
1763696723019218700,4.50021875,-0.3471605181694031,0.7913511991500854,0.10500960052013397
1763696723029170000,4.510169921875,-0.302632212638855,0.638224184513092,-0.01716317981481552
1763696723039120600,4.52012060546875,-0.18009637296199799,0.40889444947242737,-0.14228767156600952
1763696723049071900,4.53007177734375,-0.010528124868869781,0.06788758188486099,-0.20547781884670258
1763696723059022800,4.54002294921875,0.1976843625307083,-0.30866000056266785,-0.17947401106357574
1763696723068973800,4.549973876953125,0.46047285199165344,-0.7098817229270935,-0.18254223465919495
1763696723078924800,4.5599248046875,0.7383015751838684,-1.006334900856018,-0.24534383416175842
1763696723088875800,4.569875732421875,0.9191805124282837,-1.2821590900421143,-0.29163119196891785
1763696723098827000,4.579826904296875,1.0643178224563599,-1.5250096321105957,-0.33738213777542114
1763696723108777700,4.58977783203125,1.1201744079589844,-1.7101811170578003,-0.372029572725296
1763696723118729000,4.59972900390625,1.08125638961792,-1.8531876802444458,-0.39378905296325684
1763696723128679700,4.6096796875,0.9601224660873413,-2.000544786453247,-0.4053572714328766
1763696723138631000,4.619630859375,0.7991642355918884,-2.1508491039276123,-0.4354105293750763
1763696723148581600,4.62958154296875,0.6400243639945984,-2.2359390258789062,-0.48187950253486633
1763696723158532900,4.639532958984375,0.49613118171691895,-2.324707508087158,-0.5379295945167542
1763696723168483800,4.64948388671875,0.3643696904182434,-2.458134651184082,-0.6217672824859619
1763696723178434800,4.659434814453125,0.2624798119068146,-2.5511133670806885,-0.6785876750946045
1763696723188385800,4.6693857421875,0.15645164251327515,-2.5752017498016357,-0.6905252933502197
1763696723198337800,4.679337890625,0.04465564340353012,-2.618757486343384,-0.6532003879547119
1763696723208289000,4.6892890625,-0.04311921447515488,-2.6415724754333496,-0.5991401076316833
1763696723218239700,4.69923974609375,-0.10058896243572235,-2.6701762676239014,-0.5538835525512695
1763696723228191000,4.70919091796875,-0.14622196555137634,-2.7707226276397705,-0.512299120426178
1763696723238141700,4.7191416015625,-0.19440235197544098,-2.9022376537323,-0.47909390926361084
1763696723248093000,4.729093017578125,-0.22725802659988403,-3.0705437660217285,-0.4752080738544464
1763696723258043600,4.739043701171875,-0.24040275812149048,-3.189894437789917,-0.5497908592224121
1763696723267995000,4.748994873046875,-0.22743555903434753,-3.2337615489959717,-0.7053554654121399
1763696723277945900,4.75894580078125,-0.17708836495876312,-3.227306842803955,-0.9182582497596741
1763696723287896800,4.768896728515625,-0.09387736022472382,-3.1606638431549072,-1.1500104665756226
1763696723297847800,4.778847900390625,-0.00462170597165823,-3.082212448120117,-1.3661267757415771
1763696723307798800,4.788798828125,0.040737785398960114,-2.9674618244171143,-1.5375009775161743
1763696723317749800,4.798749755859375,-0.0429333858191967,-2.8433094024658203,-1.6683400869369507
1763696723327700700,4.80870068359375,-0.23793722689151764,-2.8181726932525635,-1.7784669399261475
1763696723337651700,4.818651611328125,-0.49077704548835754,-2.864506959915161,-1.8959416151046753
1763696723347603000,4.82860302734375,-0.7612823247909546,-2.8829636573791504,-2.019557476043701
1763696723357554000,4.838553955078125,-0.9985465407371521,-2.8312060832977295,-2.1374497413635254
1763696723367505200,4.848505126953125,-1.1697779893875122,-2.748898983001709,-2.241105794906616
1763696723377455900,4.858455810546875,-1.3125768899917603,-2.6643712520599365,-2.3285329341888428
1763696723387407000,4.868406982421875,-1.3932362794876099,-2.502462148666382,-2.427537202835083
1763696723397357800,4.87835791015625,-1.386799693107605,-2.2869932651519775,-2.5368261337280273
1763696723407309000,4.88830908203125,-1.3191733360290527,-2.1441330909729004,-2.6112821102142334
1763696723417260000,4.898260009765625,-1.2063003778457642,-2.072810173034668,-2.6485226154327393
1763696723427211000,4.9082109375,-1.0404198169708252,-2.035417318344116,-2.669187307357788
1763696723437162000,4.918161865234375,-0.827428936958313,-2.053101062774658,-2.679701566696167
1763696723447113000,4.928113037109375,-0.5785592198371887,-2.0413074493408203,-2.690399646759033
1763696723457064000,4.93806396484375,-0.32766711711883545,-1.9950799942016602,-2.6856110095977783
1763696723467015000,4.948014892578125,-0.10323987156152725,-1.9361306428909302,-2.6506006717681885
1763696723476966000,4.9579658203125,0.09472157061100006,-1.8746957778930664,-2.5578598976135254
1763696723486917000,4.967917236328125,0.26489463448524475,-1.7645373344421387,-2.3943490982055664
1763696723496867800,4.977867919921875,0.40373221039772034,-1.5088289976119995,-2.1743931770324707
1763696723506819000,4.987819091796875,0.536871612071991,-1.0880244970321655,-1.9311840534210205
1763696723516769800,4.997769775390625,0.6289722919464111,-0.6140293478965759,-1.5840997695922852
1763696723526721000,5.007720947265625,0.6622767448425293,-0.5495209693908691,-1.1803622245788574
1763696723536672000,5.017672119140625,0.5885489583015442,0.2913936376571655,-0.7426175475120544
1763696723546623000,5.027623046875,0.3450920283794403,-0.03905431553721428,-0.6582866907119751
1763696723556574000,5.037573974609375,0.22124530375003815,0.6174861192703247,-0.6135326623916626
1763696723566525000,5.04752490234375,-0.0005787006812170148,0.6606642007827759,-0.5683231353759766
1763696723576476000,5.057475830078125,-0.2254701405763626,0.7680383324623108,-0.5978208184242249
1763696723586427000,5.067427001953125,-0.36708149313926697,0.6263586282730103,-0.5670150518417358
1763696723596377900,5.0773779296875,-0.5137548446655273,0.456186980009079,-0.4186784327030182
1763696723606329000,5.0873291015625,-0.5794094800949097,0.43954113125801086,-0.22417445480823517
1763696723616279800,5.09727978515625,-0.682169497013092,0.441036194562912,-0.051146335899829865
1763696723626231000,5.10723095703125,-0.8116063475608826,0.34136390686035156,-0.0034198269713670015
1763696723636182000,5.11718212890625,-0.953130841255188,0.29330918192863464,-0.004846593365073204
1763696723646133000,5.127133056640625,-1.0933843851089478,0.2243703305721283,0.012884999625384808
1763696723656084000,5.137083984375,-1.223874807357788,0.17636127769947052,0.07128537446260452
1763696723666035000,5.147034912109375,-1.3380030393600464,0.15128841996192932,0.13276098668575287
1763696723675986200,5.156986083984375,-1.4330790042877197,0.15769840776920319,0.1745741367340088
1763696723685937000,5.16693701171875,-1.5247654914855957,0.14732620120048523,0.20590277016162872
1763696723695889000,5.176888916015625,-1.5945732593536377,0.11106536537408829,0.22817179560661316
1763696723705839900,5.18683984375,-1.628382682800293,0.06159954518079758,0.25050798058509827
1763696723715791000,5.196791015625,-1.6113314628601074,0.023736972361803055,0.2839260995388031
1763696723725741800,5.206741943359375,-1.535535216331482,0.01667133904993534,0.3254184126853943
1763696723735693000,5.216693115234375,-1.3975677490234375,0.050030503422021866,0.3615061342716217
1763696723745643800,5.226643798828125,-1.198851466178894,0.1094224601984024,0.3926597833633423
1763696723755595000,5.236594970703125,-0.9572046995162964,0.186716690659523,0.42641904950141907
1763696723765545700,5.246545654296875,-0.6894627213478088,0.24820774793624878,0.4620729088783264
1763696723775497000,5.2564970703125,-0.4156990945339203,0.2900811731815338,0.5060887932777405
1763696723785448200,5.2664482421875,-0.13893167674541473,0.2974485456943512,0.576046884059906
1763696723795399000,5.27639892578125,0.12316924333572388,0.2828826308250427,0.6826260089874268
1763696723805350100,5.28635009765625,0.35697507858276367,0.2597261667251587,0.8128343820571899
1763696723815300900,5.29630078125,0.5534014701843262,0.25453516840934753,0.962765634059906
1763696723825252000,5.306252197265625,0.6971442699432373,0.2727293372154236,1.1215111017227173
1763696723835202800,5.316202880859375,0.7778016924858093,0.3094870448112488,1.2653725147247314
1763696723845154000,5.326154052734375,0.7927974462509155,0.3257211446762085,1.3733549118041992
1763696723855105000,5.33610498046875,0.7545945644378662,0.31321579217910767,1.4338418245315552
1763696723865056000,5.346055908203125,0.6821035742759705,0.27370673418045044,1.453190803527832
1763696723875007000,5.356007080078125,0.5858451724052429,0.20888912677764893,1.4477720260620117
1763696723884958000,5.3659580078125,0.4716900885105133,0.1265588253736496,1.443422794342041
1763696723894909000,5.375908935546875,0.3409859538078308,0.0017773687141016126,1.4536488056182861
1763696723904860000,5.38585986328125,0.20568031072616577,-0.1320483386516571,1.4907830953598022
1763696723914811000,5.395810791015625,0.06531655788421631,-0.26729872822761536,1.5388094186782837
1763696723924762000,5.40576220703125,-0.06963354349136353,-0.373460054397583,1.5902444124221802
1763696723934712800,5.415712890625,-0.19176530838012695,-0.43131881952285767,1.6339471340179443
1763696723944664000,5.4256640625,-0.29373371601104736,-0.4547618627548218,1.6763416528701782
1763696723954614800,5.43561474609375,-0.3746759593486786,-0.4504872262477875,1.712231159210205
1763696723964566000,5.44556591796875,-0.44050803780555725,-0.4476028084754944,1.7367485761642456
1763696723974517000,5.45551708984375,-0.49118027091026306,-0.4237925708293915,1.743789792060852
1763696723984468000,5.465468017578125,-0.5211437940597534,-0.37124934792518616,1.7289503812789917
1763696723994419000,5.4754189453125,-0.518454909324646,-0.32119494676589966,1.6860648393630981
1763696724004370000,5.485369873046875,-0.48544663190841675,-0.26964280009269714,1.6157557964324951
1763696724014321000,5.49532080078125,-0.4246068298816681,-0.21932445466518402,1.5381784439086914
1763696724024272000,5.50527197265625,-0.34072017669677734,-0.18942034244537354,1.4666386842727661
1763696724034222800,5.515222900390625,-0.25048062205314636,-0.2032063752412796,1.4137606620788574
1763696724044174000,5.525174072265625,-0.16547946631908417,-0.252734512090683,1.3718332052230835
1763696724054125000,5.535125,-0.09053736925125122,-0.30455198884010315,1.3134346008300781
1763696724064076000,5.545075927734375,-0.03735723719000816,-0.3430956304073334,1.2301770448684692
1763696724074027000,5.555027099609375,-0.002176535315811634,-0.3891754448413849,1.1375923156738281
1763696724083978000,5.56497802734375,0.03537803143262863,-0.4048880934715271,1.0366015434265137
1763696724093929000,5.574928955078125,0.07305508106946945,-0.4429192841053009,0.9501872062683105
1763696724103880000,5.5848798828125,0.10151095688343048,-0.4881112575531006,0.8746805191040039
1763696724113831200,5.5948310546875,0.11315829306840897,-0.5275518894195557,0.7934138774871826
1763696724123782000,5.604781982421875,0.10903728008270264,-0.5615171790122986,0.7054803371429443
1763696724133733000,5.614733154296875,0.10308234393596649,-0.5827295780181885,0.6261383295059204
1763696724143683800,5.624683837890625,0.10014834254980087,-0.5886104106903076,0.5715003609657288
1763696724153635000,5.634635009765625,0.0946841686964035,-0.5782517194747925,0.5395984649658203
1763696724163585800,5.644585693359375,0.07691343128681183,-0.5599491000175476,0.5096631646156311
1763696724173537000,5.654537109375,0.04246097430586815,-0.5366725325584412,0.47446897625923157
1763696724183488000,5.664488037109375,0.009438576176762581,-0.46782180666923523,0.43426430225372314
1763696724193439000,5.67443896484375,-0.01994670368731022,-0.37305009365081787,0.3925415873527527
1763696724203390000,5.684389892578125,-0.050919268280267715,-0.27036234736442566,0.35413187742233276
1763696724213341000,5.6943408203125,-0.09059730917215347,-0.19211873412132263,0.3246396481990814
1763696724223292000,5.7042919921875,-0.1471892148256302,-0.1622718870639801,0.31412601470947266
1763696724233244000,5.714243896484375,-0.20558127760887146,-0.14753086864948273,0.3163644075393677
1763696724243195100,5.724195068359375,-0.26231884956359863,-0.13901808857917786,0.32531049847602844
1763696724253145900,5.734145751953125,-0.31493404507637024,-0.13156357407569885,0.32502007484436035
1763696724263097000,5.74409716796875,-0.36944258213043213,-0.11894072592258453,0.3120124042034149
1763696724273047800,5.7540478515625,-0.4152962267398834,-0.07135637104511261,0.29108086228370667
1763696724282999000,5.7639990234375,-0.4486400783061981,-0.0005999121349304914,0.27807238698005676
1763696724292950000,5.773949951171875,-0.47607800364494324,0.058106422424316406,0.2684910297393799
1763696724302901000,5.78390087890625,-0.49823257327079773,0.11021009832620621,0.24797669053077698
1763696724312852000,5.79385205078125,-0.5207568407058716,0.15980412065982819,0.20714688301086426
1763696724322803000,5.803802978515625,-0.545914888381958,0.1975986361503601,0.15108920633792877
1763696724332754000,5.81375390625,-0.5638269782066345,0.21703995764255524,0.08823856711387634
1763696724342705200,5.823705078125,-0.5687093138694763,0.22897277772426605,0.019511699676513672
1763696724352656100,5.83365625,-0.5562441349029541,0.22381030023097992,-0.04773923382163048
1763696724362607400,5.843607421875,-0.5367814898490906,0.19661730527877808,-0.12248378247022629
1763696724372558000,5.85355810546875,-0.5163114666938782,0.15427380800247192,-0.20397482812404633
1763696724382509300,5.86350927734375,-0.4919196367263794,0.10011924058198929,-0.2890236973762512
1763696724392460000,5.8734599609375,-0.4597463607788086,0.05431148782372475,-0.3687259256839752
1763696724402411300,5.883411376953125,-0.4268600642681122,0.01745094172656536,-0.4469163417816162
1763696724412362000,5.893362060546875,-0.40107864141464233,-0.02063905820250511,-0.5194238424301147
1763696724422313200,5.903313232421875,-0.38370898365974426,-0.03442491218447685,-0.5819905996322632
1763696724432264200,5.91326416015625,-0.3727426528930664,-0.029626846313476562,-0.6388660073280334
1763696724442215200,5.923215087890625,-0.35807371139526367,-0.026318667456507683,-0.676110029220581
1763696724452166100,5.933166259765625,-0.3512325882911682,-0.030785834416747093,-0.6921021342277527
1763696724462117000,5.9431171875,-0.3421645164489746,-0.000592511729337275,-0.6960750222206116
1763696724472068000,5.953068115234375,-0.34113046526908875,0.030412353575229645,-0.7094926834106445
1763696724482019000,5.96301904296875,-0.3462783694267273,0.05005316436290741,-0.74724942445755
1763696724491970000,5.972969970703125,-0.3566935360431671,0.06018422171473503,-0.8116671442985535
1763696724501921300,5.98292138671875,-0.35840144753456116,0.06607779115438461,-0.8895118832588196
1763696724511872000,5.9928720703125,-0.3483375012874603,0.08829367160797119,-0.9560549855232239
1763696724521823200,6.0028232421875,-0.3264092803001404,0.1157737597823143,-1.0057607889175415
1763696724531774200,6.012774169921875,-0.2981904149055481,0.14105692505836487,-1.0368266105651855
1763696724541725200,6.02272509765625,-0.27544569969177246,0.15057373046875,-1.0509029626846313
1763696724551676200,6.03267626953125,-0.25884056091308594,0.148759126663208,-1.0425965785980225
1763696724561627100,6.042627197265625,-0.25074639916419983,0.13164564967155457,-1.0032494068145752
1763696724571578400,6.052578369140625,-0.2502966523170471,0.1320197433233261,-0.9334526658058167
1763696724581529000,6.062529052734375,-0.2558855712413788,0.14116635918617249,-0.8478932976722717
1763696724591480300,6.072480224609375,-0.2928108274936676,0.14773425459861755,-0.7612102031707764
1763696724601431000,6.08243115234375,-0.3555101454257965,0.17073199152946472,-0.695265531539917
1763696724611382300,6.09238232421875,-0.4370866119861603,0.20083701610565186,-0.6512176394462585
1763696724621333200,6.102333251953125,-0.5225852727890015,0.2371971607208252,-0.621523380279541
1763696724631284200,6.1122841796875,-0.5983542799949646,0.2434113472700119,-0.5989271998405457
1763696724641235200,6.122235107421875,-0.6523373126983643,0.19383659958839417,-0.5845820903778076
1763696724651186200,6.132186279296875,-0.670574963092804,0.12490727007389069,-0.5889647603034973
1763696724661137200,6.14213720703125,-0.652265191078186,0.07232154905796051,-0.6170037984848022
1763696724671088000,6.152088134765625,-0.6086829304695129,0.03608138486742973,-0.6625982522964478
1763696724681039000,6.1620390625,-0.5496747493743896,0.00853551086038351,-0.71190345287323
1763696724690990300,6.171990234375,-0.48141008615493774,-0.011635498143732548,-0.7682154178619385
1763696724700941000,6.181941162109375,-0.4051973521709442,-0.029167620465159416,-0.8227255344390869
1763696724710892300,6.191892333984375,-0.3228977918624878,-0.020247409120202065,-0.8731372356414795
1763696724720843000,6.201843017578125,-0.24089665710926056,0.020468860864639282,-0.9265775680541992
1763696724730794200,6.211794189453125,-0.16426104307174683,0.08098158240318298,-0.9792713522911072
1763696724740745000,6.221744873046875,-0.09297408163547516,0.14277809858322144,-1.0282756090164185
1763696724750696200,6.2316962890625,-0.017550451681017876,0.20198939740657806,-1.0586868524551392
1763696724760647200,6.241647216796875,0.06899935007095337,0.2522565722465515,-1.0650038719177246
1763696724770598100,6.25159814453125,0.1787390559911728,0.2820398211479187,-1.0385955572128296
1763696724780549000,6.261549072265625,0.31230857968330383,0.2855168282985687,-0.9755079746246338
1763696724790501000,6.271501220703125,0.47122374176979065,0.2814534306526184,-0.8909242153167725
1763696724800452400,6.281452392578125,0.6418799161911011,0.27375128865242004,-0.7972262501716614
1763696724810403000,6.291403076171875,0.8189267516136169,0.2513697147369385,-0.701172947883606
1763696724820354300,6.301354248046875,0.989736020565033,0.2173328995704651,-0.5962196588516235
1763696724830305000,6.311304931640625,1.1492151021957397,0.1834336519241333,-0.49615898728370667
1763696724840256300,6.32125634765625,1.2831467390060425,0.16819557547569275,-0.4085383415222168
1763696724850207000,6.33120703125,1.3838446140289307,0.14930389821529388,-0.3354066014289856
1763696724860158200,6.341158203125,1.4437355995178223,0.11756328493356705,-0.28408560156822205
1763696724870109200,6.351109130859375,1.471882700920105,0.07831138372421265,-0.24927112460136414
1763696724880060200,6.36106005859375,1.477484941482544,0.0447118766605854,-0.22751709818840027
1763696724890011100,6.37101123046875,1.4685174226760864,0.03415178507566452,-0.2183641940355301
1763696724899962000,6.380962158203125,1.4469751119613647,0.039643753319978714,-0.21663473546504974
1763696724909913000,6.3909130859375,1.4260082244873047,0.0604957640171051,-0.2179078906774521
1763696724919864000,6.400864013671875,1.4101771116256714,0.09136685729026794,-0.21126358211040497
1763696724929815000,6.41081494140625,1.409247636795044,0.11671724170446396,-0.19616325199604034
1763696724939766300,6.420766357421875,1.4226806163787842,0.12555654346942902,-0.16128437221050262
1763696724949717000,6.430717041015625,1.414163589477539,0.06329423189163208,-0.12886996567249298
1763696724959668200,6.440668212890625,1.355103611946106,0.03613331913948059,-0.14092731475830078
1763696724969619200,6.450619140625,1.3441624641418457,0.06180034577846527,-0.11676255613565445
1763696724979570200,6.460570068359375,1.3250454664230347,0.034032899886369705,-0.056806810200214386
1763696724989521200,6.470521240234375,1.295274257659912,0.01988563872873783,0.02960393950343132
1763696724999472000,6.48047216796875,1.268957495689392,0.014490338973701,0.12389369308948517
1763696725009423400,6.49042333984375,1.2336317300796509,0.029260657727718353,0.22914893925189972
1763696725019374000,6.5003740234375,1.198447585105896,0.04047949239611626,0.34856027364730835
1763696725029325300,6.5103251953125,1.1817193031311035,0.063214510679245,0.4598395526409149
1763696725039276000,6.520276123046875,1.1882143020629883,0.12196890264749527,0.5656424164772034
1763696725049227300,6.530227294921875,1.206544280052185,0.19078703224658966,0.6563323140144348
1763696725059178200,6.54017822265625,1.2153830528259277,0.23827491700649261,0.7232522368431091
1763696725069129200,6.550129150390625,1.2072972059249878,0.26069968938827515,0.7619665265083313
1763696725079080200,6.560080078125,1.1865919828414917,0.25854042172431946,0.7783143520355225
1763696725089031200,6.57003125,1.162451148033142,0.24344502389431,0.7806790471076965
1763696725098982100,6.579982177734375,1.1405171155929565,0.2323572188615799,0.7718314528465271
1763696725108933000,6.58993310546875,1.1143287420272827,0.22167183458805084,0.7574498057365417
1763696725118884000,6.599884033203125,1.0841494798660278,0.21532686054706573,0.7427318096160889
1763696725128835300,6.60983544921875,1.0499323606491089,0.20031516253948212,0.7219789624214172
1763696725138786000,6.6197861328125,1.0151208639144897,0.18716074526309967,0.699425220489502
1763696725148737300,6.6297373046875,0.9842343926429749,0.17590434849262238,0.6691004633903503
1763696725158688000,6.63968798828125,0.9451503753662109,0.18776926398277283,0.6417561769485474
1763696725168639200,6.64963916015625,0.7982240319252014,0.26273778080940247,0.6598944067955017
1763696725178590000,6.65958984375,0.7068083882331848,0.2156953364610672,0.6195861101150513
1763696725188541200,6.669541259765625,0.6405342221260071,0.21562151610851288,0.5826400518417358
1763696725198492200,6.6794921875,0.583739697933197,0.17510977387428284,0.5621926188468933
1763696725208443100,6.689443115234375,0.5306520462036133,0.1188281700015068,0.5548853874206543
1763696725218394400,6.699394287109375,0.4643761217594147,0.07402394711971283,0.5367149114608765
1763696725228345000,6.709344970703125,0.38544028997421265,0.04854521527886391,0.49741464853286743
1763696725238296300,6.71929638671875,0.30982595682144165,0.04164842516183853,0.44712403416633606
1763696725248247000,6.7292470703125,0.2333495169878006,0.061836082488298416,0.3942812383174896
1763696725258198300,6.7391982421875,0.15347465872764587,0.09972646832466125,0.35292208194732666
1763696725268149200,6.749149169921875,0.07397980988025665,0.1554175317287445,0.3234594762325287
1763696725278100200,6.759100341796875,0.0009468825883232057,0.205255389213562,0.28984957933425903
1763696725288051200,6.76905126953125,-0.061780866235494614,0.2414305955171585,0.2426501363515854
1763696725298002200,6.779002197265625,-0.12032300233840942,0.2572449743747711,0.17510810494422913
1763696725307953200,6.788953125,-0.16684390604496002,0.23988276720046997,0.08850637078285217
1763696725317904100,6.798904052734375,-0.19611577689647675,0.1450265496969223,-0.03374737128615379
1763696725327855000,6.808855224609375,-0.2325911819934845,0.03329771012067795,-0.202193483710289
1763696725337806300,6.818806396484375,-0.2496604472398758,-0.005490700248628855,-0.3472660183906555
1763696725347757000,6.828757080078125,-0.2400100827217102,-0.09944645315408707,-0.441587895154953
1763696725357708000,6.8387080078125,-0.20396259427070618,-0.14151453971862793,-0.5042616724967957
1763696725367659000,6.848658935546875,-0.15976765751838684,-0.15989826619625092,-0.5753894448280334
1763696725377610000,6.85860986328125,-0.11171676963567734,-0.10923349112272263,-0.654093861579895
1763696725387561000,6.86856103515625,-0.06364194303750992,-0.05940360948443413,-0.6852971911430359
1763696725397513200,6.87851318359375,-0.040146999061107635,-0.06268089264631271,-0.7022921442985535
1763696725407463200,6.888463134765625,-0.04301787167787552,-0.021330270916223526,-0.727163553237915
1763696725417415200,6.898415283203125,-0.08354026079177856,0.004897870123386383,-0.749290406703949
1763696725427366100,6.9083662109375,-0.17009243369102478,0.03564786911010742,-0.766369640827179
1763696725437317000,6.918317138671875,-0.2861737608909607,0.0977807492017746,-0.7904480695724487
1763696725447268000,6.92826806640625,-0.42227429151535034,0.1743936687707901,-0.8241195678710938
1763696725457219000,6.938218994140625,-0.5614569783210754,0.26050829887390137,-0.8672904968261719
1763696725467170000,6.948170166015625,-0.6954278349876404,0.3540846109390259,-0.9017046093940735
1763696725477121000,6.95812109375,-0.8141560554504395,0.44486165046691895,-0.9123892188072205
1763696725487072000,6.968072021484375,-0.9217478036880493,0.5386164784431458,-0.8909732699394226
1763696725497023200,6.978023193359375,-1.0182921886444092,0.6193429827690125,-0.8509774208068848
1763696725506974000,6.987973876953125,-1.1076630353927612,0.6486062407493591,-0.8044169545173645
1763696725516925200,6.99792529296875,-1.1879298686981201,0.6465518474578857,-0.7723767757415771
1763696725526876000,7.0078759765625,-1.2714601755142212,0.636132001876831,-0.7596635818481445
1763696725536827100,7.0178271484375,-1.362617015838623,0.6082803606987,-0.7777307629585266
1763696725546777900,7.02777783203125,-1.4463300704956055,0.5813196897506714,-0.8236489295959473
1763696725556729000,7.03772900390625,-1.5324715375900269,0.5430969595909119,-0.8790251016616821
1763696725566680300,7.047680419921875,-1.6110388040542603,0.5366299748420715,-0.9318446516990662
1763696725576631000,7.057631103515625,-1.665653109550476,0.5685985684394836,-0.9724541306495667
1763696725586582300,7.067582275390625,-1.6841744184494019,0.6090690493583679,-0.9907179474830627
1763696725596533000,7.077532958984375,-1.6594072580337524,0.6518027186393738,-0.9868765473365784
1763696725606484200,7.087484130859375,-1.603700041770935,0.6726066470146179,-0.9593233466148376
1763696725616435000,7.09743505859375,-1.5307425260543823,0.6695216298103333,-0.9198925495147705
1763696725626386200,7.10738623046875,-1.4426369667053223,0.667136549949646,-0.8812311887741089
1763696725636337200,7.117337158203125,-1.3430113792419434,0.6709712147712708,-0.8586614727973938
1763696725646288100,7.1272880859375,-1.2424163818359375,0.6722714900970459,-0.8479565382003784
1763696725656239000,7.137239013671875,-1.1558539867401123,0.6680333018302917,-0.8506242036819458
1763696725666190000,7.147190185546875,-1.0808918476104736,0.6408270001411438,-0.873137354850769
1763696725676141000,7.15714111328125,-1.0167323350906372,0.5864143371582031,-0.9083928465843201
1763696725686092000,7.167092041015625,-0.9581674337387085,0.5264550447463989,-0.9582104086875916
1763696725696043000,7.17704296875,-0.9006183743476868,0.46935585141181946,-1.0108639001846313
1763696725705994200,7.186994140625,-0.841144323348999,0.4118776023387909,-1.0590614080429077
1763696725715945000,7.196945068359375,-0.7760995030403137,0.3293693959712982,-1.0987459421157837
1763696725725896200,7.206896240234375,-0.703662633895874,0.2358713299036026,-1.1207886934280396
1763696725735847000,7.216846923828125,-0.639488160610199,0.11881475150585175,-1.1236531734466553
1763696725745798100,7.226798095703125,-0.581658124923706,0.0037120324559509754,-1.128767967224121
1763696725755748900,7.236748779296875,-0.5243690013885498,-0.08902455866336823,-1.1403082609176636
1763696725765700000,7.2467001953125,-0.46705305576324463,-0.1273871809244156,-1.1559784412384033
1763696725775651000,7.256651123046875,-0.41921868920326233,-0.13781586289405823,-1.154369592666626
1763696725785602000,7.26660205078125,-0.39365971088409424,-0.142063170671463,-1.1248838901519775
1763696725795553000,7.276552978515625,-0.3768221437931061,-0.12707383930683136,-1.0632895231246948
1763696725805504000,7.28650390625,-0.35234177112579346,-0.07293376326560974,-0.9736106395721436
1763696725815455200,7.296455322265625,-0.32876452803611755,-0.007302822079509497,-0.8504562377929688
1763696725825406000,7.306406005859375,-0.3152395188808441,0.05073663592338562,-0.700282096862793
1763696725835357200,7.316357177734375,-0.339119553565979,0.08181199431419373,-0.5327599048614502
1763696725845308200,7.32630810546875,-0.3956802487373352,0.1047675609588623,-0.3706680238246918
1763696725855259100,7.336259033203125,-0.4680439233779907,0.10657424479722977,-0.21570104360580444
1763696725865210000,7.346210205078125,-0.5300877690315247,0.07985852658748627,-0.06913096457719803
1763696725875161000,7.3561611328125,-0.5585942268371582,0.028321826830506325,0.07030575722455978
1763696725885112000,7.366112060546875,-0.5502833127975464,-0.033345434814691544,0.1960444301366806
1763696725895063000,7.37606298828125,-0.5123628377914429,-0.08843159675598145,0.2908540368080139
1763696725905014000,7.386013916015625,-0.45271164178848267,-0.15179027616977692,0.34918707609176636
1763696725914965200,7.39596533203125,-0.36775678396224976,-0.22738197445869446,0.37594252824783325
1763696725924916000,7.405916015625,-0.2609241306781769,-0.3072413504123688,0.3891836404800415
1763696725934867200,7.4158671875,-0.13615475594997406,-0.38594603538513184,0.39662665128707886
1763696725944818000,7.42581787109375,0.000552758458070457,-0.44757184386253357,0.4003968834877014
1763696725954769200,7.43576904296875,0.1423799842596054,-0.4700876772403717,0.40382814407348633
1763696725964720000,7.44572021484375,0.27112236618995667,-0.45946115255355835,0.4200352728366852
1763696725974671000,7.455671142578125,0.36851391196250916,-0.4273543655872345,0.461034893989563
1763696725984622000,7.4656220703125,0.44567179679870605,-0.37425410747528076,0.5187324285507202
1763696725994573000,7.475572998046875,0.5240228176116943,-0.3065538704395294,0.5875905752182007
1763696726004524000,7.48552392578125,0.618237316608429,-0.24738053977489471,0.675738513469696
1763696726014475000,7.49547509765625,0.7165260910987854,-0.20981213450431824,0.8026564717292786
1763696726024426000,7.505426025390625,0.8166841268539429,-0.17956556379795074,0.9677547812461853
1763696726034377200,7.515377197265625,0.9107981324195862,-0.15923632681369781,1.1492483615875244
1763696726044328000,7.525327880859375,0.9901711344718933,-0.11213996261358261,1.3209165334701538
1763696726054279200,7.535279052734375,1.0526481866836548,-0.04966060444712639,1.4660698175430298
1763696726064230000,7.54522998046875,1.0931438207626343,0.00711354473605752,1.5922527313232422
1763696726074181000,7.55518115234375,1.1105973720550537,0.08252520859241486,1.7019544839859009
1763696726084132000,7.565132080078125,1.1016429662704468,0.16788922250270844,1.7999006509780884
1763696726094083000,7.5750830078125,1.0655312538146973,0.24685008823871613,1.9002715349197388
1763696726104034300,7.585034423828125,1.012404441833496,0.3109334707260132,2.010547161102295
1763696726113985000,7.594985107421875,0.9441761374473572,0.35111233592033386,2.139775514602661
1763696726123936300,7.604936279296875,0.8642482161521912,0.37675705552101135,2.278139114379883
1763696726133887000,7.614886962890625,0.7783336043357849,0.38385066390037537,2.414590835571289
1763696726143838200,7.624838134765625,0.6924541592597961,0.37301576137542725,2.533371925354004
1763696726153790000,7.6347900390625,0.6155905723571777,0.3428248465061188,2.6211400032043457
1763696726163740200,7.644740234375,0.5640942454338074,0.3433646559715271,2.6614131927490234
1763696726173692000,7.65469189453125,0.5498061180114746,0.33963704109191895,2.64668607711792
1763696726183643100,7.66464306640625,0.5569712519645691,0.31230470538139343,2.5851082801818848
1763696726193593900,7.67459375,0.5803066492080688,0.26483041048049927,2.487121105194092
1763696726203545000,7.684545166015625,0.6093128323554993,0.19960688054561615,2.3695898056030273
1763696726213496000,7.69449609375,0.6232278347015381,0.12007424235343933,2.2406978607177734
1763696726223447000,7.704447021484375,0.6210669875144958,0.029060790315270424,2.1037280559539795
1763696726233398300,7.714398193359375,0.6166048645973206,-0.06002886965870857,1.957535982131958
1763696726243349000,7.724348876953125,0.5913267731666565,-0.1508006900548935,1.8128854036331177
1763696726253300200,7.73430029296875,0.5492648482322693,-0.24089783430099487,1.675987720489502
1763696726263251000,7.7442509765625,0.4820265471935272,-0.3475509285926819,1.542687177658081
1763696726273202200,7.7542021484375,0.41606006026268005,-0.47303348779678345,1.4063719511032104
1763696726283153200,7.764153076171875,0.3675891160964966,-0.5980823040008545,1.2574889659881592
1763696726293104000,7.774104248046875,0.3414909243583679,-0.7312938570976257,1.0998975038528442
1763696726303055000,7.78405517578125,0.3410845696926117,-0.8727643489837646,0.940672755241394
1763696726313006000,7.794006103515625,0.35900816321372986,-1.0183513164520264,0.7854727506637573
1763696726322957000,7.80395703125,0.39292699098587036,-1.1498711109161377,0.6326817870140076
1763696726332908000,7.813907958984375,0.437144011259079,-1.2591478824615479,0.47970980405807495
1763696726342859000,7.82385888671875,0.4839238226413727,-1.3390642404556274,0.33457309007644653
1763696726352809500,7.8338095703125,0.534152626991272,-1.414554476737976,0.20905324816703796
1763696726362760400,7.843760498046875,0.5825573801994324,-1.4818578958511353,0.11725108325481415
1763696726372711400,7.85371142578125,0.6161283850669861,-1.5460944175720215,0.06453035026788712
1763696726382662700,7.86366259765625,0.6320454478263855,-1.6003130674362183,0.03676533326506615
1763696726392613600,7.873613525390625,0.6215912103652954,-1.6373155117034912,0.01730268821120262
1763696726402564600,7.883564697265625,0.5747113823890686,-1.6287168264389038,-0.019349973648786545
1763696726412515600,7.893515625,0.4871578514575958,-1.560939908027649,-0.0847228541970253
1763696726422466600,7.903466552734375,0.37013494968414307,-1.4523736238479614,-0.18585476279258728
1763696726432417500,7.91341748046875,0.2174317091703415,-1.3370875120162964,-0.3182554244995117
1763696726442368500,7.923368408203125,0.04528489708900452,-1.251727819442749,-0.41772589087486267
1763696726452319700,7.93331982421875,-0.10679890960454941,-1.1107105016708374,-0.5071734189987183
1763696726462270500,7.9432705078125,-0.2415951043367386,-0.9614819884300232,-0.5854821801185608
1763696726472221700,7.9532216796875,-0.36902549862861633,-0.8287196755409241,-0.6389259696006775
1763696726482172400,7.96317236328125,-0.482368528842926,-0.7013054490089417,-0.6705305576324463
1763696726492123600,7.97312353515625,-0.5769938230514526,-0.5607904195785522,-0.6960170269012451
1763696726502074400,7.983074462890625,-0.6540485620498657,-0.40490931272506714,-0.7115383148193359
1763696726512025600,7.993025634765625,-0.7265903949737549,-0.2735430598258972,-0.716239869594574
1763696726521976600,8.0029765625,-0.7903289198875427,-0.16021397709846497,-0.7150448560714722
1763696726531927600,8.012927490234375,-0.8373249769210815,-0.06570985168218613,-0.7202670574188232
1763696726541878500,8.02287841796875,-0.8651084303855896,-0.012838341295719147,-0.7305852174758911
1763696726551829500,8.03282958984375,-0.8727384209632874,0.04121530428528786,-0.7378577589988708
1763696726561780500,8.042780517578125,-0.8549425005912781,0.09008300304412842,-0.7347104549407959
1763696726571731500,8.0527314453125,-0.8145716786384583,0.1137278825044632,-0.7135607004165649
1763696726581682400,8.062682373046876,-0.7587116956710815,0.11304572969675064,-0.6877109408378601
1763696726591633700,8.072633544921874,-0.6972019672393799,0.09955389052629471,-0.6761350035667419
1763696726601584400,8.08258447265625,-0.634846031665802,0.0956805944442749,-0.6905157566070557
1763696726611535600,8.09253564453125,-0.5883709192276001,0.11068430542945862,-0.7249776124954224
1763696726621486300,8.102486328125,-0.5580139756202698,0.13778063654899597,-0.761163592338562
1763696726631437600,8.1124375,-0.5421785712242126,0.17552055418491364,-0.7853499054908752
1763696726641388500,8.122388427734375,-0.5286861062049866,0.21417070925235748,-0.7957316040992737
1763696726651339500,8.132339599609375,-0.5186254978179932,0.24605433642864227,-0.7982134222984314
1763696726661290800,8.142290771484374,-0.5114309191703796,0.3001096546649933,-0.7912870645523071
1763696726671241500,8.152241455078125,-0.5204247236251831,0.3640998303890228,-0.7597416639328003
1763696726681192700,8.162192626953125,-0.5270726084709167,0.4364755153656006,-0.7088369727134705
1763696726691143400,8.172143310546875,-0.5339294672012329,0.4791627824306488,-0.6344849467277527
1763696726701094700,8.1820947265625,-0.5386551022529602,0.48831313848495483,-0.5464867353439331
1763696726711045400,8.19204541015625,-0.5463423132896423,0.5006622076034546,-0.463781476020813
1763696726720996600,8.20199658203125,-0.5622851252555847,0.5014605522155762,-0.38455578684806824
1763696726730947600,8.211947509765626,-0.5899313688278198,0.5032851099967957,-0.3272208571434021
1763696726740898600,8.221898681640624,-0.620972752571106,0.5027289390563965,-0.3027503788471222
1763696726750849500,8.231849609375,-0.640468955039978,0.47679775953292847,-0.31966543197631836
1763696726760800500,8.241800537109375,-0.6561718583106995,0.42851388454437256,-0.3686550259590149
1763696726770751500,8.25175146484375,-0.6549206972122192,0.35601091384887695,-0.4206867814064026
1763696726780702500,8.261702392578124,-0.6473842263221741,0.2842085063457489,-0.46050697565078735
1763696726790653400,8.2716533203125,-0.6232908964157104,0.23889830708503723,-0.48445039987564087
1763696726800604700,8.281604736328125,-0.588877260684967,0.2151002436876297,-0.4928991496562958
1763696726810555400,8.291555419921876,-0.5577453970909119,0.1983492225408554,-0.48057350516319275
1763696726820506600,8.301506591796874,-0.5242785811424255,0.1974334418773651,-0.44088998436927795
1763696726830457300,8.311457275390625,-0.4949619472026825,0.20021776854991913,-0.3634716272354126
1763696726840408600,8.32140869140625,-0.4629257619380951,0.2240036129951477,-0.25303494930267334
1763696726850359600,8.331359619140626,-0.43060722947120667,0.249199777841568,-0.1185074970126152
1763696726860310500,8.341310546875,-0.4061828553676605,0.2612001597881317,0.022289413958787918
1763696726870261500,8.351261474609375,-0.3939128816127777,0.26981282234191895,0.15292438864707947
1763696726880212500,8.36121240234375,-0.39741769433021545,0.2722368836402893,0.2601233720779419
1763696726890163500,8.37116357421875,-0.4068671464920044,0.29066383838653564,0.3311600089073181
1763696726900114400,8.381114501953125,-0.42243432998657227,0.3161528408527374,0.3574216067790985
1763696726910065700,8.391065673828125,-0.4419134855270386,0.32987716794013977,0.34191054105758667
1763696726920016600,8.4010166015625,-0.46577921509742737,0.31877145171165466,0.29766935110092163
1763696726929967600,8.410967529296874,-0.48057013750076294,0.28688064217567444,0.2430257946252823
1763696726939918600,8.420918701171875,-0.477047860622406,0.26934948563575745,0.1855778992176056
1763696726949869600,8.43086962890625,-0.45659372210502625,0.2545548379421234,0.13424040377140045
1763696726959820500,8.440820556640626,-0.4253180921077728,0.2244141697883606,0.09237363189458847
1763696726969771500,8.450771484375,-0.3969932496547699,0.17388521134853363,0.06753059476613998
1763696726979722500,8.460722412109375,-0.37087202072143555,0.11291129142045975,0.06553619354963303
1763696726989673700,8.470673828125,-0.3419972360134125,0.06084010377526283,0.08686385303735733
1763696726999624400,8.48062451171875,-0.32029086351394653,0.020042341202497482,0.12630286812782288
1763696727009575700,8.49057568359375,-0.3073505759239197,-0.015916723757982254,0.16885778307914734
1763696727019526400,8.5005263671875,-0.30156081914901733,-0.02953311800956726,0.20040547847747803
1763696727029477600,8.5104775390625,-0.30504316091537476,-0.024307196959853172,0.20823171734809875
1763696727039428400,8.520428466796876,-0.326992005109787,-0.00862193200737238,0.19216668605804443
1763696727049379600,8.530379638671874,-0.35289764404296875,0.018629394471645355,0.1560683399438858
1763696727059330600,8.54033056640625,-0.38297200202941895,0.04346127808094025,0.09967850893735886
1763696727069281500,8.550281494140625,-0.3958963453769684,0.08375091105699539,0.029625121504068375
1763696727079232500,8.560232421875,-0.3826386630535126,0.13327375054359436,-0.04529232159256935
1763696727089183500,8.57018359375,-0.34279483556747437,0.17783482372760773,-0.11490362137556076
1763696727099134500,8.580134521484375,-0.27274090051651,0.22246111929416656,-0.17197668552398682
1763696727109085400,8.59008544921875,-0.1649896800518036,0.2572747766971588,-0.21906563639640808
1763696727119036400,8.600036376953126,-0.024447297677397728,0.27415186166763306,-0.24041730165481567
1763696727128987600,8.609987548828125,0.14190945029258728,0.28239166736602783,-0.23788437247276306
1763696727138938400,8.6199384765625,0.32772111892700195,0.28588300943374634,-0.21309009194374084
1763696727148889600,8.6298896484375,0.527643620967865,0.28161129355430603,-0.18327999114990234
1763696727158840600,8.639840576171874,0.7241896390914917,0.263622522354126,-0.15205217897891998
1763696727168791600,8.64979150390625,0.8971518874168396,0.23337645828723907,-0.13471181690692902
1763696727178742500,8.659742431640625,1.0345869064331055,0.205436110496521,-0.13677774369716644
1763696727188693500,8.669693603515626,1.132590413093567,0.18546800315380096,-0.15304672718048096
1763696727198645500,8.6796455078125,1.1981555223464966,0.17695103585720062,-0.18640103936195374
1763696727208595500,8.689595458984375,1.240623950958252,0.18987268209457397,-0.21796323359012604
1763696727218547500,8.69954736328125,1.26996910572052,0.23313556611537933,-0.2388363778591156
1763696727228497400,8.709497314453126,1.2987847328186035,0.28863584995269775,-0.25164327025413513
1763696727238449700,8.71944970703125,1.319844365119934,0.34135377407073975,-0.24439828097820282
1763696727248400400,8.729400390625,1.3354500532150269,0.3894299566745758,-0.22842995822429657
1763696727258351600,8.7393515625,1.3475614786148071,0.4273764193058014,-0.20836074650287628
1763696727268302300,8.74930224609375,1.358483910560608,0.4513288736343384,-0.19035378098487854
1763696727278253600,8.759253662109375,1.3698692321777344,0.46245884895324707,-0.18498495221138
1763696727288204500,8.76920458984375,1.3716133832931519,0.4545985460281372,-0.1890190988779068
1763696727298155500,8.779155517578126,1.3683397769927979,0.4452798068523407,-0.19829700887203217
1763696727308106500,8.7891064453125,1.3618502616882324,0.4236368238925934,-0.20998188853263855
1763696727318057500,8.799057373046875,1.3521901369094849,0.39452624320983887,-0.22232837975025177
1763696727328008700,8.8090087890625,1.3360987901687622,0.366315096616745,-0.22878308594226837
1763696727337959400,8.81895947265625,1.3048244714736938,0.3337806165218353,-0.22179053723812103
1763696727347910400,8.828910400390624,1.2574918270111084,0.2951738238334656,-0.20763397216796875
1763696727357861600,8.838861572265625,1.1950689554214478,0.24733448028564453,-0.18857745826244354
1763696727367812400,8.848812255859375,1.1237119436264038,0.18281327188014984,-0.1654692143201828
1763696727377763600,8.858763671875,1.0506007671356201,0.1122409924864769,-0.13662245869636536
1763696727387714300,8.86871435546875,0.9748085141181946,0.04450482130050659,-0.09902555495500565
1763696727397665500,8.87866552734375,0.8907564282417297,-0.009269959293305874,-0.06998811662197113
1763696727407616300,8.8886162109375,0.804665207862854,-0.05382890626788139,-0.0607762411236763
1763696727417567500,8.8985673828125,0.7137176990509033,-0.08705825358629227,-0.06655563414096832
1763696727427518500,8.9085185546875,0.6194772124290466,-0.11644677072763443,-0.08340279012918472
1763696727437469400,8.918469482421875,0.5229790806770325,-0.14556416869163513,-0.1028134897351265
1763696727447420400,8.92842041015625,0.42333078384399414,-0.1789277195930481,-0.12486393749713898
1763696727457371400,8.938371337890626,0.32386502623558044,-0.23436184227466583,-0.15435659885406494
1763696727467322400,8.948322265625,0.24068813025951385,-0.2885321080684662,-0.18487270176410675
1763696727477273300,8.9582734375,0.1635710597038269,-0.34065690636634827,-0.2211960107088089
1763696727487224300,8.968224365234375,0.08690451085567474,-0.4044068455696106,-0.25683099031448364
1763696727497175600,8.978175537109376,0.004591463133692741,-0.4813171327114105,-0.29549872875213623
1763696727507126300,8.988126220703125,-0.07911115139722824,-0.5555274486541748,-0.3314040005207062
1763696727517077500,8.998077392578125,-0.165521502494812,-0.6019295454025269,-0.36183634400367737
1763696727527028200,9.0080283203125,-0.25103479623794556,-0.6236468553543091,-0.3812912702560425
1763696727536979500,9.0179794921875,-0.33544036746025085,-0.6314175724983215,-0.3860812187194824
1763696727546930400,9.027930419921875,-0.4050101041793823,-0.6140564680099487,-0.3760325610637665
1763696727556881400,9.03788134765625,-0.44305625557899475,-0.5547802448272705,-0.34605473279953003
1763696727566832400,9.047832275390626,-0.45099008083343506,-0.46396782994270325,-0.30484363436698914
1763696727576783400,9.057783447265624,-0.4404187500476837,-0.3588338792324066,-0.2619903087615967
1763696727586734300,9.067734375,-0.4085417687892914,-0.2527753710746765,-0.2366040050983429
1763696727596685300,9.077685302734375,-0.3668440878391266,-0.1571541577577591,-0.23493696749210358
1763696727606636500,9.087636474609376,-0.3127654194831848,-0.0854639783501625,-0.25551149249076843
1763696727616587500,9.09758740234375,-0.25665777921676636,-0.05835021287202835,-0.28577712178230286
1763696727626538500,9.10753857421875,-0.19849273562431335,-0.06660281866788864,-0.3175145387649536
1763696727636489500,9.117489501953125,-0.1317741572856903,-0.09654686599969864,-0.34214264154434204
1763696727646440400,9.1274404296875,-0.055650629103183746,-0.12795139849185944,-0.3526080846786499
1763696727656391400,9.137391357421874,0.027354195713996887,-0.1396205723285675,-0.35531798005104065
1763696727666342400,9.14734228515625,0.10859951376914978,-0.13317492604255676,-0.36511868238449097
1763696727676293400,9.15729345703125,0.1661510318517685,-0.1208086833357811,-0.38889408111572266
1763696727686244600,9.16724462890625,0.20140409469604492,-0.10687848925590515,-0.41295120120048523
1763696727696195300,9.1771953125,0.22226932644844055,-0.06661076843738556,-0.42675960063934326
1763696727706146600,9.187146484375,0.2324836105108261,-0.027286531403660774,-0.42111873626708984
1763696727716097300,9.19709716796875,0.22647126019001007,-0.016275426372885704,-0.3900202214717865
1763696727726048500,9.207048583984376,0.1985541433095932,-0.019893063232302666,-0.34146493673324585
1763696727735999200,9.216999267578124,0.14854300022125244,-0.014875797554850578,-0.28817468881607056
1763696727745950500,9.226950439453125,0.07897457480430603,-0.007064746227115393,-0.25362229347229004
1763696727755901400,9.2369013671875,-0.0001989040756598115,0.003066846402361989,-0.251760333776474
1763696727765852400,9.246852294921876,-0.0766068622469902,-0.002856290200725198,-0.28889280557632446
1763696727775803400,9.256803466796875,-0.13893082737922668,-0.027254795655608177,-0.3496374189853668
1763696727785754400,9.26675439453125,-0.179477721452713,-0.044147755950689316,-0.4116917550563812
1763696727795705300,9.276705322265625,-0.1802142709493637,-0.04306124523282051,-0.46926435828208923
1763696727805656300,9.28665625,-0.1471833437681198,-0.04737529903650284,-0.5155199766159058
1763696727815607300,9.296607177734375,-0.09263159334659576,-0.05709514394402504,-0.5535240173339844
1763696727825558500,9.30655859375,-0.027233678847551346,-0.05722137913107872,-0.5725440382957458
1763696727835509200,9.31650927734375,0.03948907554149628,-0.042601581662893295,-0.5679283142089844
1763696727845460500,9.32646044921875,0.10099185258150101,-0.028815196827054024,-0.5451593399047852
1763696727855411500,9.336411376953125,0.15371423959732056,-0.022944007068872452,-0.5085638761520386
1763696727865362400,9.346362548828125,0.19653335213661194,-0.017853109166026115,-0.4593108296394348
1763696727875313400,9.3563134765625,0.23634491860866547,-0.009240884333848953,-0.40471315383911133
1763696727885264400,9.366264404296874,0.275026798248291,-0.005299672484397888,-0.35789692401885986
1763696727895215600,9.376215576171875,0.30293145775794983,-0.02074563317000866,-0.33007505536079407
1763696727905166300,9.386166259765625,0.3194129467010498,-0.04483579099178314,-0.3251572549343109
1763696727915117600,9.39611767578125,0.324755996465683,-0.07430416345596313,-0.3244135081768036
1763696727925068300,9.406068359375,0.322358638048172,-0.10308654606342316,-0.32450807094573975
1763696727935019500,9.41601953125,0.31162187457084656,-0.14054714143276215,-0.32813307642936707
1763696727944970500,9.425970458984375,0.28576046228408813,-0.21294917166233063,-0.334490031003952
1763696727954921500,9.43592138671875,0.24866777658462524,-0.29263755679130554,-0.3324083089828491
1763696727964872400,9.44587255859375,0.20477914810180664,-0.3511978089809418,-0.3158447742462158
1763696727974823400,9.455823486328125,0.17127558588981628,-0.3942538797855377,-0.2824426293373108
1763696727984774400,9.4657744140625,0.14806640148162842,-0.42172783613204956,-0.23844560980796814
1763696727994725400,9.475725341796876,0.1310351938009262,-0.42809250950813293,-0.18378083407878876
1763696728004676400,9.48567626953125,0.10779140144586563,-0.41385844349861145,-0.11233674734830856
1763696728014627600,9.495627685546875,0.07200261950492859,-0.3774355351924896,-0.032225415110588074
1763696728024578300,9.505578369140625,0.013624800369143486,-0.3373480439186096,0.048105109483003616
1763696728034529500,9.515529541015624,-0.05537743866443634,-0.2955089807510376,0.1141808032989502
1763696728044480300,9.525480224609375,-0.12481039762496948,-0.26987120509147644,0.16732773184776306
1763696728054431500,9.535431396484375,-0.18381190299987793,-0.2456589937210083,0.20739756524562836
1763696728064382200,9.54538232421875,-0.221000537276268,-0.2210702896118164,0.24074485898017883
1763696728074333400,9.55533349609375,-0.24309629201889038,-0.20208078622817993,0.26899343729019165
1763696728084284400,9.565284423828125,-0.24300627410411835,-0.1803283542394638,0.2903765141963959
1763696728094235400,9.5752353515625,-0.22948820888996124,-0.16135162115097046,0.3026014566421509
1763696728104186400,9.585186279296876,-0.20657676458358765,-0.12559522688388824,0.29978278279304504
1763696728114137300,9.595137451171874,-0.17574813961982727,-0.08552622050046921,0.28700652718544006
1763696728124088600,9.605088623046875,-0.13969559967517853,-0.06616503745317459,0.25967904925346375
1763696728134039300,9.615039306640625,-0.09801354259252548,-0.06584826856851578,0.22524915635585785
1763696728143990500,9.624990478515626,-0.0424908883869648,-0.06681899726390839,0.19274793565273285
1763696728153941500,9.63494140625,0.015943927690386772,-0.0747172012925148,0.1763841211795807
1763696728163892500,9.644892578125,0.07289589196443558,-0.08404438942670822,0.17930667102336884
1763696728173843500,9.654843505859375,0.1274583637714386,-0.08871544897556305,0.19488495588302612
1763696728183794400,9.66479443359375,0.1719515323638916,-0.08726854622364044,0.2200627475976944
1763696728193745400,9.674745361328124,0.20218513906002045,-0.07868379354476929,0.2526523768901825
1763696728203696400,9.6846962890625,0.20636975765228271,-0.08019327372312546,0.2902069389820099
1763696728213647400,9.6946474609375,0.1807900369167328,-0.08689013868570328,0.3311307728290558
1763696728223598600,9.7045986328125,0.13241718709468842,-0.10147067904472351,0.3741333484649658
1763696728233549300,9.71454931640625,0.06439555436372757,-0.12459852546453476,0.42291775345802307
1763696728243500500,9.72450048828125,-0.02717563882470131,-0.16916760802268982,0.48926642537117004
1763696728253451300,9.734451171875,-0.12992386519908905,-0.21171975135803223,0.5694665908813477
1763696728263402500,9.744402587890624,-0.23922505974769592,-0.24024194478988647,0.6495345830917358
1763696728273353200,9.754353271484375,-0.3444248139858246,-0.25863081216812134,0.7350838780403137
1763696728283304400,9.764304443359375,-0.4408480226993561,-0.2538304626941681,0.8390145301818848
1763696728293255400,9.77425537109375,-0.5262362360954285,-0.22400575876235962,0.9692702889442444
1763696728303206400,9.784206298828124,-0.6071558594703674,-0.17200353741645813,1.114315152168274
1763696728313157400,9.794157470703125,-0.6829910278320312,-0.10395905375480652,1.2652186155319214
1763696728323108400,9.8041083984375,-0.7485972046852112,-0.012712500989437103,1.4032747745513916
1763696728333059300,9.814059326171876,-0.8108823895454407,0.08079318702220917,1.5129557847976685
1763696728343010300,9.82401025390625,-0.8755285143852234,0.15092433989048004,1.5881866216659546
1763696728352962000,9.833962158203125,-0.9387290477752686,0.1993388831615448,1.6240309476852417
1763696728362913000,9.8439130859375,-0.9814727902412415,0.20096607506275177,1.6282771825790405
1763696728372864000,9.853864013671876,-0.9949902892112732,0.16735409200191498,1.6022335290908813
1763696728382815200,9.863815185546875,-0.9833757281303406,0.10370055586099625,1.5469344854354858
1763696728392766000,9.873765869140625,-0.9466084837913513,0.03465358912944794,1.4604687690734863
1763696728402717200,9.88371728515625,-0.8943594098091125,-0.026686199009418488,1.3459397554397583
1763696728412668000,9.89366796875,-0.8396022915840149,-0.08823473006486893,1.2150506973266602
1763696728422619100,9.903619140625,-0.7797704339027405,-0.1462804675102234,1.0770602226257324
1763696728432569900,9.91356982421875,-0.7213325500488281,-0.21184538304805756,0.9273127913475037
1763696728442521000,9.92352099609375,-0.6636127829551697,-0.2669887840747833,0.7806535959243774
1763696728452472000,9.93347216796875,-0.608547031879425,-0.32010337710380554,0.652703046798706
1763696728462423000,9.943423095703125,-0.5606247782707214,-0.3762321472167969,0.5576156973838806
1763696728472374000,9.9533740234375,-0.5226519107818604,-0.42417046427726746,0.48880478739738464
1763696728482325000,9.963324951171876,-0.5030041337013245,-0.4637138843536377,0.4324352443218231
1763696728492276000,9.97327587890625,-0.49925246834754944,-0.4857369661331177,0.3827196955680847
1763696728502227000,9.98322705078125,-0.5121099948883057,-0.4843430817127228,0.33268314599990845
1763696728512178000,9.993177978515625,-0.5343793034553528,-0.46590492129325867,0.2870483696460724
1763696728522129200,10.003129150390626,-0.5627472996711731,-0.44267043471336365,0.24560239911079407
1763696728532079900,10.013079833984374,-0.5866641402244568,-0.420351505279541,0.20180656015872955
1763696728542031000,10.023031005859375,-0.6066751480102539,-0.4000776410102844,0.16600196063518524
1763696728551981800,10.03298193359375,-0.6092092394828796,-0.3778941035270691,0.1383368968963623
1763696728561933000,10.04293310546875,-0.5917250514030457,-0.3490470051765442,0.1272197961807251
1763696728571884000,10.052884033203124,-0.5658845901489258,-0.33475714921951294,0.12508516013622284
1763696728581835000,10.0628349609375,-0.5360867381095886,-0.31753554940223694,0.12349391728639603
1763696728591786200,10.0727861328125,-0.5005167126655579,-0.29870691895484924,0.11688398569822311
1763696728601737000,10.082737060546876,-0.4676530659198761,-0.2756849527359009,0.10675918310880661
1763696728611688200,10.092688232421875,-0.44581910967826843,-0.25784552097320557,0.08724465221166611
1763696728621639000,10.102638916015625,-0.43427589535713196,-0.2346094697713852,0.04714943841099739
1763696728631590100,10.112590087890625,-0.4240773618221283,-0.20588418841362,-0.005070725921541452
1763696728641541000,10.122541015625,-0.42498600482940674,-0.17088305950164795,-0.06358197331428528
1763696728651492000,10.1324921875,-0.4283965826034546,-0.13447606563568115,-0.12430287152528763
1763696728661443000,10.142443115234375,-0.4212777018547058,-0.10180068016052246,-0.18860410153865814
1763696728671394000,10.15239404296875,-0.39485040307044983,-0.07038825005292892,-0.24270878732204437
1763696728681345000,10.162344970703124,-0.3457430601119995,-0.04309777170419693,-0.2742648422718048
1763696728691296000,10.1722958984375,-0.28490158915519714,-0.026676980778574944,-0.28110408782958984
1763696728701247000,10.1822470703125,-0.21370065212249756,-0.018137821927666664,-0.2719569504261017
1763696728711198200,10.1921982421875,-0.1435602307319641,-0.00421602139249444,-0.2579030394554138
1763696728721149000,10.20214892578125,-0.07779078930616379,0.009829755872488022,-0.24217389523983002
1763696728731100200,10.21210009765625,-0.020062025636434555,0.016210870817303658,-0.2287011295557022
1763696728741051000,10.22205078125,0.019423864781856537,0.023177167400717735,-0.21494457125663757
1763696728751002000,10.232002197265626,0.04303852468729019,0.0349365770816803,-0.20515714585781097
1763696728760952800,10.241952880859374,0.05182082951068878,0.04904893413186073,-0.19346241652965546
1763696728770904000,10.251904052734375,0.03703213483095169,0.06839767843484879,-0.1800718754529953
1763696728780855000,10.26185498046875,0.009092646650969982,0.09018819779157639,-0.1613122969865799
1763696728790806000,10.271805908203126,-0.03182254731655121,0.11533132940530777,-0.13111412525177002
1763696728800757000,10.281757080078124,-0.08510681241750717,0.13533060252666473,-0.09567117691040039
1763696728810708000,10.2917080078125,-0.14133210480213165,0.15263362228870392,-0.06092052906751633
1763696728820659000,10.301658935546875,-0.1977306753396988,0.1728997379541397,-0.036437828093767166
1763696728830610000,10.31160986328125,-0.2494846135377884,0.19270539283752441,-0.028236374258995056
1763696728840561200,10.32156103515625,-0.28449851274490356,0.20438574254512787,-0.03662027046084404
1763696728850512100,10.33151220703125,-0.2980000078678131,0.20193272829055786,-0.05873088166117668
1763696728860463000,10.341463134765625,-0.29254239797592163,0.19274401664733887,-0.08853697776794434
1763696728870414000,10.3514140625,-0.26962995529174805,0.17284326255321503,-0.12985223531723022
1763696728880365000,10.361364990234375,-0.23449568450450897,0.14040729403495789,-0.17785492539405823
1763696728890316000,10.37131591796875,-0.1891571581363678,0.09581614285707474,-0.2341170758008957
1763696728900267000,10.38126708984375,-0.1385890543460846,0.05878036096692085,-0.2928216755390167
1763696728910218000,10.391218017578124,-0.07922151684761047,0.03009594790637493,-0.3367754817008972
1763696728920169200,10.401169189453125,-0.009376118890941143,-0.00030030636116862297,-0.3555387854576111
1763696728930120000,10.411119873046875,0.06464111804962158,-0.01768435724079609,-0.3401488959789276
1763696728940071200,10.4210712890625,0.13121269643306732,-0.012771623209118843,-0.2900409996509552
1763696728950022000,10.43102197265625,0.1764741837978363,0.00795617513358593,-0.20978103578090668
1763696728959973000,10.44097314453125,0.18727916479110718,0.04566840082406998,-0.10151660442352295
1763696728969924000,10.450924072265625,0.1505713015794754,0.10263203829526901,0.01424705982208252
1763696728979875000,10.460875,0.08503622561693192,0.1707751452922821,0.13123200833797455
1763696728989826000,10.470825927734374,0.0004908385453745723,0.24764865636825562,0.2358020395040512
1763696728999777000,10.480777099609375,-0.10223793983459473,0.3150210380554199,0.3270038664340973
1763696729009728000,10.49072802734375,-0.2027639001607895,0.3688812255859375,0.40527108311653137
1763696729019679000,10.500678955078126,-0.2850119173526764,0.40226075053215027,0.4546165466308594
1763696729029630000,10.5106298828125,-0.34424111247062683,0.4122612774372101,0.4730881452560425
1763696729039581200,10.520581298828125,-0.3738362789154053,0.4026715159416199,0.46839964389801025
1763696729049532000,10.530531982421875,-0.38693884015083313,0.37514641880989075,0.4418354332447052
1763696729059483100,10.540483154296876,-0.3828154504299164,0.33122873306274414,0.4039919078350067
1763696729069433900,10.550433837890624,-0.36375871300697327,0.2912079095840454,0.3552895188331604
1763696729079385000,10.560385009765625,-0.3438214957714081,0.25578227639198303,0.3081262707710266
1763696729089336000,10.570336181640625,-0.32867512106895447,0.2188872992992401,0.2639847695827484
1763696729099287000,10.580287109375,-0.3289071023464203,0.1889544278383255,0.22287382185459137
1763696729109238300,10.59023828125,-0.33751431107521057,0.1754121482372284,0.18702080845832825
1763696729119189000,10.60018896484375,-0.3540632128715515,0.17703960835933685,0.15613479912281036
1763696729129140200,10.61014013671875,-0.3774794638156891,0.1810155063867569,0.13244833052158356
1763696729139091000,10.620091064453124,-0.40026625990867615,0.1811438649892807,0.11161202937364578
1763696729149042200,10.630042236328125,-0.41839367151260376,0.17540547251701355,0.09137370437383652
1763696729158993000,10.639992919921875,-0.4322253167629242,0.16512885689735413,0.0706268772482872
1763696729168944000,10.649944091796876,-0.4335169196128845,0.16018112003803253,0.04973215609788895
1763696729178895000,10.65989501953125,-0.4312766492366791,0.15062622725963593,0.0409325435757637
1763696729188846000,10.66984619140625,-0.4253028333187103,0.132499560713768,0.03616122901439667
1763696729198797000,10.679797119140625,-0.4222407341003418,0.11826416850090027,0.04043586924672127
1763696729208748000,10.689748046875,-0.4223441183567047,0.11164263635873795,0.04792429879307747
1763696729218699000,10.699698974609374,-0.4368032217025757,0.11214090883731842,0.0571817122399807
1763696729228650000,10.70964990234375,-0.4588721692562103,0.1301918476819992,0.06259294599294662
1763696729238601000,10.71960107421875,-0.497414767742157,0.1416277289390564,0.058444276452064514
1763696729248552200,10.72955224609375,-0.5455220341682434,0.16114725172519684,0.04666605591773987
1763696729258503000,10.7395029296875,-0.5996760725975037,0.18304909765720367,0.018794476985931396
1763696729268454100,10.7494541015625,-0.6391999125480652,0.2016676813364029,-0.02163650095462799
1763696729278404900,10.75940478515625,-0.6614549160003662,0.2194509357213974,-0.06918138265609741
1763696729288356000,10.769356201171876,-0.6635598540306091,0.25388258695602417,-0.1246248409152031
1763696729298306800,10.779306884765624,-0.6444442272186279,0.3010258674621582,-0.18008598685264587
1763696729308258000,10.789258056640625,-0.6002284288406372,0.32774683833122253,-0.24174626171588898
1763696729318209000,10.799208984375,-0.5187932252883911,0.34316813945770264,-0.3105064332485199
1763696729328160000,10.809159912109376,-0.40409886837005615,0.33449235558509827,-0.38847607374191284
1763696729338111000,10.819111083984374,-0.259827196598053,0.29217687249183655,-0.4743150770664215
1763696729348061400,10.8290615234375,-0.09608156979084015,0.2049989402294159,-0.5634578466415405
1763696729358012700,10.8390126953125,0.07456047832965851,0.07871903479099274,-0.6421409249305725
1763696729367963600,10.848963623046876,0.2620094120502472,-0.04535693675279617,-0.7089247107505798
1763696729377914600,10.85891455078125,0.44047874212265015,-0.16292591392993927,-0.7587290406227112
1763696729387865900,10.868865966796875,0.5877519249916077,-0.25918781757354736,-0.7835509181022644
1763696729397816600,10.878816650390625,0.6802451014518738,-0.3178141117095947,-0.7800283432006836
1763696729407767800,10.888767822265624,0.7215782999992371,-0.32894089818000793,-0.7511014938354492
1763696729417718500,10.898718505859375,0.7273320555686951,-0.29735898971557617,-0.7014721632003784
1763696729427669800,10.908669677734375,0.7060784101486206,-0.235677570104599,-0.6294642686843872
1763696729437620700,10.918620849609376,0.6558999419212341,-0.14310875535011292,-0.5389111638069153
1763696729447571700,10.92857177734375,0.5898552536964417,-0.018811210989952087,-0.43095874786376953
1763696729457522700,10.938522705078125,0.5209457278251648,0.10261587798595428,-0.31619808077812195
1763696729467473700,10.9484736328125,0.4574347734451294,0.19605807960033417,-0.20563092827796936
1763696729477424600,10.958424560546876,0.41825568675994873,0.26497218012809753,-0.12224629521369934
1763696729487375600,10.968375732421874,0.4177956283092499,0.3141663074493408,-0.08497010916471481
1763696729497326600,10.97832666015625,0.44321364164352417,0.3323277235031128,-0.08854939788579941
1763696729507277800,10.98827783203125,0.48772427439689636,0.3216017782688141,-0.12100698798894882
1763696729517228500,10.998228515625,0.5500813722610474,0.2918870151042938,-0.17104671895503998
1763696729527179800,11.0081796875,0.6336440443992615,0.247259721159935,-0.23139585554599762
1763696729537130500,11.018130615234375,0.7310869693756104,0.18832796812057495,-0.2975671589374542
1763696729547081700,11.028081787109375,0.837518572807312,0.13051879405975342,-0.36564967036247253
1763696729557032700,11.03803271484375,0.9392619729042053,0.0816657692193985,-0.4327080547809601
1763696729566983700,11.047983642578124,1.0316601991653442,0.0281143169850111,-0.4963470995426178
1763696729576934700,11.0579345703125,1.1076337099075317,-0.033046506345272064,-0.5544000267982483
1763696729586885600,11.0678857421875,1.1737924814224243,-0.09405668079853058,-0.6048321723937988
1763696729596836600,11.077836669921876,1.2124184370040894,-0.14009501039981842,-0.6427004933357239
1763696729606787600,11.08778759765625,1.2248424291610718,-0.17959295213222504,-0.6646483540534973
1763696729616738600,11.097738525390625,1.2191869020462036,-0.2235039472579956,-0.6651394367218018
1763696729626689800,11.107689697265625,1.2012583017349243,-0.26633405685424805,-0.6307521462440491
1763696729636640500,11.117640625,1.1675989627838135,-0.30043211579322815,-0.567172110080719
1763696729646591700,11.127591796875,1.1145583391189575,-0.32296839356422424,-0.48013511300086975
1763696729656542700,11.137542724609375,1.0369876623153687,-0.33123326301574707,-0.37607795000076294
1763696729666493700,11.14749365234375,0.9336220622062683,-0.32671457529067993,-0.27165576815605164
1763696729676444700,11.157444580078124,0.813132107257843,-0.3134152889251709,-0.16353806853294373
1763696729686395600,11.167395751953125,0.6750199794769287,-0.2954696714878082,-0.0594615712761879
1763696729696347000,11.177346923828125,0.5337110161781311,-0.28415605425834656,0.029969774186611176
1763696729706297600,11.187297607421876,0.3994247615337372,-0.2794044017791748,0.10119996964931488
1763696729716248800,11.197248779296874,0.2858041822910309,-0.26974111795425415,0.1437319964170456
1763696729726199600,11.207199462890625,0.19680899381637573,-0.2580769658088684,0.16190026700496674
1763696729736150800,11.21715087890625,0.12630046904087067,-0.26462432742118835,0.16850997507572174
1763696729746101500,11.2271015625,0.07784368097782135,-0.2812827527523041,0.17890866100788116
1763696729756052700,11.237052734375,0.04920457676053047,-0.29714107513427734,0.19305351376533508
1763696729766003700,11.247003662109375,0.04446781054139137,-0.2912451922893524,0.2122354656457901
1763696729775954700,11.25695458984375,0.061578087508678436,-0.26420238614082336,0.2350528985261917
1763696729785905700,11.26690576171875,0.08683761209249496,-0.22974306344985962,0.2562973201274872
1763696729795856600,11.276856689453124,0.1101812794804573,-0.18125542998313904,0.27686917781829834
1763696729805807600,11.2868076171875,0.13037525117397308,-0.12265638262033463,0.294996052980423
1763696729815758600,11.296758544921875,0.1441909372806549,-0.06401410698890686,0.3075712323188782
1763696729825709600,11.30670947265625,0.15382525324821472,-0.011010232381522655,0.31439369916915894
1763696729835660800,11.316660888671874,0.15820668637752533,0.025113148614764214,0.30832675099372864
1763696729845611500,11.326611572265625,0.15416927635669708,0.055492009967565536,0.2862417697906494
1763696729855562800,11.336562744140625,0.13935011625289917,0.07771316170692444,0.24492205679416656
1763696729865513500,11.346513427734376,0.13086611032485962,0.08825939893722534,0.18488572537899017
1763696729875464700,11.356464599609374,0.14735721051692963,0.11831024289131165,0.11364004015922546
1763696729885415700,11.366415771484375,0.17920441925525665,0.1364922672510147,0.04486314207315445
1763696729895366700,11.37636669921875,0.2236083745956421,0.14963948726654053,-0.0139280054718256
1763696729905317600,11.386317626953126,0.2800745368003845,0.17457599937915802,-0.06542753428220749
1763696729915268600,11.3962685546875,0.3403072655200958,0.2096990942955017,-0.11166667193174362
1763696729925219800,11.4062197265625,0.39060643315315247,0.2279549390077591,-0.13918551802635193
1763696729935170600,11.416170654296875,0.427886962890625,0.21159353852272034,-0.12310241907835007
1763696729945121800,11.426121826171874,0.4480360448360443,0.19223102927207947,-0.08034376800060272
1763696729955072800,11.43607275390625,0.45027095079421997,0.1864708811044693,-0.03923095017671585
1763696729965023700,11.446023681640625,0.42688482999801636,0.18561187386512756,-0.02694457396864891
1763696729974974700,11.455974609375,0.3770994544029236,0.19275900721549988,-0.045149676501750946
1763696729984925700,11.46592578125,0.32193121314048767,0.21397466957569122,-0.08765627443790436
1763696729994876700,11.475876708984375,0.2824253737926483,0.2361055463552475,-0.15106481313705444
1763696730004827600,11.48582763671875,0.2737710475921631,0.24658899009227753,-0.2223074585199356
1763696730014778600,11.495778564453126,0.3009515404701233,0.2534247934818268,-0.297756165266037
1763696730024729900,11.505729736328124,0.3651748299598694,0.26199808716773987,-0.37190788984298706
1763696730034680600,11.5156806640625,0.459869921207428,0.2607666552066803,-0.4375292658805847
1763696730044631800,11.5256318359375,0.5780330300331116,0.24854032695293427,-0.48950377106666565
1763696730054582500,11.53558251953125,0.7052876949310303,0.23039519786834717,-0.5173056125640869
1763696730064533800,11.54553369140625,0.8302155137062073,0.21139299869537354,-0.5180239081382751
1763696730074484500,11.555484375,0.9430313110351562,0.19720076024532318,-0.49549728631973267
1763696730084435700,11.565435791015625,1.0261467695236206,0.18261286616325378,-0.4634432792663574
1763696730094386700,11.57538671875,1.0885683298110962,0.151515394449234,-0.44454336166381836
1763696730104337700,11.585337646484374,1.1297577619552612,0.12744590640068054,-0.4446026682853699
1763696730114288600,11.59528857421875,1.1376079320907593,0.0949779823422432,-0.4599565863609314
1763696730124239600,11.605239501953125,1.1051807403564453,0.052962176501750946,-0.4800601005554199
1763696730134190600,11.615190673828126,1.0350713729858398,0.00744183175265789,-0.5187446475028992
1763696730144141600,11.6251416015625,0.9408835768699646,-0.04382690414786339,-0.575452983379364
1763696730154092500,11.635092529296875,0.8416802883148193,-0.09430979192256927,-0.6379440426826477
1763696730164043800,11.645043701171875,0.738542914390564,-0.1509539783000946,-0.6943305134773254
1763696730173994800,11.654994873046874,0.6398842334747314,-0.19587378203868866,-0.7291212677955627
1763696730183945700,11.66494580078125,0.553371787071228,-0.2381606549024582,-0.745816707611084
1763696730193896700,11.674896728515625,0.4820222556591034,-0.2808271646499634,-0.7562017440795898
1763696730203847700,11.68484765625,0.41874000430107117,-0.3321366012096405,-0.7672653794288635
1763696730213798700,11.694798583984374,0.37844663858413696,-0.36745357513427734,-0.7863309979438782
1763696730223749600,11.70474951171875,0.36742764711380005,-0.3663936257362366,-0.8034694790840149
1763696730233700900,11.714700927734375,0.38564953207969666,-0.3539356291294098,-0.8033877015113831
1763696730243651600,11.724651611328126,0.41919657588005066,-0.3757307827472687,-0.759942889213562
1763696730253602800,11.734602783203124,0.44097962975502014,-0.42442935705184937,-0.659147322177887
1763696730263553500,11.744553466796875,0.44427260756492615,-0.4505158066749573,-0.5170034766197205
1763696730273504800,11.7545048828125,0.4117758870124817,-0.4459576904773712,-0.36292004585266113
1763696730283455500,11.76445556640625,0.3405055105686188,-0.4287429451942444,-0.21179668605327606
1763696730293406700,11.77440673828125,0.23186714947223663,-0.4020170569419861,-0.08419904112815857
1763696730303357700,11.784357666015625,0.11283036321401596,-0.3547578454017639,0.0029152785427868366
1763696730313308700,11.79430859375,-0.00586299505084753,-0.30278944969177246,0.054998721927404404
1763696730323259600,11.804259765625,-0.11456822603940964,-0.24784719944000244,0.09303538501262665
1763696730333210600,11.814210693359374,-0.2075679451227188,-0.1950356513261795,0.13611814379692078
1763696730343161600,11.82416162109375,-0.28219783306121826,-0.13728202879428864,0.19522616267204285
1763696730353112600,11.834112548828125,-0.32809901237487793,-0.0673077255487442,0.26089227199554443
1763696730363063300,11.844063232421876,-0.3464551568031311,0.003924460615962744,0.3197197914123535
1763696730373014500,11.8540146484375,-0.3456878960132599,0.0397261343896389,0.3670457601547241
1763696730382965200,11.86396533203125,-0.33380407094955444,0.03957115113735199,0.39898720383644104
1763696730392916500,11.87391650390625,-0.30616283416748047,0.012980022467672825,0.41802987456321716
1763696730402867200,11.8838671875,-0.2677641808986664,-0.024895822629332542,0.43004825711250305
1763696730412818400,11.893818359375,-0.228195458650589,-0.07705409824848175,0.43560707569122314
1763696730422769400,11.903769287109375,-0.19130711257457733,-0.13847871124744415,0.443089097738266
1763696730432720400,11.913720458984375,-0.17049424350261688,-0.23021875321865082,0.4623386859893799
1763696730442671400,11.92367138671875,-0.16757269203662872,-0.31327876448631287,0.49560290575027466
1763696730452622300,11.933622314453125,-0.19378112256526947,-0.3764553368091583,0.5509194135665894
1763696730462573600,11.943573486328125,-0.25523287057876587,-0.42076560854911804,0.6351574659347534
1763696730472524300,11.953524169921875,-0.3466498851776123,-0.43704232573509216,0.7465723752975464
1763696730482474200,11.96347412109375,-0.46385613083839417,-0.44281020760536194,0.8871329426765442
1763696730492425500,11.973425537109375,-0.6008078455924988,-0.4295479357242584,1.045188546180725
1763696730502376200,11.983376220703125,-0.7506619691848755,-0.4092360734939575,1.2089531421661377
1763696730512327400,11.993327392578125,-0.9060882925987244,-0.35318294167518616,1.3594950437545776
1763696730522278400,12.0032783203125,-1.0602765083312988,-0.27875202894210815,1.4773138761520386
1763696730532229400,12.0132294921875,-1.1914914846420288,-0.19140246510505676,1.5516080856323242
1763696730542180400,12.023180419921875,-1.3001697063446045,-0.09588939696550369,1.5756728649139404
1763696730552131300,12.03313134765625,-1.3816102743148804,-0.018383681774139404,1.5412839651107788
1763696730562082600,12.04308251953125,-1.4374483823776245,0.03315092623233795,1.465280294418335
1763696730572033300,12.053033203125,-1.4670814275741577,0.028529809787869453,1.3498597145080566
1763696730581984500,12.062984619140625,-1.4683372974395752,0.0026730410754680634,1.1949265003204346
1763696730591935500,12.072935546875,-1.4431192874908447,-0.05535697191953659,1.004765510559082
1763696730601886500,12.082886474609374,-1.382150650024414,-0.126764714717865,0.7829957008361816
1763696730611837400,12.09283740234375,-1.2840981483459473,-0.20411382615566254,0.5384773015975952
1763696730621788400,12.102788330078125,-1.1498055458068848,-0.2915729284286499,0.2778026759624481
1763696730631739400,12.112739501953126,-0.9977520108222961,-0.3745346665382385,0.026939548552036285
1763696730641690400,12.1226904296875,-0.8329527974128723,-0.44472065567970276,-0.2029743492603302
1763696730651641300,12.132641357421875,-0.687947690486908,-0.4918282628059387,-0.38363200426101685
1763696730661592600,12.142592529296875,-0.5667238831520081,-0.5294992923736572,-0.49498724937438965
1763696730671543300,12.152543212890626,-0.4595300555229187,-0.5598909854888916,-0.5383914709091187
1763696730681494500,12.16249462890625,-0.3637416958808899,-0.5775157809257507,-0.5283624529838562
1763696730691445200,12.1724453125,-0.29071515798568726,-0.5881468653678894,-0.4793800115585327
1763696730701396500,12.182396484375,-0.24576203525066376,-0.5837730765342712,-0.4045165181159973
1763696730711347500,12.192347412109376,-0.22838172316551208,-0.571029543876648,-0.31297674775123596
1763696730721298400,12.20229833984375,-0.23986591398715973,-0.5480218529701233,-0.21453556418418884
1763696730731249400,12.21224951171875,-0.2708408534526825,-0.5117916464805603,-0.12226822227239609
1763696730741200400,12.222200439453125,-0.311919629573822,-0.4689154326915741,-0.04257352277636528
1763696730751151400,12.2321513671875,-0.3520238995552063,-0.42546966671943665,0.030484171584248543
1763696730761102300,12.242102294921875,-0.3883632719516754,-0.3884871304035187,0.1025809571146965
1763696730771053300,12.25205322265625,-0.41475147008895874,-0.34610480070114136,0.16886784136295319
1763696730781004500,12.262004638671876,-0.4281645119190216,-0.29989907145500183,0.22797417640686035
1763696730790955300,12.271955322265624,-0.4318164885044098,-0.24938876926898956,0.27007049322128296
1763696730800906500,12.281906494140625,-0.42350760102272034,-0.1944146752357483,0.28971633315086365
1763696730810857200,12.291857177734375,-0.4056476354598999,-0.1318644881248474,0.2697735130786896
1763696730820808400,12.301808349609376,-0.38455039262771606,-0.07985365390777588,0.21885083615779877
1763696730830759400,12.311759521484374,-0.3653053045272827,-0.0317377895116806,0.1399264633655548
1763696730840710400,12.32171044921875,-0.3549503684043884,0.010929071344435215,0.04916558787226677
1763696730850661600,12.33166162109375,-0.34432700276374817,0.025441434234380722,-0.04728265479207039
1763696730860612400,12.3416123046875,-0.3098256587982178,0.036823954433202744,-0.15093785524368286
1763696730870563600,12.3515634765625,-0.24564668536186218,0.03522898629307747,-0.259787917137146
