time,seconds_elapsed,z,y,x
1763696718564892000,0.045891845703125,0.11783422529697418,0.13660845160484314,0.5264829993247986
1763696718574843000,0.0558427734375,0.06724800914525986,0.27566006779670715,0.5544184446334839
1763696718584793900,0.0657939453125,0.023239009082317352,0.3773885667324066,0.513003408908844
1763696718594744800,0.075744873046875,-0.004335626028478146,0.4311268925666809,0.4181775450706482
1763696718604695800,0.08569580078125,-0.00800279900431633,0.40537917613983154,0.29480820894241333
1763696718614646800,0.095646728515625,-0.011593539267778397,0.32275354862213135,0.16934242844581604
1763696718624597800,0.10559765625,-0.01587510295212269,0.2314654439687729,0.05404911935329437
1763696718634549800,0.1155498046875,-0.027341876178979874,0.14078988134860992,-0.03705815225839615
1763696718644500700,0.125500732421875,-0.03489779680967331,0.05949768051505089,-0.09265244007110596
1763696718654452000,0.135451904296875,-0.04261111095547676,-0.04603726789355278,-0.10873287171125412
1763696718664402700,0.145402587890625,-0.039868853986263275,-0.14794711768627167,-0.10260680317878723
1763696718674354000,0.15535400390625,-0.030227677896618843,-0.19827499985694885,-0.10032021254301071
1763696718684304600,0.1653046875,-0.01549507025629282,-0.17396141588687897,-0.10425662994384766
1763696718694255900,0.175255859375,0.008972455747425556,-0.11630769819021225,-0.10589554160833359
1763696718704206800,0.185206787109375,0.02925216034054756,-0.0988517478108406,-0.08664168417453766
1763696718714157800,0.19515771484375,0.04693368822336197,-0.12711933255195618,-0.04505935311317444
1763696718724109000,0.205109130859375,0.06155763566493988,-0.1777353733778,0.024947959929704666
1763696718734059800,0.215059814453125,0.07314851135015488,-0.199680894613266,0.10449951142072678
1763696718744011000,0.225010986328125,0.07599596679210663,-0.17757850885391235,0.16772082448005676
1763696718753961700,0.234961669921875,0.05912883207201958,-0.10475517064332962,0.1884966790676117
1763696718763913000,0.244912841796875,0.0519244484603405,-0.004877313040196896,0.1573004126548767
1763696718773863700,0.25486376953125,0.042570363730192184,0.07241906970739365,0.09885121136903763
1763696718783815000,0.26481494140625,0.03659209981560707,0.08709841966629028,0.04845435172319412
1763696718793766000,0.274765869140625,0.030187463387846947,0.05771069973707199,0.027309119701385498
1763696718803716900,0.284716796875,0.02268933318555355,0.004484230652451515,0.06216510385274887
1763696718813667800,0.294667724609375,0.020782509818673134,-0.042957853525877,0.14093367755413055
1763696718823618800,0.304618896484375,0.02967081032693386,-0.1196528971195221,0.2571132779121399
1763696718833569800,0.31456982421875,0.03069106675684452,-0.20044921338558197,0.36667707562446594
1763696718843520800,0.324520751953125,0.020385965704917908,-0.24341611564159393,0.4380881190299988
1763696718853471700,0.3344716796875,0.0024314660113304853,-0.25822195410728455,0.46490243077278137
1763696718863423000,0.344423095703125,-0.012885438278317451,-0.34549376368522644,0.47998419404029846
1763696718873373700,0.354373779296875,-0.0009920274605974555,-0.3816797137260437,0.5100142359733582
1763696718883325000,0.364324951171875,0.010783405043184757,-0.3010120391845703,0.5188208222389221
1763696718893275600,0.374275634765625,0.034458376467227936,-0.21934807300567627,0.4878524839878082
1763696718903227000,0.384226806640625,0.025560753419995308,-0.040039028972387314,0.33730533719062805
1763696718913177900,0.394177734375,-0.027883829548954964,0.050214167684316635,0.08325201272964478
1763696718923128800,0.40412890625,-0.07797735929489136,-0.0427250936627388,-0.1827237457036972
1763696718933079800,0.414079833984375,-0.10297724604606628,-0.19786594808101654,-0.3838658928871155
1763696718943030800,0.42403076171875,-0.11934929341077805,-0.27062588930130005,-0.48316720128059387
1763696718952982000,0.43398193359375,-0.10446488857269287,-0.23966611921787262,-0.46460336446762085
1763696718962932700,0.4439326171875,-0.08491808921098709,-0.15288834273815155,-0.348445326089859
1763696718972884000,0.453884033203125,-0.06434330344200134,-0.049307893961668015,-0.20084361732006073
1763696718982834700,0.463834716796875,-0.06166602671146393,0.023557256907224655,-0.0900377482175827
1763696718992786000,0.473785888671875,-0.0806804671883583,0.0786157175898552,-0.047450341284275055
1763696719002737700,0.483737548828125,-0.10380841791629791,0.13633626699447632,-0.07236500829458237
1763696719012689000,0.49368896484375,-0.1212444007396698,0.21162037551403046,-0.13707183301448822
1763696719022639900,0.503639892578125,-0.1324818730354309,0.27143576741218567,-0.2203558087348938
1763696719032590800,0.5135908203125,-0.13560283184051514,0.34300369024276733,-0.3065657913684845
1763696719042541800,0.523541748046875,-0.15298262238502502,0.4327210485935211,-0.3965854346752167
1763696719052492800,0.533492919921875,-0.18055219948291779,0.4789429008960724,-0.47640010714530945
1763696719062443800,0.54344384765625,-0.2346966564655304,0.5118467807769775,-0.5447338819503784
1763696719072394800,0.553394775390625,-0.29817578196525574,0.5848221778869629,-0.6013010144233704
1763696719082345700,0.563345703125,-0.36469459533691406,0.7453881502151489,-0.6370158791542053
1763696719092297000,0.573296875,-0.4090213179588318,0.9362566471099854,-0.6580836176872253
1763696719102247700,0.58324755859375,-0.4338100254535675,1.1663691997528076,-0.6639779806137085
1763696719112199000,0.593198974609375,-0.4490313231945038,1.3710789680480957,-0.6337998509407043
1763696719122150000,0.60314990234375,-0.4441814422607422,1.530066967010498,-0.5808364748954773
1763696719132100900,0.613100830078125,-0.43804100155830383,1.6540148258209229,-0.49961432814598083
1763696719142051800,0.6230517578125,-0.4456634819507599,1.7658560276031494,-0.3959105908870697
1763696719152002800,0.6330029296875,-0.465787410736084,1.893560528755188,-0.2798351049423218
1763696719161954000,0.6429541015625,-0.4915185868740082,2.089317798614502,-0.1732274442911148
1763696719171904800,0.65290478515625,-0.5106959939002991,2.3571853637695312,-0.10568834841251373
1763696719181856000,0.66285595703125,-0.5143711566925049,2.6672110557556152,-0.10472428053617477
1763696719191806700,0.672806640625,-0.44456946849823,3.214700222015381,-0.2393191158771515
1763696719201758000,0.682758056640625,-0.5014604330062866,2.645233154296875,-0.22680731117725372
1763696719211708700,0.692708740234375,-0.8432958126068115,1.8652559518814087,-0.36691221594810486
1763696719221660000,0.702659912109375,-0.7698511481285095,1.6280969381332397,-0.5638817548751831
1763696719231611000,0.71261083984375,-0.652583122253418,1.9069783687591553,-0.7953160405158997
1763696719241561900,0.722561767578125,-0.6059938073158264,2.2242679595947266,-0.8951017260551453
1763696719251512800,0.732512939453125,-0.59751296043396,2.5733375549316406,-0.8758020997047424
1763696719261463800,0.7424638671875,-0.5973243713378906,3.054035186767578,-0.8241831064224243
1763696719271414800,0.752414794921875,-0.5840274691581726,3.588189125061035,-0.7806609272956848
1763696719281365800,0.76236572265625,-0.5414073467254639,4.0450825691223145,-0.7679983973503113
1763696719291316700,0.772316650390625,-0.46938586235046387,4.316679000854492,-0.7785122990608215
1763696719301268000,0.78226806640625,-0.3931017518043518,4.349065780639648,-0.811883807182312
1763696719311218700,0.79221875,-0.30387893319129944,4.232392311096191,-0.8503111004829407
1763696719321170000,0.802169921875,-0.2002851516008377,4.024461269378662,-0.8655387759208679
1763696719331120600,0.81212060546875,-0.08267810195684433,3.6652050018310547,-0.8360093832015991
1763696719341071600,0.822071533203125,0.00899962056428194,3.2158780097961426,-0.7317410707473755
1763696719351022600,0.832022705078125,0.042369294911623,2.760457754135132,-0.5232280492782593
1763696719360973600,0.8419736328125,0.06661204993724823,2.2884676456451416,-0.2611501216888428
1763696719370924500,0.851924560546875,0.040403347462415695,1.9226866960525513,0.010334130376577377
1763696719380875500,0.86187548828125,-0.04950390383601189,1.559044599533081,0.23680588603019714
1763696719390827800,0.871827880859375,-0.1366039216518402,1.0319887399673462,0.3701178729534149
1763696719400778500,0.881778564453125,-0.21447713673114777,0.3899051547050476,0.3777155876159668
1763696719410729700,0.891729736328125,-0.27250102162361145,-0.29630517959594727,0.3390904366970062
1763696719420680400,0.901680419921875,-0.30709177255630493,-0.6401373744010925,0.3215676546096802
1763696719430631700,0.911631591796875,-0.2994394302368164,-0.7632835507392883,0.32599303126335144
1763696719440582400,0.92158251953125,-0.2630998194217682,-0.7593181133270264,0.3380073308944702
1763696719450533600,0.93153369140625,-0.15887567400932312,-0.6984382271766663,0.35766252875328064
1763696719460484600,0.941484619140625,-0.0005571332876570523,-0.6217336058616638,0.4202742576599121
1763696719470435600,0.951435546875,0.13711418211460114,-0.6492528319358826,0.5470263361930847
1763696719480386600,0.961386474609375,0.2038620561361313,-0.6993396878242493,0.678798496723175
1763696719490337500,0.971337646484375,0.20116746425628662,-0.7285993099212646,0.8071045279502869
1763696719500288500,0.98128857421875,0.20026172697544098,-0.7313724756240845,0.9305449724197388
1763696719510239500,0.991239501953125,0.24890409409999847,-0.6768386363983154,1.015196442604065
1763696719520190500,1.0011904296875,0.28934445977211,-0.4579835534095764,1.1050400733947754
1763696719530141700,1.0111416015625,0.3182019293308258,-0.2598329186439514,1.179729700088501
1763696719540092400,1.021092529296875,0.3309212028980255,0.03273557499051094,1.2180635929107666
1763696719550043600,1.031043701171875,0.3630242645740509,0.29018014669418335,1.2447412014007568
1763696719559994400,1.040994384765625,0.40005525946617126,0.554251492023468,1.2173296213150024
1763696719569945600,1.050945556640625,0.4241395592689514,0.6439651250839233,1.18329656124115
1763696719579896600,1.060896484375,0.39269402623176575,0.599530816078186,1.1453243494033813
1763696719589847600,1.07084765625,0.32135114073753357,0.49360013008117676,1.10274338722229
1763696719599798500,1.080798583984375,0.2205004096031189,0.3320426642894745,1.0429258346557617
1763696719609749500,1.09074951171875,0.16214390099048615,0.32456743717193604,0.9287502765655518
1763696719619700500,1.100700439453125,0.13164670765399933,0.33053210377693176,0.8249229192733765
1763696719629651500,1.1106513671875,0.08050043135881424,0.37347930669784546,0.7420586943626404
1763696719639602400,1.1206025390625,0.03869280219078064,0.5731354355812073,0.6281459331512451
1763696719649553700,1.1305537109375,-0.004255731590092182,0.8103407621383667,0.46668434143066406
1763696719659504600,1.140504638671875,-0.02846572920680046,0.936651349067688,0.2976900041103363
1763696719669455600,1.15045556640625,-0.009841179475188255,0.9119499921798706,0.18195009231567383
1763696719679406600,1.160406494140625,-0.03804671764373779,0.7586315274238586,0.15939684212207794
1763696719689357600,1.170357666015625,-0.13304167985916138,0.2533068358898163,0.29549238085746765
1763696719699308500,1.18030859375,-0.32428380846977234,-0.18091171979904175,0.45208463072776794
1763696719709259500,1.190259521484375,-0.44928300380706787,-0.11283600330352783,0.40916886925697327
1763696719719210800,1.200210693359375,-0.470491886138916,0.15002119541168213,0.24056173861026764
1763696719729161500,1.210161376953125,-0.4530865252017975,0.32870012521743774,0.12308038771152496
1763696719739112700,1.22011279296875,-0.4018726050853729,0.5409082770347595,0.10330908000469208
1763696719749063400,1.2300634765625,-0.30213695764541626,0.7609037160873413,0.1589137464761734
1763696719759014700,1.2400146484375,-0.18135514855384827,1.0935720205307007,0.22169484198093414
1763696719768965400,1.24996533203125,-0.06825282424688339,1.4265395402908325,0.26395946741104126
1763696719778917600,1.259917724609375,0.024443291127681732,1.6426103115081787,0.38297802209854126
1763696719788868400,1.269868408203125,0.15479996800422668,1.779680848121643,0.6269145011901855
1763696719798819600,1.279819580078125,0.37145212292671204,1.8708817958831787,0.989324152469635
1763696719808770600,1.2897705078125,0.6362369060516357,1.9268900156021118,1.4229027032852173
1763696719818721500,1.299721435546875,0.8861221075057983,2.1146559715270996,1.766838550567627
1763696719828672800,1.3096728515625,0.9948413968086243,2.2291066646575928,1.9110406637191772
1763696719838623500,1.31962353515625,0.9554708003997803,2.1192009449005127,1.9459315538406372
1763696719848574700,1.32957470703125,0.7780760526657104,1.888113021850586,1.9152761697769165
1763696719858525400,1.339525390625,0.4792936146259308,1.698176622390747,1.7804368734359741
1763696719868476700,1.3494765625,0.21218335628509521,1.5505155324935913,1.574002981185913
1763696719878427400,1.359427490234375,-0.0027225494850426912,1.559580683708191,1.2979745864868164
1763696719888378600,1.369378662109375,-0.12762081623077393,1.652152180671692,1.075774908065796
1763696719898329600,1.37932958984375,-0.16700735688209534,1.8116151094436646,0.9989290833473206
1763696719908280600,1.389280517578125,-0.20170621573925018,1.9451518058776855,1.0515486001968384
1763696719918231600,1.3992314453125,-0.2935037910938263,1.961864948272705,1.1444668769836426
1763696719928182500,1.4091826171875,-0.42241382598876953,1.9207979440689087,1.2054955959320068
1763696719938133500,1.419133544921875,-0.5482215881347656,1.8883178234100342,1.2167208194732666
1763696719948084500,1.42908447265625,-0.546025812625885,1.9381346702575684,1.2022347450256348
1763696719958035500,1.439035400390625,-0.38397908210754395,1.9678107500076294,1.119271993637085
1763696719967986700,1.448986572265625,-0.1179567277431488,2.0842926502227783,0.9423806071281433
1763696719977937400,1.4589375,0.11185222864151001,2.1372580528259277,0.694871187210083
1763696719987888600,1.468888671875,0.20109929144382477,2.016131639480591,0.46943140029907227
1763696719997839400,1.47883935546875,0.18713819980621338,1.9152618646621704,0.29658666253089905
1763696720007790600,1.48879052734375,0.09269584715366364,1.8541861772537231,0.20134909451007843
1763696720017741600,1.498741455078125,-0.12287665158510208,1.808158278465271,0.16204403340816498
1763696720027692500,1.508692626953125,-0.38937199115753174,1.8898190259933472,0.18028242886066437
1763696720037643500,1.5186435546875,-0.6000642776489258,2.0986173152923584,0.23373685777187347
1763696720047594500,1.528594482421875,-0.7680602073669434,2.3499791622161865,0.3135075867176056
1763696720057545500,1.53854541015625,-0.8964506387710571,2.401007652282715,0.427009642124176
1763696720067496400,1.548496337890625,-0.9873368740081787,1.9023455381393433,0.5751751661300659
1763696720077447700,1.55844775390625,-0.9917409420013428,1.1289496421813965,0.740081250667572
1763696720087398700,1.568398681640625,-0.8978554606437683,0.5189443826675415,0.8060360550880432
1763696720097349600,1.578349609375,-0.7482318878173828,0.27206507325172424,0.7944459915161133
1763696720107300600,1.588300537109375,-0.6004213690757751,0.3216395378112793,0.7820175290107727
1763696720117251600,1.59825146484375,-0.47860920429229736,0.528094470500946,0.7479645013809204
1763696720127202600,1.60820263671875,-0.3930668532848358,0.926266610622406,0.6418907642364502
1763696720137153500,1.618153564453125,-0.33858737349510193,1.1536341905593872,0.46112048625946045
1763696720147104500,1.6281044921875,-0.3478969931602478,1.077488660812378,0.287399023771286
1763696720157055700,1.6380556640625,-0.3879546523094177,0.8577809929847717,0.17416806519031525
1763696720167007500,1.648007568359375,-0.4098988473415375,0.5417522192001343,0.1410876214504242
1763696720176958500,1.65795849609375,-0.3705812692642212,0.22100961208343506,0.20768821239471436
1763696720186909400,1.667909423828125,-0.2948888838291168,0.05705023556947708,0.3322831392288208
1763696720196860700,1.677860595703125,-0.266333669424057,0.06216350570321083,0.5061614513397217
1763696720206811400,1.687811279296875,-0.3011084496974945,0.14591673016548157,0.6774730086326599
1763696720216762600,1.6977626953125,-0.35892432928085327,0.19274495542049408,0.784011960029602
1763696720226713600,1.707713623046875,-0.4198686480522156,0.17315900325775146,0.822867214679718
1763696720236664600,1.71766455078125,-0.43835312128067017,0.08532901108264923,0.7856333255767822
1763696720246615600,1.727615478515625,-0.3840760290622711,-0.15400713682174683,0.7102778553962708
1763696720256566500,1.73756640625,-0.25178349018096924,-0.4944874942302704,0.6153667569160461
1763696720266517800,1.747517822265625,-0.07767588645219803,-0.8706014752388,0.5183733701705933
1763696720276468500,1.757468505859375,0.08714661747217178,-1.2178542613983154,0.4090610146522522
1763696720286419700,1.767419677734375,0.235413059592247,-1.478652834892273,0.26878300309181213
1763696720296370400,1.777370361328125,0.3685181140899658,-1.6155129671096802,0.08342219144105911
1763696720306321700,1.78732177734375,0.43907031416893005,-1.7975229024887085,-0.1359865963459015
1763696720316272400,1.7972724609375,0.4056510925292969,-2.034778594970703,-0.3435738682746887
1763696720326223600,1.8072236328125,0.3435669541358948,-2.1580991744995117,-0.5265218615531921
1763696720336174600,1.817174560546875,0.3356355130672455,-2.0186479091644287,-0.703021764755249
1763696720346125800,1.827125732421875,0.3813633322715759,-1.6441447734832764,-0.8840919733047485
1763696720356076800,1.837076904296875,0.4232913553714752,-1.2443486452102661,-1.040367841720581
1763696720366027800,1.84702783203125,0.3656402826309204,-0.8457299470901489,-1.1237945556640625
1763696720375979000,1.85697900390625,0.2573537826538086,-0.6600964069366455,-1.1162559986114502
1763696720385929700,1.8669296875,0.18910999596118927,-0.5714781284332275,-1.0211864709854126
1763696720395881000,1.876880859375,0.17202289402484894,-0.42831966280937195,-0.8994741439819336
1763696720405832000,1.88683203125,0.22290632128715515,-0.19891123473644257,-0.8276880979537964
1763696720415783000,1.896782958984375,0.34663358330726624,0.06572548300027847,-0.8137730956077576
1763696720425734000,1.90673388671875,0.4716269075870514,0.31151342391967773,-0.8240566253662109
1763696720435684900,1.916684814453125,0.5466580390930176,0.4671432077884674,-0.8644123077392578
1763696720445635800,1.9266357421875,0.5666216015815735,0.6506595015525818,-0.9612485766410828
1763696720455586800,1.9365869140625,0.5612649321556091,0.8864116072654724,-1.1168245077133179
1763696720465537800,1.946537841796875,0.5392994284629822,1.108058214187622,-1.2737518548965454
1763696720475489000,1.956489013671875,0.5147216320037842,1.2436506748199463,-1.3826279640197754
1763696720485439700,1.966439697265625,0.48111414909362793,1.407814621925354,-1.4309273958206177
1763696720495391000,1.976390869140625,0.4572133421897888,1.569359540939331,-1.3976844549179077
1763696720505341700,1.986341796875,0.4701635241508484,1.6160242557525635,-1.2637826204299927
1763696720515293000,1.99629296875,0.4543033242225647,1.438394546508789,-1.0600934028625488
1763696720525243600,2.00624365234375,0.3640144467353821,1.0344737768173218,-0.8271536231040955
1763696720535195000,2.01619482421875,0.24138545989990234,0.6081775426864624,-0.610135555267334
1763696720545145900,2.026145751953125,0.11469195783138275,0.22211748361587524,-0.4369938373565674
1763696720555096800,2.036096923828125,0.03514333814382553,-0.17061647772789001,-0.27217933535575867
1763696720565047800,2.0460478515625,0.017347564920783043,-0.3929981589317322,-0.13385127484798431
1763696720574999800,2.055999755859375,0.025961026549339294,-0.48620080947875977,0.0028218855150043964
1763696720584951000,2.065950927734375,0.096123605966568,-0.46335139870643616,0.15893372893333435
1763696720594901800,2.07590185546875,0.12013812363147736,-0.4288530945777893,0.30868834257125854
1763696720604853000,2.08585302734375,0.07798135280609131,-0.3380696475505829,0.3898540139198303
1763696720614803700,2.0958037109375,0.028110196813941002,-0.15031732618808746,0.3333771526813507
1763696720624755000,2.1057548828125,-0.043482761830091476,0.02395353652536869,0.08546749502420425
1763696720634705700,2.11570556640625,-0.038840074092149734,0.4139649569988251,-0.11400912702083588
1763696720644657000,2.125656982421875,-0.03296221047639847,0.6250649690628052,-0.19008658826351166
1763696720654608000,2.13560791015625,-0.07231681048870087,0.5739277005195618,-0.15056048333644867
1763696720664558800,2.145558837890625,-0.1274580955505371,0.2758353054523468,-0.04713768512010574
1763696720674509800,2.155509765625,-0.17135949432849884,-0.002950516063719988,0.07366037368774414
1763696720684460800,2.165460693359375,-0.22666004300117493,-0.19203947484493256,0.1733108013868332
1763696720694411800,2.175411865234375,-0.29984503984451294,-0.3412734270095825,0.23432089388370514
1763696720704362800,2.18536279296875,-0.3914327323436737,-0.5535673499107361,0.28444212675094604
1763696720714313700,2.195313720703125,-0.47825127840042114,-0.6971532702445984,0.3165941834449768
1763696720724265000,2.205264892578125,-0.528994083404541,-0.8459094166755676,0.295581579208374
1763696720734215700,2.215215576171875,-0.5460090041160583,-1.0143221616744995,0.20282714068889618
1763696720744167000,2.2251669921875,-0.5372727513313293,-1.0772897005081177,0.08764276653528214
1763696720754117600,2.23511767578125,-0.49500253796577454,-1.0872483253479004,-0.06455422192811966
1763696720764068900,2.24506884765625,-0.3983670771121979,-0.9848151206970215,-0.23202364146709442
1763696720774019800,2.255019775390625,-0.2532075047492981,-0.8223530054092407,-0.3709242641925812
1763696720783970800,2.264970703125,-0.1095760315656662,-0.6471891403198242,-0.48482048511505127
1763696720793922000,2.274922119140625,0.0046996804885566235,-0.5427325367927551,-0.565540075302124
1763696720803872800,2.284872802734375,0.09786424785852432,-0.6791361570358276,-0.4758128821849823
1763696720813824000,2.294823974609375,0.1826944500207901,-0.5767136812210083,0.09544768929481506
1763696720823774700,2.304774658203125,0.276156485080719,-0.5284529328346252,0.3364693522453308
1763696720833726000,2.314725830078125,0.3591054379940033,-0.6006072759628296,0.21889398992061615
1763696720843677000,2.324677001953125,0.3647838234901428,-0.2825307548046112,0.028679315000772476
1763696720853628000,2.3346279296875,0.20214404165744781,-0.1698814481496811,0.1345498263835907
1763696720863579000,2.344578857421875,0.05957065150141716,-0.054190535098314285,0.26140204071998596
1763696720873529900,2.35452978515625,-0.062116365879774094,-0.2705287039279938,0.39913299679756165
1763696720883480800,2.364480712890625,-0.16213324666023254,-0.41617298126220703,0.4648209512233734
1763696720893431800,2.374431884765625,-0.1711810678243637,-0.3902937173843384,0.4343053698539734
1763696720903382800,2.3843828125,-0.057196445763111115,-0.28153181076049805,0.2835014760494232
1763696720913334000,2.394333984375,0.06608367711305618,-0.21260254085063934,0.05119793862104416
1763696720923284700,2.40428466796875,0.1279856562614441,-0.16612665355205536,-0.16426324844360352
1763696720933236000,2.414236083984375,0.0931757465004921,-0.10937602818012238,-0.33592262864112854
1763696720943186700,2.424186767578125,-0.048290833830833435,-0.0038655782118439674,-0.45963817834854126
1763696720953138000,2.434137939453125,-0.31035494804382324,-0.008345281705260277,-0.5113692879676819
1763696720963090000,2.44408984375,-0.6167790293693542,0.027171965688467026,-0.5388850569725037
1763696720973041000,2.454041015625,-0.9862052798271179,-0.04586149752140045,-0.4797319769859314
1763696720982992000,2.463991943359375,-1.3768523931503296,0.08444217592477798,-0.5136489272117615
1763696720992942800,2.47394287109375,-1.5171672105789185,0.11123251169919968,-0.600958526134491
1763696721002893800,2.483893798828125,-1.4862697124481201,0.07544016093015671,-0.6393738389015198
1763696721012844800,2.4938447265625,-1.4031953811645508,0.10360335558652878,-0.6176837086677551
1763696721022796000,2.503796142578125,-1.3166452646255493,0.185506209731102,-0.5600787401199341
1763696721032746800,2.513746826171875,-1.2090047597885132,0.2952188551425934,-0.45190462470054626
1763696721042698000,2.523697998046875,-1.1323438882827759,0.27457910776138306,-0.29363906383514404
1763696721052648700,2.533648681640625,-1.126821756362915,0.1363716870546341,-0.08920630812644958
1763696721062600000,2.543599853515625,-1.1112593412399292,-0.20720352232456207,0.10077321529388428
1763696721072550700,2.553550537109375,-1.0479371547698975,-0.46328723430633545,0.18840134143829346
1763696721082502000,2.563501953125,-0.9558311700820923,-0.5870736241340637,0.21563242375850677
1763696721092452900,2.573452880859375,-0.8512975573539734,-0.5518929958343506,0.21420817077159882
1763696721102403800,2.58340380859375,-0.7524913549423218,-0.47981399297714233,0.17561043798923492
1763696721112354800,2.593354736328125,-0.6468690633773804,-0.3518312871456146,0.09396377950906754
1763696721122305800,2.603305908203125,-0.45811083912849426,-0.20724186301231384,0.023013973608613014
1763696721132256800,2.6132568359375,-0.39566078782081604,-0.10316792875528336,-0.11398595571517944
1763696721142207700,2.623207763671875,-0.38119396567344666,0.0018298579379916191,-0.23246067762374878
1763696721152158700,2.63315869140625,-0.3037060797214508,0.04728975147008896,-0.29185476899147034
1763696721162110000,2.64310986328125,-0.18746815621852875,0.19685980677604675,-0.3619568645954132
1763696721172060700,2.653060791015625,-0.047625310719013214,0.24701431393623352,-0.40014928579330444
1763696721182012000,2.663011962890625,0.1220066025853157,0.2655264735221863,-0.3811614513397217
1763696721191962600,2.672962646484375,0.275703489780426,0.24295885860919952,-0.301633358001709
1763696721201913900,2.682913818359375,0.358792781829834,0.15195411443710327,-0.2234589159488678
1763696721211864800,2.69286474609375,0.34006649255752563,0.05775171145796776,-0.14508582651615143
1763696721221815800,2.70281591796875,0.246530681848526,-0.055516522377729416,-0.1184062734246254
1763696721231767000,2.71276708984375,0.1355554312467575,-0.14601446688175201,-0.12463168054819107
1763696721241717800,2.7227177734375,0.036436568945646286,-0.28349748253822327,-0.17154406011104584
1763696721251669000,2.7326689453125,-0.033307090401649475,-0.44832053780555725,-0.2395569235086441
1763696721261619700,2.74261962890625,0.006568686570972204,-0.5900302529335022,-0.2154630422592163
1763696721271571000,2.752571044921875,0.0894467905163765,-0.7593306303024292,-0.2107367366552353
1763696721281522000,2.76252197265625,0.1658632755279541,-0.9540135264396667,-0.19650746881961823
1763696721291473000,2.772472900390625,0.2034713625907898,-1.0307085514068604,-0.20148171484470367
1763696721301423900,2.782423828125,0.14647892117500305,-1.0994071960449219,-0.1909843385219574
1763696721311374800,2.792374755859375,-0.010263556614518166,-1.0855708122253418,-0.1829700917005539
1763696721321325800,2.802325927734375,-0.25813621282577515,-1.1142785549163818,-0.16417188942432404
1763696721331276800,2.81227685546875,-0.5129298567771912,-1.1551793813705444,-0.13830994069576263
1763696721341227800,2.822227783203125,-0.7368506193161011,-1.1349895000457764,-0.10796880722045898
1763696721351179000,2.832178955078125,-0.9240924119949341,-0.9255152940750122,-0.046606384217739105
1763696721361129700,2.842129638671875,-1.0342100858688354,-0.37421461939811707,-0.03608769550919533
1763696721371081700,2.852081787109375,-1.10162353515625,0.2505219578742981,0.1774570792913437
1763696721381033000,2.862032958984375,-1.1814528703689575,0.3940090835094452,0.25026950240135193
1763696721390984000,2.87198388671875,-1.1048150062561035,0.41130977869033813,0.26019030809402466
1763696721400935000,2.881934814453125,-0.7400762438774109,-0.12462209165096283,0.360884428024292
1763696721410886000,2.891885986328125,-0.34080764651298523,0.13266430795192719,0.4112602472305298
1763696721420836900,2.9018369140625,0.08430822193622589,0.37786659598350525,0.38873976469039917
1763696721430787800,2.911787841796875,0.3480434715747833,0.49433809518814087,0.40747135877609253
1763696721440738800,2.92173876953125,0.4546079933643341,0.42903417348861694,0.46249920129776
1763696721450689800,2.931689697265625,0.4318832457065582,0.3603331446647644,0.526910662651062
1763696721460641000,2.94164111328125,0.34777554869651794,0.35612642765045166,0.5574126839637756
1763696721470591700,2.951591796875,0.24315112829208374,0.44657376408576965,0.5875873565673828
1763696721480543000,2.96154296875,0.26239433884620667,0.4907768964767456,0.6004877090454102
1763696721490493700,2.97149365234375,0.3646607995033264,0.5415101051330566,0.665060818195343
1763696721500445000,2.98144482421875,0.4932456612586975,0.5912510752677917,0.7718181610107422
1763696721510395600,2.991395751953125,0.6348555088043213,0.4546300768852234,0.8965614438056946
1763696721520347000,3.001346923828125,0.727218747138977,0.3660203218460083,1.0147173404693604
1763696721530297900,3.0112978515625,0.743440568447113,0.37741705775260925,1.0797224044799805
1763696721540248800,3.021248779296875,0.6870319247245789,0.38494953513145447,1.0918744802474976
1763696721550199800,3.03119970703125,0.5700520277023315,0.3673793375492096,1.0085444450378418
1763696721560150800,3.04115087890625,0.44725021719932556,0.2735641598701477,0.7866266965866089
1763696721570101800,3.051101806640625,0.3107165992259979,0.14712020754814148,0.5817188024520874
1763696721580052700,3.061052734375,0.07831691205501556,-0.016654876992106438,0.4682111442089081
1763696721590003700,3.071003662109375,-0.147007018327713,-0.19825635850429535,0.39378270506858826
1763696721599955000,3.080954833984375,-0.3605475425720215,-0.32107895612716675,0.3356195390224457
1763696721609905700,3.09090576171875,-0.4894905984401703,-0.3566311001777649,0.2933117747306824
1763696721619857000,3.10085693359375,-0.49468669295310974,-0.39409804344177246,0.2864557206630707
1763696721629807900,3.110807861328125,-0.40988606214523315,-0.40755578875541687,0.3292655050754547
1763696721639758800,3.1207587890625,-0.2561284601688385,-0.40305450558662415,0.4255334436893463
1763696721649709800,3.130709716796875,-0.024044083431363106,-0.3008330762386322,0.4813708961009979
1763696721659660800,3.140660888671875,0.11811865121126175,-0.1982710063457489,0.4715036153793335
1763696721669612000,3.150612060546875,0.17949706315994263,-0.04983573406934738,0.4309130311012268
1763696721679562800,3.160562744140625,0.2157384157180786,0.0326538160443306,0.396935373544693
1763696721689514000,3.170513916015625,0.22898152470588684,0.1046702191233635,0.353781521320343
1763696721699464700,3.180464599609375,0.23978036642074585,0.23336482048034668,0.28152167797088623
1763696721709416000,3.190416015625,0.25345170497894287,0.3273658752441406,0.2123578041791916
1763696721719367000,3.200366943359375,0.25475984811782837,0.34292805194854736,0.2113173007965088
1763696721729318000,3.21031787109375,0.2826210558414459,0.2668948173522949,0.28609541058540344
1763696721739268900,3.220268798828125,0.3188759982585907,0.12084812670946121,0.36110013723373413
1763696721749219800,3.2302197265625,0.3630562424659729,-0.020017916336655617,0.4071773588657379
1763696721759170800,3.2401708984375,0.4158001244068146,-0.03964807838201523,0.4418165683746338
1763696721769121800,3.250121826171875,0.5279698371887207,-0.0008037420338951051,0.4404658079147339
1763696721779072800,3.26007275390625,0.6285092234611511,-0.12027953565120697,0.3854512870311737
1763696721789024000,3.27002392578125,0.592356264591217,-0.20972687005996704,0.32214927673339844
1763696721798974700,3.279974609375,0.46473437547683716,-0.1993197649717331,0.24754801392555237
1763696721808926700,3.2899267578125,0.23272645473480225,-0.22083650529384613,0.2153775542974472
1763696721818878000,3.2998779296875,0.005208876915276051,-0.27519190311431885,0.2201307713985443
1763696721828829000,3.309828857421875,-0.18799173831939697,-0.3577567934989929,0.22176142036914825
1763696721838780000,3.31977978515625,-0.2836378514766693,-0.33499637246131897,0.23746368288993835
1763696721848731000,3.32973095703125,-0.2593900263309479,-0.27472156286239624,0.22994478046894073
1763696721858681900,3.339681884765625,-0.1638299524784088,-0.26145023107528687,0.17536835372447968
1763696721868632800,3.3496328125,-0.041011881083250046,-0.23810844123363495,0.08189273625612259
1763696721878583800,3.359583740234375,0.02304166927933693,-0.24355939030647278,-0.013176255859434605
1763696721888534800,3.36953466796875,0.018872223794460297,-0.18863782286643982,-0.0650612935423851
1763696721898486000,3.379486083984375,-0.00926300697028637,-0.08016381412744522,-0.07761889696121216
1763696721908436700,3.389436767578125,-0.04159538075327873,-0.04656084254384041,-0.08124025911092758
1763696721918388000,3.399387939453125,-0.09155308455228806,-0.1225365698337555,-0.09721789509057999
1763696721928338700,3.409338623046875,-0.15186277031898499,-0.16137424111366272,-0.11842677742242813
1763696721938290000,3.4192900390625,-0.20219677686691284,-0.19657032191753387,-0.15176290273666382
1763696721948240600,3.42924072265625,-0.26571691036224365,-0.21173621714115143,-0.20841579139232635
1763696721958191900,3.43919189453125,-0.300771027803421,-0.08101655542850494,-0.28026282787323
1763696721968142800,3.449142822265625,-0.2544011175632477,0.13478098809719086,-0.3793851435184479
1763696721978093800,3.45909375,-0.11286503076553345,0.4148251414299011,-0.49855440855026245
1763696721988044800,3.469044921875,0.024160463362932205,0.5584563612937927,-0.5548091530799866
1763696721997995800,3.478995849609375,0.058689411729574203,0.3163033723831177,-0.5090289115905762
1763696722007946800,3.48894677734375,-0.015246330760419369,-0.0735330730676651,-0.3507425785064697
1763696722017897700,3.498897705078125,-0.18192452192306519,-0.30057767033576965,-0.17535237967967987
1763696722027848700,3.5088486328125,-0.5093918442726135,-0.3153925836086273,-0.09127558767795563
1763696722037800000,3.518800048828125,-0.6768383979797363,-0.14894607663154602,-0.15930816531181335
1763696722047750700,3.528750732421875,-0.8330759406089783,-0.16987451910972595,-0.34094321727752686
1763696722057702000,3.538701904296875,-0.9932080507278442,-0.35318416357040405,-0.5246807932853699
1763696722067652900,3.54865283203125,-1.100901484489441,-0.5866826772689819,-0.6500219702720642
1763696722077603800,3.558603759765625,-1.133469820022583,-0.6838334202766418,-0.6870875954627991
1763696722087554800,3.568554931640625,-1.1510387659072876,-0.5341076254844666,-0.6574889421463013
1763696722097505800,3.578505859375,-1.1129409074783325,-0.2753942906856537,-0.5044053792953491
1763696722107457000,3.58845703125,-1.044564962387085,-0.14810264110565186,-0.2683179974555969
1763696722117407700,3.59840771484375,-1.0007083415985107,0.07048934698104858,-0.01455683819949627
1763696722127359000,3.60835888671875,-0.9854028820991516,0.35341504216194153,0.18436823785305023
1763696722137309700,3.618309814453125,-0.9847240447998047,0.5639792084693909,0.3095293641090393
1763696722147261000,3.628260986328125,-0.94585120677948,0.5796748399734497,0.3338994085788727
1763696722157212000,3.6382119140625,-0.8597086071968079,0.4807429313659668,0.26004675030708313
1763696722167163000,3.648162841796875,-0.7582812905311584,0.3381839096546173,0.11776711046695709
1763696722177113900,3.65811376953125,-0.6990640759468079,0.30158621072769165,-0.014313159510493279
1763696722187064800,3.66806494140625,-0.6900396943092346,0.3878430724143982,-0.07088322937488556
1763696722197015800,3.678015869140625,-0.7058317065238953,0.44389596581459045,-0.12011575698852539
1763696722206966800,3.687966796875,-0.7889872789382935,0.48898354172706604,-0.18042144179344177
1763696722216917800,3.697917724609375,-0.8920425772666931,0.5588741898536682,-0.22556175291538239
1763696722226869000,3.707868896484375,-0.9611329436302185,0.6398676037788391,-0.2488716095685959
1763696722236819700,3.71781982421875,-0.979984700679779,0.7440032958984375,-0.20994950830936432
1763696722246771000,3.72777099609375,-0.9657087922096252,0.7925924062728882,-0.07168776541948318
1763696722256723000,3.737722900390625,-0.9495668411254883,0.7978897094726562,0.1252732276916504
1763696722266674000,3.747673828125,-0.959824800491333,0.7687216997146606,0.25927844643592834
1763696722276625000,3.757625,-0.9812179803848267,0.7207544445991516,0.3142351508140564
1763696722286575900,3.767575927734375,-0.979911208152771,0.6994528770446777,0.3264409601688385
1763696722296526800,3.77752685546875,-0.94233238697052,0.7773309350013733,0.3657177984714508
1763696722306477800,3.787477783203125,-0.873670756816864,0.973115086555481,0.5506200194358826
1763696722316428800,3.7974287109375,-0.8614753484725952,1.172463059425354,0.8397098779678345
1763696722326379800,3.8073798828125,-0.759131669998169,1.2606868743896484,1.179853081703186
1763696722336331000,3.8173310546875,-0.5011121034622192,1.2570916414260864,1.4515948295593262
1763696722346281700,3.82728173828125,-0.28906163573265076,1.0785712003707886,1.4741102457046509
1763696722356233000,3.83723291015625,-0.13500815629959106,0.7311756610870361,1.2797985076904297
1763696722366183700,3.84718359375,-0.000794420950114727,0.4624411463737488,1.0316598415374756
1763696722376135000,3.857135009765625,0.16125254333019257,0.2624302804470062,0.8628697991371155
1763696722386085600,3.867085693359375,0.37703198194503784,0.12356507778167725,0.8034821152687073
1763696722396036900,3.877036865234375,0.6016474962234497,0.6448375582695007,1.044927716255188
1763696722405987800,3.88698779296875,0.6519801616668701,0.6425837278366089,1.0159059762954712
1763696722415938800,3.896938720703125,0.4606379270553589,0.7361640334129333,1.0869321823120117
1763696722425889800,3.906889892578125,0.2859334945678711,0.860808253288269,0.9838489294052124
1763696722435840800,3.9168408203125,0.1670963168144226,0.9232017993927002,0.8289437890052795
1763696722445791700,3.926791748046875,0.1257113218307495,0.930612325668335,0.7520199418067932
1763696722455742700,3.93674267578125,0.2043161243200302,0.9499250650405884,0.751887857913971
1763696722465693700,3.946693603515625,0.3520331382751465,0.9327316880226135,0.8030104637145996
1763696722475645000,3.95664501953125,0.3875645101070404,0.8903725147247314,0.8042961955070496
1763696722485595600,3.966595703125,0.31324419379234314,0.6435779333114624,0.6738308668136597
1763696722495547000,3.976546875,0.20981527864933014,0.6071692705154419,0.6285203695297241
1763696722505497600,3.98649755859375,0.13096493482589722,0.5982239842414856,0.5850461721420288
1763696722515448800,3.99644873046875,0.08653489500284195,0.5642614960670471,0.4782182276248932
1763696722525399800,4.00639990234375,0.06011873111128807,0.5054581165313721,0.33756792545318604
1763696722535350800,4.016350830078125,0.06845229119062424,0.48650333285331726,0.2060714066028595
1763696722545301800,4.0263017578125,0.1719246208667755,0.5003736019134521,0.1584913730621338
1763696722555252700,4.036252685546875,0.3426036834716797,0.4995565414428711,0.15117967128753662
1763696722565204000,4.046203857421875,0.5538666844367981,0.4827733039855957,0.14872077107429504
1763696722575154700,4.05615478515625,0.762866199016571,0.3955526649951935,0.13907399773597717
1763696722585106000,4.06610595703125,0.8621086478233337,0.35601162910461426,0.07658559083938599
1763696722595057000,4.076056884765625,0.8878960609436035,0.3898793160915375,-0.019934559240937233
1763696722605008000,4.0860078125,0.8646098971366882,0.5558456778526306,-0.1516457200050354
1763696722614958800,4.095958740234375,0.81345134973526,0.4734591841697693,-0.27295562624931335
1763696722624909800,4.105909912109375,0.72670578956604,0.5316274166107178,-0.33475375175476074
1763696722634860800,4.11586083984375,0.5935818552970886,0.46443212032318115,-0.4167700707912445
1763696722644811800,4.125811767578125,0.4765915870666504,0.3964706361293793,-0.5278305411338806
1763696722654762800,4.1357626953125,0.39619022607803345,0.34680137038230896,-0.6303371787071228
1763696722664714000,4.1457138671875,0.36601927876472473,0.38237106800079346,-0.698383092880249
1763696722674664700,4.155664794921875,0.352029412984848,0.1397874653339386,-0.712498664855957
1763696722684616000,4.165615966796875,0.3452703058719635,-0.02377057634294033,-0.6699381470680237
1763696722694566700,4.175566650390625,0.34073546528816223,-0.15224918723106384,-0.6677215695381165
1763696722704518000,4.185517822265625,0.29592886567115784,-0.1629532277584076,-0.7396637201309204
1763696722714468600,4.195468505859375,0.23254935443401337,-0.1304221898317337,-0.8413876295089722
1763696722724419800,4.205419921875,0.17597022652626038,-0.06220212206244469,-0.9170635342597961
1763696722734371800,4.215371826171875,0.1428341120481491,-0.03759264945983887,-0.8944785594940186
1763696722744322800,4.22532275390625,0.17433585226535797,0.04241377115249634,-0.828015923500061
1763696722754273800,4.235273681640625,0.21029597520828247,0.05919727683067322,-0.7945210933685303
1763696722764224800,4.245224853515625,0.25814953446388245,0.044134970754384995,-0.778918445110321
1763696722774176000,4.255176025390625,0.28916284441947937,0.029996780678629875,-0.7415225505828857
1763696722784126700,4.265126708984375,0.33323734998703003,0.04283614829182625,-0.7034960985183716
1763696722794078000,4.275077880859375,0.3703455626964569,0.03292252868413925,-0.6797542572021484
1763696722804028700,4.285028564453125,0.4218124747276306,0.07560447603464127,-0.6730388402938843
1763696722813980000,4.29497998046875,0.4558785855770111,0.024896029382944107,-0.6351516842842102
1763696722823930600,4.3049306640625,0.472439706325531,0.01906850002706051,-0.5723961591720581
1763696722833881900,4.3148818359375,0.48232242465019226,0.0704728364944458,-0.533183753490448
1763696722843832800,4.324832763671875,0.4734437167644501,0.11570609360933304,-0.5146883726119995
1763696722853783800,4.33478369140625,0.44753435254096985,0.1584721952676773,-0.5187361240386963
1763696722863734800,4.34473486328125,0.42608287930488586,0.2079087197780609,-0.5353627800941467
1763696722873685800,4.354685791015625,0.41154998540878296,0.26338210701942444,-0.5483682751655579
1763696722883636700,4.36463671875,0.39358991384506226,0.31876999139785767,-0.5379183292388916
1763696722893587700,4.374587646484375,0.3920260965824127,0.37277862429618835,-0.5186775326728821
1763696722903538700,4.38453857421875,0.38679537177085876,0.4185626208782196,-0.5138068795204163
1763696722913490000,4.394489990234375,0.3411807715892792,0.5073990225791931,-0.5002551078796387
1763696722923440600,4.404440673828125,0.26522552967071533,0.5082967877388,-0.4353671669960022
1763696722933392000,4.414391845703125,0.21329577267169952,0.4720591604709625,-0.33972853422164917
1763696722943342600,4.424342529296875,0.22459715604782104,0.4430418908596039,-0.23750177025794983
1763696722953293800,4.4342939453125,0.11817058175802231,0.5108222365379333,-0.12928688526153564
1763696722963244800,4.444244873046875,0.013557620346546173,0.6457976698875427,-0.012171978130936623
1763696722973195800,4.45419580078125,-0.07501858472824097,0.5744853615760803,0.18121106922626495
1763696722983147000,4.46414697265625,-0.13595463335514069,0.7761750817298889,0.22450527548789978
1763696722993097700,4.47409765625,-0.2287631332874298,0.8676053881645203,0.23220953345298767
1763696723003049000,4.484049072265625,-0.30945825576782227,0.8907679915428162,0.2213108092546463
1763696723012999700,4.493999755859375,-0.34793639183044434,0.853416383266449,0.16144774854183197
1763696723022951000,4.503950927734375,-0.3403754234313965,0.7430813312530518,0.059065185487270355
1763696723032902000,4.51390185546875,-0.26940271258354187,0.5614619851112366,-0.06752631068229675
1763696723042852900,4.523852783203125,-0.12089206278324127,0.29709452390670776,-0.1840457320213318
1763696723052803800,4.533803955078125,0.060261476784944534,-0.06738489866256714,-0.2012111395597458
1763696723062754800,4.5437548828125,0.2910915017127991,-0.4576767385005951,-0.17443865537643433
1763696723072705800,4.553705810546875,0.5563183426856995,-0.8362576365470886,-0.20655903220176697
1763696723082656800,4.56365673828125,0.8224440813064575,-1.1103160381317139,-0.2670343518257141
1763696723092607700,4.573607666015625,0.9794187545776367,-1.3800290822982788,-0.3137803077697754
1763696723102559000,4.58355908203125,1.0944551229476929,-1.5976111888885498,-0.3540416955947876
1763696723112509700,4.593509765625,1.1145036220550537,-1.7662979364395142,-0.38568592071533203
1763696723122461000,4.6034609375,1.043056607246399,-1.9018291234970093,-0.39944592118263245
1763696723132411600,4.61341162109375,0.899969756603241,-2.0621280670166016,-0.41450318694114685
1763696723142363000,4.62336279296875,0.7359206080436707,-2.1846110820770264,-0.45198050141334534
1763696723152313600,4.633313720703125,0.5826565027236938,-2.261470317840576,-0.5018407702445984
1763696723162264800,4.643264892578125,0.44419822096824646,-2.366183042526245,-0.5731458067893982
1763696723172215800,4.6532158203125,0.32525479793548584,-2.5050504207611084,-0.6506952047348022
1763696723182166800,4.663166748046875,0.22096699476242065,-2.5594840049743652,-0.6923635601997375
1763696723192117800,4.67311767578125,0.11099309474229813,-2.5870814323425293,-0.6841682195663452
1763696723202069800,4.68306982421875,0.00651595601812005,-2.6306021213531494,-0.6338483095169067
1763696723212021000,4.69302099609375,-0.06927014887332916,-2.6436243057250977,-0.581889271736145
1763696723221971700,4.7029716796875,-0.12013652920722961,-2.698558807373047,-0.5415095686912537
1763696723231923000,4.7129228515625,-0.1679072380065918,-2.813967704772949,-0.5017989277839661
1763696723241873700,4.722873779296875,-0.21212691068649292,-2.9623141288757324,-0.4719451665878296
1763696723251825000,4.732824951171875,-0.23623676598072052,-3.125387191772461,-0.494740754365921
1763696723261775600,4.742775634765625,-0.23965014517307281,-3.2094948291778564,-0.6016629338264465
1763696723271726800,4.752726806640625,-0.2149013876914978,-3.2378756999969482,-0.7826274037361145
1763696723281677800,4.762677734375,-0.14979828894138336,-3.203298807144165,-1.0078163146972656
1763696723291628800,4.77262890625,-0.0593743771314621,-3.1316516399383545,-1.2375677824020386
1763696723301579800,4.782579833984375,0.020777717232704163,-3.0431978702545166,-1.4391024112701416
1763696723311530800,4.79253076171875,0.023938888683915138,-2.9158246517181396,-1.5934693813323975
1763696723321481700,4.802481689453125,-0.10582709312438965,-2.8192806243896484,-1.713289499282837
1763696723331432700,4.8124326171875,-0.3300098776817322,-2.829087972640991,-1.8232223987579346
1763696723341383700,4.8223837890625,-0.5948793292045593,-2.878904104232788,-1.945125937461853
1763696723351335200,4.832335205078125,-0.8596436381340027,-2.8681488037109375,-2.0656728744506836
1763696723361286000,4.842285888671875,-1.0742638111114502,-2.799625873565674,-2.182088613510132
1763696723371237000,4.852237060546875,-1.2280112504959106,-2.713031768798828,-2.2760837078094482
1763696723381187800,4.862187744140625,-1.3551031351089478,-2.6161575317382812,-2.3656396865844727
1763696723391139000,4.87213916015625,-1.4012893438339233,-2.415133476257324,-2.473322868347168
1763696723401089800,4.88208984375,-1.367921233177185,-2.222561836242676,-2.5726497173309326
1763696723411041000,4.892041015625,-1.2849147319793701,-2.110018491744995,-2.6312358379364014
1763696723420992000,4.901991943359375,-1.1513231992721558,-2.04990291595459,-2.660867214202881
1763696723430943000,4.91194287109375,-0.9664627313613892,-2.0364749431610107,-2.6764838695526123
1763696723440894000,4.92189404296875,-0.738811731338501,-2.053138256072998,-2.687203884124756
1763696723450845000,4.931844970703125,-0.48299461603164673,-2.024480104446411,-2.693819046020508
1763696723460796000,4.9417958984375,-0.24046586453914642,-1.9705897569656372,-2.6804769039154053
1763696723470747000,4.951746826171875,-0.02629738487303257,-1.9129490852355957,-2.6265430450439453
1763696723480697900,4.96169775390625,0.1584855169057846,-1.8409532308578491,-2.5079565048217773
1763696723490649000,4.971649169921875,0.32132449746131897,-1.6887892484664917,-2.3178062438964844
1763696723500599800,4.981599853515625,0.4389094412326813,-1.3724395036697388,-2.106116533279419
1763696723510551000,4.991551025390625,0.5799616575241089,-0.9404386281967163,-1.8103770017623901
1763696723520501800,5.001501708984375,0.6676174402236938,-0.6063359975814819,-1.4135217666625977
1763696723530453000,5.011452880859375,0.6804624199867249,0.015983493998646736,-1.0224357843399048
1763696723540404000,5.021404052734375,0.4817493259906769,0.03187750652432442,-0.6719909310340881
1763696723550355000,5.03135498046875,0.29285770654678345,0.220548614859581,-0.6455633044242859
1763696723560306200,5.04130615234375,0.15204864740371704,0.6614455580711365,-0.6065748929977417
1763696723570257000,5.0512568359375,-0.10176657140254974,0.7623112201690674,-0.5748699307441711
1763696723580208000,5.0612080078125,-0.2782534658908844,0.6874569654464722,-0.6006996631622314
1763696723590158800,5.071158935546875,-0.4326174557209015,0.5959989428520203,-0.5252770781517029
1763696723600110000,5.081110107421875,-0.5434691309928894,0.40097030997276306,-0.3517226278781891
1763696723610061000,5.09106103515625,-0.6134791374206543,0.4789695143699646,-0.14835990965366364
1763696723620012000,5.101011962890625,-0.7296563386917114,0.3841884136199951,-0.02395566552877426
1763696723629963000,5.110962890625,-0.8674653172492981,0.3367694914340973,-0.003531884169206023
1763696723639914000,5.1209140625,-1.0067028999328613,0.26081907749176025,-0.004091148264706135
1763696723649865000,5.130864990234375,-1.1462907791137695,0.21108373999595642,0.029051359742879868
1763696723659816000,5.14081591796875,-1.2709382772445679,0.16284111142158508,0.0953851118683815
1763696723669767000,5.150766845703125,-1.3761557340621948,0.15495069324970245,0.14879533648490906
1763696723679718100,5.16071826171875,-1.469527006149292,0.15937314927577972,0.1867981106042862
1763696723689668900,5.1706689453125,-1.55559504032135,0.1381746530532837,0.2121460735797882
1763696723699620900,5.180620849609375,-1.614797592163086,0.09398534893989563,0.2330750674009323
1763696723709571800,5.19057177734375,-1.6296721696853638,0.04422977939248085,0.2594238519668579
1763696723719523000,5.200523193359375,-1.589462161064148,0.01889299787580967,0.29757124185562134
1763696723729474000,5.21047412109375,-1.4917079210281372,0.027367709204554558,0.3382752537727356
1763696723739425000,5.220425048828125,-1.3312119245529175,0.07033061981201172,0.37272828817367554
1763696723749376000,5.2303759765625,-1.1143467426300049,0.14205807447433472,0.40358981490135193
1763696723759327000,5.240326904296875,-0.8603059649467468,0.21367233991622925,0.43594881892204285
1763696723769278000,5.25027783203125,-0.5878986716270447,0.27056410908699036,0.4747835695743561
1763696723779229000,5.26022900390625,-0.31384846568107605,0.2994934916496277,0.527211606502533
1763696723789180200,5.27018017578125,-0.04032318666577339,0.29459381103515625,0.6111621856689453
1763696723799131000,5.280130859375,0.21331441402435303,0.2760622203350067,0.7287657856941223
1763696723809082000,5.29008203125,0.43412959575653076,0.25652074813842773,0.8657656908035278
1763696723819032800,5.30003271484375,0.6116476655006409,0.2594001293182373,1.020788311958313
1763696723828984000,5.309984130859375,0.7338244318962097,0.2881835997104645,1.1763241291046143
1763696723838934800,5.319934814453125,0.7874855399131775,0.32314929366111755,1.3084112405776978
1763696723848886000,5.329885986328125,0.7799940705299377,0.3240206837654114,1.399694561958313
1763696723858837000,5.3398369140625,0.7269287109375,0.30325308442115784,1.4420604705810547
1763696723868788000,5.3497880859375,0.6473050117492676,0.25393345952033997,1.4508368968963623
1763696723878739000,5.359739013671875,0.5434555411338806,0.18282175064086914,1.4410852193832397
1763696723888690000,5.36968994140625,0.4216609597206116,0.0869908258318901,1.4416530132293701
1763696723898641000,5.379640869140625,0.28847599029541016,-0.04715952277183533,1.4615952968597412
1763696723908591900,5.389591796875,0.15274666249752045,-0.1815847009420395,1.505545973777771
1763696723918542800,5.39954296875,0.010939466767013073,-0.309855580329895,1.5572549104690552
1763696723928494000,5.409494140625,-0.12056263536214828,-0.399361252784729,1.604309320449829
1763696723938444800,5.41944482421875,-0.23349504172801971,-0.43900159001350403,1.6488144397735596
1763696723948396000,5.42939599609375,-0.3284527063369751,-0.4533142149448395,1.6884709596633911
1763696723958346800,5.4393466796875,-0.40404415130615234,-0.44798070192337036,1.7204302549362183
1763696723968298000,5.449298095703125,-0.46437913179397583,-0.44252628087997437,1.737608790397644
1763696723978249000,5.4592490234375,-0.5067164897918701,-0.4022819399833679,1.7390310764312744
1763696723988200000,5.469199951171875,-0.5262781977653503,-0.35052499175071716,1.7150381803512573
1763696723998151200,5.479151123046875,-0.5121604800224304,-0.29998457431793213,1.6599682569503784
1763696724008102000,5.489101806640625,-0.46622923016548157,-0.24489204585552216,1.583846926689148
1763696724018053000,5.49905322265625,-0.39577049016952515,-0.20325511693954468,1.506065011024475
1763696724028003800,5.50900390625,-0.30907556414604187,-0.18803861737251282,1.4422754049301147
1763696724037955000,5.518955078125,-0.2189168930053711,-0.21863193809986115,1.3953914642333984
1763696724047906000,5.528906005859375,-0.13646383583545685,-0.2715359032154083,1.3490092754364014
1763696724057857000,5.53885693359375,-0.06966882944107056,-0.31831884384155273,1.2821898460388184
1763696724067808000,5.54880810546875,-0.02466992661356926,-0.36008813977241516,1.1926394701004028
1763696724077759000,5.558759033203125,0.008466721512377262,-0.39237895607948303,1.0978703498840332
1763696724087710000,5.5687099609375,0.046956323087215424,-0.41680708527565,0.9995972514152527
1763696724097661000,5.578660888671875,0.08314122259616852,-0.45786023139953613,0.9186182618141174
1763696724107612000,5.58861181640625,0.10569127649068832,-0.5038082599639893,0.8416153788566589
1763696724117563100,5.598563232421875,0.11162613332271576,-0.5380631685256958,0.7579119205474854
1763696724127513900,5.608513916015625,0.10416368395090103,-0.5708520412445068,0.6710262894630432
1763696724137465000,5.618465087890625,0.09887970983982086,-0.5863553881645203,0.599615216255188
1763696724147415800,5.628415771484375,0.09899555891752243,-0.584962785243988,0.55551677942276
1763696724157367000,5.638366943359375,0.08937781304121017,-0.5692152380943298,0.5252369046211243
1763696724167317800,5.64831787109375,0.06296005845069885,-0.5533683896064758,0.4925215542316437
1763696724177269000,5.65826904296875,0.026441460475325584,-0.5133804678916931,0.4578557014465332
1763696724187220000,5.668219970703125,-0.003162770066410303,-0.43368858098983765,0.4161252975463867
1763696724197171000,5.6781708984375,-0.030980819836258888,-0.33406853675842285,0.37538614869117737
1763696724207122000,5.688121826171875,-0.0666477382183075,-0.23264096677303314,0.339138925075531
1763696724217073000,5.698072998046875,-0.11395452916622162,-0.17406420409679413,0.31740033626556396
1763696724227024000,5.70802392578125,-0.1694907546043396,-0.15428811311721802,0.31134936213493347
1763696724236975900,5.717975830078125,-0.22702808678150177,-0.14209961891174316,0.31741443276405334
1763696724246927000,5.727927001953125,-0.28405889868736267,-0.13415247201919556,0.3239162862300873
1763696724256877800,5.7378779296875,-0.33738788962364197,-0.12766128778457642,0.3199574947357178
1763696724266829000,5.7478291015625,-0.3904891908168793,-0.10535358637571335,0.30118700861930847
1763696724276779800,5.75777978515625,-0.4288778603076935,-0.04099031165242195,0.2831012010574341
1763696724286731000,5.76773095703125,-0.46115830540657043,0.024575650691986084,0.2705710530281067
1763696724296682000,5.777681884765625,-0.4870506227016449,0.08133000880479813,0.2593945562839508
1763696724306633000,5.787633056640625,-0.508454442024231,0.12980513274669647,0.23237012326717377
1763696724316584000,5.797583984375,-0.5321776270866394,0.18036630749702454,0.18575282394886017
1763696724326535000,5.807534912109375,-0.5552440285682678,0.2072240263223648,0.1252886801958084
1763696724336486000,5.81748583984375,-0.5694357752799988,0.22290098667144775,0.05987824872136116
1763696724346437000,5.82743701171875,-0.5662908554077148,0.23040418326854706,-0.008696019649505615
1763696724356388000,5.83738818359375,-0.5515747666358948,0.2179270088672638,-0.07666920870542526
1763696724366339300,5.84733935546875,-0.5286806225776672,0.1833629012107849,-0.1543123424053192
1763696724376290000,5.8572900390625,-0.5100275874137878,0.13590005040168762,-0.23707672953605652
1763696724386241300,5.8672412109375,-0.4828774333000183,0.08438438922166824,-0.32165446877479553
1763696724396192000,5.87719189453125,-0.4489508867263794,0.03970160707831383,-0.39939454197883606
1763696724406143200,5.887143310546875,-0.41771095991134644,0.002459961920976639,-0.4754592180252075
1763696724416094000,5.897093994140625,-0.39495158195495605,-0.028057999908924103,-0.5454375147819519
1763696724426045200,5.907045166015625,-0.38048049807548523,-0.0314846895635128,-0.6067543625831604
1763696724435996200,5.91699609375,-0.36657053232192993,-0.024818263947963715,-0.6589315533638
1763696724445947100,5.926947021484375,-0.3572167158126831,-0.026383403688669205,-0.6854366660118103
1763696724455898000,5.936898193359375,-0.34672999382019043,-0.02328028902411461,-0.6966184973716736
1763696724465849000,5.94684912109375,-0.34195148944854736,0.014208230189979076,-0.7017312049865723
1763696724475800300,5.95680029296875,-0.34319889545440674,0.04032744839787483,-0.7244136333465576
1763696724485751000,5.9667509765625,-0.3520214259624481,0.05618683993816376,-0.7713097929954529
1763696724495702300,5.976702392578125,-0.35999011993408203,0.06312650442123413,-0.8424153923988342
1763696724505653200,5.9866533203125,-0.360026091337204,0.07510726898908615,-0.9207732677459717
1763696724515604200,5.996604248046875,-0.34206917881965637,0.0998043566942215,-0.9788698554039001
1763696724525555200,6.00655517578125,-0.3195953071117401,0.1282181590795517,-1.020880937576294
1763696724535506200,6.016506103515625,-0.29203930497169495,0.14752261340618134,-1.0474330186843872
1763696724545457200,6.02645703125,-0.27007994055747986,0.15507853031158447,-1.053267478942871
1763696724555408100,6.036408203125,-0.25607892870903015,0.14435504376888275,-1.034462809562683
1763696724565359000,6.046359130859375,-0.25057095289230347,0.13165177404880524,-0.9821327924728394
1763696724575310300,6.056310302734375,-0.25219762325286865,0.13782045245170593,-0.904374897480011
1763696724585261000,6.066260986328125,-0.2678956389427185,0.14373879134655,-0.8145874738693237
1763696724595212300,6.07621240234375,-0.3148719370365143,0.15668974816799164,-0.7356071472167969
1763696724605163000,6.0861630859375,-0.38574156165122986,0.18347609043121338,-0.678213357925415
1763696724615114200,6.0961142578125,-0.4713752567768097,0.2162633240222931,-0.6399871706962585
1763696724625065200,6.106065185546875,-0.5555891990661621,0.24685931205749512,-0.6140937805175781
1763696724635016200,6.11601611328125,-0.6242689490318298,0.23246093094348907,-0.5933498740196228
1763696724644967200,6.12596728515625,-0.664385199546814,0.17038345336914062,-0.5856480002403259
1763696724654918100,6.135918212890625,-0.6695708632469177,0.10206112265586853,-0.5982605218887329
1763696724664869000,6.145869140625,-0.6405410766601562,0.06070808693766594,-0.634418785572052
1763696724674820000,6.155820068359375,-0.5894936323165894,0.025843847543001175,-0.6826299428939819
1763696724684771000,6.16577099609375,-0.5262060165405273,0.003346528159454465,-0.7372652292251587
1763696724694722000,6.17572216796875,-0.45540133118629456,-0.019477561116218567,-0.79170823097229
1763696724704673000,6.185673095703125,-0.3751365840435028,-0.02779647707939148,-0.8413045406341553
1763696724714624300,6.195624267578125,-0.29410645365715027,-0.008403072133660316,-0.8941411375999451
1763696724724575200,6.2055751953125,-0.21344277262687683,0.04291524365544319,-0.9490925669670105
1763696724734526200,6.215526123046875,-0.13878796994686127,0.10879679024219513,-1.00022554397583
1763696724744477200,6.225477294921875,-0.06800009310245514,0.16664357483386993,-1.043966293334961
1763696724754428200,6.23542822265625,0.01011202298104763,0.2242504060268402,-1.0670356750488281
1763696724764379100,6.245379150390625,0.1047290787100792,0.26930737495422363,-1.0611402988433838
1763696724774330000,6.255330078125,0.2246866375207901,0.2897617816925049,-1.0208772420883179
1763696724784281300,6.26528125,0.3673417866230011,0.28497448563575745,-0.9489583373069763
1763696724794233000,6.275233154296875,0.5326932072639465,0.28232356905937195,-0.858427882194519
1763696724804184300,6.285184326171875,0.7060359716415405,0.26994332671165466,-0.7631117701530457
1763696724814135000,6.295135009765625,0.8818299174308777,0.241148442029953,-0.6642525792121887
1763696724824086300,6.305086181640625,1.049533724784851,0.2017802596092224,-0.5600382685661316
1763696724834037000,6.315037109375,1.2017031908035278,0.1796635091304779,-0.4638374447822571
1763696724843988200,6.32498828125,1.3235114812850952,0.16377535462379456,-0.38052257895469666
1763696724853939000,6.33493896484375,1.4066377878189087,0.1404937356710434,-0.31621548533439636
1763696724863890200,6.34489013671875,1.4547911882400513,0.10504918545484543,-0.2728070318698883
1763696724873841200,6.354841064453125,1.4748562574386597,0.06450815498828888,-0.24258734285831451
1763696724883792100,6.364792236328125,1.47441565990448,0.041438519954681396,-0.22671224176883698
1763696724893743400,6.374743408203125,1.4582040309906006,0.03647811710834503,-0.2195454090833664
1763696724903694000,6.384694091796875,1.4353748559951782,0.04989059269428253,-0.22118139266967773
1763696724913645300,6.394645263671875,1.4166975021362305,0.07197832316160202,-0.2190239578485489
1763696724923596000,6.404595947265625,1.406408667564392,0.10426488518714905,-0.2096664160490036
1763696724933547300,6.41454736328125,1.4137643575668335,0.12173549085855484,-0.18749266862869263
1763696724943498200,6.424498291015625,1.4299225807189941,0.1273728758096695,-0.1444581151008606
1763696724953449200,6.43444921875,1.3823494911193848,0.02894403412938118,-0.13837598264217377
1763696724963400200,6.444400146484375,1.3477661609649658,0.05363313481211662,-0.13687902688980103
1763696724973351200,6.45435107421875,1.338321566581726,0.05926412343978882,-0.10101662576198578
1763696724983302100,6.46430224609375,1.3120105266571045,0.025300562381744385,-0.0287656020373106
1763696724993253000,6.474253173828125,1.2852237224578857,0.015977101400494576,0.0625121146440506
1763696725003204000,6.4842041015625,1.254140853881836,0.020442424342036247,0.15860030055046082
1763696725013155300,6.4941552734375,1.2183024883270264,0.03505998104810715,0.270551860332489
1763696725023106000,6.50410595703125,1.186585783958435,0.04697762802243233,0.38943350315093994
1763696725033057300,6.514057373046875,1.1793211698532104,0.08348557353019714,0.5001195669174194
1763696725043008000,6.524008056640625,1.1930567026138306,0.15056927502155304,0.5995321273803711
1763696725052959200,6.533959228515625,1.2115033864974976,0.2137405127286911,0.6798911690711975
1763696725062910000,6.543909912109375,1.2135009765625,0.25117257237434387,0.737612247467041
1763696725072861200,6.553861083984375,1.1976525783538818,0.26409024000167847,0.7688167691230774
1763696725082812200,6.563812255859375,1.1758471727371216,0.25259071588516235,0.7765567302703857
1763696725092763100,6.57376318359375,1.1522637605667114,0.2426142394542694,0.7745758891105652
1763696725102714000,6.583714111328125,1.1277962923049927,0.22813276946544647,0.7660673260688782
1763696725112665000,6.5936650390625,1.1012961864471436,0.22062771022319794,0.7502084970474243
1763696725122616000,6.603615966796875,1.070174217224121,0.21209867298603058,0.7338244318962097
1763696725132567000,6.613567138671875,1.0357526540756226,0.1964496672153473,0.7127290368080139
1763696725142518300,6.623518310546875,1.0004771947860718,0.18333600461483002,0.6855937838554382
1763696725152469200,6.63346923828125,0.9702010154724121,0.17317791283130646,0.6564090251922607
1763696725162420200,6.643420166015625,0.8872997760772705,0.26039963960647583,0.6573701500892639
1763696725172371200,6.65337109375,0.7605412602424622,0.2328612059354782,0.6384827494621277
1763696725182322200,6.663322265625,0.6765401363372803,0.21055617928504944,0.5999449491500854
1763696725192273200,6.673273193359375,0.6172120571136475,0.21510937809944153,0.5677337646484375
1763696725202224000,6.68322412109375,0.5632308721542358,0.15410195291042328,0.5559572577476501
1763696725212175000,6.693175048828125,0.5061060786247253,0.10316100716590881,0.5462364554405212
1763696725222126300,6.703126220703125,0.4330669939517975,0.06479231268167496,0.5238640308380127
1763696725232077000,6.7130771484375,0.35556501150131226,0.0443381704390049,0.47640329599380493
1763696725242028300,6.7230283203125,0.27813467383384705,0.04806046932935715,0.42618778347969055
1763696725251979000,6.73297900390625,0.200485959649086,0.07464920729398727,0.37680453062057495
1763696725261930200,6.74293017578125,0.12105877697467804,0.11988645792007446,0.3397964537143707
1763696725271881200,6.752881103515625,0.042938146740198135,0.177453875541687,0.3097669184207916
1763696725281832200,6.762832275390625,-0.02732216753065586,0.2234296202659607,0.27104055881500244
1763696725291783200,6.772783203125,-0.08526057004928589,0.2512072026729584,0.2165410965681076
1763696725301734100,6.782734130859375,-0.14058081805706024,0.25712502002716064,0.14263518154621124
1763696725311685000,6.79268505859375,-0.17973807454109192,0.21995925903320312,0.04694993048906326
1763696725321636000,6.802635986328125,-0.21035164594650269,0.08690454065799713,-0.10064538568258286
1763696725331587000,6.812587158203125,-0.2429593801498413,0.024881115183234215,-0.2629397511482239
1763696725341538300,6.822538330078125,-0.24929025769233704,-0.041662223637104034,-0.39086976647377014
1763696725351489000,6.832489013671875,-0.22879989445209503,-0.11816924810409546,-0.4676457643508911
1763696725361440300,6.842440185546875,-0.19147329032421112,-0.143585667014122,-0.5316628217697144
1763696725371391000,6.852390869140625,-0.14387540519237518,-0.15916381776332855,-0.6123645901679993
1763696725381342200,6.86234228515625,-0.09389879554510117,-0.07396743446588516,-0.6733395457267761
1763696725391293000,6.87229296875,-0.05275215953588486,-0.06947947293519974,-0.6938541531562805
1763696725401245200,6.8822451171875,-0.03776948153972626,-0.043603669852018356,-0.7115628123283386
1763696725411195100,6.892195068359375,-0.055092547088861465,-0.010492055676877499,-0.7384176254272461
1763696725421147100,6.902147216796875,-0.11261602491140366,0.017369668930768967,-0.7582703828811646
1763696725431098000,6.91209814453125,-0.21189068257808685,0.05748086795210838,-0.776231050491333
1763696725441049000,6.922049072265625,-0.3372885584831238,0.12797394394874573,-0.8047550916671753
1763696725451000000,6.932,-0.47451484203338623,0.2058791220188141,-0.8415213227272034
1763696725460951000,6.941950927734375,-0.6132522225379944,0.29555681347846985,-0.8827124834060669
1763696725470902000,6.951902099609375,-0.74417644739151,0.3884100615978241,-0.9127180576324463
1763696725480853000,6.96185302734375,-0.8580273389816284,0.48120176792144775,-0.9096812009811401
1763696725490804200,6.97180419921875,-0.9603284001350403,0.5753375887870789,-0.879345715045929
1763696725500755000,6.9817548828125,-1.0535372495651245,0.6380994915962219,-0.8348503708839417
1763696725510706200,6.9917060546875,-1.138676643371582,0.6486243009567261,-0.7934622168540955
1763696725520657200,7.0016572265625,-1.2212079763412476,0.6475263237953186,-0.7672210335731506
1763696725530608000,7.011608154296875,-1.3080168962478638,0.6260963678359985,-0.7655751705169678
1763696725540559000,7.02155908203125,-1.3944423198699951,0.6022845506668091,-0.7948672771453857
1763696725550510000,7.031510009765625,-1.4817452430725098,0.5672903060913086,-0.8481763005256653
1763696725560461000,7.0414609375,-1.5648750066757202,0.5371867418289185,-0.9013513922691345
1763696725570412000,7.051412109375,-1.6363340616226196,0.5475613474845886,-0.9518340229988098
1763696725580363000,7.061363037109375,-1.6794620752334595,0.5863998532295227,-0.9820912480354309
1763696725590314200,7.071314208984375,-1.6817907094955444,0.6266455054283142,-0.9948456287384033
1763696725600265000,7.081264892578125,-1.6417222023010254,0.6665737628936768,-0.9827858209609985
1763696725610216200,7.09121630859375,-1.581339716911316,0.672001302242279,-0.9470174312591553
1763696725620167000,7.1011669921875,-1.5005853176116943,0.6710239052772522,-0.9074795842170715
1763696725630118100,7.1111181640625,-1.408272385597229,0.6686241626739502,-0.8751525282859802
1763696725640069000,7.121069091796875,-1.3067092895507812,0.6754176020622253,-0.856110692024231
1763696725650020000,7.13102001953125,-1.2122501134872437,0.6711602807044983,-0.8494322896003723
1763696725659971000,7.14097119140625,-1.12698233127594,0.6629729270935059,-0.8590377569198608
1763696725669922000,7.150922119140625,-1.0594582557678223,0.625675618648529,-0.8863583207130432
1763696725679873000,7.160873046875,-0.9967018961906433,0.5679558515548706,-0.9285606145858765
1763696725689824000,7.170823974609375,-0.9383416175842285,0.5053534507751465,-0.9811045527458191
1763696725699775000,7.18077490234375,-0.8820235133171082,0.45375657081604004,-1.032598853111267
1763696725709726200,7.190726318359375,-0.8189215064048767,0.3848257064819336,-1.0773985385894775
1763696725719677000,7.200677001953125,-0.750169575214386,0.29559755325317383,-1.1123360395431519
1763696725729628200,7.210628173828125,-0.6783044338226318,0.19910457730293274,-1.1245120763778687
1763696725739579000,7.220578857421875,-0.6188190579414368,0.07510140538215637,-1.1268582344055176
1763696725749530000,7.230530029296875,-0.5613418817520142,-0.03315209597349167,-1.1355098485946655
1763696725759481000,7.240481201171875,-0.5043529272079468,-0.10797467082738876,-1.1505297422409058
1763696725769432000,7.25043212890625,-0.4500449299812317,-0.13172100484371185,-1.1599891185760498
1763696725779383300,7.26038330078125,-0.40923944115638733,-0.1358742117881775,-1.1495050191879272
1763696725789334000,7.270333984375,-0.3892233967781067,-0.13891208171844482,-1.1071144342422485
1763696725799285200,7.28028515625,-0.37129446864128113,-0.10983781516551971,-1.034470558166504
1763696725809236000,7.290236083984375,-0.3437778651714325,-0.04603113979101181,-0.9318171739578247
1763696725819187200,7.300187255859375,-0.32227709889411926,0.019756393507122993,-0.8001368641853333
1763696725829138000,7.310137939453125,-0.32295915484428406,0.06531349569559097,-0.641449511051178
1763696725839089200,7.320089111328125,-0.3581898510456085,0.09275683760643005,-0.4725630283355713
1763696725849040100,7.3300400390625,-0.42511293292045593,0.10953395068645477,-0.3131214380264282
1763696725858991000,7.3399912109375,-0.496080607175827,0.10110131651163101,-0.1613292396068573
1763696725868942000,7.349942138671875,-0.5470196604728699,0.0642935037612915,-0.01750495843589306
1763696725878893000,7.35989306640625,-0.5626633763313293,0.008405202999711037,0.11692928522825241
1763696725888844000,7.369843994140625,-0.5414342284202576,-0.052796367555856705,0.23356375098228455
1763696725898795000,7.379794921875,-0.49379613995552063,-0.1079792007803917,0.31558433175086975
1763696725908746000,7.38974609375,-0.42509323358535767,-0.1773817092180252,0.35995978116989136
1763696725918697200,7.399697265625,-0.33267223834991455,-0.2560778558254242,0.38159289956092834
1763696725928648000,7.40964794921875,-0.21848706901073456,-0.3361271321773529,0.3919435441493988
1763696725938599200,7.41959912109375,-0.08828485757112503,-0.4112115204334259,0.39484238624572754
1763696725948550000,7.4295498046875,0.052133508026599884,-0.458759069442749,0.3981471061706543
1763696725958501000,7.439501220703125,0.19171777367591858,-0.4673360288143158,0.40569424629211426
1763696725968452000,7.4494521484375,0.30964040756225586,-0.4479045569896698,0.43098920583724976
1763696725978403000,7.459403076171875,0.3988264799118042,-0.4083046615123749,0.4804489016532898
1763696725988354000,7.46935400390625,0.472368061542511,-0.3468303978443146,0.5411452651023865
1763696725998305000,7.479304931640625,0.5565082430839539,-0.2807919979095459,0.6149536967277527
1763696726008256300,7.48925634765625,0.6523727178573608,-0.23032322525978088,0.7158952355384827
1763696726018207000,7.49920703125,0.7531041502952576,-0.1958123743534088,0.8581871390342712
1763696726028158200,7.509158203125,0.8534336686134338,-0.1698462963104248,1.0323961973190308
1763696726038109200,7.519109130859375,0.9408162236213684,-0.14406369626522064,1.2134701013565063
1763696726048060200,7.52906005859375,1.0132882595062256,-0.08569972217082977,1.3754668235778809
1763696726058011100,7.53901123046875,1.0695805549621582,-0.028235100209712982,1.5141152143478394
1763696726067962000,7.548962158203125,1.0995579957962036,0.03566265478730202,1.633307933807373
1763696726077913000,7.5589130859375,1.1072137355804443,0.11715911328792572,1.7367812395095825
1763696726087864000,7.568864013671875,1.0868812799453735,0.1998009979724884,1.8341152667999268
1763696726097815000,7.57881494140625,1.0456329584121704,0.2756960391998291,1.9385980367660522
1763696726107766300,7.588766357421875,0.9869640469551086,0.33053797483444214,2.0570075511932373
1763696726117717000,7.598717041015625,0.9117352962493896,0.3651827573776245,2.1883912086486816
1763696726127668200,7.608668212890625,0.8304809331893921,0.3824584186077118,2.327105760574341
1763696726137619000,7.618618896484375,0.7444350123405457,0.38317587971687317,2.4578962326049805
1763696726147570200,7.628570068359375,0.6592503190040588,0.3649526834487915,2.5680763721466064
1763696726157522000,7.63852197265625,0.589600682258606,0.34124094247817993,2.6400859355926514
1763696726167472000,7.64847216796875,0.5546405911445618,0.3473300039768219,2.659637689590454
1763696726177424100,7.658424072265625,0.5488202571868896,0.33369380235671997,2.6265292167663574
1763696726187375000,7.668375,0.563215434551239,0.29878857731819153,2.5512197017669678
1763696726197326000,7.678326171875,0.5892485976219177,0.24184352159500122,2.443143367767334
1763696726207277000,7.688277099609375,0.6144897937774658,0.17468072474002838,2.3204660415649414
1763696726217228300,7.698228271484375,0.6248084902763367,0.08714262396097183,2.1878626346588135
1763696726227179000,7.708178955078125,0.6202478408813477,-0.0021110877860337496,2.0475292205810547
1763696726237130200,7.718130126953125,0.6062036156654358,-0.09243405610322952,1.9017878770828247
1763696726247081000,7.7280810546875,0.5772393345832825,-0.183748260140419,1.7589856386184692
1763696726257032200,7.7380322265625,0.5259642004966736,-0.27763187885284424,1.6216099262237549
1763696726266983000,7.74798291015625,0.45390623807907104,-0.39250120520591736,1.4905656576156616
1763696726276934100,7.75793408203125,0.39181092381477356,-0.518916666507721,1.3502863645553589
1763696726286885000,7.767885009765625,0.3533306419849396,-0.6451292037963867,1.1976720094680786
1763696726296836000,7.777836181640625,0.33771812915802,-0.7820236682891846,1.038137435913086
1763696726306787000,7.787787109375,0.3435080945491791,-0.9253944158554077,0.878534734249115
1763696726316738000,7.797738037109375,0.36875513195991516,-1.0693185329437256,0.7251178026199341
1763696726326689000,7.80768896484375,0.4080418050289154,-1.192956566810608,0.5721495151519775
1763696726336640000,7.817639892578125,0.45281434059143066,-1.2898679971694946,0.4207829236984253
1763696726346591000,7.827591064453125,0.500900387763977,-1.3655928373336792,0.2816354036331177
1763696726356541700,7.837541748046875,0.5508876442909241,-1.4385319948196411,0.16863881051540375
1763696726366492400,7.847492431640625,0.5946779847145081,-1.504111886024475,0.09153657406568527
1763696726376443600,7.857443603515625,0.6203525066375732,-1.5665043592453003,0.05031909793615341
1763696726386394600,7.86739453125,0.6305829882621765,-1.615173578262329,0.02912113443017006
1763696726396345600,7.877345703125,0.6071887612342834,-1.6397426128387451,0.0051833102479577065
1763696726406296600,7.887296630859375,0.5449501276016235,-1.607096552848816,-0.04026246815919876
1763696726416247600,7.89724755859375,0.4399898946285248,-1.5220884084701538,-0.11986807733774185
1763696726426198500,7.907198486328125,0.31514090299606323,-1.4003350734710693,-0.2386525273323059
1763696726436149500,7.9171494140625,0.14849652349948883,-1.3054759502410889,-0.36292439699172974
1763696726446100500,7.9271005859375,-0.014858574606478214,-1.2047011852264404,-0.4541507065296173
1763696726456051700,7.9370517578125,-0.15994971990585327,-1.0489221811294556,-0.5428952574729919
1763696726466002400,7.94700244140625,-0.2915378510951996,-0.9084713459014893,-0.6106830835342407
1763696726475953700,7.95695361328125,-0.4153282344341278,-0.7798705101013184,-0.6557272672653198
1763696726485904400,7.966904296875,-0.5223212242126465,-0.6493479013442993,-0.6841663718223572
1763696726495855600,7.976855712890625,-0.60940021276474,-0.5022764205932617,-0.7064815163612366
1763696726505806300,7.986806396484375,-0.6825913786888123,-0.35022830963134766,-0.7179797291755676
1763696726515757600,7.996757568359375,-0.7544234395027161,-0.22669360041618347,-0.7183951735496521
1763696726525708500,8.00670849609375,-0.8110385537147522,-0.11813169717788696,-0.7185235023498535
1763696726535659500,8.016659423828125,-0.8518509268760681,-0.03995859995484352,-0.7254317402839661
1763696726545610500,8.026610595703126,-0.87149578332901,0.008206264115869999,-0.7357914447784424
1763696726555561500,8.0365615234375,-0.8704017400741577,0.06482773274183273,-0.7420456409454346
1763696726565512700,8.0465126953125,-0.8453121185302734,0.10459458827972412,-0.7310861945152283
1763696726575463400,8.05646337890625,-0.7965565323829651,0.11714206635951996,-0.7064372897148132
1763696726585414700,8.06641455078125,-0.7372556328773499,0.10968894511461258,-0.6820318102836609
1763696726595365600,8.07636572265625,-0.676343560218811,0.09594517201185226,-0.6782647967338562
1763696726605316600,8.086316650390625,-0.6189497709274292,0.10334476083517075,-0.7036700248718262
1763696726615267600,8.096267578125,-0.5783752202987671,0.12005956470966339,-0.7415175437927246
1763696726625218600,8.106218505859376,-0.5537039637565613,0.15166142582893372,-0.7749074101448059
1763696726635169500,8.11616943359375,-0.5378775596618652,0.19036994874477386,-0.7925431728363037
1763696726645120500,8.12612060546875,-0.5255883932113647,0.22746138274669647,-0.8005654215812683
1763696726655071500,8.136071533203125,-0.5165960192680359,0.26723435521125793,-0.7994236946105957
1763696726665022700,8.146022705078124,-0.5176767110824585,0.3214086592197418,-0.784830629825592
1763696726674973400,8.155973388671875,-0.5241836309432983,0.394805908203125,-0.7438211441040039
1763696726684924700,8.165924560546875,-0.5320330262184143,0.4572301208972931,-0.6858417391777039
1763696726694875400,8.17587548828125,-0.5385351181030273,0.4869006872177124,-0.6034477949142456
1763696726704826600,8.18582666015625,-0.5427333116531372,0.4940270185470581,-0.5165664553642273
1763696726714777300,8.19577734375,-0.5512067079544067,0.5036394596099854,-0.4355775713920593
1763696726724728600,8.205728515625,-0.5731064081192017,0.5022897720336914,-0.3619225323200226
1763696726734679600,8.215679443359376,-0.6030051708221436,0.5045891404151917,-0.3165055215358734
1763696726744630500,8.225630615234374,-0.6315612196922302,0.4985109865665436,-0.3060302436351776
1763696726754581500,8.23558154296875,-0.64861661195755,0.46446195244789124,-0.33772289752960205
1763696726764532500,8.245532470703125,-0.6594482064247131,0.40587931871414185,-0.391821026802063
1763696726774483500,8.2554833984375,-0.654975950717926,0.32792407274246216,-0.44137394428253174
1763696726784434400,8.265434326171874,-0.6416740417480469,0.26446279883384705,-0.47394731640815735
1763696726794385400,8.275385498046875,-0.6112833619117737,0.23031149804592133,-0.4911324381828308
1763696726804336600,8.285336669921875,-0.580393373966217,0.2092360407114029,-0.49063920974731445
1763696726814287400,8.295287353515626,-0.5477690696716309,0.19767285883426666,-0.4696931838989258
1763696726824238600,8.305238525390624,-0.5164148807525635,0.1992121785879135,-0.4200785160064697
1763696726834189600,8.315189453125,-0.4859890639781952,0.2080104500055313,-0.32689690589904785
1763696726844140500,8.325140625,-0.45272886753082275,0.23671694099903107,-0.2077910155057907
1763696726854091500,8.335091552734376,-0.42188599705696106,0.25776389241218567,-0.06755267828702927
1763696726864042500,8.34504248046875,-0.4019961655139923,0.26701757311820984,0.07026883959770203
1763696726873993700,8.35499365234375,-0.3961835503578186,0.27300968766212463,0.1924900859594345
1763696726883944400,8.3649443359375,-0.40166008472442627,0.2779613137245178,0.2885681390762329
1763696726893895700,8.374895751953124,-0.411208838224411,0.30297744274139404,0.3423576056957245
1763696726903846400,8.384846435546875,-0.43069547414779663,0.32628756761550903,0.35454049706459045
1763696726913797600,8.394797607421875,-0.4544617831707001,0.33162906765937805,0.32557010650634766
1763696726923748600,8.40474853515625,-0.47533082962036133,0.3100087344646454,0.27475833892822266
1763696726933699600,8.414699462890624,-0.48230141401290894,0.2766196131706238,0.21939387917518616
1763696726943650600,8.424650634765625,-0.4726972281932831,0.2682911157608032,0.1621769219636917
1763696726953601500,8.4346015625,-0.4475242495536804,0.24715758860111237,0.11339260637760162
1763696726963552500,8.444552490234376,-0.4160161316394806,0.2077513337135315,0.08009696751832962
1763696726973503500,8.45450341796875,-0.38823243975639343,0.15282602608203888,0.061103034764528275
1763696726983454500,8.464454345703125,-0.36190706491470337,0.09338267892599106,0.06732870638370514
1763696726993405700,8.47440576171875,-0.3364850878715515,0.045092642307281494,0.09948664158582687
1763696727003356400,8.4843564453125,-0.3171832859516144,0.008760468102991581,0.14024685323238373
1763696727013307600,8.4943076171875,-0.304808646440506,-0.02455754019320011,0.18083183467388153
1763696727023258400,8.50425830078125,-0.3032482862472534,-0.02822098508477211,0.20374193787574768
1763696727033209600,8.514209716796875,-0.3133968114852905,-0.017247164621949196,0.20365458726882935
1763696727043160300,8.524160400390626,-0.3372025191783905,0.002788329729810357,0.1801508665084839
1763696727053111600,8.534111572265624,-0.3665050268173218,0.027706729248166084,0.1352129429578781
1763696727063062500,8.5440625,-0.39267536997795105,0.05787395313382149,0.071952223777771
1763696727073013500,8.554013427734375,-0.39477822184562683,0.10254421830177307,-0.001889246515929699
1763696727082964500,8.563964599609376,-0.37342125177383423,0.15245690941810608,-0.07532111555337906
1763696727092915500,8.57391552734375,-0.3242955207824707,0.19499452412128448,-0.13962075114250183
1763696727102866700,8.58386669921875,-0.23751509189605713,0.23903201520442963,-0.19260087609291077
1763696727112817400,8.5938173828125,-0.11711836606264114,0.2672910988330841,-0.2309538573026657
1763696727122768600,8.6037685546875,0.031248200684785843,0.27943429350852966,-0.2450563609600067
1763696727132719600,8.6137197265625,0.20760086178779602,0.2855241596698761,-0.2325133979320526
1763696727142670600,8.623670654296875,0.3992408812046051,0.28639259934425354,-0.20478536188602448
1763696727152621600,8.63362158203125,0.6000043153762817,0.2787288427352905,-0.1735001504421234
1763696727162572500,8.643572509765624,0.7914749383926392,0.2547321617603302,-0.14642192423343658
1763696727172523500,8.6535234375,0.9497714042663574,0.22323867678642273,-0.13298813998699188
1763696727182474500,8.663474609375,1.073978304862976,0.19906063377857208,-0.14129161834716797
1763696727192425500,8.673425537109376,1.158203363418579,0.1834196299314499,-0.1664435714483261
1763696727202377500,8.68337744140625,1.2155053615570068,0.18136712908744812,-0.20122578740119934
1763696727212327400,8.693327392578125,1.2514889240264893,0.20444847643375397,-0.23001375794410706
1763696727222279400,8.703279541015625,1.2789274454116821,0.2545982003211975,-0.2484300434589386
1763696727232229400,8.7132294921875,1.3044341802597046,0.3113618791103363,-0.25282612442970276
1763696727242181600,8.723181640625,1.3227319717407227,0.3617704510688782,-0.24283261597156525
1763696727252132600,8.733132568359375,1.3379851579666138,0.40723034739494324,-0.22368422150611877
1763696727262083600,8.74308349609375,1.3519515991210938,0.4396412968635559,-0.20280078053474426
1763696727272034600,8.75303466796875,1.3618098497390747,0.4598168730735779,-0.18993185460567474
1763696727281985500,8.762985595703125,1.3687788248062134,0.4629226326942444,-0.1889243870973587
1763696727291936500,8.7729365234375,1.3691694736480713,0.45147424936294556,-0.19463978707790375
1763696727301887500,8.782887451171876,1.36494779586792,0.4400615394115448,-0.20517899096012115
1763696727311838700,8.792838623046874,1.3587535619735718,0.41354310512542725,-0.2165251076221466
1763696727321789400,8.80278955078125,1.3476601839065552,0.3844829499721527,-0.22783581912517548
1763696727331740700,8.81274072265625,1.323238730430603,0.3562193512916565,-0.22844569385051727
1763696727341691400,8.82269140625,1.2870466709136963,0.32135245203971863,-0.2181946486234665
1763696727351642400,8.832642333984374,1.2337650060653687,0.2803901135921478,-0.20215629041194916
1763696727361593600,8.842593505859375,1.1674445867538452,0.22694580256938934,-0.1840215027332306
1763696727371544300,8.85254443359375,1.093092918395996,0.15655632317066193,-0.15845195949077606
1763696727381495600,8.86249560546875,1.0201352834701538,0.08760841190814972,-0.12461090087890625
1763696727391446300,8.8724462890625,0.9404069185256958,0.023068834096193314,-0.0888419896364212
1763696727401397500,8.8823974609375,0.8582497239112854,-0.02424941398203373,-0.0665111169219017
1763696727411348200,8.89234814453125,0.7684202194213867,-0.06437233090400696,-0.0638333112001419
1763696727421299500,8.902299560546876,0.6764400005340576,-0.09590442478656769,-0.0746673122048378
1763696727431250400,8.91225048828125,0.581594705581665,-0.12333045899868011,-0.0912870392203331
1763696727441201400,8.922201416015625,0.4836529493331909,-0.15434083342552185,-0.11324693262577057
1763696727451152400,8.93215234375,0.38352635502815247,-0.197625994682312,-0.13743188977241516
1763696727461103400,8.942103271484376,0.28920838236808777,-0.253108412027359,-0.16688992083072662
1763696727471054300,8.952054443359375,0.20899635553359985,-0.30567124485969543,-0.20059488713741302
1763696727481005300,8.96200537109375,0.13415168225765228,-0.36077257990837097,-0.23565886914730072
1763696727490956300,8.971956298828125,0.054960187524557114,-0.4296472370624542,-0.2745010554790497
1763696727500907500,8.981907470703124,-0.027156520634889603,-0.5090128779411316,-0.3113509714603424
1763696727510858200,8.991858154296875,-0.11268899589776993,-0.5752683281898499,-0.3460990786552429
1763696727520809500,9.0018095703125,-0.20005425810813904,-0.610816478729248,-0.3721224367618561
1763696727530760400,9.011760498046876,-0.2864716947078705,-0.625166118144989,-0.3878481388092041
1763696727540711400,9.02171142578125,-0.36609914898872375,-0.6262804269790649,-0.38625821471214294
1763696727550662400,9.031662353515625,-0.42280450463294983,-0.595116376876831,-0.37016502022743225
1763696727560613400,9.04161328125,-0.4521818459033966,-0.5226560235023499,-0.33424481749534607
1763696727570564600,9.051564697265626,-0.45238372683525085,-0.4222617745399475,-0.28952234983444214
1763696727580515300,9.061515380859374,-0.4312440752983093,-0.316429078578949,-0.25027722120285034
1763696727590466600,9.071466552734375,-0.3962458670139313,-0.21268616616725922,-0.23720669746398926
1763696727600417300,9.081417236328125,-0.34910285472869873,-0.1267177313566208,-0.24392424523830414
1763696727610368500,9.091368408203126,-0.2936883568763733,-0.06760727614164352,-0.268531858921051
1763696727620319500,9.101319580078124,-0.23626179993152618,-0.05547044798731804,-0.29905965924263
1763696727630270500,9.1112705078125,-0.17589832842350006,-0.07406996935606003,-0.331966757774353
1763696727640221400,9.121221435546875,-0.10560046136379242,-0.10764843225479126,-0.3488767743110657
1763696727650172400,9.13117236328125,-0.026643328368663788,-0.13452506065368652,-0.35519883036613464
1763696727660123400,9.141123291015624,0.05830352008342743,-0.13746917247772217,-0.3589717447757721
1763696727670074400,9.151074462890625,0.13126347959041595,-0.12679363787174225,-0.37542662024497986
1763696727680025300,9.161025390625,0.17969679832458496,-0.1157471090555191,-0.3997575342655182
1763696727689976600,9.1709765625,0.2089066058397293,-0.09433449059724808,-0.4227014482021332
1763696727699927300,9.18092724609375,0.22568398714065552,-0.047313984483480453,-0.4291960895061493
1763696727709878500,9.19087841796875,0.23067155480384827,-0.017682058736681938,-0.41529014706611633
1763696727719829200,9.200829345703125,0.21743911504745483,-0.01685674488544464,-0.37503567337989807
1763696727729780500,9.210780517578126,0.18086059391498566,-0.014524081721901894,-0.32291972637176514
1763696727739731200,9.220731201171875,0.12107289582490921,-0.01062414888292551,-0.27599430084228516
1763696727749682400,9.230682373046875,0.05035718157887459,-0.0018045579781755805,-0.2510679066181183
1763696727759633400,9.24063330078125,-0.02959464304149151,0.006518619135022163,-0.26461514830589294
1763696727769584400,9.25058447265625,-0.10592590272426605,-0.008890430442988873,-0.31351372599601746
1763696727779535600,9.26053564453125,-0.15938380360603333,-0.03566505387425423,-0.3749488294124603
1763696727789486300,9.270486328125,-0.18580208718776703,-0.044858019798994064,-0.4356348216533661
1763696727799437600,9.2804375,-0.17323489487171173,-0.041065678000450134,-0.4908437430858612
1763696727809388300,9.29038818359375,-0.13082459568977356,-0.046909451484680176,-0.5340884327888489
1763696727819339500,9.300339599609375,-0.06977615505456924,-0.057493120431900024,-0.5651342272758484
1763696727829290500,9.31029052734375,-0.004336691461503506,-0.052745502442121506,-0.5753799676895142
1763696727839241500,9.320241455078126,0.06172967702150345,-0.03380829840898514,-0.5630239248275757
1763696727849192400,9.3301923828125,0.11842544376850128,-0.02606116235256195,-0.5331839919090271
1763696727859143400,9.340143310546875,0.1685677021741867,-0.018818961456418037,-0.49318280816078186
1763696727869094400,9.350094482421875,0.20913724601268768,-0.01441196259111166,-0.44072332978248596
1763696727879045400,9.36004541015625,0.2508673667907715,-0.005054413340985775,-0.3880481421947479
1763696727888996400,9.369996337890624,0.2860370874404907,-0.009355152025818825,-0.34546977281570435
1763696727898947600,9.379947509765625,0.30936717987060547,-0.024994298815727234,-0.32848042249679565
1763696727908898300,9.389898193359375,0.3215082585811615,-0.053585462272167206,-0.32737255096435547
1763696727918849500,9.399849609375,0.32153087854385376,-0.08402246236801147,-0.32599034905433655
1763696727928800300,9.40980029296875,0.316575825214386,-0.11445893347263336,-0.32798826694488525
1763696727938751500,9.41975146484375,0.3024735748767853,-0.16281315684318542,-0.33300459384918213
1763696727948702200,9.4297021484375,0.2707979381084442,-0.2404501587152481,-0.33640438318252563
1763696727958653400,9.4396533203125,0.2323775738477707,-0.31874069571495056,-0.32964634895324707
1763696727968604400,9.4496044921875,0.18893103301525116,-0.36726510524749756,-0.3079066872596741
1763696727978555400,9.459555419921875,0.15966103971004486,-0.40433523058891296,-0.27026769518852234
1763696727988506400,9.46950634765625,0.1409294307231903,-0.42493319511413574,-0.2222498506307602
1763696727998457300,9.479457275390626,0.12287798523902893,-0.4253712594509125,-0.160176083445549
1763696728008408300,9.489408203125,0.09388228505849838,-0.39857161045074463,-0.08511090278625488
1763696728018359300,9.499359375,0.05048288032412529,-0.3619065582752228,-0.0046964846551418304
1763696728028310300,9.509310302734375,-0.011892079375684261,-0.3171350657939911,0.07228325307369232
1763696728038261500,9.519261474609374,-0.08262590318918228,-0.28363385796546936,0.13574345409870148
1763696728048212500,9.52921240234375,-0.151300311088562,-0.2589963972568512,0.18094448745250702
1763696728058163500,9.53916357421875,-0.20008142292499542,-0.2343405932188034,0.21881969273090363
1763696728068114400,9.549114501953126,-0.23120339214801788,-0.21245767176151276,0.25033289194107056
1763696728078065400,9.5590654296875,-0.24702364206314087,-0.19141682982444763,0.2762531638145447
1763696728088016400,9.569016357421875,-0.240423783659935,-0.1721523255109787,0.29377755522727966
1763696728097967400,9.57896728515625,-0.22215689718723297,-0.14823020994663239,0.2996855080127716
1763696728107918600,9.588918701171876,-0.1953580379486084,-0.10693071037530899,0.29326730966567993
1763696728117869300,9.598869384765624,-0.1652318388223648,-0.07311735302209854,0.27564409375190735
1763696728127820500,9.608820556640625,-0.12759897112846375,-0.06358776241540909,0.24533599615097046
1763696728137771300,9.618771240234375,-0.0807419866323471,-0.06493186205625534,0.20930954813957214
1763696728147722500,9.628722412109376,-0.0208288487046957,-0.06425728648900986,0.18216954171657562
1763696728157673500,9.638673583984374,0.03659342974424362,-0.07749585807323456,0.17339734733104706
1763696728167624400,9.64862451171875,0.09136080741882324,-0.085065096616745,0.18326249718666077
1763696728177575400,9.658575439453125,0.14351162314414978,-0.08887101709842682,0.2013954371213913
1763696728187526400,9.6685263671875,0.18466651439666748,-0.0841098204255104,0.22739534080028534
1763696728197477400,9.678477294921874,0.20669032633304596,-0.07607213407754898,0.2632337510585785
1763696728207428400,9.688428466796875,0.1982496976852417,-0.08176836371421814,0.30224373936653137
1763696728217379300,9.69837939453125,0.16408108174800873,-0.0903695747256279,0.3434559106826782
1763696728227330600,9.70833056640625,0.10672777891159058,-0.1082814633846283,0.3881128430366516
1763696728237281300,9.71828125,0.031192008405923843,-0.13897307217121124,0.4428863525390625
1763696728247232500,9.728232421875,-0.0671478807926178,-0.1872100979089737,0.5161666870117188
1763696728257183200,9.738183349609375,-0.17407752573490143,-0.2217145562171936,0.5981510281562805
1763696728267134500,9.748134521484374,-0.2807035744190216,-0.24727396667003632,0.6767649054527283
1763696728277085200,9.758085205078125,-0.38473889231681824,-0.259306401014328,0.7693917751312256
1763696728287036400,9.768036376953125,-0.47423842549324036,-0.24333356320858002,0.8834757208824158
1763696728296987400,9.7779873046875,-0.5593772530555725,-0.20464769005775452,1.0210425853729248
1763696728306938400,9.7879384765625,-0.6373705863952637,-0.14788134396076202,1.169631004333496
1763696728316889600,9.7978896484375,-0.7098584175109863,-0.06896521896123886,1.3186002969741821
1763696728326840300,9.80784033203125,-0.7724778056144714,0.024033963680267334,1.4467273950576782
1763696728336791600,9.81779150390625,-0.8369212746620178,0.11142559349536896,1.5422754287719727
1763696728346742300,9.8277421875,-0.902885913848877,0.17589139938354492,1.6032525300979614
1763696728356694000,9.837694091796875,-0.9586410522460938,0.20870660245418549,1.6261343955993652
1763696728366645000,9.84764501953125,-0.9919854402542114,0.1927470862865448,1.6198784112930298
1763696728376596000,9.857595947265626,-0.9952746629714966,0.14633937180042267,1.5831717252731323
1763696728386547200,9.867547119140625,-0.9719586968421936,0.07899601757526398,1.5152614116668701
1763696728396498000,9.877497802734375,-0.9312267303466797,0.01193975005298853,1.4183430671691895
1763696728406449200,9.88744921875,-0.8753567934036255,-0.04742797091603279,1.2974097728729248
1763696728416400000,9.89739990234375,-0.8196266889572144,-0.10815177112817764,1.16288423538208
1763696728426351000,9.90735107421875,-0.758746862411499,-0.1681107133626938,1.0204404592514038
1763696728436301800,9.9173017578125,-0.699809193611145,-0.23080365359783173,0.8687878847122192
1763696728446253000,9.927253173828126,-0.6441126465797424,-0.28676706552505493,0.7255612015724182
1763696728456204000,9.9372041015625,-0.5910515785217285,-0.3403887450695038,0.6106966733932495
1763696728466155000,9.947155029296875,-0.5487787127494812,-0.3925746977329254,0.5270973443984985
1763696728476106000,9.95710595703125,-0.516977071762085,-0.43901437520980835,0.4650214910507202
1763696728486057000,9.967056884765626,-0.49987345933914185,-0.47099894285202026,0.41020429134368896
1763696728496008200,9.97700830078125,-0.5046101808547974,-0.4855709671974182,0.36101996898651123
1763696728505959000,9.986958984375,-0.5207606554031372,-0.4760187268257141,0.31362342834472656
1763696728515910100,9.99691015625,-0.5464987754821777,-0.45735636353492737,0.268903911113739
1763696728525861000,10.006861083984376,-0.5731194615364075,-0.43401002883911133,0.22794954478740692
1763696728535812000,10.01681201171875,-0.5946213006973267,-0.40950310230255127,0.187560573220253
1763696728545763000,10.02676318359375,-0.6115408539772034,-0.3916175663471222,0.1511967033147812
1763696728555714000,10.036714111328125,-0.6040065288543701,-0.36535292863845825,0.12973269820213318
1763696728565665000,10.0466650390625,-0.5834746360778809,-0.34261512756347656,0.12276453524827957
1763696728575616000,10.056615966796874,-0.5572550296783447,-0.3277437686920166,0.12363405525684357
1763696728585567000,10.06656689453125,-0.5257604718208313,-0.3093874156475067,0.12040657550096512
1763696728595518200,10.076518310546875,-0.4894181787967682,-0.2875271141529083,0.11294199526309967
1763696728605469000,10.086468994140626,-0.4622877538204193,-0.26608628034591675,0.09904962033033371
1763696728615420200,10.096420166015625,-0.4431273639202118,-0.24846947193145752,0.07333839684724808
1763696728625371000,10.106370849609375,-0.430857390165329,-0.22216542065143585,0.026516295969486237
1763696728635322000,10.116322021484375,-0.42534011602401733,-0.19265227019786835,-0.028313929215073586
1763696728645273000,10.126273193359374,-0.4281500279903412,-0.1556151658296585,-0.08743716776371002
1763696728655224000,10.13622412109375,-0.4278602600097656,-0.1213192343711853,-0.15096820890903473
1763696728665175000,10.146175048828125,-0.4146629571914673,-0.08917061984539032,-0.21283823251724243
1763696728675126000,10.1561259765625,-0.3801422715187073,-0.059116583317518234,-0.2597311735153198
1763696728685077000,10.166076904296874,-0.32565852999687195,-0.031745944172143936,-0.2815142273902893
1763696728695028000,10.176028076171875,-0.2587655186653137,-0.021561751142144203,-0.28104737401008606
1763696728704979000,10.18597900390625,-0.18952305614948273,-0.01125398650765419,-0.27047836780548096
1763696728714930200,10.19593017578125,-0.12071443349123001,0.0035236284602433443,-0.25531086325645447
1763696728724881000,10.205880859375,-0.057861700654029846,0.013933392241597176,-0.23826822638511658
1763696728734832000,10.21583203125,-0.007142331451177597,0.02004588022828102,-0.225722074508667
1763696728744782800,10.225782958984375,0.02894935943186283,0.029343774542212486,-0.2139114886522293
1763696728754734000,10.235734130859376,0.04754035547375679,0.04133998230099678,-0.20273500680923462
1763696728764685000,10.24568505859375,0.04710519313812256,0.05782175436615944,-0.19224373996257782
1763696728774636000,10.255635986328125,0.02834641933441162,0.0774761512875557,-0.17716598510742188
1763696728784587300,10.265587158203125,-0.008311991579830647,0.1021260991692543,-0.15354055166244507
1763696728794538000,10.2755380859375,-0.05313858389854431,0.12415257096290588,-0.1214798241853714
1763696728804489200,10.2854892578125,-0.10651019960641861,0.14350709319114685,-0.08491435647010803
1763696728814440000,10.29543994140625,-0.1661764532327652,0.16134655475616455,-0.05367761105298996
1763696728824391200,10.30539111328125,-0.22080375254154205,0.181693896651268,-0.033793117851018906
1763696728834342000,10.315341796875,-0.26630571484565735,0.200167715549469,-0.03221066668629646
1763696728844293000,10.325293212890625,-0.2942720949649811,0.20705944299697876,-0.044126980006694794
1763696728854244000,10.335244140625,-0.3011380136013031,0.20077864825725555,-0.07280043512582779
1763696728864195000,10.345195068359375,-0.2858240306377411,0.18886445462703705,-0.10679063200950623
1763696728874146000,10.35514599609375,-0.25803741812705994,0.16518495976924896,-0.14805631339550018
1763696728884097000,10.365096923828125,-0.2205105423927307,0.1271510273218155,-0.20136933028697968
1763696728894048000,10.375048095703125,-0.1737704575061798,0.08308103680610657,-0.260505348443985
1763696728903999000,10.3849990234375,-0.12028646469116211,0.05068528279662132,-0.31343966722488403
1763696728913950000,10.394949951171874,-0.05470798537135124,0.019658390432596207,-0.35037240386009216
1763696728923901200,10.404901123046875,0.014308631420135498,-0.00640889722853899,-0.3545253276824951
1763696728933852000,10.414851806640625,0.08805529028177261,-0.016522517427802086,-0.3281041085720062
1763696728943803100,10.42480322265625,0.14995913207530975,-0.005012867972254753,-0.26547694206237793
1763696728953753900,10.43475390625,0.18284864723682404,0.021947376430034637,-0.17452093958854675
1763696728963705000,10.444705078125,0.17636597156524658,0.06824057549238205,-0.060859356075525284
1763696728973656000,10.454656005859375,0.12792494893074036,0.12883521616458893,0.056290969252586365
1763696728983607000,10.46460693359375,0.05308132618665695,0.20204338431358337,0.16921165585517883
1763696728993558000,10.47455810546875,-0.03723205626010895,0.2763144075870514,0.2720557451248169
1763696729003509000,10.484509033203125,-0.1437518447637558,0.33768215775489807,0.35699301958084106
1763696729013460000,10.4944599609375,-0.2371070832014084,0.385951966047287,0.4253678023815155
1763696729023411000,10.504410888671876,-0.3122287392616272,0.40961387753486633,0.464216947555542
1763696729033362200,10.514362060546874,-0.35965269804000854,0.41108715534210205,0.4718562066555023
1763696729043313200,10.524313232421875,-0.38380998373031616,0.3986504375934601,0.4571787416934967
1763696729053264100,10.53426416015625,-0.3870142996311188,0.3624998927116394,0.42618486285209656
1763696729063215000,10.544215087890626,-0.3765326142311096,0.318667471408844,0.38372689485549927
1763696729073166000,10.554166015625,-0.3561088442802429,0.2795831859111786,0.3352768123149872
1763696729083117000,10.564116943359375,-0.3362427353858948,0.24362944066524506,0.28732818365097046
1763696729093068000,10.574068115234375,-0.3279581665992737,0.20778648555278778,0.24543985724449158
1763696729103019000,10.58401904296875,-0.3311041593551636,0.18380552530288696,0.20514196157455444
1763696729112970200,10.59397021484375,-0.3445262312889099,0.1772211194038391,0.17150065302848816
1763696729122921000,10.6039208984375,-0.3646799623966217,0.17970851063728333,0.14288471639156342
1763696729132872200,10.6138720703125,-0.3891671895980835,0.18249310553073883,0.12150219827890396
1763696729142823000,10.623822998046874,-0.4081672430038452,0.18272852897644043,0.10108160972595215
1763696729152774100,10.633774169921875,-0.4255638122558594,0.1732996106147766,0.0808652862906456
1763696729162724900,10.643724853515625,-0.43563351035118103,0.16420918703079224,0.06076427921652794
1763696729172676000,10.653676025390626,-0.43427902460098267,0.16044053435325623,0.04301511123776436
1763696729182627000,10.663626953125,-0.4312528669834137,0.14486317336559296,0.034687940031290054
1763696729192578000,10.673578125,-0.42581307888031006,0.12757207453250885,0.03494147211313248
1763696729202529000,10.683529052734375,-0.42304953932762146,0.11575056612491608,0.04033277556300163
1763696729212480000,10.69347998046875,-0.4299476444721222,0.11171374469995499,0.04939098656177521
1763696729222431000,10.703430908203124,-0.4433702528476715,0.11838044226169586,0.05756315961480141
1763696729232382000,10.7133818359375,-0.4722208082675934,0.13746997714042664,0.059428971260786057
1763696729242333000,10.7233330078125,-0.5158628225326538,0.15210218727588654,0.053286924958229065
1763696729252284200,10.7332841796875,-0.5664887428283691,0.16981805860996246,0.03586772084236145
1763696729262235000,10.74323486328125,-0.6173300743103027,0.19239793717861176,0.0023933828342705965
1763696729272186000,10.75318603515625,-0.6506086587905884,0.2088690549135208,-0.04102306813001633
1763696729282137000,10.76313720703125,-0.6675016283988953,0.23182150721549988,-0.09127132594585419
1763696729292088000,10.773088134765626,-0.6604660749435425,0.2764960527420044,-0.14850372076034546
1763696729302039000,10.7830390625,-0.6333138346672058,0.3129107654094696,-0.20482851564884186
1763696729311990000,10.792989990234375,-0.5775696039199829,0.33720600605010986,-0.268273264169693
1763696729321941200,10.802941162109375,-0.48107022047042847,0.3434492349624634,-0.3421778380870819
1763696729331892000,10.81289208984375,-0.35395461320877075,0.3248539865016937,-0.4229704439640045
1763696729341843200,10.82284326171875,-0.20250117778778076,0.2673073410987854,-0.510845422744751
1763696729351793700,10.832793701171875,-0.03333292156457901,0.16399000585079193,-0.5950367450714111
1763696729361744600,10.84274462890625,0.1413499414920807,0.032461803406476974,-0.6707733273506165
1763696729371695900,10.85269580078125,0.32719382643699646,-0.08908966183662415,-0.7325746417045593
1763696729381646600,10.862646484375,0.4985000789165497,-0.20152033865451813,-0.773994505405426
1763696729391597800,10.872597900390625,0.6255925297737122,-0.2839997708797455,-0.7880544066429138
1763696729401548500,10.882548583984375,0.6998265385627747,-0.32577890157699585,-0.7738767862319946
1763696729411499800,10.892499755859374,0.7262037992477417,-0.31809380650520325,-0.7382271885871887
1763696729421450500,10.902450439453125,0.7203738689422607,-0.27614450454711914,-0.6807617545127869
1763696729431401700,10.912401611328125,0.6881262063980103,-0.20373103022575378,-0.6019260883331299
1763696729441352700,10.922352783203126,0.6325033903121948,-0.09685836732387543,-0.5010897517204285
1763696729451303700,10.9323037109375,0.5633150339126587,0.031508125364780426,-0.3928074836730957
1763696729461254700,10.942254638671875,0.49294525384902954,0.14378619194030762,-0.2745167911052704
1763696729471205600,10.95220556640625,0.43815577030181885,0.22516946494579315,-0.1734604686498642
1763696729481156600,10.962156494140626,0.4126855731010437,0.2885037064552307,-0.10535092651844025
1763696729491107600,10.972107666015624,0.42432039976119995,0.3275624215602875,-0.08459824323654175
1763696729501058600,10.98205859375,0.45539575815200806,0.3311651349067688,-0.10135591775178909
1763696729511009800,10.992009765625,0.5071731805801392,0.3145507574081421,-0.14127670228481293
1763696729520960500,11.00196044921875,0.5774580240249634,0.281238853931427,-0.194938063621521
1763696729530911700,11.011911865234374,0.6665817499160767,0.2274608463048935,-0.2567095458507538
1763696729540862500,11.021862548828125,0.7687960267066956,0.16792668402194977,-0.32433760166168213
1763696729550813700,11.031813720703125,0.8757501840591431,0.11355932056903839,-0.3932724595069885
1763696729560764700,11.0417646484375,0.9718348979949951,0.06196510046720505,-0.4590224325656891
1763696729570715600,11.051715576171874,1.0597474575042725,0.008535430766642094,-0.5211132168769836
1763696729580667000,11.0616669921875,1.1318690776824951,-0.05483954772353172,-0.5765325427055359
1763696729590617600,11.07161767578125,1.1898002624511719,-0.1117803305387497,-0.6222276091575623
1763696729600568800,11.08156884765625,1.2170028686523438,-0.1536409556865692,-0.6567935943603516
1763696729610519600,11.09151953125,1.22236168384552,-0.19398252665996552,-0.6703122854232788
1763696729620470800,11.101470703125,1.2099438905715942,-0.23737767338752747,-0.6576471328735352
1763696729630421800,11.111421875,1.1903150081634521,-0.27850112318992615,-0.6139430403709412
1763696729640372700,11.121372802734374,1.1492458581924438,-0.3103139102458954,-0.5413010716438293
1763696729650323700,11.13132373046875,1.0865817070007324,-0.325843870639801,-0.4448874592781067
1763696729660274700,11.141274658203125,0.9991756677627563,-0.33004873991012573,-0.3412151038646698
1763696729670225700,11.1512255859375,0.8878124356269836,-0.31995776295661926,-0.23367400467395782
1763696729680176600,11.1611767578125,0.7608107924461365,-0.3041265904903412,-0.12753771245479584
1763696729690127600,11.171127685546875,0.6221466660499573,-0.28837400674819946,-0.026270220056176186
1763696729700078800,11.181078857421875,0.47912558913230896,-0.279069185256958,0.057185523211956024
1763696729710029600,11.191029541015626,0.35118040442466736,-0.2757013440132141,0.1181359589099884
1763696729719980800,11.200980712890624,0.24674320220947266,-0.2632034122943878,0.14909760653972626
1763696729729931500,11.210931640625,0.1671663522720337,-0.25539955496788025,0.1616344302892685
1763696729739882800,11.2208828125,0.10401454567909241,-0.26793503761291504,0.17090250551700592
1763696729749833500,11.23083349609375,0.060814615339040756,-0.28634440898895264,0.18170428276062012
1763696729759784700,11.24078466796875,0.04271790385246277,-0.2981078624725342,0.19755302369594574
1763696729769735700,11.250735595703125,0.049374740570783615,-0.2818220853805542,0.21922023594379425
1763696729779686700,11.260686767578125,0.06723549962043762,-0.2504923939704895,0.24017851054668427
1763696729789637600,11.2706376953125,0.09183671325445175,-0.21191518008708954,0.26221218705177307
1763696729799588600,11.280588623046874,0.11654871702194214,-0.15767990052700043,0.2818138301372528
1763696729809539600,11.29053955078125,0.13224804401397705,-0.09741869568824768,0.29856646060943604
1763696729819490600,11.300490478515625,0.14691807329654694,-0.03997884318232536,0.3088228106498718
1763696729829441500,11.310441650390626,0.15624552965164185,0.007157511543482542,0.311726450920105
1763696729839392800,11.320392822265624,0.15618561208248138,0.039196670055389404,0.29943063855171204
1763696729849343700,11.33034375,0.146408349275589,0.06541202962398529,0.27014705538749695
1763696729859294700,11.340294677734375,0.13101181387901306,0.08190738409757614,0.22239366173744202
1763696729869245700,11.35024560546875,0.13226456940174103,0.0991007536649704,0.15749961137771606
1763696729879196700,11.36019677734375,0.15647588670253754,0.12784717977046967,0.08433139324188232
1763696729889147600,11.370147705078125,0.19256359338760376,0.14283038675785065,0.01817048154771328
1763696729899098600,11.3800986328125,0.24335619807243347,0.15932761132717133,-0.03708744794130325
1763696729909049900,11.3900498046875,0.3020954132080078,0.18775978684425354,-0.08511728793382645
1763696729919000600,11.40000048828125,0.3611518144607544,0.22277821600437164,-0.1269691288471222
1763696729928951800,11.409951904296875,0.40343427658081055,0.22575643658638,-0.14123542606830597
1763696729938902500,11.419902587890626,0.4349013864994049,0.2040436714887619,-0.11166740953922272
1763696729948853800,11.429853759765624,0.4488941729068756,0.1912490576505661,-0.06528765708208084
1763696729958804500,11.439804443359375,0.4442528188228607,0.18843169510364532,-0.032645296305418015
1763696729968755700,11.449755615234375,0.4089808464050293,0.1878516525030136,-0.032281506806612015
1763696729978706700,11.459706787109376,0.3540984094142914,0.20200583338737488,-0.06049583479762077
1763696729988657700,11.46965771484375,0.3040131628513336,0.2240072637796402,-0.11189936846494675
1763696729998608600,11.479608642578125,0.27309784293174744,0.2423226237297058,-0.17913992702960968
1763696730008559600,11.4895595703125,0.2777160406112671,0.2505035996437073,-0.25363680720329285
1763696730018510600,11.499510498046876,0.31869009137153625,0.2581564486026764,-0.3267642557621002
1763696730028461600,11.509461669921874,0.39770635962486267,0.26306384801864624,-0.39953941106796265
1763696730038412500,11.51941259765625,0.5020724534988403,0.2587639093399048,-0.46043285727500916
1763696730048363800,11.52936376953125,0.6234731674194336,0.24279800057411194,-0.5050370693206787
1763696730058314500,11.539314453125,0.7501522898674011,0.22419342398643494,-0.523105263710022
1763696730068265700,11.549265625,0.8727263808250427,0.2056463658809662,-0.5139322876930237
1763696730078216400,11.559216552734375,0.9753428101539612,0.1946999728679657,-0.4865773618221283
1763696730088167700,11.569167724609375,1.0501619577407837,0.1743190735578537,-0.45760485529899597
1763696730098118700,11.57911865234375,1.1050413846969604,0.14321307837963104,-0.44496655464172363
1763696730108069600,11.589069580078124,1.136750340461731,0.11941694468259811,-0.4495839476585388
1763696730118020900,11.599020751953125,1.129965901374817,0.0780750960111618,-0.4679083526134491
1763696730127971600,11.6089716796875,1.081031084060669,0.03845338150858879,-0.4963298738002777
1763696730137922800,11.6189228515625,0.9999008774757385,-0.008826248347759247,-0.5403865575790405
1763696730147873500,11.62887353515625,0.9044033885002136,-0.06095442920923233,-0.6003721356391907
1763696730157824800,11.63882470703125,0.800523042678833,-0.11281869560480118,-0.6619385480880737
1763696730167775700,11.648775634765625,0.6969559192657471,-0.16814346611499786,-0.7136041522026062
1763696730177726700,11.658726806640624,0.6039397120475769,-0.2088397592306137,-0.7407734394073486
1763696730187677700,11.668677734375,0.5229007601737976,-0.2520066797733307,-0.7531999945640564
1763696730197628700,11.678628662109375,0.4552130699157715,-0.29738879203796387,-0.7624744772911072
1763696730207579600,11.68857958984375,0.3988696336746216,-0.34901949763298035,-0.7754765748977661
1763696730217530600,11.698530517578124,0.3675537705421448,-0.36691248416900635,-0.7943447828292847
1763696730227481600,11.708481689453125,0.3707785904407501,-0.3598894774913788,-0.8090646266937256
1763696730237432800,11.718432861328125,0.3945603668689728,-0.3578345775604248,-0.7955442667007446
1763696730247383600,11.728383544921876,0.42720165848731995,-0.3901642858982086,-0.7309141159057617
1763696730257334800,11.738334716796874,0.44356438517570496,-0.43605107069015503,-0.6108859777450562
1763696730267285500,11.748285400390625,0.43387049436569214,-0.4503519833087921,-0.4624400734901428
1763696730277236700,11.75823681640625,0.38799139857292175,-0.4383688271045685,-0.30609413981437683
1763696730287187500,11.7681875,0.30016595125198364,-0.4178028404712677,-0.16245895624160767
1763696730297138700,11.778138671875,0.18658478558063507,-0.38450318574905396,-0.048893239349126816
1763696730307089700,11.788089599609375,0.06590977311134338,-0.33381393551826477,0.0238195788115263
1763696730317040600,11.79804052734375,-0.05066131427884102,-0.279291033744812,0.06777984648942947
1763696730326991600,11.80799169921875,-0.15347105264663696,-0.22474709153175354,0.10472720861434937
1763696730336942600,11.817942626953124,-0.24088585376739502,-0.17483359575271606,0.15418849885463715
1763696730346893600,11.8278935546875,-0.30442196130752563,-0.11052197962999344,0.21697944402694702
1763696730356844500,11.837844482421875,-0.3396374583244324,-0.038592930883169174,0.28136828541755676
1763696730366795300,11.847795166015626,-0.3495670557022095,0.02461826056241989,0.33790746331214905
1763696730376746500,11.85774658203125,-0.34463515877723694,0.046358443796634674,0.3796898126602173
1763696730386697500,11.867697509765625,-0.3277810513973236,0.034091658890247345,0.4055626690387726
1763696730396648400,11.8776484375,-0.29499250650405884,0.0022682142443954945,0.4200018048286438
1763696730406599400,11.887599365234376,-0.2560088634490967,-0.03982171416282654,0.4293542802333832
1763696730416550400,11.89755029296875,-0.21541191637516022,-0.0942564606666565,0.4359685182571411
1763696730426501600,11.907501708984375,-0.18315544724464417,-0.16807502508163452,0.44629359245300293
1763696730436452400,11.917452392578125,-0.1688084602355957,-0.2637951672077179,0.46931928396224976
1763696730446403600,11.927403564453124,-0.17602668702602386,-0.33720865845680237,0.5096704363822937
1763696730456354300,11.937354248046875,-0.2147727608680725,-0.39490896463394165,0.5763490796089172
1763696730466305500,11.947305419921875,-0.2878815829753876,-0.4272988736629486,0.6727187633514404
1763696730476256300,11.95725634765625,-0.3892905116081238,-0.44001173973083496,0.7947618365287781
1763696730486206500,11.96720654296875,-0.517038881778717,-0.4379541873931885,0.941589891910553
1763696730496157400,11.977157470703125,-0.6572591066360474,-0.42148199677467346,1.105226993560791
1763696730506108400,11.9871083984375,-0.8096228241920471,-0.39270758628845215,1.266157865524292
1763696730516059400,11.997059326171875,-0.9658017754554749,-0.32513734698295593,1.4052400588989258
1763696730526010600,12.0070107421875,-1.1132676601409912,-0.245744526386261,1.5084706544876099
1763696730535961300,12.01696142578125,-1.2380985021591187,-0.1545775979757309,1.5655517578125
1763696730545912600,12.02691259765625,-1.3368074893951416,-0.062493469566106796,1.5671405792236328
1763696730555863300,12.03686328125,-1.4066801071166992,0.006482666824012995,1.5147203207015991
1763696730565814500,12.046814453125,-1.4540702104568481,0.03743152692914009,1.424696683883667
1763696730575765200,12.05676513671875,-1.4730031490325928,0.02179104834794998,1.2944177389144897
1763696730585716500,12.066716552734375,-1.4643980264663696,-0.015214372426271439,1.1252175569534302
1763696730595667500,12.07666748046875,-1.4280545711517334,-0.0806674137711525,0.9223392605781555
1763696730605618400,12.086618408203124,-1.3517603874206543,-0.15331073105335236,0.6908098459243774
1763696730615569400,12.0965693359375,-1.2378990650177002,-0.23420824110507965,0.43673816323280334
1763696730625520400,12.106520263671875,-1.0967661142349243,-0.3208102285861969,0.180779367685318
1763696730635471400,12.116471435546876,-0.9373993873596191,-0.4036944806575775,-0.0638791173696518
1763696730645422300,12.12642236328125,-0.7781258821487427,-0.4615069031715393,-0.2804207503795624
1763696730655373300,12.136373291015625,-0.6419091820716858,-0.5052546262741089,-0.43484732508659363
1763696730665324500,12.146324462890625,-0.5271021723747253,-0.5422624945640564,-0.5206655859947205
1763696730675275300,12.156275146484376,-0.4240143895149231,-0.5664117336273193,-0.5423120260238647
1763696730685226500,12.1662265625,-0.33579424023628235,-0.5823078751564026,-0.5161206126213074
1763696730695177200,12.17617724609375,-0.2720152735710144,-0.5879228711128235,-0.45661813020706177
1763696730705128400,12.18612841796875,-0.23792573809623718,-0.57928866147995,-0.37489503622055054
1763696730715079400,12.196079345703126,-0.2316364198923111,-0.5607410669326782,-0.27996107935905457
1763696730725030400,12.206030517578125,-0.2518053352832794,-0.5354578495025635,-0.18079055845737457
1763696730734981400,12.2159814453125,-0.28718650341033936,-0.4921787977218628,-0.09186334162950516
1763696730744932400,12.225932373046875,-0.3281877338886261,-0.45019885897636414,-0.016947824507951736
1763696730754883600,12.235883544921874,-0.3682185113430023,-0.4091060161590576,0.05600867420434952
1763696730764834300,12.245834228515625,-0.4017205238342285,-0.3714736998081207,0.12688204646110535
1763696730774785500,12.25578564453125,-0.42374542355537415,-0.32791048288345337,0.19081681966781616
1763696730784736500,12.265736572265626,-0.43400150537490845,-0.2797706723213196,0.24334287643432617
1763696730794687500,12.2756875,-0.43220388889312744,-0.22788242995738983,0.2786862254142761
1763696730804638500,12.285638427734375,-0.4187844693660736,-0.16975148022174835,0.2832202613353729
1763696730814589400,12.29558935546875,-0.39922383427619934,-0.10943754762411118,0.2514934837818146
1763696730824540400,12.30554052734375,-0.3782266676425934,-0.058763448148965836,0.18920214474201202
1763696730834491400,12.315491455078124,-0.3628314733505249,-0.012101936154067516,0.10565665364265442
1763696730844442400,12.3254423828125,-0.3548816442489624,0.020677315071225166,0.012092349119484425
1763696730854393600,12.3353935546875,-0.3359684348106384,0.03334144502878189,-0.08778630942106247
1763696730864344300,12.34534423828125,-0.2899599075317383,0.039576705545186996,-0.19502568244934082
1763696730874295600,12.355295654296874,-0.21724070608615875,0.03255794197320938,-0.3044392466545105
