time,acc_z,acc_y,acc_x,gyr_z,gyr_y,gyr_x,grav_z,grav_y,grav_x,qz,qy,qx,qw,roll,pitch,yaw
2025-11-21 04:22:14.320,15.57459831237793,-2.490097045898437,-17.613574981689453,6.485823631286621,3.041866540908813,1.7274760007858276,0.6701229214668274,9.470837593078612,-2.454498529434204,-0.0226925909519195,0.1506312638521194,0.6656902432441711,0.7305147647857666,1.3042736053466797,-1.3083443641662598,1.1215176582336426
2025-11-21 04:22:14.330,15.965509414672852,-7.272315979003906,-16.402427673339844,5.612311840057373,3.4841201305389404,2.2027151584625244,0.4322753250598907,9.591174125671388,-1.9982244968414309,0.0039901519194245,0.1447429209947586,0.676024854183197,0.7225122451782227,1.3577498197555542,-1.3607800006866455,1.145848274230957
2025-11-21 04:22:14.340,15.210522651672363,-11.79486083984375,-14.452656745910645,4.804771900177002,4.106115341186523,2.5215775966644287,0.1648671776056289,9.673521041870115,-1.601932406425476,0.0299819279462099,0.1435328125953674,0.6862888932228088,0.7123952507972717,1.4682397842407229,-1.4058349132537842,1.2213895320892334
2025-11-21 04:22:14.350,12.700072288513184,-15.166397094726562,-11.40552043914795,4.064272403717041,4.609453201293945,2.549676418304444,-0.1054707467555999,9.72547435760498,-1.2547622919082642,0.0555764697492122,0.1463960707187652,0.6956620812416077,0.7010946869850159,1.654655933380127,-1.442039966583252,1.3674445152282717
2025-11-21 04:22:14.360,9.48389720916748,-17.623519897460938,-7.632493495941162,3.387453556060791,4.858679294586182,2.2198188304901123,-0.3428173363208771,9.754630088806152,-0.9487169981002808,0.080575942993164,0.1522167772054672,0.7030710577964783,0.689948320388794,1.917546033859253,-1.4677494764328003,1.5863786935806274
2025-11-21 04:22:14.370,6.246484756469727,-19.367774963378903,-3.852428436279297,2.7778279781341557,4.791485786437988,1.534448266029358,-0.5112666487693787,9.769639015197754,-0.6805563569068909,0.1044159233570098,0.1595630049705505,0.7075358629226685,0.6804630756378174,2.215096235275269,-1.4838885068893433,1.8392119407653809
2025-11-21 04:22:14.380,3.187528610229492,-20.542348861694336,-0.3616397678852081,2.256164312362671,4.4127607345581055,0.5717530250549316,-0.5839958190917969,9.778964042663574,-0.4485581517219543,0.1264649033546447,0.1668726652860641,0.7084695100784302,0.6739667057991028,2.4866182804107666,-1.4956356287002563,2.0684430599212646
2025-11-21 04:22:14.390,0.9858205914497375,-21.5803165435791,2.198674201965332,1.8615570068359373,3.8432981967926025,-0.5583143830299377,-0.5450074076652527,9.788329124450684,-0.2489101588726043,0.1465216428041458,0.1728974133729934,0.7056161165237427,0.6713745594024658,2.713172435760498,-1.5096619129180908,2.257297277450561
2025-11-21 04:22:14.400,-0.1454631984233856,-22.430370330810547,3.9840846061706543,1.5524682998657229,3.155484199523926,-1.7274760007858276,-0.3903264999389648,9.798555374145508,-0.0796636790037155,0.1644691228866577,0.1768397837877273,0.6990199089050293,0.6730889678001404,2.940262794494629,-1.5301618576049805,2.4526636600494385
2025-11-21 04:22:14.410,-0.5871199369430542,-23.0743408203125,5.143465042114258,1.2446012496948242,2.3503875732421875,-2.7562954425811768,-0.1337933093309402,9.801749603271483,0.0560800656676292,0.1797853112220764,0.1783163100481033,0.6892204880714417,0.678863525390625,-2.744684934616089,-1.5391816864013672,3.0264792442321777
2025-11-21 04:22:14.420,-0.9504290819168092,-23.30847930908203,6.049427509307861,0.8805363178253174,1.5061966180801392,-3.470986843109131,0.1927629709243774,9.801749603271483,0.1540427654981613,0.191894918680191,0.177541121840477,0.6772377490997314,0.6877532601356506,-0.6742105484008789,-1.5391816864013672,-1.202847957611084
2025-11-21 04:22:14.430,-1.061980962753296,-23.058483123779297,6.308043003082275,0.4016320705413818,0.7572978734970093,-3.836273431777954,0.5549370050430298,9.788777351379396,0.2055914103984832,0.2003611028194427,0.175421804189682,0.6640280485153198,0.6986768245697021,-0.3547991812229156,-1.5104118585586548,-0.8929487466812134
2025-11-21 04:22:14.440,-0.641496479511261,-22.948776245117188,5.711413383483887,-0.2531961798667907,0.1806580722332,-3.908353567123413,0.9252992272377014,9.760939598083496,0.1956404447555542,0.2047362029552459,0.1732540130615234,0.6502352952957153,0.7108165621757507,-0.2083659619092941,-1.4742062091827393,-0.750150740146637
2025-11-21 04:22:14.450,0.1427651643753051,-23.002565383911133,4.415971755981445,-1.0755493640899658,-0.1650814712047577,-3.7568633556365967,1.283645510673523,9.721672058105469,0.1083598956465721,0.2048923224210739,0.1725379079580307,0.6362255811691284,0.7235100865364075,-0.0842162892222404,-1.4390547275543213,-0.6257356405258179
2025-11-21 04:22:14.460,0.9449635744094848,-23.29795455932617,2.8416130542755127,-1.95394766330719,-0.2554868757724762,-3.434335947036743,1.6144723892211914,9.672635078430176,-0.0631687715649604,0.19949446618556976,0.1759587228298187,0.6225362420082092,0.7357386350631714,0.039498295634984984,-1.4058416485786438,-0.4998689442873001
2025-11-21 04:22:14.470,1.3658196926116943,-23.62774658203125,1.4555680751800537,-2.7614877223968506,-0.1809635013341903,-2.9835307598114014,1.88058340549469,9.610363483428955,-0.3462374247610569,0.1940966099500656,0.1793795377016067,0.60884690284729,0.7479671835899353,0.1632128804922104,-1.3726285696029663,-0.3740022480487823
2025-11-21 04:22:14.480,1.4204692840576172,-23.970701217651367,0.4027391076087951,-3.428532838821411,-0.1088835224509239,-2.4508719444274902,2.1466944217681885,9.548091888427734,-0.6293060779571533,0.1839873492717743,0.1869076788425445,0.5963342785835266,0.7586827874183655,0.2851616740226745,-1.3406561613082886,-0.2491894513368606
2025-11-21 04:22:14.490,1.1592998504638672,-24.310943603515625,-0.1641943454742431,-3.9648568630218506,-0.1540862172842025,-1.9340951442718504,2.3409793376922607,9.471134185791016,-0.9938809275627136,0.16821859776973722,0.1966836700836817,0.5856359799702963,0.7674486835797628,0.3906899690628051,-1.3062456846237183,-0.13610345125198364
2025-11-21 04:22:14.500,0.721670389175415,-24.30537796020508,-0.7421753406524658,-4.3838982582092285,-0.3348970115184784,-1.5417784452438354,2.5007107257843018,9.379655838012695,-1.3924453258514404,0.15244984626770017,0.20645966132481888,0.5749376813570658,0.77621457974116,0.4962182641029358,-1.271835207939148,-0.023017451167106656
2025-11-21 04:22:14.510,0.1960875391960144,-23.133297443389893,-0.891932487487793,-4.904340028762817,-0.6662816554307938,-1.4415995180606842,2.686563551425934,9.20578122138977,-1.9485149383544922,0.1366810947656631,0.2162356525659561,0.5642393827438354,0.7849804759025574,0.6017465591430664,-1.2374247312545776,0.0900685489177703
2025-11-21 04:22:14.520,-0.32949531078338623,-21.961216926574707,-1.0416896343231201,-5.424781799316406,-0.9976662993431091,-1.341420590877533,2.872416377067566,9.031906604766846,-2.504584550857544,0.10347488522529599,0.2313262745738029,0.5477015674114227,0.7972346246242523,0.7152010202407837,-1.171314299106598,0.22727220505475992
2025-11-21 04:22:14.530,-0.1314566135406494,-20.15166282653809,-2.0133445262908936,-6.11519193649292,-1.466338872909546,-1.40617036819458,3.12717866897583,8.712578773498535,-3.2376081943511963,0.064318336546421,0.2459636479616165,0.5292071104049683,0.8095090389251709,0.8027465343475342,-1.0939260721206665,0.3472379446029663
2025-11-21 04:22:14.540,1.1139585971832275,-18.99050521850586,-3.978002786636353,-6.430388927459717,-1.6532580852508545,-1.4025052785873413,3.3132309913635254,8.438149452209473,-3.740391492843628,0.0349510163068771,0.2554382085800171,0.5155808329582214,0.8171328902244568,0.8458833694458008,-1.0361555814743042,0.4168036878108978
2025-11-21 04:22:14.550,3.123345136642456,-17.710880279541016,-6.846429824829102,-6.539119720458984,-1.637376070022583,-1.3316470384597778,3.4993693828582764,8.122586250305176,-4.236554145812988,0.0044732876121997,0.2649755179882049,0.5013679265975952,0.8236492872238159,0.8804049491882324,-0.976019024848938,0.4791662395000458
2025-11-21 04:22:14.560,5.344635486602783,-16.024944305419922,-9.716226577758787,-6.414506912231445,-1.4052541255950928,-1.170383334159851,3.668521404266357,7.779311656951904,-4.71112060546875,-0.0256211478263139,0.2748591303825378,0.4872472882270813,0.8284842371940613,0.9091825485229492,-0.9161592721939088,0.5347605347633362
2025-11-21 04:22:14.570,7.254406452178955,-13.866144180297852,-11.702350616455078,-6.083427906036377,-1.0886825323104858,-0.911384105682373,3.806763648986816,7.427309036254883,-5.149176120758057,-0.054193876683712,0.2848871946334839,0.4740763008594513,0.8313567042350769,0.934181272983551,-0.8592832088470459,0.5843572616577148
2025-11-21 04:22:14.580,8.410665512084961,-11.418329238891602,-12.321111679077148,-5.733870506286621,-0.9396358132362366,-0.5949652194976807,3.915992975234986,7.078823089599609,-5.543072700500488,-0.0813592821359634,0.2943039536476135,0.4623041152954101,0.8324906826019287,0.9557437896728516,-0.8064560294151306,0.629737913608551
2025-11-21 04:22:14.590,8.144869804382324,-8.225851058959961,-11.575258255004885,-5.698441505432129,-1.2059651613235474,-0.3616215884685516,4.022314548492432,6.723537921905518,-5.897914886474609,-0.1087828502058982,0.3022124469280243,0.4512057900428772,0.8326147198677063,0.9722606539726256,-0.7554414868354797,0.6731759309768677
2025-11-21 04:22:14.600,7.210224151611328,-3.329864501953125,-10.81666374206543,-6.134738922119141,-1.9098140001297,-0.3872771561145782,4.16776180267334,6.330520153045654,-6.222914695739746,-0.1386749744415283,0.3079539537429809,0.4389392435550689,0.8326259255409241,0.9806661009788512,-0.7017214894294739,0.7159695625305176
2025-11-21 04:22:14.610,6.926810264587402,3.235931396484375,-12.167058944702148,-6.901963233947754,-2.7613351345062256,-0.6975875496864319,4.380153179168701,5.868265151977539,-6.522891044616699,-0.172099620103836,0.311763733625412,0.4236480891704559,0.8328909873962402,0.979451596736908,-0.6414982080459595,0.7580606937408447
2025-11-21 04:22:14.620,8.171919822692871,8.829266548156738,-17.46645164489746,-7.528692245483398,-3.494351863861084,-1.1202938556671145,4.658939838409424,5.332961082458496,-6.784112453460693,-0.208353042602539,0.3139176368713379,0.4048652648925781,0.833143949508667,0.96902334690094,-0.5749713182449341,0.7988956570625305
2025-11-21 04:22:14.630,12.731816291809082,11.550206184387209,-26.22262382507324,-7.477381229400635,-3.563988447189331,-1.4428212642669678,4.956953525543213,4.763865947723389,-6.993180751800537,-0.2440265715122223,0.3156313002109527,0.3842428922653198,0.8325775265693665,0.9541709423065186,-0.5072543025016785,0.8366150259971619
2025-11-21 04:22:14.640,17.705184936523438,14.12176513671875,-36.27158737182617,-6.801784038543701,-3.0044522285461426,-1.462368369102478,5.211985111236572,4.2213969230651855,-7.154397487640381,-0.275822103023529,0.3180760145187378,0.3648155331611633,0.8304573893547058,0.9411972165107728,-0.4450053572654724,0.8705249428749084
2025-11-21 04:22:14.650,20.667251586914062,17.844112396240234,-42.86474990844727,-5.648351669311523,-2.172478199005127,-1.1532796621322632,5.389243125915527,3.768843173980713,-7.274769306182861,-0.3012076020240783,0.3212418854236603,0.3493261039257049,0.8270725011825562,0.9332008957862854,-0.3944657742977142,0.8991438150405884
2025-11-21 04:22:14.660,20.833572387695312,20.855451583862305,-44.18143081665039,-4.270280361175537,-1.384485363960266,-0.5925218462944031,5.4862060546875,3.44482421875,-7.362411975860596,-0.3197337388992309,0.3242399096488952,0.3393373191356659,0.8230972290039062,0.93039733171463,-0.3589318096637726,0.922644317150116
2025-11-21 04:22:14.670,18.58340835571289,22.351625442504883,-39.55139923095703,-2.9093127250671387,-0.7233958840370178,0.0415376126766204,5.515922546386719,3.256749153137207,-7.425535202026367,-0.3318169414997101,0.326482206583023,0.3349262475967407,0.8192260265350342,0.9318987727165222,-0.338524729013443,0.9411430954933168
2025-11-21 04:22:14.680,14.764851570129396,22.537487030029297,-31.412073135375977,-1.879424333572388,-0.1809635013341903,0.6084038615226746,5.49245023727417,3.178224802017212,-7.476781368255615,-0.3390487134456634,0.3281198441982269,0.335112452507019,0.8155261874198914,0.9372237920761108,-0.3300483226776123,0.9562193751335144
2025-11-21 04:22:14.690,10.19775390625,21.64306640625,-21.763885498046875,-1.362647533416748,0.181879773736,1.0811996459960938,5.432239532470703,3.1660826206207275,-7.525761127471924,-0.3438052833080292,0.3294018507003784,0.3384187817573547,0.8116434216499329,0.9455761313438416,-0.3287397623062134,0.9706229567527772
2025-11-21 04:22:14.700,5.606921195983887,20.267072677612305,-12.467010498046877,-1.3345485925674438,0.2808370292186737,1.4513731002807615,5.356389999389648,3.177925109863281,-7.574976444244385,-0.3483999371528625,0.3302777409553528,0.3432444036006927,0.8072901368141174,0.9553101658821106,-0.330016016960144,0.9868097305297852
2025-11-21 04:22:14.710,1.8596034049987795,18.38167953491211,-5.471340179443359,-1.595991134643555,0.0829225182533264,1.715259075164795,5.288449764251709,3.184049129486084,-7.6200079917907715,-0.3545411825180053,0.3302958309650421,0.3482366800308227,0.8024564981460571,0.9640939831733704,-0.3306761384010315,1.00622820854187
2025-11-21 04:22:14.720,-0.4797663688659668,16.02379035949707,-1.2188377380371094,-1.815896153450012,-0.2457133084535598,1.8814095258712769,5.240841865539551,3.179288864135742,-7.6548075675964355,-0.3623904883861542,0.3290892243385315,0.3528338372707367,0.797421932220459,0.9704488515853882,-0.3301630318164825,1.0283350944519043
2025-11-21 04:22:14.730,-1.5705633163452148,13.461875915527344,0.9275484085083008,-1.7914623022079468,-0.4778352677822113,1.9559329748153689,5.209526538848877,3.175137996673584,-7.677872180938721,-0.3708744943141937,0.3267924785614013,0.3572040796279907,0.7925049066543579,0.974638044834137,-0.3297155797481537,1.0512843132019043
2025-11-21 04:22:14.740,-2.425118923187256,11.10561180114746,1.844374179840088,-1.5862176418304443,-0.6097782850265503,1.9644848108291624,5.188103199005127,3.181668281555176,-7.689665794372559,-0.379070371389389,0.3236332833766937,0.3615824282169342,0.7879246473312378,0.9772629737854004,-0.3304194509983063,1.0736418962478638
2025-11-21 04:22:14.750,-3.5071465969085693,9.325247764587402,2.7617197036743164,-1.3357702493667605,-0.7258392572402954,1.9314990043640137,5.175745487213135,3.2018518447875977,-7.689615249633789,-0.3866257071495056,0.319677472114563,0.365946352481842,0.7838431596755981,0.978365123271942,-0.3325961828231811,1.0946868658065796
2025-11-21 04:22:14.760,-5.173848867416382,7.362044811248779,4.686282396316528,-0.9851438999176024,-0.862669050693512,1.8795769810676575,5.171621561050415,3.260084867477417,-7.6678466796875,-0.3965457081794739,0.3123420476913452,0.3724931329488754,0.7787289619445801,0.9774202108383179,-0.33888667821884155,1.1234367489814758
2025-11-21 04:22:14.770,-6.803303241729736,5.458945274353027,6.879407405853272,-0.7065975666046143,-0.9530744552612304,1.9217255115509035,5.173651695251465,3.34633469581604,-7.629269599914551,-0.4053477644920349,0.3037720322608948,0.3793939054012298,0.7742583751678467,0.9748981595039368,-0.348226398229599,1.1505393981933594
2025-11-21 04:22:14.780,-7.826784133911133,4.149476051330566,8.39310359954834,-0.5928272604942322,-0.9750649333000184,2.0817675590515137,5.170432090759277,3.4237313270568848,-7.597043991088867,-0.4109885990619659,0.2972219288349151,0.3847602605819702,0.7711725234985352,0.9732199907302856,-0.3566355109214782,1.169427752494812
2025-11-21 04:22:14.790,-9.000972747802734,3.016244411468506,10.01690673828125,-0.5268557667732239,-0.9579612016677856,2.3786392211914062,5.153959274291992,3.520076036453247,-7.564136505126953,-0.4166995584964752,0.2900332808494568,0.3912824094295501,0.767554759979248,0.9726849794387816,-0.3671404123306274,1.1904298067092896
2025-11-21 04:22:14.800,-10.048643112182615,1.836961030960083,11.297789573669434,-0.4865398406982422,-0.8968765139579773,2.814784049987793,5.115057945251465,3.6395914554595943,-7.5339202880859375,-0.4227368235588074,0.2820988297462463,0.3995308578014374,0.7629475593566895,0.9743468761444092,-0.380231112241745,1.2151390314102173
2025-11-21 04:22:14.810,-10.72967529296875,0.326836347579956,11.77899169921875,-0.4584408700466156,-0.8309049606323242,3.308348655700684,5.049651145935059,3.781928062438965,-7.507891178131103,-0.4294371902942657,0.2732409238815307,0.4097301959991455,0.7569968700408936,0.9787116050720216,-0.3959114849567413,1.2448800802230835
2025-11-21 04:22:14.820,-11.23813819885254,-0.9406156539916992,11.590412139892578,-0.4425588250160217,-0.7502731680870056,3.673788070678711,4.959002494812012,3.93865180015564,-7.487703323364258,-0.4363753199577331,0.2638978958129883,0.4213302135467529,0.7499435544013977,0.9858325123786926,-0.4132967889308929,1.2782435417175293
2025-11-21 04:22:14.830,-11.38381290435791,-1.9206702709198,11.093717575073242,-0.4425588250160217,-0.5975613594055176,3.806952714920044,4.845744609832764,4.0963969230651855,-7.477210521697998,-0.4431365132331848,0.2548036277294159,0.4336022436618805,0.7420877814292908,0.9957801699638368,-0.4309303760528564,1.3134597539901731
2025-11-21 04:22:14.840,-11.319185256958008,-3.02408504486084,10.46803855895996,-0.4193466305732727,-0.3336753249168396,3.714103937149048,4.7110772132873535,4.244816303253174,-7.480485916137695,-0.4491432607173919,0.2467797100543975,0.4459839463233948,0.7338040471076965,1.008765459060669,-0.4476527273654938,1.3485100269317627
2025-11-21 04:22:14.850,-11.137554168701172,-3.8838300704956055,9.849124908447266,-0.3399364948272705,0.0377198196947574,3.408527612686157,4.556873798370361,4.378304481506348,-7.499048709869385,-0.4536917805671692,0.2405350804328918,0.4580469131469726,0.7256029844284058,1.0247633457183838,-0.4628084003925323,1.3811124563217163
2025-11-21 04:22:14.860,-11.098655700683594,-4.252256393432617,9.49823760986328,-0.2043284028768539,0.4665345847606659,2.892972707748413,4.388810157775879,4.493391036987305,-7.531147003173828,-0.4562761187553406,0.2365140467882156,0.4693549573421478,0.7180383801460266,1.0431538820266724,-0.4759671688079834,1.4091708660125732
2025-11-21 04:22:14.870,-11.279850006103516,-4.005330562591553,9.743846893310549,-0.046729814261198,0.8965710401535034,2.2198188304901123,4.214772701263428,4.588282108306885,-7.573225975036621,-0.4563697576522827,0.2351017743349075,0.4794096052646637,0.711772620677948,1.0629489421844482,-0.4868843853473663,1.4302722215652466
2025-11-21 04:22:14.880,-11.396885871887209,-3.5340559482574463,10.293638229370115,0.1401894390583038,1.2410888671875,1.4953540563583374,4.044783592224121,4.665964603424072,-7.618325233459473,-0.4540304541587829,0.235999122262001,0.4879322052001953,0.7071654200553894,1.0827133655548096,-0.4958688020706177,1.4436203241348269
2025-11-21 04:22:14.890,-11.122968673706056,-3.293756484985352,10.7567777633667,0.3796415627002716,1.476875901222229,0.8087617754936218,3.886977195739746,4.733610153198242,-7.658638477325439,-0.4494264423847198,0.2386094182729721,0.49485844373703,0.7044121623039246,1.1011440753936768,-0.5037279725074768,1.449163794517517
2025-11-21 04:22:14.900,-10.630034446716309,-2.871790170669556,10.917509078979492,0.6533011198043823,1.5550644397735596,0.2089097648859024,3.750110626220703,4.799219131469727,-7.685997486114502,-0.4429722726345062,0.2420591115951538,0.5002049207687378,0.7035467028617859,1.11686372756958,-0.5113833546638489,1.4476263523101809
2025-11-21 04:22:14.910,-10.058317184448242,-2.19134521484375,10.797364234924316,0.944064438343048,1.5061966180801392,-0.2980934679508209,3.640201330184937,4.869205474853516,-7.694813251495361,-0.4349381923675537,0.2456915378570556,0.5040208697319031,0.7045760154724121,1.1289221048355105,-0.519585907459259,1.4395672082901
2025-11-21 04:22:14.920,-9.569244384765623,-1.0447773933410645,10.387945175170898,1.2189457416534424,1.4438902139663696,-0.7427902817726135,3.5558435916900635,4.946053504943848,-7.685239791870117,-0.4254235029220581,0.2493408322334289,0.5064894556999207,0.707327663898468,1.1374439001083374,-0.5286372900009155,1.425564527511597
2025-11-21 04:22:14.930,-8.697739601135254,0.5820341110229492,9.304849624633787,1.4400724172592163,1.4255647659301758,-1.1080769300460815,3.491166114807129,5.028834819793701,-7.661133289337158,-0.4145988523960113,0.2530698776245117,0.5078933835029602,0.7114124894142151,1.1432137489318848,-0.5384412407875061,1.4066321849822998
2025-11-21 04:22:14.940,-7.310836315155029,2.700125217437744,7.510801792144775,1.573237061500549,1.4744325876235962,-1.3621894121170044,3.4371120929718018,5.114710807800293,-7.628655433654785,-0.4027187824249267,0.2570634484291076,0.5086004734039307,0.7162831425666809,1.1474827527999878,-0.5486727952957153,1.3841984272003174
2025-11-21 04:22:14.950,-5.571470260620117,5.167091369628906,4.8926520347595215,1.6526472568511963,1.585606813430786,-1.4904673099517822,3.3836376667022705,5.203375816345215,-7.592513084411621,-0.3899790644645691,0.2614131867885589,0.5090634822845459,0.7214109897613525,1.151561975479126,-0.5593043565750122,1.3597760200500488
2025-11-21 04:22:14.960,-3.7748501300811768,7.65189790725708,1.4322237968444824,1.7870336771011353,1.7627525329589844,-1.433047652244568,3.31674861907959,5.303796768188477,-7.552437782287598,-0.3763561844825744,0.2658584415912628,0.5101099610328674,0.7262665629386902,1.1569912433624268,-0.5714315176010132,1.3352620601654053
2025-11-21 04:22:14.970,-2.7925493717193604,10.098363876342772,-1.730952262878418,2.088792085647583,1.9741055965423584,-1.0408837795257568,3.2158021926879883,5.438780784606934,-7.499910831451416,-0.3617889881134033,0.2693895101547241,0.5132923126220703,0.7301157712936401,1.1657294034957886,-0.5878837704658508,1.314079761505127
2025-11-21 04:22:14.980,-2.6400554180145264,12.863109588623049,-3.995714664459229,2.5408191680908203,2.239213228225708,-0.2919849753379822,3.056809425354004,5.630151271820068,-7.424802780151367,-0.345734030008316,0.2713846266269684,0.5200927257537842,0.7323399782180786,1.1802424192428589,-0.6115236282348633,1.2988312244415283
2025-11-21 04:22:14.990,-3.9206990003585815,19.189851760864258,-7.705403804779053,3.1425037384033203,2.260593056678772,0.5662554204463959,2.739314198493958,6.010732650756836,-7.245868682861328,-0.31883464753627777,0.270929679274559,0.5356305241584778,0.7334350645542145,1.2094821333885193,-0.6598755419254303,1.285000205039978
2025-11-21 04:22:15.000,-4.296430587768555,24.57408905029297,-14.481579780578612,3.5474953651428223,1.5831633806228638,0.4947862923145294,2.4694695472717285,6.419679164886475,-6.989980220794678,-0.2920777201652527,0.2659118771553039,0.5508021116256714,0.7352540493011475,1.2311961650848389,-0.7136865854263306,1.271882176399231
2025-11-21 04:22:15.010,-0.7817000150680542,25.42636108398437,-21.16217994689941,3.964093208312988,1.2936217784881592,-0.0452026985585689,2.366305351257324,6.689481258392334,-6.769181728363037,-0.2738999128341675,0.2602419257164001,0.5582348704338074,0.7386655807495117,1.2345043420791626,-0.7506815791130066,1.255566120147705
2025-11-21 04:22:15.020,3.4305217266082764,25.44712448120117,-27.08344078063965,4.658015727996826,1.335159420967102,-0.5155550837516785,2.3025405406951904,6.972396373748779,-6.50033712387085,-0.25358846783638,0.2532111406326294,0.5643467307090759,0.7437000870704651,1.2303682565689087,-0.7909001708030701,1.230945110321045
2025-11-21 04:22:15.030,6.920999050140381,24.15262031555176,-31.10584259033203,5.541453838348389,1.4903146028518677,-0.6096255779266357,2.248876571655273,7.283602237701416,-6.16944694519043,-0.2306080609560012,0.2441397756338119,0.5707319378852844,0.7493201494216919,1.2212464809417725,-0.8371243476867676,1.2007453441619873
2025-11-21 04:22:15.040,10.07317352294922,21.36254119873047,-32.2795295715332,6.412521839141846,1.657686710357666,-0.3005368411540985,2.179528951644897,7.624428749084473,-5.769585609436035,-0.2051502019166946,0.2326106578111648,0.5785907506942749,0.7543463706970215,1.209606647491455,-0.8906415700912476,1.1684094667434692
2025-11-21 04:22:15.050,12.2553071975708,17.985225677490234,-30.833152770996094,7.057576656341553,1.792073130607605,0.2455606013536453,2.077999353408813,7.980655670166016,-5.306735038757324,-0.177914947271347,0.2189113497734069,0.5883275866508484,0.7578223943710327,1.1975716352462769,-0.9506620168685912,1.136681318283081
2025-11-21 04:22:15.060,13.025877952575684,14.258440971374512,-27.648393630981445,7.337344646453857,1.8665964603424072,0.8612946271896362,1.9376380443573,8.329038619995117,-4.800320148468018,-0.150056704878807,0.2038632035255432,0.5997064113616943,0.7591277956962585,1.1871494054794312,-1.014706254005432,1.1079957485198977
2025-11-21 04:22:15.070,13.280811309814451,9.740452766418455,-24.022686004638672,7.202958106994629,1.9240161180496216,1.4403778314590454,1.7586016654968262,8.645675659179688,-4.281354904174805,-0.1230020225048065,0.1886467635631561,0.6121671795845032,0.7579803466796875,1.1810500621795654,-1.0792700052261353,1.0853018760681152
2025-11-21 04:22:15.080,13.124588012695312,5.050073623657227,-20.456693649291992,6.728940486907959,2.0327470302581787,1.9449377059936523,1.5414639711380005,8.916397094726562,-3.78049373626709,-0.0975392684340477,0.1746725738048553,0.6252173185348511,0.7543731927871704,1.1836341619491575,-1.141405463218689,1.071929931640625
2025-11-21 04:22:15.090,12.22489070892334,0.8236351013183594,-17.211502075195312,6.057008743286133,2.2111144065856934,2.3676440715789795,1.287160038948059,9.13780689239502,-3.3187484741210938,-0.0739435851573944,0.1629913300275802,0.6385976076126099,0.7484378814697266,1.2008119821548462,-1.1993322372436523,1.0725878477096558
2025-11-21 04:22:15.100,10.882574081420898,-3.1315226554870605,-14.535944938659668,5.341095924377441,2.478665351867676,2.692614793777466,0.9997618794441224,9.313127517700195,-2.904571294784546,-0.0520449392497539,0.1541664451360702,0.6521188616752625,0.7404491901397705,1.2392951250076294,-1.2521954774856567,1.092890739440918
2025-11-21 04:22:15.110,9.418830871582031,-7.006173133850098,-12.387285232543944,4.686267375946045,2.8329567909240723,2.886864185333252,0.6887471675872803,9.44810390472412,-2.5356192588806152,-0.0312362443655729,0.1484490782022476,0.6654671430587769,0.7308492660522461,1.3055667877197266,-1.299552321434021,1.138070821762085
2025-11-21 04:22:15.120,7.679537773132324,-10.677972793579102,-10.30542278289795,4.116805076599121,3.201908588409424,2.9174065589904785,0.3691314160823822,9.548602104187012,-2.2041611671447754,-0.0110049750655889,0.1456764787435531,0.6782019734382629,0.7202078700065613,1.404866099357605,-1.3408843278884888,1.212851643562317
2025-11-21 04:22:15.130,6.161140441894531,-14.048986434936523,-8.367755889892578,3.6354575157165527,3.567195177078247,2.75003433227539,0.061064526438713,9.62031364440918,-1.9016335010528564,0.0091931167989969,0.1456431895494461,0.6896917223930359,0.7092453241348267,1.5386959314346311,-1.375545859336853,1.3182305097579956
2025-11-21 04:22:15.140,4.833911418914795,-17.074504852294922,-6.422471046447754,3.220081329345703,3.9178216457366943,2.3908562660217285,-0.2153613269329071,9.669286727905272,-1.6213895082473757,0.0297098420560359,0.1480599641799926,0.699327290058136,0.6986680030822754,1.7028491497039795,-1.403226017951965,1.4498857259750366
2025-11-21 04:22:15.150,3.618692636489868,-19.843521118164062,-4.137471675872803,2.812035322189331,4.2710442543029785,1.8618624210357664,-0.4425006210803985,9.701499938964844,-1.3621597290039062,0.0508197732269763,0.1528905183076858,0.7065308094024658,0.689098060131073,1.8848949670791624,-1.4242255687713623,1.5950158834457395
2025-11-21 04:22:15.160,2.6306629180908203,-22.151323318481445,-1.4820822477340698,2.386885643005371,4.701080322265625,1.1520578861236572,-0.6024376749992371,9.723230361938477,-1.1252750158309937,0.0729669108986854,0.1603560149669647,0.710634708404541,0.6811461448669434,2.0623364448547363,-1.4402704238891602,1.7301387786865234
2025-11-21 04:22:15.170,1.7114686965942385,-23.938213348388672,1.4417593479156494,1.8481184244155884,5.164102554321289,0.2492256760597229,-0.6759507656097412,9.739717483520508,-0.9226999878883362,0.0961080715060234,0.1707808673381805,0.710843026638031,0.6754993200302124,2.203054428100586,-1.4538947343826294,1.8226817846298216
2025-11-21 04:22:15.180,0.3627576828002929,-25.058786392211918,4.255253791809082,1.0650122165679932,5.368125915527344,-0.8527427911758423,-0.6430038213729858,9.754125595092772,-0.783568799495697,0.1187321990728378,0.1839421540498733,0.7063634991645813,0.673140823841095,2.257978677749634,-1.4672505855560305,1.82600736618042
2025-11-21 04:22:15.190,-1.2943514585494995,-25.775001525878903,7.418412208557129,0.0204633828252553,5.022386074066162,-2.1246795654296875,-0.4869179129600525,9.766473770141602,-0.7411506772041321,0.1383088529109954,0.198642686009407,0.696682870388031,0.6753108501434326,2.1520607471466064,-1.4802454710006714,1.6704082489013672
2025-11-21 04:22:15.200,-2.0687038898468018,-26.2963924407959,9.590764045715332,-1.09387469291687,4.28692626953125,-3.3769164085388184,-0.2087495774030685,9.77080535888672,-0.8112680912017822,0.1531682312488556,0.2136218249797821,0.6819156408309937,0.6825659275054932,1.8226447105407717,-1.485270857810974,1.2974348068237305
2025-11-21 04:22:15.210,-1.6557412147521973,-27.363704681396484,9.439857482910156,-2.0956642627716064,3.412039995193481,-4.320064544677734,0.1635492593050003,9.755139350891112,-0.9904056787490844,0.1626317501068115,0.228081464767456,0.6630536317825317,0.6941826939582825,1.407138705253601,-1.4682554006576538,0.8465481400489807
2025-11-21 04:22:15.220,0.4090075194835663,-28.929063568115236,6.5189597606658936,-3.120055079460144,2.3125150203704834,-4.8728814125061035,0.8086549639701843,9.665441036224365,-1.4207844734191895,0.16721050441265106,0.2481177821755409,0.6301074326038361,0.7163865864276886,1.0639531016349792,-1.4028589129447937,0.4655568599700928
2025-11-21 04:22:15.230,2.251384258270264,-28.929063568115236,3.4515938758850098,-3.718074560165405,1.5220786333084106,-4.817294120788574,1.4616235494613647,9.499205589294434,-1.9491382837295528,0.1649518013000488,0.2670236229896545,0.5951271653175354,0.739806056022644,0.9273709058761596,-1.319735407829285,0.3014527261257171
2025-11-21 04:22:15.240,2.775536060333252,-28.929063568115236,2.278364896774292,-3.934314489364624,1.0627214908599854,-4.563181877136231,1.8725873231887815,9.339381217956545,-2.3323276042938232,0.1591424494981765,0.2780482172966003,0.5720260739326477,0.7550821304321289,0.8942996859550476,-1.2608562707901,0.2578309774398803
2025-11-21 04:22:15.250,2.8852579593658447,-27.88764190673828,2.039080619812012,-4.121233940124512,0.5874823331832886,-4.191786766052246,2.252476930618286,9.148028373718262,-2.722184896469116,0.1505759209394455,0.2879368364810943,0.5497708916664124,0.7695266604423523,0.8795392513275146,-1.2022150754928589,0.2377482801675796
2025-11-21 04:22:15.260,2.571615219116211,-25.77572631835937,2.241554975509644,-4.42299222946167,0.1122431829571724,-3.693335294723511,2.591965913772583,8.92798900604248,-3.121396541595459,0.1387264430522918,0.2969881296157837,0.5288143157958984,0.7828847169876099,0.8777996301651001,-1.144253492355347,0.2363829612731933
2025-11-21 04:22:15.270,2.1673736572265625,-23.542673110961918,2.18436861038208,-4.9018964767456055,-0.2872509360313415,-3.076379537582397,2.8823401927948,8.678733825683594,-3.541479110717773,0.1229147911071777,0.3059212565422058,0.5093660354614258,0.7948901653289795,0.88764888048172,-1.0864609479904177,0.2523236274719238
2025-11-21 04:22:15.280,1.965322732925415,-21.546117782592773,1.5814721584320068,-5.516408920288086,-0.5413633584976196,-2.404447555541992,3.1190590858459477,8.396313667297363,-3.9929637908935542,0.1027644798159599,0.3155165612697601,0.4913466572761535,0.8052746057510376,0.9076622128486632,-1.0278414487838743,0.2835555672645569
2025-11-21 04:22:15.290,1.82564640045166,-19.972824096679688,0.3800609111785888,-6.1518425941467285,-0.705070436000824,-1.745954155921936,3.3043599128723145,8.076066017150879,-4.475349426269531,0.0783035233616828,0.3260333240032196,0.4745806753635406,0.8138452172279358,0.9347951412200928,-0.9676051735877992,0.3266168534755707
2025-11-21 04:22:15.300,1.838083028793335,-18.869823455810547,-1.137486457824707,-6.697940349578857,-0.8663341403007507,-1.155722975730896,3.448402166366577,7.714957237243652,-4.975776195526123,0.0498727075755596,0.3370586335659027,0.458881139755249,0.8205682635307312,0.964758038520813,-0.9054558873176576,0.3774067759513855
2025-11-21 04:22:15.310,2.1158459186553955,-18.05558967590332,-3.1801633834838867,-7.035128116607666,-1.0398147106170654,-0.6646018028259277,3.564260005950928,7.315529823303223,-5.472609996795654,0.0183540359139442,0.3478976786136627,0.4441176950931549,0.8254634141921997,0.993514358997345,-0.8419998288154602,0.4318004548549652
2025-11-21 04:22:15.320,2.891749858856201,-17.1085262298584,-5.903273105621338,-7.068113803863525,-1.1668709516525269,-0.2870981991291046,3.66234827041626,6.888842582702637,-5.941501140594482,-0.0148055255413055,0.3579246401786804,0.4303047358989715,0.8285581469535828,1.018404483795166,-0.7788570523262024,0.486206591129303
2025-11-21 04:22:15.330,3.680913209915161,-15.735551834106444,-8.896440505981445,-6.870199203491211,-1.3881504535675049,-0.0134386401623487,3.757805347442627,6.448652267456055,-6.361145973205566,-0.0485014915466308,0.3662729859352112,0.4174318611621856,0.8302062153816223,1.0372108221054075,-0.7176013588905334,0.538419246673584
2025-11-21 04:22:15.340,4.469245910644531,-13.403663635253906,-11.508733749389648,-6.661289215087891,-1.7986397743225098,0.1905843466520309,3.869354009628296,6.001557350158691,-6.721592426300049,-0.0826515480875969,0.3721233010292053,0.4052679538726806,0.8309337496757507,1.0484659671783447,-0.6585725545883179,0.5884301662445068
2025-11-21 04:22:15.350,5.116325378417969,-9.347092628479004,-13.307939529418944,-6.679614543914795,-2.261662006378174,0.3555130958557129,4.005271911621094,5.541723728179932,-7.029756546020508,-0.1176947280764579,0.3756642937660217,0.3932738304138183,0.8308790326118469,1.052909255027771,-0.6005526781082153,0.6375207304954529
2025-11-21 04:22:15.360,5.660500526428223,-4.219815731048584,-15.2882661819458,-6.993590354919434,-2.7442312240600586,0.4666872918605804,4.171846389770508,5.053692817687988,-7.2956342697143555,-0.1543879956007003,0.3773661851882934,0.3806439340114593,0.8299815058708191,1.0513492822647097,-0.54139643907547,0.687063455581665
2025-11-21 04:22:15.370,6.270229339599609,0.8788619041442871,-18.6827449798584,-7.405301094055176,-3.186484813690185,0.4960079789161682,4.371366024017334,4.529595375061035,-7.519595623016357,-0.1927527338266372,0.3776105642318725,0.3667868971824646,0.8280845284461975,1.0442179441452026,-0.4801251292228699,0.7372329235076904
2025-11-21 04:22:15.380,7.75028133392334,4.592173099517822,-24.364452362060547,-7.58000373840332,-3.433267116546631,0.4556920528411865,4.593421459197998,3.982609510421753,-7.694782257080078,-0.2315637171268463,0.3767860829830169,0.3518990278244018,0.8249712586402893,1.032620549201965,-0.4181966781616211,0.7870676517486572
2025-11-21 04:22:15.390,10.65329360961914,6.654747009277344,-31.73951530456543,-7.294126987457275,-3.433267116546631,0.4532486796379089,4.818446159362793,3.448523998260498,-7.814130306243896,-0.2687666714191437,0.3750865757465362,0.3371018469333648,0.8206319808959961,1.018236756324768,-0.3593348264694214,0.8350815176963806
2025-11-21 04:22:15.400,12.978404998779297,9.207537651062012,-37.547096252441406,-6.601426124572754,-3.18526291847229,0.5595360994338989,5.02240514755249,2.971456289291382,-7.881387710571289,-0.3022290468215942,0.3727619349956512,0.3240017592906952,0.8153091669082642,1.0034373998641968,-0.3078435361385345,0.8797783851623535
2025-11-21 04:22:15.410,14.008010864257812,12.921600341796877,-39.81214904785156,-5.6654558181762695,-2.719797372817993,0.7171346545219421,5.187522888183594,2.58197283744812,-7.911600589752197,-0.3303897678852081,0.3702498376369476,0.3137276172637939,0.8095262050628662,0.9904345870018004,-0.2664288282394409,0.9194918274879456
2025-11-21 04:22:15.420,13.865407943725586,16.06096839904785,-39.06708908081055,-4.653892517089844,-2.13216233253479,0.8625163435935974,5.306344985961914,2.2874324321746826,-7.923430442810059,-0.3526893556118011,0.3680551648139953,0.3065731823444366,0.8038398623466492,0.980694591999054,-0.2354218363761901,0.9530205130577089
2025-11-21 04:22:15.430,13.038848876953123,17.489635467529297,-36.00141906738281,-3.676537036895752,-1.4541219472885132,0.9785773158073424,5.3748321533203125,2.0804154872894287,-7.934320449829102,-0.3695991933345794,0.3666184842586517,0.3025735020637512,0.7983962893486023,0.9753890633583068,-0.2137676924467086,0.9808037281036376
2025-11-21 04:22:15.440,11.202980041503906,17.912405014038086,-30.52955436706543,-2.829902648925781,-0.7979192137718201,1.1080769300460815,5.395606517791748,1.9491382837295528,-7.9535322189331055,-0.381925880908966,0.3660407364368438,0.301520824432373,0.7932414412498474,0.9747205972671508,-0.2000892013311386,1.0037388801574707
2025-11-21 04:22:15.450,6.328220367431641,17.70980739593506,-19.647960662841797,-2.0406879782676697,-0.37399123609066004,1.4208307266235352,5.3792524337768555,1.8629915118217468,-7.98517107963562,-0.39519810676574707,0.3649099022150039,0.30425769090652466,0.7861697971820831,0.9779707491397858,-0.19113413244485855,1.03351491689682
2025-11-21 04:22:15.460,1.8154029846191408,16.52518081665039,-10.05199909210205,-1.718160629272461,-0.5584670901298523,1.7714570760726929,5.372532367706299,1.8414812088012693,-7.99470043182373,-0.4072432219982147,0.3613023459911346,0.3090917468070984,0.7797921895980835,0.9791024327278136,-0.1889002323150634,1.0634340047836304
2025-11-21 04:22:15.470,-0.0189895629882812,15.226082801818848,-5.904701232910156,-1.6705145835876465,-0.8235748410224915,1.8948482275009155,5.392477989196777,1.844020962715149,-7.980673789978027,-0.4156141579151153,0.3570434749126434,0.3123781383037567,0.776018500328064,0.9765713810920716,-0.1891639083623886,1.084095120429993
2025-11-21 04:22:15.480,-1.336026668548584,13.817081451416016,-3.286627769470215,-1.6460806131362915,-1.0728005170822144,1.9034000635147093,5.431990623474121,1.8477280139923096,-7.952971458435059,-0.4243523478507995,0.3517516851425171,0.3151448667049408,0.7725797891616821,0.9715616106987,-0.1895488053560257,1.1048548221588137
2025-11-21 04:22:15.490,-2.059852838516236,12.28176212310791,-1.6437139511108398,-1.575222373008728,-1.2389509677886963,1.8337634801864624,5.485852718353272,1.8517951965332031,-7.9149651527404785,-0.4329921901226043,0.3458692133426666,0.3172914385795593,0.7695572376251221,0.9647170305252076,-0.1899711042642593,1.124697208404541
2025-11-21 04:22:15.500,-2.5985958576202397,10.801802635192873,-0.2524337768554687,-1.4347275495529177,-1.2939271926879885,1.7482448816299438,5.545737266540527,1.8608478307724,-7.870986461639404,-0.4411955773830414,0.3396918475627899,0.3191481232643127,0.7668770551681519,0.9570032954216005,-0.1909112334251403,1.1433888673782349
2025-11-21 04:22:15.510,-3.353729486465454,9.58144474029541,1.218671798706055,-1.246586561203003,-1.268271565437317,1.6993770599365234,5.604429721832275,1.8810104131698608,-7.824484348297119,-0.4486259818077087,0.3334000408649444,0.3210887908935547,0.7645136117935181,0.9492352604866028,-0.1930057108402252,1.1607235670089722
2025-11-21 04:22:15.520,-4.362781047821045,8.63000202178955,2.7909460067749023,-1.0413419008255005,-1.1974133253097534,1.7079288959503174,5.656980037689209,1.9171503782272337,-7.777756214141846,-0.4552275240421295,0.327006995677948,0.3234821557998657,0.7623605728149414,0.9419639706611632,-0.1967620849609375,1.177043080329895
2025-11-21 04:22:15.530,-5.336903095245361,7.771379470825195,4.385571479797363,-0.8507575392723083,-1.0899041891098022,1.761683464050293,5.699676036834717,1.9705878496170044,-7.733102798461914,-0.4610248804092407,0.3205789029598236,0.3265372812747955,0.7603017091751099,0.935635507106781,-0.2023214548826217,1.1926597356796265
2025-11-21 04:22:15.540,-6.379485607147217,7.078839302062988,5.951637268066406,-0.6968240141868591,-0.968956470489502,1.8398720026016235,5.730658531188965,2.040086269378662,-7.692073345184326,-0.4662064909934997,0.3141379654407501,0.3303559720516205,0.7581779360771179,0.9304975271224976,-0.2095613926649093,1.208101511001587
2025-11-21 04:22:15.550,-7.531941890716553,6.459081172943115,7.364222526550293,-0.5696150660514832,-0.8321266770362854,1.9156169891357424,5.748204708099365,2.1234495639801025,-7.656336307525635,-0.4707655310630798,0.3078230023384094,0.3349151015281677,0.7559475302696228,0.9267978668212892,-0.2182603180408477,1.2233459949493408
2025-11-21 04:22:15.560,-8.584813117980957,5.885497093200684,8.558292388916016,-0.4462239146232605,-0.6720846891403198,1.965706467628479,5.750794410705566,2.21872878074646,-7.627318382263184,-0.4746332466602325,0.3017823398113251,0.3401741981506347,0.753612756729126,0.9247571229934692,-0.2282233983278274,1.2382243871688845
2025-11-21 04:22:15.570,-9.68488883972168,5.439686298370361,9.553389549255373,-0.3191677033901214,-0.5108210444450378,1.9693715572357176,5.738800525665283,2.323566436767578,-7.6051025390625,-0.4776919186115265,0.2961344122886657,0.3459869921207428,0.7512708306312561,0.9243585467338562,-0.2392127066850662,1.2523165941238403
2025-11-21 04:22:15.580,-10.773367881774902,5.194899559020996,10.38052749633789,-0.1737860441207885,-0.3471139669418335,1.92294716835022,5.712813377380371,2.4366719722747803,-7.589253902435303,-0.4797912240028381,0.2909650206565857,0.352231353521347,0.7490479350090027,0.9255372881889344,-0.2511018514633178,1.265156388282776
2025-11-21 04:22:15.590,-11.839628219604492,5.066665649414063,11.043375015258787,0.0143549107015132,-0.1846285909414291,1.832541823387146,5.673709392547607,2.558758497238159,-7.578401565551758,-0.4807055294513702,0.2863001823425293,0.3588224649429321,0.747128427028656,0.9281480312347412,-0.2639758884906769,1.2761551141738892
2025-11-21 04:22:15.600,-12.729572296142578,4.934057712554932,11.563602447509766,0.2696890532970428,-0.0270299911499023,1.721367597579956,5.622454643249512,2.693335771560669,-7.569962501525879,-0.4802167415618896,0.2820305824279785,0.3657777309417724,0.7456924915313721,0.9319629669189452,-0.2782192528247833,1.2848737239837646
2025-11-21 04:22:15.610,-13.120455741882324,4.547731399536133,11.867259979248049,0.6215370893478394,0.1036913245916366,1.6309621334075928,5.5610761642456055,2.847611904144287,-7.558830738067627,-0.4780217409133911,0.2778641283512115,0.3731696009635925,0.7450041770935059,0.936506450176239,-0.2946193516254425,1.2907625436782837
2025-11-21 04:22:15.620,-13.01064682006836,3.7280335426330566,11.821242332458496,1.0747857093811035,0.1843231618404388,1.604084849357605,5.491894245147705,3.0308947563171387,-7.538114547729492,-0.474037766456604,0.2732620537281036,0.381207525730133,0.745182454586029,0.941165030002594,-0.3142099678516388,1.2939540147781372
2025-11-21 04:22:15.630,-12.55234432220459,2.690549373626709,11.58990478515625,1.5854541063308716,0.2234173864126205,1.650509238243103,5.415794372558594,3.250162124633789,-7.501734733581543,-0.4685410559177398,0.2676226794719696,0.3901915848255157,0.7460548877716064,0.945497453212738,-0.3378127515316009,1.295531988143921
2025-11-21 04:22:15.640,-11.812376022338867,1.7452991008758545,11.163702964782717,2.077796936035156,0.2038702666759491,1.761683464050293,5.33443021774292,3.5066704750061035,-7.44429349899292,-0.4615011513233185,0.2607129216194153,0.4000606536865234,0.7476609945297241,0.9490294456481934,-0.3656762242317199,1.2954142093658447
2025-11-21 04:22:15.650,-10.736099243164062,1.0791723728179932,10.282496452331545,2.51149845123291,0.1501157134771347,1.92294716835022,5.247411251068115,3.797638177871704,-7.362947463989258,-0.4532014727592468,0.2523841857910156,0.4108025133609772,0.7497679591178894,0.9516121745109558,-0.3976484537124634,1.2942856550216677
2025-11-21 04:22:15.660,-9.508601188659668,0.7075085639953613,9.498201370239258,2.83524751663208,0.1953184157609939,2.100092887878418,5.145972728729248,4.115030288696289,-7.263324737548828,-0.4438057541847229,0.2431200444698333,0.4225175380706787,0.7519361972808838,0.9543969631195068,-0.4330225884914398,1.292879343032837
2025-11-21 04:22:15.670,-8.63088607788086,1.0490355491638184,8.904020309448242,2.981850862503052,0.3907895386219024,2.2430310249328613,5.018967151641846,4.444893836975098,-7.157042980194092,-0.4334902763366699,0.2338559329509735,0.4352186620235443,0.7536460161209106,0.959223449230194,-0.4704114496707916,1.291959524154663
2025-11-21 04:22:15.680,-7.873236656188965,1.72395658493042,7.896315574645996,2.962303876876831,0.6864396333694458,2.317554473876953,4.861209869384766,4.771486282348633,-7.054923534393311,-0.4224786460399627,0.2254950255155563,0.4486638605594635,0.754562497138977,0.9674557447433472,-0.5081435441970825,1.2920024394989014
2025-11-21 04:22:15.690,-6.452228307723999,3.5826358795166016,4.894015312194824,2.8395235538482666,1.1879451870918274,2.2845687866210938,4.565158843994141,5.234440088272095,-6.920578241348267,-0.40457683801651,0.21593637764453885,0.4696316719055176,0.7543470561504364,0.9877563118934631,-0.5631502270698547,1.2936243414878845
2025-11-21 04:22:15.700,-4.526342868804932,6.500431537628174,-0.0210633277893066,3.15899658203125,1.4182345867156982,2.340766668319702,4.228784084320068,5.703054904937744,-6.764830112457275,-0.3845776915550232,0.206889808177948,0.491516649723053,0.7534639835357666,1.012115716934204,-0.6206324100494385,1.2956476211547852
2025-11-21 04:22:15.710,-2.097433090209961,8.729198455810547,-5.620652675628662,4.151012420654297,1.2166550159454346,2.7414824962615967,3.982443571090698,6.085638999938965,-6.578413486480713,-0.3681893348693847,0.1968915164470672,0.5081197023391724,0.753315806388855,1.0264300107955933,-0.6694597601890564,1.2963706254959106
2025-11-21 04:22:15.720,-1.0173192024230957,11.557998657226562,-9.618566513061523,5.550005435943604,0.5422796607017517,3.616368532180786,3.7143592834472656,6.567377090454102,-6.264461994171143,-0.3493872284889221,0.1792637258768081,0.5277166962623596,0.7531986236572266,1.0355949401855469,-0.7337859869003296,1.299677491188049
2025-11-21 04:22:15.730,-3.082099437713623,16.5296573638916,-10.456214904785156,6.621431350708008,-0.3715478479862213,4.604719161987305,3.411214590072632,7.119021892547607,-5.818379878997803,-0.3289823234081268,0.1538920849561691,0.5499033331871033,0.7521263957023621,1.040524125099182,-0.8123973608016968,1.3078700304031372
2025-11-21 04:22:15.740,-3.5457968711853027,22.5068473815918,-12.628918647766112,7.018482208251953,-0.8736643195152283,5.04086446762085,3.0738258361816406,7.661205291748047,-5.294139862060547,-0.3081265389919281,0.1247966811060905,0.5724546313285828,0.7495195269584656,1.0447568893432615,-0.8966265916824341,1.320356845855713
2025-11-21 04:22:15.750,-0.7122020721435547,25.795398025513002,-16.657079696655273,6.824233055114746,-0.3495573401451111,4.653587341308594,2.716548442840576,8.12496566772461,-4.772385597229004,-0.2864395678043365,0.0984334796667099,0.5931318402290344,0.7459610104560852,1.0533148050308228,-0.9764522910118104,1.3322875499725342
2025-11-21 04:22:15.760,2.7611067295074463,25.795398025513002,-20.315771102905277,6.251258373260498,1.051726222038269,3.778853893280029,2.356950044631958,8.486652374267578,-4.311832427978516,-0.2631056904792785,0.0795491561293602,0.6111472249031067,0.7422576546669006,1.0705490112304688,-1.0459436178207395,1.3401554822921753
2025-11-21 04:22:15.770,5.3111891746521,25.795398025513002,-22.095935821533203,5.6538496017456055,2.5751793384552,2.905189514160156,2.01163387298584,8.762316703796387,-3.9173333644866943,-0.2377560436725616,0.068655714392662,0.626675009727478,0.7389430403709412,1.0963901281356812,-1.1050968170166016,1.342789888381958
2025-11-21 04:22:15.780,6.890902519226074,22.945688247680664,-21.960338592529297,5.432723045349121,3.627058267593384,2.3065593242645264,1.6903795003890991,8.985901832580566,-3.544936180114746,-0.210364893078804,0.0625659897923469,0.6402344107627869,0.7361602783203125,1.1258448362350464,-1.1587592363357544,1.339787483215332
2025-11-21 04:22:15.790,6.929947853088379,17.866512298583984,-19.961875915527344,5.596429824829102,3.978906393051148,1.924168825149536,1.4038594961166382,9.182110786437988,-3.1445846557617188,-0.1812687665224075,0.0574117451906204,0.6520175933837891,0.7339744567871094,1.1509089469909668,-1.2119840383529663,1.329162359237671
2025-11-21 04:22:15.800,6.904545307159424,13.175912857055664,-17.444150924682617,5.8480987548828125,3.878727436065674,1.5991981029510498,1.1644952297210691,9.355132102966309,-2.701082468032837,-0.1513917595148086,0.0512310303747653,0.6618176698684692,0.7324296832084656,1.1637517213821411,-1.266165852546692,1.307182550430298
2025-11-21 04:22:15.810,8.128044128417969,8.350374221801758,-15.16293239593506,5.918957233428955,3.856736898422241,1.2094775438308716,0.9804942011833192,9.498369216918944,-2.2338311672210693,-0.1210464239120483,0.0449313260614872,0.6693204641342163,0.7316686511039734,1.15718674659729,-1.3193919658660889,1.2657390832901
2025-11-21 04:22:15.820,8.944252967834473,4.249697685241699,-12.923507690429688,5.64896297454834,3.911713123321533,0.7488987445831299,0.856632649898529,9.60616970062256,-1.7770951986312866,-0.0910263210535049,0.0399401299655437,0.6743357181549072,0.7317036986351013,1.1216188669204712,-1.3682454824447632,1.1942535638809204
2025-11-21 04:22:15.830,9.474176406860352,0.978595733642578,-10.976747512817385,5.122412204742432,3.923930168151856,0.2651077210903168,0.7951976656913757,9.679530143737791,-1.3582162857055664,-0.0623566880822181,0.0369182750582695,0.6768258810043335,0.7325677275657654,1.041128158569336,-1.4096086025238037,1.0772225856781006
2025-11-21 04:22:15.840,9.86378288269043,-1.5600271224975586,-9.64688777923584,4.480870246887207,3.8799490928649902,-0.1514901220798492,0.789078950881958,9.724335670471191,-0.9924924373626708,-0.0357797183096408,0.0359284095466136,0.6771095395088196,0.734133243560791,0.8990822434425354,-1.4411383867263794,0.8988715410232544
2025-11-21 04:22:15.850,10.243313789367676,-3.6750969886779785,-8.784738540649414,3.808938026428223,3.8029823303222656,-0.3872771561145782,0.8194500207901001,9.748217582702637,-0.686399519443512,-0.0115544265136122,0.0369403660297393,0.6759105324745178,0.7359665632247925,0.6972708702087402,-1.4615764617919922,0.6613141894340515
2025-11-21 04:22:15.860,10.123139381408691,-5.710456848144531,-8.140634536743164,3.155331611633301,3.716242074966431,-0.3897205591201782,0.860821008682251,9.758875846862791,-0.4401231706142425,0.0102547900751233,0.0398060381412506,0.6741852760314941,0.737417459487915,0.4726330637931824,-1.47204852104187,0.4017351269721985
2025-11-21 04:22:15.870,9.56826114654541,-7.778332710266113,-7.67680025100708,2.546927690505981,3.704025030136109,-0.2150182425975799,0.8928917050361633,9.762697219848633,-0.2507334649562835,0.0299910735338926,0.044659100472927,0.6726669073104858,0.7379873394966125,0.2737602591514587,-1.476083517074585,0.1680212318897247
2025-11-21 04:22:15.880,8.640825271606445,-9.613166809082031,-7.118258953094482,1.9751746654510496,3.859180212020874,-0.003665083553642,0.9090081453323364,9.763745307922363,-0.1156368404626846,0.0482864193618297,0.0519563965499401,0.671531081199646,0.7375736832618713,0.1265324056148529,-1.4772197008132937,-0.0155069660395383
2025-11-21 04:22:15.890,7.466005325317383,-11.303689002990724,-6.327409267425537,1.4180818796157837,4.168421745300293,0.1429382562637329,0.9129025936126708,9.764008522033691,-0.033800508826971,0.0657304301857948,0.0621930547058582,0.6705124378204346,0.7363590002059937,0.0370083786547184,-1.47750723361969,-0.1443481594324112
2025-11-21 04:22:15.900,6.107419967651367,-13.073101997375488,-5.109339237213135,0.8634325861930847,4.527599811553955,0.1856975704431533,0.9121984839439392,9.764131546020508,-0.0042028687894344,0.0825709104537963,0.0755044519901275,0.6691710352897644,0.7346367835998535,0.0046073603443801,-1.4776415824890137,-0.2196572422981262
2025-11-21 04:22:15.910,4.480992317199707,-14.837230682373049,-3.5604910850524902,0.3197785317897796,4.791485786437988,0.1014006435871124,0.9161343574523926,9.76373291015625,-0.0243801996111869,0.0985858365893364,0.0914344191551208,0.6670306324958801,0.7327964901924133,0.0266058072447776,-1.4772062301635742,-0.243235781788826
2025-11-21 04:22:15.920,1.0241657495498657,-17.664713859558105,-0.5920271128416061,-0.3796415701508522,4.472623586654663,-0.3286358267068863,0.9590617716312408,9.75859022140503,-0.13330597057938576,0.1188821904361248,0.11679521203041075,0.6613531112670898,0.7312530875205994,0.1367422193288803,-1.4718013405799866,-0.198552019894123
2025-11-21 04:22:15.930,-1.9177815914154053,-20.699508666992188,1.972287893295288,-0.9191724061965942,3.260550022125244,-1.09219491481781,1.0787867307662964,9.742688179016112,-0.294352650642395,0.1327560395002365,0.1386420279741287,0.6525148153305054,0.7330611348152161,0.2663710117340088,-1.456520676612854,-0.1204787641763687
2025-11-21 04:22:15.940,-2.497268915176392,-22.576744079589844,2.594357967376709,-1.1989405155181885,2.203784227371216,-1.737402319908142,1.2342840433120728,9.719307899475098,-0.4265899658203125,0.1368959844112396,0.1490115374326706,0.6440998315811157,0.737692654132843,0.3327652215957641,-1.4372327327728271,-0.0752977281808853
2025-11-21 04:22:15.950,-1.6907905340194702,-24.024452209472656,2.393592357635498,-1.460383057594299,1.3620367050170898,-2.3396975994110107,1.4499742984771729,9.681662559509276,-0.5773845314979553,0.1378968209028244,0.1568123996257782,0.633625864982605,0.7449245452880859,0.3789564371109009,-1.4109691381454468,-0.0422668941318988
2025-11-21 04:22:15.960,0.1057462692260742,-25.00124740600586,1.357295274734497,-1.7218257188796997,0.8660287261009216,-2.7672908306121826,1.7113884687423706,9.62691593170166,-0.7510169148445129,0.1366086602210998,0.1633460372686386,0.6213384866714478,0.7540521025657654,0.4135302305221557,-1.3790459632873535,-0.0159193724393844
2025-11-21 04:22:15.970,1.6089787483215332,-25.89372062683105,0.0828529596328735,-1.9282920360565183,0.5935907959938049,-2.944436550140381,1.9937376976013184,9.555279731750488,-0.9444682598114014,0.1336709707975387,0.1693920493125915,0.6079917550086975,0.7640578746795654,0.4424012303352356,-1.3438916206359863,0.0076156300492584
2025-11-21 04:22:15.980,2.0352625846862797,-26.29448509216309,-0.3491443395614624,-2.099329233169556,0.3846810758113861,-2.883351802825928,2.2721540927886963,9.470004081726074,-1.1518347263336182,0.1292906403541565,0.1751782894134521,0.5945292115211487,0.7740358710289001,0.4691804051399231,-1.308016657829285,0.0313643030822277
2025-11-21 04:22:15.990,1.742006540298462,-25.744312286376957,-0.0299381017684936,-2.3216776847839355,0.1244601309299469,-2.664668560028076,2.5312142372131348,9.374357223510742,-1.3728704452514648,0.1230893954634666,0.1807084679603576,0.5816256999969482,0.7835208773612976,0.4969711303710937,-1.2727714776992798,0.0590303465723991
2025-11-21 04:22:16.000,1.0150513648986816,-24.451847076416016,0.6051042079925537,-2.656421899795532,-0.218836024403572,-2.3641316890716557,2.764358758926392,9.269744873046877,-1.612620830535889,0.11436228454113,0.1859767884016037,0.569622278213501,0.7923789024353027,0.5280954837799072,-1.2383623123168943,0.0940162390470504
2025-11-21 04:22:16.010,0.3063242435455322,-22.76054573059082,1.1393964290618896,-3.162203550338745,-0.5963396430015564,-2.0354957580566406,2.971220016479492,9.154046058654783,-1.8829996585845947,0.1023069992661476,0.1912780851125717,0.558500349521637,0.8006393313407898,0.5648640990257263,-1.2039215564727783,0.1393851786851883
2025-11-21 04:22:16.020,0.043147325515747,-21.06675720214844,1.175117254257202,-3.856126070022583,-0.9103151559829712,-1.715259075164795,3.1546010971069336,9.020894050598145,-2.2005343437194824,0.0863175019621849,0.1973118036985397,0.5479307770729065,0.808324933052063,0.6090887784957886,-1.167762041091919,0.1967774927616119
2025-11-21 04:22:16.030,0.5885524749755859,-19.443161010742188,0.2315661907196045,-4.608689785003662,-1.0923476219177246,-1.4086138010025024,3.316812515258789,8.862780570983887,-2.572991371154785,0.0662982836365699,0.2046219110488891,0.537605345249176,0.815300464630127,0.6597734689712524,-1.1284549236297607,0.2645005285739898
2025-11-21 04:22:16.040,1.8212735652923584,-18.10029602050781,-1.5609006881713867,-5.237862586975098,-1.0862390995025637,-1.0702043771743774,3.453711748123169,8.676295280456543,-2.994020938873291,0.0430111289024353,0.2135410755872726,0.5275508761405945,0.8211213946342468,0.7142236828804016,-1.0859270095825195,0.3382640779018402
2025-11-21 04:22:16.050,3.167081594467163,-16.703676223754883,-3.77924108505249,-5.667899131774902,-0.9811733961105348,-0.652384877204895,3.556678771972656,8.463699340820312,-3.4476406574249268,0.017351659014821,0.2238983809947967,0.5181981921195984,0.8252509236335754,0.7698320746421814,-1.041291117668152,0.4144693613052368
2025-11-21 04:22:16.060,4.921354293823242,-15.253446578979492,-6.513587474822998,-5.867035388946533,-0.8516737818717957,-0.1453816443681717,3.618798017501831,8.231439590454102,-3.9138336181640634,-0.0099219074472785,0.2350911647081375,0.5101223587989807,0.8272901177406311,0.8245459198951721,-0.9961292147636414,0.4909506440162658
2025-11-21 04:22:16.070,6.804718017578125,-13.375486373901367,-8.569244384765625,-5.873143672943115,-0.7026270627975464,0.414154440164566,3.6361563205718994,7.988550662994385,-4.373992443084717,-0.0378493182361125,0.2466011941432953,0.5037811994552612,0.8270186185836792,0.8772516846656799,-0.952048659324646,0.5660635232925415
2025-11-21 04:22:16.080,7.538677215576172,-10.634521484375,-9.485002517700195,-5.8132805824279785,-0.8516737818717957,0.9651386737823486,3.621038675308228,7.741555690765381,-4.809030532836914,-0.0665911585092544,0.2569805681705475,0.4993389546871185,0.824734628200531,0.9253994822502136,-0.9098619222640992,0.6397758722305298
2025-11-21 04:22:16.090,6.413651466369629,-7.204133033752441,-9.452208518981934,-5.804728984832764,-1.544527292251587,1.3768497705459597,3.6093132495880127,7.488951683044434,-5.201812744140625,-0.0972066149115562,0.2641929388046264,0.4961636364459991,0.8213249444961548,0.964205265045166,-0.8689640760421753,0.7120578289031982
2025-11-21 04:22:16.100,4.695900917053223,-2.3575072288513184,-9.001012802124023,-5.986761093139648,-2.4583547115325928,1.4318259954452517,3.6423280239105225,7.214476585388184,-5.554742813110352,-0.1300830543041229,0.2679868042469024,0.4924185574054718,0.8177930116653442,0.990414023399353,-0.8266580104827881,0.7806801795959473
2025-11-21 04:22:16.110,3.616425037384033,3.309137344360352,-10.208929061889648,-6.470705032348633,-3.286663770675659,1.037218689918518,3.752020359039306,6.8871235847473145,-5.8872971534729,-0.1656146794557571,0.2696622610092163,0.485780268907547,0.8147831559181213,1.0033953189849854,-0.7786107063293457,0.8437316417694092
2025-11-21 04:22:16.120,4.872156143188477,8.578775405883789,-14.33551788330078,-7.148745536804199,-3.766789674758911,0.3530697226524353,3.942976951599121,6.479060649871826,-6.216517448425293,-0.2035515904426574,0.2712785601615906,0.4747336804866791,0.8121592402458191,1.0055557489395142,-0.7217247486114502,0.9003961086273193
2025-11-21 04:22:16.130,7.867440223693848,12.762299537658691,-19.984264373779297,-7.720498561859131,-3.733803987503052,-0.3066453337669372,4.182798862457275,5.989323616027832,-6.542368412017822,-0.2423476576805114,0.2745983600616455,0.4597089886665344,0.8090308904647827,1.0019513368606567,-0.6569960713386536,0.9511233568191528
2025-11-21 04:22:16.140,10.260692596435549,15.726696014404297,-25.89301300048828,-7.809682369232178,-3.4002811908721924,-0.6193991303443909,4.424829006195068,5.458244323730469,-6.840968608856201,-0.2798116207122803,0.2794267535209656,0.4430769681930542,0.8045551180839539,0.9966646432876588,-0.5902708172798157,0.997281551361084
2025-11-21 04:22:16.150,12.754281044006348,18.40460777282715,-32.94438552856445,-6.602648019790649,-2.6208401918411255,-0.19302774220705035,4.699031591415405,4.751302003860474,-7.173515319824219,-0.3274622857570648,0.28609792888164515,0.4225291311740875,0.7950727939605713,0.990891695022583,-0.5059482306241989,1.058955430984497
2025-11-21 04:22:16.160,12.60678005218506,18.85257339477539,-33.7184944152832,-4.71742057800293,-1.647149682044983,0.813648521900177,4.833638668060303,4.255914211273193,-7.395505905151367,-0.3638736307621002,0.2900605201721191,0.4116040468215942,0.7836089730262756,0.991900622844696,-0.4489085674285888,1.1152584552764893
2025-11-21 04:22:16.170,9.846653938293455,18.039066314697266,-29.04364585876465,-3.5531458854675293,-0.9396358132362366,1.3609676361083984,4.829182147979736,4.074495792388916,-7.499857425689697,-0.380357027053833,0.2915510535240173,0.4108262658119201,0.7755954265594482,0.9987190961837769,-0.4284737408161163,1.1481443643569946
2025-11-21 04:22:16.180,5.262481689453125,16.999744415283203,-21.704050064086918,-2.782256603240967,-0.4729484915733337,1.5332266092300415,4.786381244659424,3.9596121311187744,-7.588307380676269,-0.3925333619117737,0.2928923964500427,0.4125245809555053,0.7680853605270386,1.008067607879639,-0.4156319200992584,1.176464319229126
2025-11-21 04:22:16.190,0.1611537933349609,16.12992286682129,-13.813796997070312,-2.386427640914917,-0.3910949528217315,1.336533784866333,4.745422840118408,3.868707180023194,-7.660577297210693,-0.4021159410476684,0.294096976518631,0.4141952693462372,0.7617427706718445,1.0161906480789185,-0.4055218398571014,1.1993918418884275
2025-11-21 04:22:16.200,-3.39351224899292,14.800692558288574,-7.534079551696777,-2.204395055770874,-0.6134433746337891,0.906497359275818,4.737972259521484,3.773603439331055,-7.712451934814453,-0.4104946851730346,0.2949100732803345,0.4140757024288177,0.7570095658302307,1.0199083089828491,-0.3949916958808899,1.2166686058044434
2025-11-21 04:22:16.210,-5.09414529800415,13.044760704040527,-3.5700035095214844,-2.0981075763702397,-0.9848384857177734,0.4129327535629272,4.778141498565674,3.663330554962158,-7.740786075592041,-0.418453574180603,0.2950750887393951,0.4114769697189331,0.7539986968040466,1.0177762508392334,-0.3828393518924713,1.228712797164917
2025-11-21 04:22:16.220,-5.514775276184082,11.49258804321289,-1.2834854125976562,-1.979603290557861,-1.3392826318740845,-0.040315918624401,4.863020896911621,3.53961443901062,-7.745484828948975,-0.4261471331119537,0.2945213317871094,0.4065859317779541,0.7525581121444702,1.010148525238037,-0.3692758977413177,1.2362884283065796
2025-11-21 04:22:16.230,-5.427126884460449,10.301711082458496,0.1637725830078125,-1.841551780700684,-1.549414038658142,-0.4324798583984375,4.978627681732178,3.4063479900360107,-7.731781959533691,-0.4332330822944641,0.2936616539955139,0.3999043107032776,0.7524283528327942,0.9987090229988098,-0.354744553565979,1.239776372909546
2025-11-21 04:22:16.240,-5.456759452819824,9.37675666809082,1.641068935394287,-1.7743586301803589,-1.599503517150879,-0.7696675658226013,5.109866619110107,3.2607150077819824,-7.708915710449219,-0.4396979510784149,0.2931008040904999,0.3918688893318176,0.7531244158744812,0.9854395985603333,-0.3389535844326019,1.2401204109191897
2025-11-21 04:22:16.250,-5.613318920135498,8.661428451538086,3.1946587562561035,-1.8183395862579343,-1.5103198289871216,-1.0494356155395508,5.243432998657227,3.096926212310791,-7.686732292175293,-0.4457747340202331,0.2934085428714752,0.3828456103801727,0.7540726661682129,0.9721572399139404,-0.3212981820106506,1.2386033535003662
2025-11-21 04:22:16.260,-5.730349540710449,7.798851013183594,4.468402862548828,-1.9331789016723635,-1.3256912231445312,-1.249793529510498,5.368953227996826,2.912462949752808,-7.672175407409668,-0.4516773223876953,0.2949134707450866,0.3732098340988159,0.7548032999038696,0.9602075815200806,-0.3015373945236206,1.2363855838775637
2025-11-21 04:22:16.270,-5.69550085067749,6.74614143371582,5.185220241546631,-2.028470993041992,-1.0984560251235962,-1.3353121280670166,5.4792327880859375,2.713348150253296,-7.667211532592773,-0.4573128521442413,0.297590047121048,0.3634240329265594,0.7551344633102417,0.9503177404403688,-0.2803421914577484,1.2339869737625122
2025-11-21 04:22:16.280,-5.544093608856201,5.729593276977539,5.375547409057617,-1.9942635297775269,-0.8492304086685181,-1.2803359031677246,5.568450927734375,2.5160629749298096,-7.670213222503662,-0.4625997841358185,0.3009094893932342,0.3543183505535126,0.7549260854721069,0.9428435564041138,-0.2594686150550842,1.2323369979858398
2025-11-21 04:22:16.290,-5.695865631103516,5.096752643585205,5.6661882400512695,-1.7939057350158691,-0.5914528369903564,-1.100746750831604,5.632858753204346,2.340728759765625,-7.678689956665039,-0.4670348763465881,0.304373174905777,0.3466426134109497,0.7543700933456421,0.9378934502601624,-0.2410144209861755,1.231247901916504
2025-11-21 04:22:16.300,-6.2963385581970215,4.878340244293213,6.37555742263794,-1.4848170280456543,-0.3849864900112152,-0.8356390595436096,5.674774646759033,2.2016963958740234,-7.688943862915039,-0.4704072773456573,0.3074260354042053,0.3408170640468597,0.7536908984184265,0.9349914789199828,-0.226440742611885,1.2306355237960815
2025-11-21 04:22:16.310,-7.130655288696289,4.913260459899902,7.254070281982422,-1.1366339921951294,-0.279920756816864,-0.5448757410049438,5.701810836791992,2.104390382766724,-7.696186065673828,-0.4726600050926208,0.3096421957015991,0.336764395236969,0.7531958222389221,0.9331692457199096,-0.2162700891494751,1.2300945520401
2025-11-21 04:22:16.320,-7.784193992614746,4.913013458251953,7.966911315917969,-0.7713474035263062,-0.2334963679313659,-0.2993151545524597,5.719998836517334,2.0477261543273926,-7.697974681854248,-0.4740204811096191,0.3107931017875671,0.3343185186386108,0.7529563903808594,0.9317564964294434,-0.2103578895330429,1.2297812700271606
2025-11-21 04:22:16.330,-8.196393966674805,4.755768775939941,8.527952194213867,-0.3973561525344848,-0.1711899489164352,-0.1466033458709716,5.730549812316895,2.026973009109497,-7.695619583129883,-0.4741594791412353,0.3112165033817291,0.3331179320812225,0.753226101398468,0.930727481842041,-0.2081944793462753,1.2284917831420898
2025-11-21 04:22:16.340,-8.479203224182129,4.644742012023926,8.901663780212402,-0.0064138961024582,-0.0685676038265228,-0.0952921733260154,5.732496738433838,2.0379297733306885,-7.691275596618652,-0.4727944731712341,0.3112686276435852,0.3329202234745025,0.7541494369506836,0.9302942156791688,-0.2093365937471389,1.225312352180481
2025-11-21 04:22:16.350,-8.737222671508789,4.687668800354004,9.091540336608888,0.4285093545913696,0.0621537081897258,-0.1062874197959899,5.72475004196167,2.0807440280914307,-7.6855788230896,-0.4695939719676971,0.3111317157745361,0.3336405754089355,0.7558852434158325,0.930587112903595,-0.2138019651174545,1.2194446325302124
2025-11-21 04:22:16.360,-8.939396858215332,4.802750587463379,9.311134338378906,0.9220739603042604,0.1916533261537552,-0.1038440316915512,5.70721435546875,2.1606874465942383,-7.6765570640563965,-0.4643620252609253,0.3106571137905121,0.3354179859161377,0.7585214972496033,0.931493878364563,-0.2221514880657196,1.210677981376648
2025-11-21 04:22:16.370,-8.97982406616211,4.947899341583252,9.630388259887695,1.4315205812454224,0.2771719396114349,-0.008551862090826,5.68149471282959,2.284050941467285,-7.659904479980469,-0.4572055339813232,0.3094327747821808,0.3384904563426971,0.7619965076446533,0.9326163530349731,-0.2350672036409378,1.1995784044265747
2025-11-21 04:22:16.380,-8.685413360595703,5.026155471801758,9.972822189331056,1.892099380493164,0.3370349705219269,0.2309002578258514,5.646530151367188,2.454594850540161,-7.632957458496094,-0.4485321044921875,0.307099312543869,0.3432157933712005,0.7659711837768555,0.9338833093643188,-0.2529890835285187,1.1875351667404177
2025-11-21 04:22:16.390,-7.954386949539185,5.011427402496338,10.276980876922606,2.338628649711609,0.38040512800216675,0.8393041491508484,5.569625377655029,2.7979079484939575,-7.569920301437378,-0.4341520667076111,0.3009294867515564,0.35418167710304255,0.7716589868068695,0.9364770650863647,-0.2893541604280472,1.1720717549324036
2025-11-21 04:22:16.400,-7.527877330780029,5.228902339935303,10.19161319732666,2.4687392711639404,0.4103366434574127,1.51734459400177,5.4607672691345215,3.204165458679199,-7.488907814025879,-0.4198268949985504,0.2925284504890442,0.3687891960144043,0.7759941816329956,0.9407532215118408,-0.3328457176685333,1.162240743637085
2025-11-21 04:22:16.410,-7.151073455810547,5.5770416259765625,9.36495876312256,2.383220672607422,0.5410579442977905,1.8667491674423216,5.356780052185059,3.493263959884644,-7.434540748596191,-0.4107426702976227,0.2865488827228546,0.3804864883422851,0.777438223361969,0.9464269280433656,-0.3642127215862274,1.160120964050293
2025-11-21 04:22:16.420,-6.513774394989014,6.052997589111328,8.052746772766113,2.2463908195495605,0.8110524415969849,2.093984365463257,5.21967887878418,3.7810308933258057,-7.391152381896973,-0.4018261134624481,0.2813768088817596,0.3933160603046417,0.7776023149490356,0.9559171795845032,-0.3958123326301574,1.160930871963501
2025-11-21 04:22:16.430,-5.879090309143066,6.842161178588867,6.191305637359619,2.118112802505493,1.1800042390823364,2.239366054534912,5.043807029724121,4.063104629516602,-7.363530158996582,-0.3927775919437408,0.2775390446186065,0.4071971178054809,0.7764588594436646,0.97022807598114,-0.4271970391273498,1.164332628250122
2025-11-21 04:22:16.440,-4.829353332519531,8.19030475616455,3.4121222496032715,2.097344160079956,1.667460322380066,2.3297715187072754,4.822103023529053,4.34321928024292,-7.352153778076172,-0.3829401135444641,0.2753506898880005,0.4222832918167114,0.7740902304649353,0.990301251411438,-0.4588140249252319,1.169677972793579
2025-11-21 04:22:16.450,-3.993708610534668,10.05578899383545,0.0564031600952148,2.184084415435791,2.2086710929870605,2.3700873851776123,4.551542282104492,4.62555456161499,-7.352420806884766,-0.3716002404689789,0.2749404609203338,0.4385700225830078,0.7706992626190186,1.0164844989776611,-0.4911897778511047,1.1760101318359375
2025-11-21 04:22:16.460,-3.9041190147399902,12.120370864868164,-3.0344347953796387,2.446748733520508,2.5788443088531494,2.4018514156341557,4.243337631225586,4.921259880065918,-7.344770908355713,-0.3584424555301666,0.2752628624439239,0.4559389650821686,0.7667261958122253,1.0469083786010742,-0.5257118940353394,1.182761788368225
2025-11-21 04:22:16.470,-4.67650842666626,14.524105072021484,-5.704846858978272,3.023388624191284,2.5849528312683105,2.4494974613189697,3.921058416366577,5.252212047576904,-7.294515609741211,-0.3430054485797882,0.2742365598678589,0.4742108881473541,0.7630633115768433,1.0775734186172483,-0.5651904344558716,1.188621163368225
2025-11-21 04:22:16.480,-5.705874443054199,17.092687606811523,-9.628913879394531,3.9530980587005615,2.1683549880981445,2.444610834121704,3.615817070007324,5.636349201202393,-7.164343357086182,-0.3251227140426636,0.2694993019104004,0.4929652810096741,0.7606908679008484,1.1033987998962402,-0.6122958064079285,1.1920785903930664
2025-11-21 04:22:16.490,-5.316120147705078,18.86885452270508,-14.631854057312012,5.20426607131958,1.5074182748794556,2.3297715187072754,3.3531970977783203,6.081762313842773,-6.923772811889648,-0.3044035732746124,0.2594226598739624,0.5115998387336731,0.7604629993438721,1.1197857856750488,-0.6689557433128357,1.19047749042511
2025-11-21 04:22:16.500,-2.4402968883514404,19.391725540161133,-20.331403732299805,6.562790393829346,0.9564340710639954,2.1196398735046387,3.136606454849243,6.577357769012451,-6.562808990478516,-0.2805937528610229,0.2439605146646499,0.5296799540519714,0.7623578906059265,1.1249547004699707,-0.735157310962677,1.1816456317901611
2025-11-21 04:22:16.510,0.900733470916748,19.95691299438477,-24.798738479614254,7.536480903625488,0.6558972597122192,1.9547111988067627,2.948864221572876,7.087562084197998,-6.102544784545898,-0.2544974684715271,0.2246950566768646,0.5469569563865662,0.7652328014373779,1.1206636428833008,-0.8077445030212402,1.1660797595977783
2025-11-21 04:22:16.520,3.404085397720337,21.204408645629883,-26.499418258666992,7.571255096435548,0.6265766024589539,1.8630841970443728,2.7689285278320312,7.563195705413818,-5.594773769378662,-0.2280976921319961,0.204298660159111,0.5631039142608643,0.7675594687461853,1.1112263202667236,-0.8807733654975891,1.1469926834106443
2025-11-21 04:22:16.530,5.8403167724609375,21.372501373291016,-26.60600471496582,7.384990692138672,0.978424608707428,1.8618624210357664,2.573594093322754,7.97614049911499,-5.091972351074219,-0.202240765094757,0.1857122331857681,0.578181803226471,0.7683199048042297,1.1028207540512085,-0.949870228767395,1.12736976146698
2025-11-21 04:22:16.540,8.838956832885742,22.027305603027344,-25.60308074951172,6.763148307800293,1.8042900562286377,1.877744436264038,2.3454837799072266,8.320969581604004,-4.6293158531188965,-0.1763592809438705,0.1714754700660705,0.5924608111381531,0.7671269774436951,1.1018359661102295,-1.0131494998931885,1.1090202331542969
2025-11-21 04:22:16.550,10.233116149902344,19.226146697998047,-25.01057243347168,6.160852909088135,2.56540584564209,2.015795946121216,2.082768201828003,8.607781410217285,-4.211718559265137,-0.1509355157613754,0.1612984538078308,0.6064578890800476,0.7638128399848938,1.1115443706512451,-1.0711442232131958,1.0964192152023315
2025-11-21 04:22:16.560,12.150104522705078,13.368247032165527,-23.913654327392575,5.7063822746276855,3.104172945022583,2.5032520294189453,1.772350788116455,8.854353904724121,-3.82486343383789,-0.1263252049684524,0.153754323720932,0.6212848424911499,0.7578962445259094,1.1368745565414429,-1.1264523267745972,1.0971038341522217
2025-11-21 04:22:16.570,12.09639835357666,7.927254676818848,-21.853445053100582,5.349647521972656,3.3924930095672607,3.173962354660034,1.4039961099624634,9.070585250854492,-3.4530653953552246,-0.1027173325419426,0.1476019769906997,0.6376752853393555,0.7490214109420776,1.184618353843689,-1.180883765220642,1.1199047565460205
2025-11-21 04:22:16.580,11.061243057250977,3.14035701751709,-18.935474395751957,4.9513750076293945,3.5024454593658447,3.736094474792481,0.9893550276756288,9.253012657165527,-3.09407901763916,-0.0802885070443153,0.1425677984952926,0.6551575064659119,0.7375614047050476,1.2613133192062378,-1.233173131942749,1.1719372272491455
2025-11-21 04:22:16.590,9.46249294281006,-0.8411760330200195,-15.848140716552734,4.399016380310059,3.474346399307251,3.993872165679932,0.55633944272995,9.393848419189451,-2.759798049926758,-0.0596294999122619,0.1388740986585617,0.6725686192512512,0.7244375348091125,1.3718751668930054,-1.2796169519424438,1.25854754447937
2025-11-21 04:22:16.600,8.09302043914795,-4.391074180603027,-13.490443229675291,3.676995038986206,3.390049457550049,3.91568374633789,0.1358350068330764,9.489747047424316,-2.469137668609619,-0.0413446202874183,0.1370560377836227,0.6886871457099915,0.7107856869697571,1.515838623046875,-1.315881848335266,1.3792691230773926
2025-11-21 04:22:16.610,7.076028823852539,-7.85309886932373,-10.957757949829102,2.980629205703736,3.3888278007507324,3.55146598815918,-0.2481476068496704,9.548185348510742,-2.2228267192840576,-0.0248227063566446,0.1374450922012329,0.7026811838150024,0.6976616978645325,1.6819720268249512,-1.3406978845596311,1.5214678049087524
2025-11-21 04:22:16.620,5.351818084716797,-13.058260440826416,-8.319360971450806,2.170034885406494,3.595905065536499,2.5741103887557983,-0.7082161605358124,9.588703632354736,-1.9236515164375305,-0.00133603974245485,0.14267069846391675,0.7181441485881805,0.6810325980186462,1.9250010251998901,-1.3596152067184448,1.7236616611480713
2025-11-21 04:22:16.630,3.736331224441528,-17.60677719116211,-6.049717903137207,1.5842323303222656,3.791987180709839,1.2717839479446411,-1.0140411853790283,9.609349250793455,-1.674069046974182,0.022141283378005,0.151607409119606,0.7271292209625244,0.6691846251487732,2.115421772003174,-1.3698643445968628,1.8678267002105715
2025-11-21 04:22:16.640,3.1453216075897217,-19.80353355407715,-4.741026878356934,1.3569971323013306,3.954472541809082,0.2260134816169738,-1.0927542448043823,9.625271797180176,-1.5265741348266602,0.0386753715574741,0.1592950075864792,0.7282444834709167,0.665424108505249,2.192061424255371,-1.3781678676605225,1.9098498821258545
2025-11-21 04:22:16.650,2.8459391593933105,-21.740951538085938,-3.418020725250244,1.2555965185165403,4.089011669158936,-0.9052756428718568,-1.0644946098327637,9.650121688842772,-1.382896900177002,0.0564569644629955,0.1675523668527603,0.7253966927528381,0.665235698223114,2.2268226146698,-1.391887903213501,1.907397747039795
2025-11-21 04:22:16.660,2.7786705493927,-23.61050033569336,-1.6069676876068115,1.234827756881714,4.035256862640381,-2.0525994300842285,-0.9233707189559937,9.683975219726562,-1.2403216361999512,0.0752889588475227,0.1754516214132309,0.7185370922088623,0.6687695980072021,2.210743188858032,-1.412458419799805,1.8531255722045896
2025-11-21 04:22:16.670,2.634188175201416,-25.279380798339844,0.2843866944313049,1.1957335472106934,3.629501819610596,-3.124025583267212,-0.6712819337844849,9.720823287963867,-1.1069597005844116,0.0938792452216148,0.1818072199821472,0.7079350352287292,0.6759887933731079,2.1159229278564453,-1.438398003578186,1.7226581573486328
2025-11-21 04:22:16.680,2.5901401042938232,-26.398948669433597,1.9273388385772705,1.083337664604187,2.8915982246398926,-4.03052282333374,-0.3199712336063385,9.750956535339355,-0.9934071898460388,0.1107851192355156,0.1857688277959823,0.6941210031509399,0.6865949630737305,1.8823987245559688,-1.4641700983047483,1.4592616558074951
2025-11-21 04:22:16.690,2.8972089290618896,-27.18716812133789,3.0085389614105225,0.8842014074325562,1.9802141189575195,-4.686573028564453,0.1081423386931419,9.764016151428224,-0.9070208072662354,0.1248694062232971,0.1870024502277374,0.677876353263855,0.6999438405036926,1.4521281719207764,-1.4775161743164062,1.0069270133972168
2025-11-21 04:22:16.700,3.4794065952301025,-27.41354751586914,3.479896545410156,0.6374191045761108,1.114032745361328,-5.028647422790527,0.5816744565963745,9.752591133117676,-0.8479433059692383,0.1358405351638794,0.1858879625797271,0.6601427793502808,0.7149856686592102,0.96953946352005,-1.4657477140426636,0.5098825693130493
2025-11-21 04:22:16.710,3.938356399536133,-27.16446876525879,3.5589358806610107,0.3588727712631225,0.3871244490146637,-5.006656646728516,1.062634825706482,9.714869499206545,-0.8139399886131287,0.1436928510665893,0.1831294000148773,0.6420937180519104,0.7304325103759766,0.6536402106285095,-1.4338756799697876,0.1861120462417602
2025-11-21 04:22:16.720,4.1067962646484375,-26.641902923583984,3.471024990081787,-0.0051922015845775,-0.2273878902196884,-4.640148639678955,1.515267848968506,9.65511703491211,-0.8081339001655579,0.1481044441461563,0.1794913709163665,0.6249205470085144,0.74519944190979,0.489952802658081,-1.3947726488113403,0.0205649007111787
2025-11-21 04:22:16.730,4.149704933166504,-25.727941513061523,3.397159576416016,-0.5231906771659851,-0.6830799579620361,-4.0366315841674805,1.9150904417037964,9.580921173095703,-0.8418852090835571,0.1488020420074463,0.1761111617088318,0.6093786954879761,0.7586174011230469,0.4141766428947449,-1.3558223247528076,-0.0522024966776371
2025-11-21 04:22:16.740,3.967022895812988,-24.188304901123047,3.308148145675659,-1.2759071588516235,-0.9530744552612304,-3.352482557296753,2.2528042793273926,9.49830436706543,-0.9367315173149108,0.145265519618988,0.1742683947086334,0.5956252813339233,0.7705575823783875,0.3940582275390625,-1.3193658590316772,-0.0654576271772384
2025-11-21 04:22:16.750,3.5750865936279297,-22.26604461669922,3.1384048461914062,-2.2923569679260254,-1.0361496210098269,-2.719644784927368,2.531902313232422,9.407865524291992,-1.1189018487930298,0.1370437890291214,0.1753367483615875,0.5832374691963196,0.781223475933075,0.4161154329776764,-1.2846375703811646,-0.0340085998177528
2025-11-21 04:22:16.760,3.1372811794281006,-20.359569549560547,2.874863147735596,-3.54337215423584,-0.946965992450714,-2.1796557903289795,2.760091543197632,9.303613662719728,-1.4124679565429688,0.1236603632569313,0.1804389208555221,0.5715910196304321,0.7908436059951782,0.4730008244514465,-1.2491127252578735,0.0337943360209465
2025-11-21 04:22:16.770,2.778605461120605,-18.598981857299805,2.219350576400757,-4.89700984954834,-0.7991409301757812,-1.7018204927444458,2.9430811405181885,9.17446231842041,-1.826988697052002,0.1047165766358375,0.189907506108284,0.5602497458457947,0.7994309663772583,0.5555548667907715,-1.2097703218460083,0.1287800818681717
2025-11-21 04:22:16.780,3.121941566467285,-17.273794174194336,0.5852583646774292,-6.110305309295654,-0.650094211101532,-1.243685007095337,3.084364414215088,9.007781982421877,-2.348814010620117,0.0804475471377372,0.2032015919685363,0.5490449070930481,0.8067137002944946,0.6508351564407349,-1.1643669605255127,0.2383488416671753
2025-11-21 04:22:16.790,4.278506755828857,-16.543270111083984,-2.122178077697754,-6.898298263549805,-0.515707790851593,-0.7953231334686279,3.186787366867065,8.79679012298584,-2.937901496887207,0.0521363653242588,0.2189540714025497,0.538124680519104,0.8122577667236328,0.7447839379310608,-1.1129869222640991,0.3485491275787353
2025-11-21 04:22:16.800,5.490192413330078,-15.906414031982422,-5.486506462097168,-7.068113803863525,-0.4827220439910888,-0.3494046330451965,3.2533740997314453,8.549335479736328,-3.5347988605499268,0.0217740163207054,0.2350351959466934,0.5280932784080505,0.8157216310501099,0.8268323540687561,-1.0588434934616089,0.4491767585277557
2025-11-21 04:22:16.810,6.540620803833008,-14.976547241210938,-8.824016571044922,-6.617308139801025,-0.6061131954193115,0.0818535313010215,3.2914979457855225,8.287678718566895,-4.080538272857666,-0.008562508970499,0.2491557896137237,0.5197131037712097,0.817157506942749,0.8920238614082336,-1.0067673921585083,0.5359008312225342
2025-11-21 04:22:16.820,7.000759124755859,-12.88259506225586,-10.29012393951416,-5.865813732147217,-0.8871029615402222,0.4544703662395477,3.3135406970977783,8.034584999084473,-4.542718410491943,-0.0373628288507461,0.2600090801715851,0.5132755041122437,0.8170358538627625,0.9405983686447144,-0.9601884484291076,0.6089441776275635
2025-11-21 04:22:16.830,6.376485824584961,-8.828985214233398,-9.311542510986328,-5.353923320770264,-1.4211361408233645,0.7195780873298645,3.3399903774261475,7.792630672454834,-4.928464889526367,-0.0654818266630172,0.2671252191066742,0.5082833766937256,0.8160908222198486,0.9751982688903807,-0.9183931350708008,0.6730079054832458
2025-11-21 04:22:16.840,5.093992233276367,-3.190145492553711,-7.905158042907715,-5.444328784942627,-2.2555534839630127,0.8246437907218933,3.399622201919556,7.538058280944824,-5.271683216094971,-0.0953140407800674,0.2709327936172485,0.503252387046814,0.8150139451026917,0.9980263113975524,-0.8767561316490173,0.7331469655036926
2025-11-21 04:22:16.850,5.012547254562378,6.095858335494995,-10.20779800415039,-6.441384315490723,-3.3929511308670044,0.4868452697992325,3.608426332473755,7.04947566986084,-5.777767896652222,-0.14704930037260056,0.2734020948410034,0.4911681860685348,0.813645213842392,1.0124782919883728,-0.8025276958942413,0.8195521831512451
2025-11-21 04:22:16.860,7.69886589050293,11.777326583862305,-18.161231994628903,-7.169514179229736,-3.645841836929321,-0.1637070626020431,3.920538902282715,6.429589748382568,-6.281730651855469,-0.2026820182800293,0.2764982879161834,0.4729237258434295,0.8116722702980042,1.012831687927246,-0.7150241732597351,0.8980326652526855
2025-11-21 04:22:16.870,11.165149688720703,12.706884384155272,-24.82077407836914,-6.96549129486084,-2.9775750637054443,-0.3408527672290802,4.121578216552734,5.974073886871338,-6.594953536987305,-0.2381252646446228,0.2806163132190704,0.4594697654247284,0.8083553314208984,1.0122262239456177,-0.6550337076187134,0.9452214241027832
2025-11-21 04:22:16.880,12.47857666015625,14.345251083374023,-29.78588485717773,-6.311884880065918,-2.19446873664856,-0.1404948681592941,4.264582633972168,5.548593521118164,-6.8699951171875,-0.2694272696971893,0.2858175635337829,0.4481909275054931,0.8030206561088562,1.015255570411682,-0.6014020442962646,0.9890578985214232
2025-11-21 04:22:16.890,12.006772994995115,16.412578582763672,-31.878568649291992,-5.328268051147461,-1.675248622894287,0.3103103935718536,4.349699020385742,5.197173595428467,-7.088010311126709,-0.2957809269428253,0.2901748418807983,0.440483421087265,0.7964211106300354,1.020385980606079,-0.5585583448410034,1.0294506549835205
2025-11-21 04:22:16.900,10.479158401489258,17.373769760131836,-30.48414421081543,-4.098021507263184,-1.411362648010254,0.781884491443634,4.394861221313477,4.946833610534668,-7.23770809173584,-0.31670942902565,0.2921922504901886,0.4365181922912597,0.7897915244102478,1.0250868797302246,-0.5287293791770935,1.0650668144226074
2025-11-21 04:22:16.910,7.950758934020996,17.24933624267578,-26.449153900146484,-2.887322187423706,-1.2719366550445557,1.0677610635757446,4.418428421020508,4.794705867767334,-7.32520866394043,-0.3323350250720978,0.2917614877223968,0.4354286193847656,0.7841113209724426,1.0280410051345823,-0.5108557343482971,1.0945554971694946
2025-11-21 04:22:16.920,5.324020385742188,16.46649932861328,-20.676836013793945,-1.9844900369644165,-1.1228899955749512,1.0995250940322876,4.432164669036865,4.711438655853272,-7.370797634124756,-0.343592494726181,0.2899220585823059,0.4358528554439544,0.7796933054924011,1.0294110774993896,-0.5011484026908875,1.117660403251648
2025-11-21 04:22:16.930,2.6665258407592773,15.658512115478516,-14.103330612182615,-1.4945905208587646,-0.9823951125144958,0.9248227477073668,4.445652484893799,4.660671710968018,-7.3949103355407715,-0.351757287979126,0.2878570854663849,0.4364322423934936,0.7764869928359985,1.029511570930481,-0.4952552616596222,1.1347802877426147
2025-11-21 04:22:16.940,0.196563720703125,14.798555374145508,-8.134174346923828,-1.3455437421798706,-0.9799517393112184,0.6670452356338501,4.471704959869385,4.614264488220215,-7.4082932472229,-0.3584450185298919,0.2858969867229461,0.4361988306045532,0.7742807269096375,1.0277280807495115,-0.4898845553398132,1.1474515199661257
2025-11-21 04:22:16.950,-1.4168167114257812,13.610710144042969,-3.6852989196777344,-1.3614258766174316,-1.1509889364242554,0.4422534108161926,4.521444320678711,4.559668064117432,-7.411907196044922,-0.3649137020111084,0.283690482378006,0.434730052947998,0.7728955149650574,1.0230385065078735,-0.483585774898529,1.157353401184082
2025-11-21 04:22:16.960,-2.1605191230773926,12.23377799987793,-0.9416670799255372,-1.3699777126312256,-1.4076975584030151,0.3188622593879699,4.596596717834473,4.499600887298584,-7.402383327484131,-0.3717125654220581,0.2807057201862335,0.4322535097599029,0.772134006023407,1.015106201171875,-0.4766797721385956,1.165945053100586
2025-11-21 04:22:16.970,-2.438936948776245,10.798934936523438,0.4951667785644531,-1.284459114074707,-1.6569231748580933,0.3115321099758148,4.6911396980285645,4.444493770599365,-7.376317501068115,-0.3793372511863708,0.2762637734413147,0.4295308589935303,0.7715470194816589,1.0043450593948364,-0.4703656136989593,1.1755605936050415
2025-11-21 04:22:16.980,-2.4438838958740234,9.401893615722656,1.2160048484802246,-1.1146435737609863,-1.8157434463500977,0.3665083646774292,4.795522689819336,4.402606964111328,-7.334193706512451,-0.3868888914585113,0.2707233428955078,0.4268550872802734,0.7712461352348328,0.9917135834693908,-0.4655798375606537,1.1850254535675049
2025-11-21 04:22:16.990,-2.669614315032959,8.255790710449219,1.8379197120666504,-0.932611048221588,-1.8804932832717896,0.4337015450000763,4.901637077331543,4.375983238220215,-7.279773712158203,-0.3940937221050262,0.2644038796424866,0.4244722127914428,0.7711057662963867,0.9781998991966248,-0.4625438749790191,1.19430410861969
2025-11-21 04:22:17.000,-3.3421263694763184,7.338316917419434,2.7456064224243164,-0.7847860455513,-1.882936716079712,0.5057815313339233,5.004051208496094,4.363377094268799,-7.217395782470703,-0.4009258151054382,0.2575841546058655,0.4225101172924042,0.770969569683075,0.9645595550537108,-0.4611079692840576,1.203622341156006
2025-11-21 04:22:17.010,-4.16231632232666,6.374051094055176,3.746947288513184,-0.6736118197441101,-1.835290551185608,0.5876350402832031,5.098672389984131,4.362768173217773,-7.1512370109558105,-0.4072924554347992,0.250579833984375,0.4210104644298553,0.7707611918449402,0.9514134526252748,-0.4610386192798614,1.2129042148590088
2025-11-21 04:22:17.020,-5.045867919921875,5.305416584014893,4.720392227172852,-0.6038225293159485,-1.7290031909942627,0.6890357136726379,5.180623531341553,4.372067451477051,-7.086363315582275,-0.4133771657943725,0.2435954958200454,0.4201463162899017,0.7702322006225586,0.9395212531089784,-0.4620977342128753,1.222866773605347
2025-11-21 04:22:17.030,-5.9687018394470215,4.22072172164917,5.633180618286133,-0.5732801556587219,-1.5628527402877808,0.8050966858863831,5.245261192321777,4.389275550842285,-7.027935028076172,-0.4192314147949219,0.236900970339775,0.4200524091720581,0.769206702709198,0.9296388030052184,-0.4640590846538543,1.2338982820510864
2025-11-21 04:22:17.040,-6.966588020324707,3.206284523010254,6.448975563049316,-0.5793886184692383,-1.3600513935089111,0.9211576581001282,5.290100574493408,4.411972522735596,-6.97995138168335,-0.4249009788036346,0.2307132482528686,0.4207746684551239,0.7675800919532776,0.922258734703064,-0.4666488170623779,1.2462133169174194
2025-11-21 04:22:17.050,-7.950347900390625,2.4024100303649902,7.193359375,-0.6294780969619751,-1.1302201747894287,1.016449809074402,5.3143229484558105,4.436384677886963,-6.945995330810547,-0.430395632982254,0.2252836674451828,0.4222466349601745,0.7653199434280396,0.917706310749054,-0.4694381654262543,1.2597640752792358
2025-11-21 04:22:17.060,-8.84716796875,1.847839832305908,7.951284885406494,-0.7041541934013367,-0.8602256774902344,1.083643078804016,5.316681861877441,4.459672927856445,-6.929255962371826,-0.435701847076416,0.2208317071199417,0.4244502484798431,0.7623904943466187,0.9163272380828856,-0.4721028506755829,1.274534821510315
2025-11-21 04:22:17.070,-9.8341703414917,1.5213818550109863,8.592008590698242,-0.7750124335289001,-0.5780141949653625,1.1349542140960691,5.296802997589111,4.481356620788574,-6.930490493774414,-0.4407128095626831,0.2174418866634369,0.4273841679096222,0.7588372826576233,0.9182214736938475,-0.4745871126651764,1.2903088331222534
2025-11-21 04:22:17.080,-10.867860794067383,1.0061540603637695,9.208017349243164,-0.8678612411022186,-0.1815743409097194,1.2021474242210388,5.225916385650635,4.509386777877808,-6.965940713882446,-0.44756022095680237,0.21439932286739344,0.4331054836511612,0.752414345741272,0.9271630048751831,-0.4778033792972564,1.3155524134635925
2025-11-21 04:22:17.090,-11.231389999389648,0.3474950790405273,9.288496017456056,-0.8788564801216125,0.2283041626214981,1.2607887983322144,5.114015579223633,4.535991191864014,-7.031501770019531,-0.4522921442985534,0.2139512598514557,0.4398666024208069,0.7457707524299622,0.9419817924499512,-0.4808605909347534,1.338740587234497
2025-11-21 04:22:17.100,-11.17152976989746,0.1053075790405273,8.990571022033691,-0.7689039707183838,0.5007420182228088,1.3108782768249512,5.011021137237549,4.561647891998291,-7.088823795318604,-0.45526123046875,0.2140684723854065,0.4457395076751709,0.7404243350028992,0.9554609060287476,-0.4838137328624725,1.3566679954528809
2025-11-21 04:22:17.110,-10.846802711486816,0.1104011535644531,8.554315567016602,-0.5610632300376892,0.789061963558197,1.3805148601531982,4.884278774261475,4.6024370193481445,-7.150649547576904,-0.4569352865219116,0.2146072387695312,0.4526751935482025,0.7350095510482788,0.9715343713760376,-0.4885181784629822,1.374077081680298
2025-11-21 04:22:17.120,-10.265702247619627,0.0511069297790527,7.881491661071777,-0.2629697322845459,1.070051670074463,1.4868022203445437,4.732234477996826,4.665564060211182,-7.211716651916504,-0.4570764899253845,0.2152403742074966,0.4608630836009979,0.7296285629272461,0.9900840520858764,-0.4958223104476928,1.3909093141555786
2025-11-21 04:22:17.130,-9.627447128295898,-0.1959238052368164,7.172988414764404,0.115755558013916,1.35226309299469,1.619966983795166,4.552960395812988,4.7570881843566895,-7.2671217918396,-0.4548293352127075,0.2161063849925995,0.4702782928943634,0.7247527837753296,1.0111082792282104,-0.5064637660980225,1.405443549156189
2025-11-21 04:22:17.140,-9.241924285888672,-0.1594352722167968,6.852653980255127,0.5079194903373718,1.6100406646728516,1.738471269607544,4.347667694091797,4.87784481048584,-7.312646389007568,-0.4507089853286743,0.2167028486728668,0.4810099005699157,0.7200908064842224,1.034400463104248,-0.520601212978363,1.4192326068878174
2025-11-21 04:22:17.150,-8.86789321899414,0.3310370445251465,6.582092761993408,0.851215660572052,1.8519362211227417,1.804442763328552,4.118960380554199,5.022549152374268,-7.347010135650635,-0.4447437226772308,0.2171848267316818,0.4927699565887451,0.7156895399093628,1.0598279237747192,-0.5376948118209839,1.432078838348389
2025-11-21 04:22:17.160,-8.180192947387695,1.0392842292785645,6.147825241088867,1.1212100982666016,2.106048583984375,1.8019994497299197,3.869231939315796,5.1829023361206055,-7.371359825134277,-0.4371056258678436,0.21784009039402,0.5052422881126404,0.7114875912666321,1.0874271392822266,-0.5568432211875916,1.444017767906189
2025-11-21 04:22:17.170,-7.499823570251465,2.07562255859375,5.27734899520874,1.3069076538085938,2.291746139526367,1.7494665384292605,3.605391502380371,5.350894927978516,-7.38508415222168,-0.4281051754951477,0.2187711149454116,0.5179917216300964,0.707495391368866,1.1166340112686155,-0.577151894569397,1.4550023078918457
2025-11-21 04:22:17.180,-7.105717658996582,3.648262023925781,4.029985427856445,1.4327422380447388,2.393146753311157,1.6444008350372314,3.335578441619873,5.52100133895874,-7.386666297912598,-0.4180640578269958,0.2199298441410064,0.5306257605552673,0.7037681341171265,1.146639704704285,-0.5979937314987183,1.46494722366333
2025-11-21 04:22:17.190,-6.806232929229736,5.885650157928467,2.439949989318848,1.5353646278381348,2.481108903884888,1.4758069515228271,3.0643343925476074,5.690474033355713,-7.375549793243408,-0.4075685739517212,0.2209844589233398,0.5430729985237122,0.7000895738601685,1.1770235300064087,-0.6190562844276428,1.4749760627746582
2025-11-21 04:22:17.200,-6.3939208984375,8.666923522949219,0.8600821495056152,1.6294350624084473,2.6142735481262207,1.2937744855880735,2.790422916412353,5.859485626220703,-7.351894378662109,-0.3958925008773803,0.2225224077701568,0.5551682710647583,0.6968078017234802,1.2080413103103638,-0.6403813362121582,1.4832453727722168
2025-11-21 04:22:17.210,-5.985432624816895,11.98528289794922,-0.8516068458557129,1.8236844539642332,2.793862581253052,1.203369140625,2.5064849853515625,6.0382490158081055,-7.309410095214844,-0.3824774324893951,0.2243581861257553,0.5673343539237976,0.6939064860343933,1.2404499053955078,-0.6633121967315674,1.4898844957351685
2025-11-21 04:22:17.220,-5.803073406219482,16.15001106262207,-3.1024694442749023,2.23661732673645,2.9490177631378174,1.2705622911453247,2.2054264545440674,6.245337009429932,-7.232028961181641,-0.3668896853923797,0.2254270613193512,0.5802906155586243,0.6912578344345093,1.2748019695281982,-0.6904019713401794,1.4963953495025637
2025-11-21 04:22:17.230,-5.635799884796143,20.315004348754883,-6.04548454284668,2.7460639476776123,2.803636312484741,1.4953540563583374,1.8994920253753664,6.486655235290527,-7.105323314666748,-0.3499439656734466,0.224145233631134,0.5940637588500977,0.6887571215629578,1.3095712661743164,-0.7227568030357361,1.505074381828308
2025-11-21 04:22:17.240,-5.61069393157959,23.476734161376957,-9.741369247436523,3.2322983741760254,2.1512513160705566,1.7567967176437378,1.6204371452331543,6.754308223724365,-6.922708988189697,-0.3328917920589447,0.2193566411733627,0.6076704263687134,0.6868786811828613,1.3408604860305786,-0.7597602605819702,1.5158177614212036
2025-11-21 04:22:17.250,-4.046565055847168,24.628273010253903,-15.304611206054688,3.757627010345459,1.4402251243591309,1.8862963914871216,1.3822697401046753,7.038844108581543,-6.6868815422058105,-0.3172871172428131,0.2100300788879394,0.6208149790763855,0.6854232549667358,1.3669538497924805,-0.8005833029747009,1.530808925628662
2025-11-21 04:22:17.260,0.0508506298065185,24.028715133666992,-21.22208404541016,4.276846885681152,1.2520841360092163,1.8936264514923096,1.1641281843185425,7.331137180328369,-6.408557891845703,-0.3020192682743072,0.1978557556867599,0.6336395740509033,0.6842063665390015,1.391103744506836,-0.8443927764892578,1.5488572120666504
2025-11-21 04:22:17.270,3.438127994537353,21.80441665649414,-27.729061126708984,4.625030040740967,1.5428475141525269,1.8899613618850708,0.9365121722221376,7.615409374237059,-6.107280731201172,-0.286586046218872,0.1847596913576126,0.646618127822876,0.6823615431785583,1.4186378717422483,-0.8891803622245789,1.5715789794921875
2025-11-21 04:22:17.280,7.034026622772217,19.526199340820312,-28.67272186279297,4.650685787200928,2.3943686485290527,1.9376075267791748,0.6675044894218445,7.878526210784912,-5.801176071166992,-0.2694049775600433,0.1735938936471939,0.6601756811141968,0.6793042421340942,1.4562366008758545,-0.9329602122306824,1.599050521850586
2025-11-21 04:22:17.290,9.36929702758789,16.036014556884766,-28.01970863342285,4.577383995056152,3.5158841609954834,2.0585553646087646,0.3394313156604767,8.116376876831055,-5.493595600128174,-0.2496836632490158,0.1654787212610244,0.6747670769691467,0.6745103597640991,1.5090880393981934,-0.9748898148536682,1.63374125957489
2025-11-21 04:22:17.300,9.553596496582031,11.799739837646484,-25.655845642089844,4.510190963745117,4.360227584838867,2.2613565921783447,-0.038736768066883,8.330408096313477,-5.174281597137451,-0.227708101272583,0.1596374809741974,0.6902831792831421,0.6679625511169434,1.5782824754714966,-1.014970779418945,1.678431749343872
2025-11-21 04:22:17.310,8.93992805480957,6.889516830444336,-22.936920166015625,4.438110828399658,4.735288143157959,2.431172132492065,-0.4392886161804199,8.518878936767578,-4.837986946105957,-0.2047615051269531,0.1546869575977325,0.7060236930847168,0.660057008266449,1.6613479852676392,-1.0525392293930054,1.7346264123916626
2025-11-21 04:22:17.320,8.48847246170044,-0.49145007133483876,-19.524861335754395,4.246915578842163,4.847683906555176,2.2253165245056152,-1.0060801208019257,8.748221397399902,-4.308019638061523,-0.16964640468358988,0.14865805208683008,0.7274288237094879,0.647893100976944,1.8016772270202637,-1.1021384596824646,1.832224488258362
2025-11-21 04:22:17.330,7.500689506530762,-6.631475925445557,-15.418456077575684,3.9005651473999023,4.822028160095215,1.4953540563583374,-1.4744925498962402,8.931540489196777,-3.77145004272461,-0.1344977170228958,0.1444993764162063,0.7354471335411165,0.6377555727958679,1.9434870481491089,-1.145129680633545,1.929015874862671
2025-11-21 04:22:17.340,6.857899188995361,-9.51890754699707,-11.681598663330078,3.6904337406158447,4.837910175323486,0.7623373866081238,-1.6924477815628052,9.037165641784668,-3.411105871200561,-0.1113372147083282,0.1423107683658599,0.7354471335411165,0.6334928870201111,2.031365871429444,-1.172013759613037,1.9866734743118288
2025-11-21 04:22:17.350,5.97469425201416,-11.69106101989746,-8.321609497070312,3.5084011554718018,4.839131832122803,-0.076966755092144,-1.825133800506592,9.140128135681152,-3.049154281616211,-0.0865363478660583,0.1423524171113968,0.7354471335411165,0.6320249438285828,2.110163927078247,-1.1999849081039429,2.02983021736145
2025-11-21 04:22:17.360,4.961479187011719,-13.253599166870115,-5.14808464050293,3.3080432415008545,4.664429664611816,-0.948034942150116,-1.8632540702819824,9.24338436126709,-2.6941654682159424,-0.0614813156425952,0.1432941257953643,0.7354471335411165,0.6334196925163269,2.1758549213409424,-1.2302215099334717,2.0583884716033936
2025-11-21 04:22:17.370,4.235501289367676,-14.25629997253418,-2.2680869102478027,3.072256326675415,4.326020240783691,-1.815590739250183,-1.8018865585327148,9.347121238708496,-2.3568856716156006,-0.0369198508560657,0.1446745693683624,0.7354471335411165,0.6377823352813721,2.2235255241394043,-1.2634546756744385,2.069167137145996
2025-11-21 04:22:17.380,3.4847257137298584,-14.738225936889648,0.1220490932464599,2.775384426116944,3.8310813903808594,-2.629239320755005,-1.643376708030701,9.448112487792969,-2.0500874519348145,-0.0136929135769605,0.1461340337991714,0.7354471335411165,0.6449989080429077,2.2465202808380127,-1.2995562553405762,2.057201862335205
2025-11-21 04:22:17.390,2.8699159622192383,-14.817036628723145,2.168722629547119,2.406432867050171,3.2129039764404297,-3.325605154037476,-1.3979660272598269,9.540916442871094,-1.7852152585983276,0.007370404433459,0.1473656892776489,0.7354471335411165,0.654728353023529,2.2351346015930176,-1.3374699354171753,2.014358758926392
2025-11-21 04:22:17.400,2.3710265159606934,-14.907072067260742,3.5889453887939453,1.948297381401062,2.510429620742798,-3.815504789352417,-1.0863120555877686,9.618454933166504,-1.573416829109192,0.0253546647727489,0.148188978433609,0.7303605675697327,0.6663112044334412,2.1750614643096924,-1.374570369720459,1.9278185367584229
2025-11-21 04:22:17.410,1.9966083765029907,-15.35189437866211,4.376065254211426,1.4278554916381836,1.8140636682510376,-4.070838928222656,-0.7338755130767822,9.675453186035156,-1.4203622341156006,0.0397773087024688,0.1487138271331787,0.7178449630737305,0.678970217704773,2.0476999282836914,-1.4070380926132202,1.7794334888458252
2025-11-21 04:22:17.420,1.7503459453582764,-16.397140502929688,4.328941822052002,0.8842014074325562,1.204438090324402,-4.120928287506104,-0.3640804290771484,9.709656715393066,-1.326803207397461,0.0503907985985279,0.1490544974803924,0.7045180797576904,0.6920244693756104,1.8386090993881223,-1.4300347566604614,1.554900288581848
2025-11-21 04:22:17.430,1.962679147720337,-17.776845932006836,3.393625259399414,0.3295520842075348,0.7536327838897705,-4.039074897766113,0.007500325795263,9.721131324768066,-1.2922592163085938,0.0575544498860836,0.1498426496982574,0.6907711625099182,0.7050318121910095,1.564992904663086,-1.4386357069015503,1.2699788808822632
2025-11-21 04:22:17.440,2.7138819694519043,-19.305709838867188,1.807083368301392,-0.216545358300209,0.5141806602478027,-3.879032850265503,0.3708136975765228,9.710987091064451,-1.3151451349258425,0.0615954473614692,0.1515161097049713,0.6768578886985779,0.7177131772041321,1.2959736585617063,-1.4310051202774048,0.992689847946167
2025-11-21 04:22:17.450,3.638337850570679,-20.94523429870605,0.1817240715026855,-0.7212579250335693,0.4824166297912597,-3.648132562637329,0.7161741256713867,9.681012153625488,-1.3912168741226196,0.0631967186927795,0.1546196341514587,0.6630068421363831,0.7297402620315552,1.0953930616378784,-1.410553216934204,0.7851197719573975
2025-11-21 04:22:17.460,4.258464813232422,-22.450532913208008,-0.8679015636444092,-1.135412335395813,0.5801522135734558,-3.3133883476257324,1.030778884887695,9.634511947631836,-1.5113071203231812,0.0630922466516494,0.1593758910894394,0.6496493220329285,0.7406581044197083,0.9722229838371276,-1.3831543922424316,0.6548858880996704
2025-11-21 04:22:17.470,4.213051795959473,-23.626707077026367,-1.0585590600967407,-1.4310624599456787,0.7120952010154724,-2.8503661155700684,1.3000319004058838,9.57680606842041,-1.662856936454773,0.0618429630994796,0.1656079441308975,0.6374094486236572,0.749972403049469,0.9072477221488952,-1.353864312171936,0.5822538137435913
2025-11-21 04:22:17.480,3.7782607078552246,-24.059553146362305,-0.3583908081054687,-1.6460806131362915,0.7756233215332031,-2.2981600761413574,1.5152934789657593,9.513470649719238,-1.8352476358413696,0.05889463238418095,0.17311539500951764,0.6276529431343079,0.7565780580043793,0.8930468857288361,-1.3265386819839478,0.5609035193920135
2025-11-21 04:22:17.490,2.737956523895264,-23.63105773925781,1.1601576805114746,-1.8916412591934204,0.6449019908905029,-1.747175931930542,1.6784944534301758,9.447210311889648,-2.0256497859954834,0.0559463016688823,0.1806228458881378,0.6178964376449585,0.7631837129592896,0.8788460493087769,-1.2992130517959597,0.5395532250404358
2025-11-21 04:22:17.500,1.6666468381881714,-22.617765426635746,2.948413372039795,-2.266701459884644,0.3309265077114105,-1.2693406343460083,1.8004846572875977,9.37589168548584,-2.2408251762390137,0.0499195419251918,0.1885254085063934,0.6104580163955688,0.7676634788513184,0.8939298391342163,-1.2733049392700195,0.5512787103652954
2025-11-21 04:22:17.510,0.7705755233764648,-21.358909606933597,4.390524864196777,-2.8274593353271484,-0.09666658192873,-0.8612946271896362,1.891982197761536,9.293400764465332,-2.494694232940674,0.0404574237763881,0.1966059952974319,0.6040545105934143,0.7712505459785461,0.9219393134117126,-1.2458351850509644,0.5805509686470032
2025-11-21 04:22:17.520,0.2735595703125,-19.963077545166016,5.367467880249023,-3.578801393508911,-0.5560237169265747,-0.5204418897628784,1.9631364345550537,9.190305709838867,-2.802632093429565,0.0266511719673872,0.2051628977060318,0.5981773138046265,0.774197518825531,0.9597606658935548,-1.214371919631958,0.6250906586647034
2025-11-21 04:22:17.530,0.1806318759918213,-18.76769256591797,5.457398414611816,-4.411996841430664,-0.9726215600967408,-0.2455606013536453,2.022910594940185,9.056340217590332,-3.1718943119049072,0.0081432992592453,0.2144603729248047,0.5923402905464172,0.7765780091285706,1.0030732154846191,-1.1770797967910769,0.6806695461273193
2025-11-21 04:22:17.540,0.6790094375610352,-18.1025390625,4.691511631011963,-5.1914381980896,-1.2756017446517944,0.0024433890357613,2.075467586517334,8.88339900970459,-3.598337888717652,-0.0147973457351326,0.2246054112911224,0.5862874984741211,0.7782033681869507,1.047621726989746,-1.133393168449402,0.7424857020378113
2025-11-21 04:22:17.550,2.4889310598373413,-17.598041534423828,1.762798547744751,-6.118780612945557,-1.3660835027694702,0.3396310806274414,2.1382710933685303,8.530784130096436,-4.329027891159058,-0.0565516352653503,0.24179229140281674,0.5765985250473022,0.7782055735588074,1.1110179424285889,-1.0556734800338745,0.8392886221408844
2025-11-21 04:22:17.560,4.952749252319336,-17.102840423583984,-2.0432024002075195,-6.548893451690674,-0.9139801859855652,0.5412106513977051,2.174389600753784,8.085991859436035,-5.104815483093262,-0.1018915772438049,0.2614016830921173,0.566397488117218,0.7749071717262268,1.1681222915649414,-0.969391703605652,0.9313908815383912
2025-11-21 04:22:17.570,5.969451904296875,-16.177501678466797,-4.339627742767334,-6.397403240203857,-0.645207405090332,0.624285876750946,2.1803274154663086,7.748068809509277,-5.602142810821533,-0.1319409906864166,0.2748382091522217,0.5597304701805115,0.7705565094947815,1.199638843536377,-0.9109444618225098,0.9856228828430176
2025-11-21 04:22:17.580,6.15522575378418,-14.16313934326172,-6.062706470489502,-6.03333854675293,-0.826018214225769,0.7708892226219177,2.1894400119781494,7.402243137359619,-6.048431396484375,-0.1616268008947372,0.2860735952854156,0.5536528825759888,0.7651844024658203,1.2234848737716677,-0.855377733707428,1.0353200435638428
2025-11-21 04:22:17.590,5.15037727355957,-10.32615089416504,-6.199055671691895,-5.760747909545898,-1.5433056354522705,0.9675820469856262,2.2293567657470703,7.055749893188477,-6.435585021972656,-0.1918230503797531,0.2936601042747497,0.5478121638298035,0.7595192193984985,1.237322449684143,-0.8030622005462646,1.0818426609039309
2025-11-21 04:22:17.600,3.5743727684021,-4.926148414611816,-6.19849157333374,-5.870700359344482,-2.7967641353607178,1.1031901836395264,2.3420684337615967,6.692367076873779,-6.774756908416748,-0.2246718406677246,0.2968594133853912,0.540797770023346,0.7542777061462402,1.237952709197998,-0.7510839104652405,1.1265878677368164
2025-11-21 04:22:17.610,3.4662201404571533,0.2780404090881347,-9.196989059448242,-6.349757194519043,-4.288453102111816,1.0042328834533691,2.568287134170532,6.282153129577637,-7.078761577606201,-0.2622220516204834,0.2957807779312134,0.5306293964385986,0.7497904896736145,1.222750186920166,-0.6952810287475586,1.1703438758850098
2025-11-21 04:22:17.620,5.557243347167969,4.188080787658691,-15.80105972290039,-6.922731876373291,-5.089777404785156,0.6303943991661072,2.908278703689575,5.806162357330322,-7.348522663116455,-0.3040790557861328,0.2920205891132355,0.516181230545044,0.7455312609672546,1.1939473152160645,-0.6336173415184021,1.2130612134933472
2025-11-21 04:22:17.630,8.758975982666016,7.210720062255859,-24.724639892578125,-7.237929344177246,-5.089777404785156,0.0879620015621185,3.3027262687683105,5.273442268371582,-7.579788208007812,-0.3468067944049835,0.2885588109493255,0.4983388781547546,0.7403494119644165,1.1598740816116333,-0.567755937576294,1.2538527250289917
2025-11-21 04:22:17.640,13.36562156677246,10.183835983276367,-35.128604888916016,-7.020467758178711,-4.617088794708252,-0.4007157981395721,3.659535646438599,4.723085880279541,-7.77628755569458,-0.3856373727321625,0.2882547378540039,0.4799216985702514,0.733394980430603,1.1309425830841064,-0.5025030970573425,1.291122317314148
2025-11-21 04:22:17.650,16.89693260192871,12.867708206176758,-44.43240737915039,-6.282564163208008,-3.0411031246185303,-0.5632011890411377,3.9066553115844727,4.209657669067383,-7.949038505554199,-0.4174178540706634,0.2918439209461212,0.464373916387558,0.7245317697525024,1.1140018701553345,-0.4436794519424438,1.3244644403457642
2025-11-21 04:22:17.660,17.39440155029297,14.909323692321776,-46.70474243164063,-5.032618045806885,-1.4089192152023315,-0.333522617816925,4.018497467041016,3.797633171081543,-8.099385261535645,-0.4401543140411377,0.2979421317577362,0.4542511701583862,0.7149479389190674,1.1102347373962402,-0.3976479470729828,1.3523098230361938
2025-11-21 04:22:17.670,13.928410530090332,16.12120819091797,-42.32858276367188,-3.53970718383789,-0.2701472043991089,0.1258345395326614,4.022127628326416,3.523878812789917,-8.220410346984863,-0.4541718363761902,0.3040961921215057,0.4499489665031433,0.7062572836875916,1.1157571077346802,-0.3675559163093567,1.3739137649536133
2025-11-21 04:22:17.680,8.743463516235352,16.51556968688965,-33.611061096191406,-2.1933999061584477,0.1672194302082061,0.5424323678016663,3.9751930236816406,3.379596471786499,-8.30340576171875,-0.4617782533168793,0.3082630634307861,0.4497726559638977,0.6995993852615356,1.1242988109588623,-0.3518371284008026,1.389855980873108
2025-11-21 04:22:17.690,3.886620998382568,16.400964736938477,-23.59865379333496,-1.251473307609558,0.1171299591660499,0.7403468489646912,3.925363779067993,3.3250412940979004,-8.349011421203613,-0.4654123783111572,0.31008380651474,0.4513426125049591,0.6953626275062561,1.1313050985336304,-0.3459174335002899,1.4005789756774902
2025-11-21 04:22:17.700,0.1944994926452636,15.793659210205078,-14.832372665405272,-0.8226585388183594,-0.2029540091753006,0.7317950129508972,3.901803493499756,3.309757947921753,-8.366111755371094,-0.4674834609031677,0.3101257383823395,0.4526427090167999,0.693105936050415,1.1344029903411863,-0.3442612588405609,1.4073762893676758
2025-11-21 04:22:17.710,-1.9445836544036863,14.81833267211914,-7.729018211364746,-0.7591304183006287,-0.6415423154830933,0.5876350402832031,3.919890403747559,3.2974953651428223,-8.362497329711914,-0.4695591628551483,0.3090038299560547,0.4523912370204925,0.692367672920227,1.132462739944458,-0.3429332077503204,1.411149978637695
2025-11-21 04:22:17.720,-3.17446517944336,14.066965103149414,-2.904277801513672,-0.8519791960716248,-1.108229637145996,0.3750602304935455,3.9837570190429688,3.2721450328826904,-8.342249870300293,-0.4723231792449951,0.3070486783981323,0.4501177966594696,0.6928390264511108,1.125277757644653,-0.3401897549629211,1.412492036819458
2025-11-21 04:22:17.730,-3.744474172592163,13.206165313720703,-0.1217002868652343,-0.9338327646255492,-1.5567442178726196,0.2174616307020187,4.089582443237305,3.234989643096924,-8.305452346801758,-0.4760020077228546,0.3041038513183594,0.4461055397987366,0.6942137479782104,1.1132493019104004,-0.3361733853816986,1.4124873876571655
2025-11-21 04:22:17.740,-3.3659467697143555,11.944129943847656,0.918848991394043,-0.9093988537788392,-1.911035656929016,0.2052446752786636,4.225393295288086,3.1979146003723145,-8.251652717590332,-0.4805205166339874,0.2998275458812713,0.4412123560905456,0.6960855722427368,1.097542405128479,-0.3321714103221893,1.4126667976379397
2025-11-21 04:22:17.750,-2.8389980792999268,10.792961120605469,1.602142333984375,-0.8153283596038818,-2.1272754669189453,0.3286358118057251,4.375469207763672,3.172049045562744,-8.183138847351074,-0.4855299293994903,0.2942118346691131,0.4362941086292267,0.6981028318405151,1.0797808170318604,-0.3293827176094055,1.4139399528503418
2025-11-21 04:22:17.760,-2.899573802947998,9.871333122253418,2.625554084777832,-0.7200362086296082,-2.189582109451294,0.5570927262306213,4.5232014656066895,3.1631853580474854,-8.105879783630371,-0.4906763136386871,0.2875941395759582,0.4320538341999054,0.699897050857544,1.0618205070495603,-0.328427642583847,1.4168614149093628
2025-11-21 04:22:17.770,-3.416098117828369,8.81672477722168,3.7330403327941895,-0.6490252017974854,-2.0613040924072266,0.8466343283653259,4.651075839996338,3.172494649887085,-8.029518127441406,-0.4962550401687622,0.2802157700061798,0.4293486475944519,0.7006210088729858,1.0457760095596311,-0.3294307291507721,1.4235970973968506
2025-11-21 04:22:17.780,-4.737674713134766,7.274547576904297,5.435505390167236,-0.655210018157959,-1.45771062374115,1.2864443063735962,4.761942386627197,3.2136833667755127,-7.9476683139801025,-0.503831535577774,0.27032296359539026,0.42909790575504303,0.6992415189743042,1.0309911966323853,-0.33387345075607294,1.4391216039657593
2025-11-21 04:22:17.790,-6.67026424407959,5.814825534820557,7.099006652832031,-0.7774558663368225,-0.69651859998703,1.6871601343154907,4.775839805603027,3.268132448196411,-7.917137622833252,-0.5097680687904358,0.2633228600025177,0.4326211214065552,0.6954398155212402,1.0280065536499023,-0.3397556841373443,1.458183765411377
2025-11-21 04:22:17.800,-8.096778869628906,4.938765048980713,8.33641242980957,-0.8935168385505676,-0.2383831441402435,1.92294716835022,4.724570274353027,3.306882858276367,-7.931793689727783,-0.5134928822517395,0.2602162361145019,0.437494546175003,0.690804660320282,1.0335817337036133,-0.3439497649669647,1.4752140045166016
2025-11-21 04:22:17.810,-9.354415893554688,4.010849952697754,9.337445259094238,-0.9949174523353576,0.1000262349843978,2.1098663806915283,4.639582633972168,3.344102621078491,-7.966280460357666,-0.5171131491661072,0.2580027878284454,0.4437134861946106,0.6849429607391357,1.0434165000915527,-0.347984254360199,1.4947443008422852
2025-11-21 04:22:17.820,-10.494537353515623,3.0809292793273926,10.087846755981444,-1.0413419008255005,0.3260397315025329,2.183168172836304,4.53266191482544,3.3777244091033936,-8.013509750366211,-0.5206082463264465,0.256425142288208,0.4507157802581787,0.6782834529876709,1.0560342073440552,-0.3516337275505066,1.5157579183578491
2025-11-21 04:22:17.830,-11.211172103881836,2.33344841003418,10.483556747436523,-0.9888089895248412,0.5435013771057129,2.0817675590515137,4.410221576690674,3.407181978225708,-8.06916618347168,-0.523410439491272,0.255683422088623,0.4580035507678985,0.6714910864830017,1.0706039667129517,-0.3548352420330047,1.5360784530639648
2025-11-21 04:22:17.840,-11.710653305053713,1.8244705200195312,10.611612319946287,-0.8055548071861267,0.7744016051292419,1.8105512857437132,4.276626586914063,3.435741186141968,-8.12874698638916,-0.5247939229011536,0.2559836208820343,0.465215116739273,0.6653109192848206,1.0864784717559814,-0.3579427599906921,1.5533578395843506
2025-11-21 04:22:17.850,-11.858019828796388,1.4431025981903076,10.590558052062988,-0.4584408700466156,1.0077452659606934,1.4428212642669678,4.135129928588867,3.4730701446533203,-8.185894012451172,-0.5246854424476624,0.2567848265171051,0.4724707305431366,0.6599531769752502,1.103034734725952,-0.3620099127292633,1.5676383972167969
2025-11-21 04:22:17.860,-11.86591339111328,1.2350144386291504,10.505693435668944,0.0351237170398235,1.186112642288208,1.0873081684112549,3.989667177200317,3.5327980518341064,-8.232392311096191,-0.5216224193572998,0.258320689201355,0.4794309437274933,0.6567544937133789,1.1195199489593506,-0.3685306310653686,1.574964165687561
2025-11-21 04:22:17.870,-11.37824249267578,0.9718418121337892,10.47440242767334,0.6325323581695557,1.3082821369171145,0.8160919547080994,3.843000888824463,3.6275038719177246,-8.260929107666016,-0.5160885453224182,0.2595205008983612,0.486529141664505,0.6554320454597473,1.135372519493103,-0.3789040446281433,1.5773792266845703
2025-11-21 04:22:17.880,-10.41493034362793,0.5717799663543701,10.303428649902344,1.272700309753418,1.3962441682815552,0.6438329815864563,3.695663928985596,3.764646530151367,-8.266794204711914,-0.5082530975341797,0.2598198652267456,0.4940315783023834,0.6558240652084351,1.1503989696502686,-0.3940022587776184,1.5759695768356323
2025-11-21 04:22:17.890,-9.334260940551758,0.507504940032959,10.2993745803833,1.843231558799744,1.4255647659301758,0.5766398310661316,3.5492138862609863,3.943530559539795,-8.247547149658203,-0.4984840452671051,0.2589141428470611,0.5019999146461487,0.6576269268989563,1.1644150018692017,-0.4138400852680206,1.5718672275543213
2025-11-21 04:22:17.900,-8.678445816040039,1.026106834411621,10.663451194763184,2.198744773864746,1.377918720245361,0.5595360994338989,3.407374382019043,4.150146961212158,-8.205880165100098,-0.4874476492404938,0.2570109367370605,0.5101153254508972,0.6603957414627075,1.177225112915039,-0.4369712471961975,1.5659904479980469
2025-11-21 04:22:17.910,-8.442797660827637,2.3776774406433105,11.283388137817385,2.2256219387054443,1.199551343917847,0.5412106513977051,3.2796878814697266,4.360086441040039,-8.148844718933105,-0.4761694967746734,0.2546274065971374,0.5176362991333008,0.6636868119239807,1.188160061836243,-0.460733413696289,1.5589280128479004
2025-11-21 04:22:17.920,-8.533868789672852,4.6345534324646,11.66059398651123,1.9079813957214355,0.8599202036857605,0.4691306948661804,3.179927349090576,4.546292304992676,-8.086387634277344,-0.4657973945140838,0.2523864209651947,0.523612380027771,0.6672061085700989,1.19612717628479,-0.482045829296112,1.5507895946502686
2025-11-21 04:22:17.930,-8.935965538024902,7.486766338348389,11.078852653503418,1.3105727434158323,0.4017847776412964,0.2932066917419433,3.120452880859375,4.684803485870361,-8.030303955078125,-0.4581146538257599,0.2503347098827362,0.5274786353111267,0.6702460646629333,1.200169324874878,-0.4980541467666626,1.543708086013794
2025-11-21 04:22:17.940,-8.793146133422852,9.969097137451172,8.213167190551758,0.6337540149688721,-0.0196998249739408,0.0048867780715227,3.103675842285156,4.763879299163818,-7.9901838302612305,-0.4522189795970917,0.2500244975090027,0.5284357070922852,0.6736032962799072,1.200298309326172,-0.5072558522224426,1.5335973501205444
2025-11-21 04:22:17.950,-5.946850776672363,11.202945709228516,2.3097543716430664,0.2660239934921264,-0.0196998249739408,-0.2944283783435821,3.102624654769897,4.801093578338623,-7.968287944793701,-0.4478209018707275,0.2510196566581726,0.5280144810676575,0.6764956116676331,1.1994858980178833,-0.5116025805473328,1.52339768409729
2025-11-21 04:22:17.960,-1.602732539176941,11.550180435180664,-4.257591247558594,0.540905237197876,0.7157602906227112,-0.5277720093727112,3.061686754226685,4.844747543334961,-7.957693099975586,-0.4415403604507446,0.2537025213241577,0.528708279132843,0.6790763735771179,1.2035090923309326,-0.5167151093482971,1.51208233833313
2025-11-21 04:22:17.970,-0.3529748916625976,12.331233978271484,-9.008845329284668,1.3325632810592651,1.5929369926452637,-0.3469612300395965,2.9457008838653564,4.950003623962402,-7.936667442321777,-0.4312609434127807,0.2566351890563965,0.5328690409660339,0.6813244223594666,1.215404391288757,-0.5291038155555725,1.5010862350463867
