time,acc_z,acc_y,acc_x,gyr_z,gyr_y,gyr_x,grav_z,grav_y,grav_x,yaw,qx,qz,roll,qw,qy,pitch
2025-11-21 04:28:03.220,-2.0823884581029413,-34.03488826624155,-12.801694570046662,7.509225845336914,-1.1814196109771729,2.514564752578736,3.1692057896882293,-9.039344023755191,-2.1016125062718984,1.680075224198513,0.1745342359229451,0.6903555506463268,0.5855538907268123,-0.4134022296215012,-0.5549353756289266,1.172586367132582
2025-11-21 04:28:03.230,-1.7899667697399853,-41.97750029811859,-4.1156303157210345,6.0915207862854,-0.7749307155609131,2.4810476303100586,3.417575278095901,-8.789303095003962,-2.6904864536881443,1.580110918868402,0.1532515048420082,0.6903555506463268,0.6669181020086251,-0.442344069848438,-0.5497873502798996,1.1112628067358108
2025-11-21 04:28:03.240,-2.1414321832239627,-47.05451247050762,6.1703475075662135,3.8046488761901855,-0.4081977307796478,2.5173707008361816,3.650527124880254,-8.55950006763935,-3.094995767356455,1.5319566898290893,0.1363828752487547,0.6869676936811745,0.7032280256402206,-0.4628180097448176,-0.5433917747553236,1.060963468659044
2025-11-21 04:28:03.250,-5.782154245665669,-39.78316771483421,10.628284363281724,2.890341758728028,0.9177067279815674,2.963826894760132,3.87247914648354,-8.350311958280205,-3.3832802097842096,1.5177827807763309,0.1201998061794143,0.6867745945156375,0.7180778603563992,-0.4751654383996493,-0.5367592673762919,1.018829509702949
2025-11-21 04:28:03.260,-5.494692225536704,-27.171432237541676,9.989259314513204,2.6584408283233643,0.994264841079712,3.2736239433288574,4.095730267986655,-8.127778629657625,-3.651657590214908,1.51864210605594,0.1015981657268956,0.6892700574992242,0.7281417959501895,-0.4834574109425326,-0.5299563003937728,0.976964654886389
2025-11-21 04:28:03.270,-2.999156681540608,-17.877433653759955,5.541942637011409,3.0737051963806152,0.225994735956192,2.851327657699585,4.321953391037881,-7.889263303527236,-3.905206527087093,1.5178558535044475,0.0844442491210335,0.6903555506463268,0.7347864087024898,-0.4931578630877724,-0.5220257373109886,0.9348011773589452
2025-11-21 04:28:03.280,-7.0410443001806735,-12.677384299767017,0.9469830366984008,3.440305233001709,-0.4418200552463531,2.2074716091156006,4.523241102536022,-7.644599391639232,-4.15581151946187,1.5060037022652932,0.08417102850064395,0.6890765456791648,0.743088180278511,-0.5057614087774981,-0.5142790991330728,0.8939186217810947
2025-11-21 04:28:03.290,-7.286431265646219,-10.274681353247166,-1.1161851726278662,3.432520866394043,-1.0817716121673584,1.701011300086975,4.701889988985657,-7.407095288378,-4.381499804984033,1.4869479717334164,0.08417102850064395,0.6849126449834421,0.7501407058666535,-0.5202155524454166,-0.506773175486918,0.85613238267027
2025-11-21 04:28:03.300,-4.297274000072479,-7.566666841652989,-2.313097786657512,3.1633217334747314,-2.087241649627685,1.3928282260894775,4.884600718046724,-7.184457914859056,-4.549132791900634,1.4663922042960484,0.08417102850064395,0.6796088037539925,0.7498526754590398,-0.5358890435584167,-0.4982865501370829,0.822149870042855
2025-11-21 04:28:03.310,-1.5856699395537377,-4.574987364125252,-3.563729715915024,2.598494529724121,-3.514269590377808,1.0069668292999268,5.098412687814236,-6.990802305674553,-4.615760980801284,1.4473077896085424,0.08417102850064395,0.6739788698082694,0.7357537051472528,-0.5529006698929656,-0.4873317949423822,0.7935728555658751
2025-11-21 04:28:03.320,-0.9361948084414004,-2.569424371549487,-3.798591195712983,1.836868166923523,-4.880590915679932,0.4937108755111694,5.3457157160341735,-6.848616771486401,-4.548643254818022,1.4307924516351025,0.08417102850064395,0.6684113911656304,0.7050135095358293,-0.5707729946420877,-0.4734532421071024,0.7731099768174444
2025-11-21 04:28:03.330,-1.829651129874587,-0.2527624626696109,-2.6591657250121234,1.1042319536209106,-5.52535343170166,-0.2176435589790344,5.591091575583815,-6.774967013385892,-4.360034992150962,1.4164230096455248,0.08417102850064395,0.6628530460719337,0.6623132789293487,-0.5879559451434268,-0.4581396487787189,0.7626701071734152
2025-11-21 04:28:03.340,-3.4197108288198708,3.02058233140707,-0.8350324817761778,0.605311393737793,-5.435272693634033,-1.1238945722579956,5.779795115318894,-6.777234373795986,-4.102858804692327,1.4016046806871203,0.0893127302245888,0.6566360917737537,0.6173143351216102,-0.6029233972397612,-0.4442248223859789,0.7629899306642114
2025-11-21 04:28:03.350,-4.8036517428487535,5.911700078511238,0.7471838101923465,0.3024399876594543,-5.070829391479492,-1.9959536790847776,5.8749591783054145,-6.851424230122566,-3.8255285947382447,1.3842477445532766,0.1103392677571417,0.6492128701598177,0.5766694127599609,-0.6151446222722384,-0.4335262547188032,0.7735100711759347
2025-11-21 04:28:03.360,-5.626117296257615,8.147263082328438,2.731812151288986,-0.0610285140573978,-4.652569770812988,-2.6326141357421875,5.8749591783054145,-6.98427904138565,-3.5471868696540594,1.3651781275063632,0.1330370156347134,0.640811103246399,0.5413293685046471,-0.6246337321047387,-0.4260221383210015,0.7926247595879693
2025-11-21 04:28:03.370,-6.887406228607893,10.185155980622769,5.134992067670822,-0.6522059440612793,-4.031907081604004,-2.9347939491271973,5.849819084137677,-7.161428336927294,-3.26556948390007,1.3492086773664005,0.1565194232643942,0.6327945271442272,0.5091431224836012,-0.6307367653137615,-0.4210034386991861,0.81870604348857
2025-11-21 04:28:03.380,-8.313084343647956,12.96403149638176,7.363885092204809,-1.2355444431304932,-3.155487537384033,-2.890787124633789,5.749941244325042,-7.361450558534264,-2.9862369942128657,1.3410249642843763,0.1791857921249906,0.6266217139952794,0.4790081602194913,-0.6328591548817993,-0.4180036179284097,0.8490589947293264
2025-11-21 04:28:03.390,-10.229877750402688,13.989088829624652,8.234772438955307,-1.4956800937652588,-1.9110004901885984,-2.7293925285339355,5.613707312017679,-7.56140614464581,-2.735290933315456,1.3408561759113684,0.1990424951745663,0.622748195154205,0.4533974103881527,-0.6311927005873581,-0.4173279948784226,0.8804866407232468
2025-11-21 04:28:03.400,-12.797531605148317,13.47463007172346,8.07308667000532,-1.3133771419525146,-0.4457902908325195,-2.690000534057617,5.4377562863498925,-7.74859694173038,-2.5613345885962246,1.342779734316068,0.2141659682777416,0.620369046274102,0.440202421302577,-0.6264109065908907,-0.4205764208242657,0.9110324536778592
2025-11-21 04:28:03.410,-14.794440751147269,13.42218910586834,8.214130632942915,-0.9888322353363036,0.6920268535614014,-2.9878251552581787,5.2126949005544185,-7.927794986495375,-2.479568159535527,1.3401129955103028,0.2248796931018307,0.6181725603724952,0.4440019841469196,-0.6193835972720978,-0.4285506497588376,0.9414460034503936
2025-11-21 04:28:03.420,-16.251547439152002,13.274038525795936,9.118712159502506,-0.8647728562355042,1.1229342222213743,-3.533205986022949,4.927721774631738,-8.115730464467406,-2.45415227098912,1.3294133717317007,0.2340199743743129,0.6149306739442861,0.4620702274694303,-0.6108225226560655,-0.4404438271342543,0.9747724645326596
2025-11-21 04:28:03.430,-18.31471097230315,11.6742675801754,12.004750411385295,-1.0451313257217407,2.117021083831787,-3.887058973312378,4.581868940332532,-8.316997133177518,-2.4503898497156795,1.313356219970445,0.242701256744564,0.611265853486626,0.4910995815903391,-0.599970260987636,-0.4555060879551031,1.0123845945840906
2025-11-21 04:28:03.440,-18.68808485073447,11.59649577370882,14.748192210191489,-0.9990777969360352,3.287954092025757,-3.553236246109009,4.1955327044755215,-8.509321786019205,-2.4817995718494057,1.2951357805182602,0.2480168663557171,0.6089667261916029,0.5341710850586011,-0.5857236087653295,-0.4738934381529969,1.0505753091093326
2025-11-21 04:28:03.450,-10.776121639621255,12.12019114651084,16.638651736772058,-0.6813886165618896,3.964824914932251,-2.295881748199463,3.847003052182495,-8.650544028133153,-2.557154964824021,1.27709484673217,0.2475074204122623,0.6087340947898463,0.5866492342242791,-0.5706008674394866,-0.4925418880506138,1.0803229540806658
2025-11-21 04:28:03.460,-1.2244073546767231,10.6768230610013,21.14275763846636,-0.7577475309371948,3.4255917072296143,-0.4663587510585785,3.625941549678146,-8.720610082527994,-2.640816121590137,1.2718786450878516,0.2415014055938256,0.6118220811720673,0.6294755699733598,-0.5572660719294279,-0.5067598019964885,1.0957133120951577
2025-11-21 04:28:03.470,8.1844275685966,8.021671540066599,24.57448799090385,-1.417625069618225,1.495928168296814,1.2938393354415894,3.5983360421329733,-8.733048708340526,-2.6374659343793985,1.296542699421834,0.2353293102641184,0.618882070762755,0.6325113297258689,-0.5481323619528548,-0.5110342758028031,1.098493756245814
2025-11-21 04:28:03.480,9.991012880182266,6.323330914622545,21.591951020252704,-1.912346363067627,0.1805367767810821,2.2741024494171143,3.7404803675279017,-8.709301337528228,-2.5154008126780387,1.3504626204007415,0.2323080244279535,0.6291294389035975,0.5920168909684344,-0.543053792740554,-0.5052935300474161,1.0931983726804997
2025-11-21 04:28:03.490,6.9696408597022295,7.1533005600512025,14.879861611062289,-2.006194829940796,0.5268032550811768,2.035191535949707,3.930111835762858,-8.671074774986504,-2.3530988115258515,1.4123685896991245,0.2304238999818585,0.6403580775302572,0.5394894545629607,-0.5388149131041473,-0.4965127225726656,1.0847861229130975
2025-11-21 04:28:03.500,3.755951785165071,7.372199331563711,11.420408554440735,-1.8975169658660889,3.3355705738067627,1.2129751443862915,4.030440926474332,-8.652049756520986,-2.2512141619354487,1.466220903228093,0.2253466714680386,0.6516509592797766,0.5093859518769049,-0.5299493640532756,-0.4936836823745267,1.0806490587166595
2025-11-21 04:28:03.510,-3.4957512814491984,4.670536819344759,9.595274025207758,-1.2870832681655884,8.519161224365234,-0.1692137569189071,3.949602425913513,-8.663915550881624,-2.346828060693294,1.5027500762328925,0.2083268164845333,0.6638320857655945,0.536139076334627,-0.5105885933999473,-0.5051992210564665,1.0832255248927942
2025-11-21 04:28:03.520,-9.53720995877385,0.2270043365567922,11.561885063576698,-0.7138527035713196,11.157146298408612,-2.749309062957764,3.5630779740080234,-8.742730728921293,-2.653211200521886,1.5030453818417635,0.1796311976034596,0.672605954650776,0.6400620170304709,-0.4788190572506969,-0.5348515858249661,1.1006685318542229
2025-11-21 04:28:03.530,-15.773405026257038,-3.9839246744930734,8.9255837890625,0.3950641453266144,9.60043716430664,-3.3582065105438232,2.9759476553887128,-8.85258752643466,-2.99095671621114,1.458951433829477,0.151096587860258,0.673171342886517,0.7879135218127588,-0.4456136014384707,-0.5704723602626168,1.126033374383626
2025-11-21 04:28:03.540,-16.000006627231837,-13.207303661650418,5.2905216520786285,0.6413577795028687,5.977255344390869,-2.688338279724121,2.4606460169225928,-8.914968871545792,-3.2617347280427813,1.3947087210511524,0.1295150541408188,0.6683808921010015,0.9244864784040604,-0.4227586608092762,-0.5981369584030467,1.141055712441872
2025-11-21 04:28:03.550,-18.40190059545636,-37.40496324975491,-4.122701569281518,-0.9015896916389464,2.3950116634368896,-1.7508153915405271,2.1291101695284245,-8.967129851415752,-3.350798912896216,1.3510738461797067,0.1207559109568019,0.6643042121873092,1.0047505931477505,-0.4089673450442398,-0.6138921721961996,1.154005376759719
2025-11-21 04:28:03.560,-22.386718473172888,-46.45408690924644,-9.845022693014144,-2.033164978027344,1.2296414375305176,-0.6475870609283447,1.9651640544310207,-9.04320829796791,-3.2448262633398173,1.346132497467135,0.1223608712871826,0.6647849054375051,1.0262474104894286,-0.3978146665682615,-0.6203485590041437,1.1736037235409165
2025-11-21 04:28:03.570,-20.496243695247173,-37.99439512331485,-8.774320045405625,-2.636190414428711,1.647839069366455,0.0414284951984882,1.895240915638208,-9.122595138415694,-3.0588717300519344,1.3717114037661329,0.1256863757076617,0.6692667222783045,1.0160980829770103,-0.385632492521833,-0.6225532438455109,1.19508225163357
2025-11-21 04:28:03.580,-11.349999385696648,-23.090461731791496,-10.90722288521528,-2.902867078781128,2.3197271823883057,1.0579050779342651,1.883025869448483,-9.195647515144945,-2.839834134590625,1.426472857766337,0.1266049066205554,0.6774842416257484,0.9852836797237472,-0.3701656784843518,-0.6228672378943463,1.2159360868607016
2025-11-21 04:28:03.590,-1.034423712003231,-5.9007660120427605,-12.983174588268994,-2.656677484512329,2.213185310363769,1.9566349983215328,1.9618775801062585,-9.24255948844552,-2.626122118066251,1.5110507970219496,0.1245212032708189,0.6888504611411314,0.9291778285342543,-0.3542781366220195,-0.6200536674250097,1.2299700443646846
2025-11-21 04:28:03.600,1.0976493989840148,2.586791685935854,-12.11414719017148,-2.526338577270508,1.7833741903305054,1.5725347995758057,2.0825987398527563,-9.270057151702046,-2.428832244032621,1.6035192191380012,0.1222623677215885,0.6903555506463268,0.8619938187146933,-0.3402854054215357,-0.615523293763887,1.2384601207047174
2025-11-21 04:28:03.610,2.0595476807415483,8.293636715856193,-11.113280879855155,-2.714488983154297,-0.3667900264263153,-0.2879720330238342,2.127910730610788,-9.315511911931631,-2.205364411038905,1.6752569329963292,0.1258306202558124,0.6903555506463268,0.803270404009957,-0.3286858617763554,-0.6129220170335988,1.2529729308996065
2025-11-21 04:28:03.620,8.263089601901173,12.91770462949276,-11.770199312710762,-3.226942777633667,-2.9000113010406494,-2.3206326961517334,2.035718622995168,-9.404662021502851,-1.8917134721644224,1.7131766287394283,0.1435843071825245,0.6903555506463268,0.7487481069511485,-0.3229609332938318,-0.6128546200144933,1.2834829552302198
2025-11-21 04:28:03.630,0.2210392906725406,11.155305665636062,-10.966846456050872,-3.57015323638916,-2.9885919094085693,-3.422807455062866,1.8087953888505697,-9.519767241063713,-1.5075433283001185,1.7377543351819935,0.1695080729314798,0.6903555506463268,0.6948080438245038,-0.3178127203351635,-0.6156655878099618,1.328318910909169
2025-11-21 04:28:03.640,-6.2018152434974905,9.924119026082751,-11.289617105448244,-3.178871393203736,-2.0019352436065674,-3.6997249126434326,1.4964607932716607,-9.624693011915683,-1.1385339286886156,1.7569331544327802,0.1946845914912433,0.6903555506463268,0.6503886243964111,-0.3105770915054965,-0.6211277210014304,1.3778604584884082
2025-11-21 04:28:03.650,-9.368619817262887,8.4856825517565,-11.81500174651146,-2.5316169261932373,-0.6570147275924683,-3.476372718811035,1.1602491360861806,-9.701188222575189,-0.8432926528602838,1.765970077539057,0.2136631335121285,0.6844931144128081,0.6285003076360902,-0.301040415983711,-0.6286428409477121,1.4240076256159135
2025-11-21 04:28:03.660,-9.049778324007988,2.939076014587283,-13.722553862190246,-1.8705819845199585,-0.4778625071048736,-3.2773585319519043,0.8370685176484286,-9.750878428417444,-0.6245502409532666,1.748540873961586,0.2272243488591829,0.6765974058284818,0.6410107292956071,-0.2913666605241538,-0.6369383641476603,1.464095721503814
2025-11-21 04:28:03.670,-7.762406855896115,-3.593375789377093,-16.10123062095642,-1.063199520111084,-0.9119092226028442,-3.888868808746338,0.4958554719790816,-9.782579973104596,-0.4750243539396673,1.618099066950991,0.2394247464767706,0.6665817816730746,0.7639455238509919,-0.2845177340702564,-0.6460605212979583,1.5007180087472825
2025-11-21 04:28:03.680,-9.467660037207605,-9.221214502599835,-15.995318761676549,-0.407036155462265,-1.1205357313156128,-5.040363788604736,0.0621886446837801,-9.798173848077656,-0.4028674647454172,0.953359918821712,0.2513916746999458,0.6517434342483321,1.4176401651678394,-0.2800021778094314,-0.6585070138802543,1.5292163716903544
2025-11-21 04:28:03.690,-7.794765403187275,-11.845986082839966,-11.003149941575527,-0.2192345559597015,-1.228330373764038,-5.557772402763367,-0.4724132215932011,-9.788021871897577,-0.3766400040877983,-0.1105694530891716,0.2638478261887267,0.632272090596841,2.468519705803085,-0.2759451945871608,-0.6741444172059314,1.5091502056235782
2025-11-21 04:28:03.700,-0.913593685054779,-10.598733274626731,-5.2320191942274565,-0.2701608538627624,-1.1030906438827517,-5.557772402763367,-1.0495019656043498,-9.743601130890848,-0.3621828780597075,-0.4646202077902321,0.2765670915320544,0.6106594688192912,2.809289957685156,-0.271266195350849,-0.6906666007106896,1.4573406391681598
2025-11-21 04:28:03.710,7.7577546461760996,-9.720723528650405,-1.2976726435042918,-0.4153272807598114,-0.8608862161636353,-5.367860794067383,-1.600766386398673,-9.669019060376286,-0.3435524484023451,-0.5963047743293354,0.2882231099999963,0.5897957874786972,2.93018213823892,-0.2655648736693062,-0.7060763483552788,1.4030621828651186
2025-11-21 04:28:03.720,16.027753881335258,-9.862457811939716,1.5064748222857711,-0.7836951613426208,-0.9843801856040956,-4.2476677894592285,-2.065069074511528,-9.581901333415509,-0.3050343555681407,-0.6719683784446362,0.2994483584589344,0.5718719320417259,2.99494163868518,-0.2601408956427899,-0.7180667800293099,1.3562918929298733
2025-11-21 04:28:03.730,16.682701306378842,-9.929710562479496,4.36963430288434,-1.1599159240722656,-0.6510258316993713,-2.7164342403411865,-2.397547609583288,-9.506268292543291,-0.2302092883442528,-0.7329389059904645,0.3098890494214619,0.5591959145795962,3.045867461881074,-0.2550665870106572,-0.7202259146232597,1.3226509913495612
2025-11-21 04:28:03.740,14.745356109982728,-9.015330110961198,8.611860369473694,-1.3805800676345823,-0.1230613216757774,-1.2715872526168823,-2.583859139615297,-9.459375608465075,-0.1193280157545115,-0.7882121715832459,0.3180760649376165,0.5530250471887818,3.095443351757317,-0.2498460462706933,-0.7202259146232597,1.303876477515622
2025-11-21 04:28:03.750,14.34851952289939,-9.305513665008544,13.178857319366932,-1.837846636772156,0.4710759818553924,-0.1999462395906448,-2.6534420866683126,-9.440785474285482,0.0344427468538051,-0.8480818935883387,0.324367503003199,0.5525356361217493,-3.128612980381385,-0.2437548216553987,-0.7202259146232597,1.296781270092611
2025-11-21 04:28:03.760,11.587109521204232,-11.38289744669199,12.973489060556888,-2.2974510192871094,2.2220160961151123,1.2721847295761108,-2.603315827496349,-9.45099531813264,0.2679419298891909,-0.9275849454625724,0.3278099182098694,0.5590273049527114,-3.03903046455346,-0.2340004153046439,-0.7202259146232597,1.3006554556466785
2025-11-21 04:28:03.770,10.437185452842712,-10.414300251817703,1.7340233487218617,-2.0961954593658447,3.539257764816284,2.888535022735596,-2.393266425132752,-9.494084518274663,0.552289562590979,-1.0256435047719483,0.3251013980029514,0.5739089141769427,-2.9147948789111986,-0.2204675503975328,-0.7185622529835116,1.3176418906577902
2025-11-21 04:28:03.780,10.491007059401271,-6.945127180692553,-7.825700055155157,-1.7432854175567627,3.6265511512756343,4.210403919219971,-2.0252597728230057,-9.560348257777097,0.8175725937355309,-1.149135204863641,0.3173637717823105,0.5947309006785004,-2.7579112242310733,-0.2074500787894483,-0.7089003815999358,1.3462005123123428
2025-11-21 04:28:03.790,5.949186636340618,-2.0077298152208325,-12.90125735256076,-1.380346655845642,1.839447259902954,4.521987915039063,-1.5712389708802104,-9.626144964289663,1.0192836452122778,-1.31593235599522,0.3096809830864563,0.6164601327930171,-2.56612249204097,-0.1996648430156711,-0.6958509778968841,1.3786340900240202
2025-11-21 04:28:03.800,-0.5706267814554273,4.8210021061003205,-15.89179408979416,-0.8830167651176453,-0.7829540967941284,3.5178980827331543,-1.1711556569606063,-9.669860187375544,1.1094268306591324,-1.5089694224705157,0.3079328647400561,0.6324834588795365,-2.3710229868755337,-0.2006301047836516,-0.6818281838522562,1.4035764305378675
2025-11-21 04:28:03.810,-5.449407561177015,9.940870254397392,-16.885954764991997,-0.5029863119125366,-2.4570415019989014,1.902965784072876,-0.926202260606736,-9.690676765432952,1.1094268306591324,-1.6648272325681783,0.3129035055616093,0.639757776719529,-2.234371244207412,-0.2085352347018902,-0.6703093075737139,1.4168522704024684
2025-11-21 04:28:03.820,-6.145304251724482,13.520524392414092,-16.67194025838971,-0.3181108832359314,-2.240867853164673,0.2626772820949554,-0.8518994454249739,-9.695486211541294,1.1094268306591324,-1.7372582276257682,0.3210866118511021,0.6397985332607808,-2.1877895382362573,-0.2173084189949013,-0.6635798141855055,1.4200843549638278
2025-11-21 04:28:03.830,-3.317271614086628,17.647580942034722,-15.501961243993042,-0.2070290744304657,0.3593672811985016,-0.5783601403236389,-0.8902386745609343,-9.690001642650364,1.1094268306591324,-1.733703432030672,0.3257515803224707,0.6374609261684311,-2.202253317665881,-0.2196677991683615,-0.6627785804036298,1.4164039991492758
2025-11-21 04:28:03.840,6.071216102206707,18.916706559360023,-16.3779573120594,0.3274849355220794,2.9695560932159424,0.2830449342727661,-0.8897149429477751,-9.68855728906095,1.1094268306591324,-1.719691931098151,0.3198556808166914,0.6396629380099168,-2.197368747387706,-0.2132336533689203,-0.6656239047944856,1.4154491616321292
2025-11-21 04:28:03.850,17.786722870743272,17.161396676981447,-20.499404789626595,1.396225094795227,1.444091558456421,1.6956645250320437,-0.7646973281163721,-9.706751117399332,1.1094268306591324,-1.7421849137186605,0.3080782734898464,0.6459324272901409,-2.1504061067213738,-0.2092430505242463,-0.6663906435649786,1.427938248970298
2025-11-21 04:28:03.860,22.59348239256134,16.74550116916299,-21.251696152091025,2.596855401992798,-2.465029716491699,3.139104127883911,-0.5334371972786263,-9.743956520199776,0.9701138830475508,-1.8246289102114157,0.300407153064358,0.6510991827723734,-2.073540248921669,-0.2210702168873179,-0.6610244091020171,1.4576612820048642
2025-11-21 04:28:03.870,14.970637860530614,14.682455709433556,-17.105268547046183,3.1605513095855717,-5.166736125946045,4.238917350769043,-0.201555532121472,-9.78182418630123,0.6675771895140409,-2.074698119136373,0.2992665050207719,0.6539165788444362,-1.8640145333923237,-0.2492319150471632,-0.6486262648013903,1.4996260455390684
2025-11-21 04:28:03.880,3.096686496922373,9.472354332503675,-10.985934602880477,3.180853843688965,-6.185117115020752,4.97274112701416,0.2227243759489618,-9.797665314033626,0.3556790856562554,-2.9866413220206254,0.3018775440916419,0.6557515881565398,-1.0113383247174446,-0.2852113084799666,-0.6304872442082421,1.5279865654989926
2025-11-21 04:28:03.890,-3.62187883028388,6.318288828802109,-8.29183697295785,3.320806741714477,-6.185117115020752,5.374133110046387,0.719208738682419,-9.780005154180524,0.0680532441345509,2.31461335468608,0.3047885021345694,0.6573004294237691,-0.0943415002760575,-0.3234588934448461,-0.6086333298942682,1.4970639761409643
2025-11-21 04:28:03.900,-10.167515109992026,3.671074530607462,-9.215300894641876,3.780098676681519,-5.613235950469971,5.477077007293701,1.2555484890021382,-9.723466105356811,-0.2194995321509428,1.985976875143212,0.3044751585484552,0.6584127214619582,0.1730745272798393,-0.3612585747518532,-0.5859007769492762,1.4404548877920134
2025-11-21 04:28:03.910,-11.593799958753586,-0.4017664447009563,-10.639499000257253,4.120965003967285,-4.734684944152832,5.52404462003708,1.8127384273879228,-9.6233544567883,-0.5248131978508085,1.8225999042336167,0.2997856884673604,0.6588639684251699,0.2818090777650092,-0.3978973790904817,-0.5636529072266921,1.3771499730544483
2025-11-21 04:28:03.920,-5.319937131655216,-6.142816526561975,-12.045025138628482,5.268110752105713,-3.80277943611145,3.900591135025024,2.316261511385441,-9.488177924579382,-0.8830655680611729,1.6964216636302616,0.2900230412884743,0.6570558889307985,0.3642353736830045,-0.4317106423596852,-0.5457015332519827,1.31524816473855
2025-11-21 04:28:03.930,-5.449813219368457,-13.396798644024132,-21.55171487145424,6.670976638793945,-4.142303943634033,2.039478540420532,2.6310896773457526,-9.350511329120398,-1.3474765388540924,1.5400743947415154,0.2807835508706133,0.6453921253824686,0.4733094567298223,-0.4664946518755339,-0.5357353487166815,1.2645992669159618
2025-11-21 04:28:03.940,-10.066197592765093,-26.706229970240592,-21.194782424736022,7.707539081573486,-2.090644121170044,2.069387674331665,2.86578632197082,-9.177764652451872,-1.930362351771444,1.380024051708996,0.2668667269955652,0.6287902143602356,0.592779758213755,-0.5007368523993992,-0.5316650390048719,1.2107246104739386
2025-11-21 04:28:03.950,-7.959401838636398,-38.30757026137113,-13.621485351288316,7.4641499519348145,-1.4077093601226809,1.7916755676269531,3.083160660395026,-8.943795737579464,-2.583219380407036,1.2490699905451323,0.2462833707206758,0.6119617170395679,0.6973966347090422,-0.5316956612467777,-0.5311751617389376,1.1481662138280575
2025-11-21 04:28:03.960,-2.7437413662746546,-49.70824184968471,-0.7093073762625456,5.063822746276856,-1.4906237125396729,1.5900663137435913,3.269418852804601,-8.710726401895284,-3.099119569288194,1.1652623528216988,0.2292361303371665,0.5973596650778017,0.7586638526485516,-0.5566466761602848,-0.5298649194285575,1.0935146771508613
2025-11-21 04:28:03.970,-0.4380827897071838,-52.92790999863148,9.517812015342711,3.060148239135742,-1.0041643381118774,2.383227586746216,3.4784202074199917,-8.516879654052854,-3.3961376455307004,1.1333819204274442,0.2172629050999228,0.5897480295154439,0.7734295788612162,-0.5740622073532822,-0.5248302187948565,1.0521278557894167
2025-11-21 04:28:03.980,-2.7081238171875475,-42.26806846756935,11.967207739454508,2.4823458194732666,-0.2780166268348694,3.632636547088623,3.752444361566007,-8.311987196061015,-3.605608371223509,1.13609961371855,0.2030440954193171,0.5890958711856444,0.7654449867880456,-0.5867601480595162,-0.5171573084967104,1.0114211392413952
2025-11-21 04:28:03.990,-1.829197833149135,-29.39153989807367,10.758768353760242,2.562143087387085,-0.7245231866836548,4.259252071380615,4.098751077112556,-8.062453047788143,-3.790444129614532,1.153464069870649,0.1861390698261423,0.5915914296659298,0.7463383920651243,-0.5991641129109165,-0.5063339768273001,0.965162408625697
2025-11-21 04:28:04.000,-4.419516231906414,-20.25238116286993,8.725036082276702,3.0991342067718506,-1.2580946683883667,3.9106924533844,4.467699540317058,-7.774293108522891,-3.971199048432708,1.1652310908751815,0.1694634827047793,0.5924856054087714,0.726631159653161,-0.6137998190718628,-0.4934499367909739,0.9153193435142828
2025-11-21 04:28:04.010,-10.303363842374086,-14.82386792116165,5.423522593814134,3.4920499324798584,-1.3101304769515991,3.1822800636291504,4.791163432675599,-7.474528656181692,-4.164920416329801,1.1626821917639567,0.1541660728299025,0.5897221987326395,0.7155880436354266,-0.6296896878134832,-0.4816134097407097,0.8666891231727045
2025-11-21 04:28:04.020,-10.76789157141447,-11.810476378041503,3.0929119468197226,3.522500514984131,-1.4024447202682495,2.640738248825073,5.06101205470264,-7.181228431418537,-4.357349406328797,1.1511958002016334,0.1404282706575239,0.5844324346245231,0.7108249176382799,-0.645351447378789,-0.4714234819680831,0.8216661864758111
2025-11-21 04:28:04.030,-8.467415658181904,-8.500735743981599,2.147877121579647,3.3438587188720703,-1.8034251928329468,2.1942758560180664,5.303327942159772,-6.9014616419672965,-4.518285818216205,1.1362174289009537,0.1290401046951074,0.5777456269691983,0.7056376784262384,-0.6607603778624458,-0.4614695872419885,0.7806667278290915
2025-11-21 04:28:04.040,-7.089496488660574,-5.473002371776103,1.319424310454726,2.9411821365356445,-2.836667060852051,1.536523938179016,5.534313457307219,-6.65497577534914,-4.610104562474787,1.1195332987483375,0.1220249742260317,0.5700467237838069,0.6945438505066669,-0.676179155393263,-0.450486916035145,0.745880332187979
2025-11-21 04:28:04.050,-4.4808384233534335,-2.4480057310581205,0.0653729281425476,2.2759718894958496,-4.092400074005127,0.8137830495834351,5.77266044113338,-6.467701976156234,-4.584278631822764,1.1022290350187056,0.1220636286711814,0.5615752497099179,0.6711552415014099,-0.6920672347462417,-0.4367799321413086,0.7201827784419559
2025-11-21 04:28:04.060,-3.906114874103665,1.6372452284902332,0.524919069378078,1.6779656410217283,-4.700239658355713,-0.0793152302503585,5.8749591783054145,-6.355916840928793,-4.447668851940334,1.08477814572257,0.1289069342166667,0.5527413438387176,0.6379558722226997,-0.7073566447802887,-0.4213153258015977,0.7051172863006954
2025-11-21 04:28:04.070,-4.581702351593971,6.162915311738848,2.449074237072468,1.152756690979004,-4.552772045135498,-1.1761497259140017,5.8749591783054145,-6.331706528779864,-4.253553808550536,1.0648025219937138,0.1409985462983988,0.5431965900828106,0.6040738923509951,-0.7205428457047482,-0.4072774091805284,0.7018799163309264
2025-11-21 04:28:04.080,-5.528969173669815,9.184204914632438,4.943531338182091,0.3713221549987793,-3.9124152660369873,-2.26810884475708,5.8749591783054145,-6.406930988851189,-4.038373473039269,1.0436976211098383,0.1572078177771156,0.5337322578148281,0.5751171102731213,-0.7299127523721569,-0.3970428303251717,0.7119681988527236
2025-11-21 04:28:04.090,-5.986612403893471,13.139119183218478,8.336213874822855,-0.4557573497295379,-2.879047393798828,-3.138186454772949,5.8749591783054145,-6.578407499453425,-3.82239526514858,1.0247847454136023,0.176372130899008,0.5256761393321924,0.5533820793972275,-0.7342584375318987,-0.3916911651924324,0.7353015842014562
2025-11-21 04:28:04.100,-6.237544728526473,16.384143891739843,11.301915446007252,-1.151847004890442,-1.6293998956680298,-3.538527011871338,5.8749591783054145,-6.8155679038435215,-3.629247313225269,1.0103537806937573,0.1962710976715153,0.5199783064057885,0.5406628540495639,-0.7333844147274788,-0.3914684045352159,0.768412229431559
2025-11-21 04:28:04.110,-6.504975768017768,17.37098284574747,11.714632323789596,-1.5104113817214966,-0.700225830078125,-3.552064895629883,5.838190605664253,-7.075766653993726,-3.4669065874978897,1.0009222489844218,0.2149542302441475,0.5167345400098773,0.5358721452015268,-0.7284574328588432,-0.3951326475255097,0.8060057677377145
2025-11-21 04:28:04.120,-7.821392713350057,16.647246546638012,10.685360587722062,-1.670942306518555,0.1953318268060684,-3.392643690109253,5.596131907838583,-7.329761288806796,-3.335909386800229,0.9949808111689858,0.2314789796283352,0.5153093610203044,0.5375541954562021,-0.7209573818755909,-0.401365374082947,0.8441815444057201
2025-11-21 04:28:04.130,-10.035656324028968,14.42341431262493,10.71373328024745,-1.7343450784683228,1.1351386308670044,-3.200045585632324,5.328056725224852,-7.5661220672518015,-3.2459187347516414,0.991321767975518,0.2449919098165285,0.5155523551590423,0.5471658740436062,-0.7112390953463427,-0.4102726681537317,0.8812421623697857
2025-11-21 04:28:04.140,-11.262973428672552,13.721590570116042,10.474781900787352,-1.813242554664612,1.4897403717041016,-3.1967132091522217,5.039095990970731,-7.788459581041335,-3.1808471276432275,0.9884399692519216,0.2564078764726306,0.5168676389079362,0.5630694308830899,-0.6998358208214601,-0.4211087823259874,0.9176929349965004
2025-11-21 04:28:04.150,-11.924966680574416,12.768605954915284,10.625120930814742,-2.064730644226074,1.4728599786758425,-3.2018163204193115,4.738471706929802,-8.006239577656984,-3.101192868430912,0.986427337209223,0.2678360786805623,0.5186284192581206,0.5795119268577912,-0.6874731804992334,-0.432052096664699,0.9551653442726048
2025-11-21 04:28:04.160,-12.92273970105052,11.25344455282688,11.481192985749244,-2.394282817840576,1.6552106142044067,-2.999674081802368,4.437988292664289,-8.217447794666885,-2.991353606574237,0.988750557770846,0.279309022085399,0.521514269359877,0.5930855242018965,-0.6740158143846683,-0.4423935280741746,0.9935095327512669
2025-11-21 04:28:04.170,-12.116005969780684,10.784811142033336,12.109467507922648,-2.536504030227661,1.957350492477417,-2.4919886589050293,4.1539387113273145,-8.409912148240208,-2.861564320361614,0.9982360893873312,0.2893941210003776,0.5262259089954473,0.6032236435585823,-0.6594529296559388,-0.4521715504841689,1.0305312625937737
2025-11-21 04:28:04.180,-7.359584180140494,11.129613590496778,12.615507981568577,-2.244659185409546,1.9768725633621216,-1.5746132135391235,3.923604938086867,-8.560484987023472,-2.7374805523142216,1.01430995649711,0.2963487497052589,0.5322916016578755,0.6091774939754403,-0.6455336959674102,-0.4605749025058309,1.0611692764087424
2025-11-21 04:28:04.190,-3.35557591803968,10.336883834660052,14.76044028186798,-2.0376224517822266,1.9691170454025269,-0.3863649070262909,3.7850358408302074,-8.656153100186586,-2.629618728010356,1.0390163957997196,0.2992004676320264,0.5397457360155656,0.6071875247946539,-0.6337646645051273,-0.4663646155301199,1.0815386953331576
2025-11-21 04:28:04.200,-0.933025238494575,7.996689659023285,16.703634204292296,-2.0883102416992188,1.6975512504577637,0.9216282963752748,3.7604274692744015,-8.698788711342216,-2.5220301676899197,1.0786826903340925,0.2980548334178363,0.5496236055646506,0.5907734613132014,-0.6242133345335326,-0.4684387609510452,1.0908714366483552
2025-11-21 04:28:04.210,2.35482154366523,5.36651651200056,15.50737508573532,-2.2161319255828857,1.3141783475875854,1.7612032890319824,3.845562205724418,-8.699095000812411,-2.389094984667003,1.1345836086573868,0.294711788474341,0.5617994299815081,0.5559055338488419,-0.6168066554492972,-0.465914000175833,1.090939059162764
2025-11-21 04:28:04.220,0.933131329217553,4.172462210011482,12.396147437763211,-2.154885053634644,1.847378611564636,1.530802845954895,3.960467518799007,-8.682838862538338,-2.2568536291271446,1.1945066004736722,0.2902212764661596,0.5747753103562764,0.5179517211162368,-0.6095580232370087,-0.462432656759641,1.087360641103374
2025-11-21 04:28:04.230,-1.348055946177244,4.500378405603766,9.907132819968462,-1.7669223546981812,4.132725238800049,0.2562923431396484,3.9789842954814434,-8.689632760462164,-2.197354269193113,1.2419297058097307,0.2836723298949967,0.5870955917411885,0.5045613239512791,-0.5984902779555354,-0.465465639924833,1.088853114616852
2025-11-21 04:28:04.240,-3.650341539180279,2.566246326035261,8.999216596028209,-0.932867169380188,7.786949157714844,-1.9456545114517207,3.777683432240784,-8.750020301407575,-2.310116286628693,1.2590768745081704,0.271520343474058,0.5975239665583746,0.5488446106751803,-0.5792869653569909,-0.4833926505230446,1.102312194986174
2025-11-21 04:28:04.250,-9.99036873705983,-4.623996017444133,10.660180553758144,-0.2801454961299896,9.823774337768556,-4.060528755187988,3.2774764870539306,-8.8763097628057,-2.576757198655605,1.2290110401784295,0.2548142882776151,0.6031783129364946,0.6662704793693959,-0.5507093919404628,-0.5176532518640585,1.1316893442860496
2025-11-21 04:28:04.260,-15.50567763416767,-8.799189113724232,8.390743921911715,0.8534817695617676,8.879707336425781,-3.7129569053649902,2.6603362300962208,-8.987783932387828,-2.883182570190728,1.1584940945186393,0.236132667905825,0.6033986654621386,0.8255759364967714,-0.5211041383884948,-0.5555195409050528,1.1592389355062702
2025-11-21 04:28:04.270,-12.774605487591028,-19.898413411176204,2.5354031517431137,1.0993030071258545,6.061873435974121,-2.3206489086151123,2.152280032713711,-9.029228872454166,-3.1640304328769444,1.080613513075569,0.2179260786306874,0.600545499051839,0.973459909865062,-0.4990799079008979,-0.5854677447286595,1.1699346321137534
2025-11-21 04:28:04.280,-12.74479837834835,-38.0305746901989,-6.733344963186979,-0.2202285677194595,3.1305060386657715,-1.0408004522323608,1.8559683511748908,-9.047509210032224,-3.296713686965406,1.0376295819638477,0.2071524265741005,0.5992062186819708,1.0580458676556703,-0.4853656810152018,-0.6020463584116701,1.174739053096337
2025-11-21 04:28:04.290,-14.667510653758049,-39.91130894157886,-8.44829010195136,-1.1111623048782349,2.1589901447296143,-0.2267295718193054,1.7172735817119478,-9.08063815717399,-3.280754193550348,1.0323461891955794,0.2029569402040252,0.6016559415884405,1.088574073709412,-0.4749385426993438,-0.6093044328301896,1.183589576090191
2025-11-21 04:28:04.300,-12.405351319438218,-31.670478517758845,-7.210307810908556,-2.27825665473938,2.075312376022339,0.319989949464798,1.6534405764877795,-9.13405001388788,-3.1631688476115465,1.054140611951894,0.2017017051171996,0.607801307231414,1.0891411193151106,-0.4635509753508592,-0.6123842041861524,1.1982784384963452
2025-11-21 04:28:04.310,-5.426997576448321,-21.70111866645813,-8.680357567116618,-2.9973220825195312,1.5866060256958008,1.0415908098220823,1.6594214044630526,-9.20578020210266,-2.9445386639073488,1.107862448415112,0.2027290600993076,0.6180154682141501,1.0576027179542988,-0.4501819590372774,-0.6117957005902517,1.2189219505068352
2025-11-21 04:28:04.320,-1.4546177937984466,-7.147126255330443,-11.34210834018588,-3.0062170028686523,0.5065531134605408,1.220599889755249,1.738630111864954,-9.27066271637976,-2.6837238276854154,1.184695116540567,0.2059586561511932,0.6294320824169293,0.9959393290901064,-0.4387035296757799,-0.6074006619936847,1.2386495190299314
2025-11-21 04:28:04.330,-2.060818431329727,1.9304887546300888,-11.119573842519522,-2.992947816848755,-0.7889621257781982,0.3765262961387634,1.8210992823675276,-9.331714274191857,-2.402727642569691,1.261421432723861,0.2134532625834127,0.6384644021701926,0.9222392999490044,-0.4303643673772157,-0.6013214439217457,1.2583030956848813
2025-11-21 04:28:04.340,2.590500477325916,9.550425998699664,-11.600912421107292,-3.125777244567871,-3.145824193954468,-1.245393991470337,1.8256043387018144,-9.407671724712849,-2.081651083739102,1.3154036890938567,0.2298016627056125,0.6415049093447308,0.8508357164730299,-0.4260885272921323,-0.5950724996228988,1.2845679587737588
2025-11-21 04:28:04.350,3.1126117958068846,13.66582835088372,-10.923704064416883,-3.398874282836914,-3.997193336486816,-2.669272422790528,1.7075144042417405,-9.5048566721797,-1.7066072262689471,1.345164243886056,0.2555625536713877,0.6380833568250467,0.7851324239039921,-0.4241566177465437,-0.589600519984629,1.3220655608960064
2025-11-21 04:28:04.360,-2.4167051683872938,14.483061264336108,-9.815560451686382,-3.2820138931274414,-3.2284085750579834,-3.552896022796631,1.4596230547398328,-9.606372342327235,-1.3257080668993293,1.3561998322847166,0.2839386792302207,0.6308484820970237,0.7373564638769221,-0.4200599071600733,-0.587331898788688,1.368348749373856
2025-11-21 04:28:04.370,-7.278707393395901,13.361373110377787,-9.675945060247182,-2.670121669769287,-1.5147757530212402,-3.578108787536621,1.136981803875789,-9.68866542561054,-1.003690793152526,1.3461153018124523,0.3079078069259027,0.6228683177747358,0.7232124852911329,-0.4123164330116365,-0.589256177957678,1.415520466889384
2025-11-21 04:28:04.380,-8.006344207075237,10.554919851863383,-10.27864791879058,-1.8107600212097168,0.0989930108189582,-2.887653350830078,0.8258342261243611,-9.740741649806498,-0.778673100368306,1.3062769021777834,0.323277973381409,0.6167342639288648,0.7560136902214294,-0.402174954256339,-0.594462381454648,1.4547937856582225
2025-11-21 04:28:04.390,-6.771774354824424,6.237890765485167,-11.415357116270064,-1.059089183807373,0.6784552335739136,-2.4213345050811768,0.5679491597440094,-9.769038354486227,-0.6431891096454113,1.2189355173570122,0.3313172859771651,0.6124957989875851,0.8474417351366837,-0.3921812966852345,-0.6010586551419397,1.483186213032556
2025-11-21 04:28:04.400,-5.184541988259554,0.5827613097548484,-12.354461674678324,-0.5505489110946655,0.3637734651565552,-2.917277336120605,0.309199548956193,-9.785324303376674,-0.5676430894695222,0.9992516183603516,0.3371109531639826,0.6070657312391561,1.0720254069583646,-0.3837134595983119,-0.6087622000711939,1.504835305797219
2025-11-21 04:28:04.410,-5.764706851780415,-7.060880050507188,-12.104846277862787,-0.0493195131421089,-0.0788606405258178,-4.059058666229248,-0.033601192879572,-9.791755213207006,-0.5392319646298885,0.4387621535376182,0.3442006364978034,0.5971504387469854,1.6330289165873997,-0.3764280984651291,-0.6190630871207118,1.5156743841112028
2025-11-21 04:28:04.420,-6.581653349506855,-13.016113565796612,-8.079743789806962,0.2118851840496063,0.0553091466426849,-4.729806900024414,-0.4691205001907423,-9.7799782661736,-0.5498567824861035,-0.2073440615194101,0.3524026766234115,0.5828807720429867,2.2771270289881738,-0.3692310469620481,-0.6322427088129434,1.4970267018292631
2025-11-21 04:28:04.430,-2.6747569696366784,-15.193884305858612,-1.8781705383718013,0.1236962080001831,0.6572811603546143,-4.592206954956055,-0.9321082697801292,-9.745915837574003,-0.5645138150004669,-0.5248761218937814,0.3593920331230234,0.5681162119197998,2.5970428827882848,-0.360166132638118,-0.646808830264057,1.4594449837535963
2025-11-21 04:28:04.440,7.415588391435146,-15.505837793165444,1.248550739069283,-0.0847792327404022,0.4586551189422607,-3.909522294998169,-1.3524217401713132,-9.6967271515131,-0.5611154412664473,-0.6711721507746713,0.3651485668107327,0.5551628936861154,2.7483105282638958,-0.3504853442145332,-0.6600157886364603,1.4209296482121292
2025-11-21 04:28:04.450,14.77811973094344,-14.377426468431947,1.8323704718358813,-0.532956600189209,0.0935402885079383,-3.078518867492676,-1.693358160856366,-9.644797642311453,-0.5299249148413538,-0.7598966746268582,0.3714931741044026,0.5444385255539411,2.838304082406818,-0.342417212421674,-0.6695745387356853,1.3888626230929118
2025-11-21 04:28:04.460,14.114770388257504,-12.082785252702235,2.981905687010288,-1.2270746231079102,0.3452766537666321,-2.2001726627349854,-1.948783705255389,-9.60090121743977,-0.4419568911941722,-0.8398821881968893,0.3784498586337848,0.5373670785540986,2.918578906292514,-0.3344791836966686,-0.6753784295483741,1.3655924756648423
2025-11-21 04:28:04.470,11.577076787489652,-8.472940559083224,4.806379121986032,-1.6585201025009155,0.747215211391449,-1.4587234258651731,-2.1253667452164,-9.569165770483016,-0.2903163501141593,-0.9234892861042072,0.3849263030399797,0.5346749909723657,3.005836941475011,-0.325206334210852,-0.6783769530359449,1.3502739879087855
2025-11-21 04:28:04.480,10.48832644201517,-5.836588431164622,6.171950266587734,-2.0604677200317383,1.2364954948425293,-0.7449149489402771,-2.234465417838841,-9.5482533308357,-0.0918747852947562,-1.0106251939248865,0.3904126828643824,0.5357185760916201,3.1004986770819394,-0.314769299198341,-0.6793408305449741,1.34072818526492
2025-11-21 04:28:04.490,10.319587831944226,-5.672703690865635,5.104188348606229,-2.263542890548706,1.9905436038970947,0.3975308239459991,-2.2538217140853405,-9.54289794128239,0.1542268312461674,-1.1063051831060844,0.3937996929565845,0.5415940692413181,-3.0732701330874743,-0.3029240823966563,-0.6781111503661791,1.338345664824247
2025-11-21 04:28:04.500,10.915180566221474,-6.208202314186096,-2.6455761755988,-2.110703468322754,2.4131860733032227,1.8616966009140012,-2.139234673179686,-9.561507364684342,0.4143300486000254,-1.209675852939896,0.3934846495030209,0.5530972634086602,-2.9502799531672275,-0.2915697630244912,-0.6739736234481959,1.346731777318375
2025-11-21 04:28:04.510,10.419449889665842,-4.8303211385875935,-9.794411865195633,-1.7927123308181765,2.2224678993225098,3.053332567214966,-1.8874125601001084,-9.60132791841924,0.650058045566827,-1.328976651855616,0.3897915546943518,0.5689372214574188,-2.8098996758130954,-0.2829827405877576,-0.6665536782070307,1.3658060317001686
2025-11-21 04:28:04.520,8.141872036939859,-1.3179694354712963,-14.079716610532998,-1.5259602069854736,0.832846462726593,3.4200987815856934,-1.556769862153381,-9.64597896105051,0.8378357756938785,-1.477703667101503,0.3860053534667559,0.5853381723821549,-2.647862930951161,-0.2792958054020719,-0.6560282325773703,1.3895293980480536
2025-11-21 04:28:04.530,3.330492330187559,4.549328606733679,-16.268066027754543,-1.157623052597046,-0.8662457466125488,2.644716501235962,-1.257712389037758,-9.677408703058957,0.9676208971880376,-1.6427141401703338,0.3862161285294037,0.5972024572354938,-2.4858221979057484,-0.2814670402234484,-0.6441759002014784,1.4082665306004505
2025-11-21 04:28:04.540,-1.450583277585357,10.044760836982729,-16.561139458024503,-0.8531044125556946,-1.5853033065795898,1.3626329898834229,-1.075897878164053,-9.690715928399564,1.0501547304246577,-1.774836879146206,0.3904686072381866,0.602550153804241,-2.3683023369799505,-0.2864920272483723,-0.6343420156586235,1.416878667693841
2025-11-21 04:28:04.550,-1.605143870830536,13.802605304026605,-15.789648889571428,-0.4319860637187958,-1.0589752197265625,0.4932886660099029,-1.0060324609078466,-9.69280851676464,1.0989772865869103,-1.846051830427709,0.3955372628332507,0.603487292402496,-2.31206902863062,-0.2907055804326682,-0.6283658602866637,1.418276641270222
2025-11-21 04:28:04.560,3.2241362342715263,17.22170764555931,-15.43556890967488,0.1754841804504394,0.425696849822998,0.6252139210700989,-0.9620645051699132,-9.696133861795069,1.1089658158335831,-1.876286936002028,0.3962152724930866,0.6045877924036948,-2.2853815846490826,-0.292270381580646,-0.6261510171230616,1.420525034036994
2025-11-21 04:28:04.570,11.19969542698264,18.677784405994416,-16.445718596643207,0.9441441893577576,0.9722325801849364,1.5207141637802124,-0.8516565765798091,-9.71164765726924,1.06252409039326,-1.9073069678860688,0.3904567407702699,0.608661193074129,-2.246476167817666,-0.2934435089561756,-0.625272688991121,1.4314891263167566
2025-11-21 04:28:04.580,14.888898319476844,17.38083087054491,-17.823583990150688,1.8241877555847168,-0.4682458937168121,2.553653717041016,-0.6490851819466799,-9.740782566338776,0.9306956265032292,-1.9708631410326425,0.3819919956327515,0.613689334546678,-2.179788214875648,-0.3004848276538746,-0.6222348820764455,1.4548298414101453
2025-11-21 04:28:04.590,13.622660240286589,15.742389125746488,-16.578034478724003,2.598513126373291,-2.65610933303833,3.4399518966674805,-0.3676111867187544,-9.774392574995757,0.7046273286875337,-2.1154969179532306,0.3752854892627212,0.6165690552705952,-2.051660775748356,-0.317961763466418,-0.6147387705161297,1.4896652357458366
2025-11-21 04:28:04.600,7.704438066530227,12.38287411469221,-12.818583745527269,2.8241004943847656,-4.282402038574219,4.211217403411865,-0.0118672762149595,-9.79728537480533,0.4282909886090084,-2.6047900742504577,0.3714335503015689,0.6170978003000104,-1.598497681086652,-0.3443620447279504,-0.6021977917767682,1.5270915676810493
2025-11-21 04:28:04.610,2.1219208425462246,7.791948007678985,-8.701565774840116,2.7422900199890137,-5.13202714920044,4.795657157897949,0.4183270092817023,-9.796343710041045,0.1644413330021314,2.405919958024432,0.3696595226764018,0.6167190443245657,-0.3745377344010658,-0.3754815362972787,-0.5848274067988164,1.524945823201997
2025-11-21 04:28:04.620,-2.8820635030329225,4.797067688283324,-7.54835084823966,2.767758846282959,-5.4814887046813965,5.120579719543457,0.903106120244786,-9.764736857900022,-0.0686521050768438,1.9010257806771025,0.3684877521790506,0.615784557218587,0.0758718362271486,-0.4084789511659905,-0.5640666426023888,1.4783083668586072
2025-11-21 04:28:04.630,-5.093709040167927,3.1515824547141786,-8.45324304818362,2.9511327743530273,-5.332284212112427,5.188720226287842,1.1615320520361885,-9.731821553508937,-0.18039783530908166,1.8098296576196884,0.3672006840850248,0.6148917616317384,0.13939072059724344,-0.42526159459406554,-0.5530081897698962,1.4503667343858961
2025-11-21 04:28:04.640,-7.305354577302932,1.5060972211450336,-9.35813524812758,3.134506702423096,-5.183079719543457,5.256860733032227,1.4199579838275909,-9.69890624911785,-0.2921435655413195,1.7186335345622743,0.365913615990999,0.6139989660448898,0.2029096049673383,-0.4420442380221406,-0.5419497369374037,1.422425101913185
2025-11-21 04:28:04.650,-6.886223156303167,-0.5215624524265527,-9.69612918561995,3.8764283657073975,-3.2432546615600586,4.793322563171387,1.936660575132817,-9.597532033267616,-0.5541963095277548,1.5983172597620356,0.357967781624036,0.6121154021090222,0.2787124162332605,-0.4733466863837611,-0.5226058359333025,1.3639131188204974
2025-11-21 04:28:04.660,-2.705048939786851,-6.307285204228759,-15.994918948704004,5.754886627197266,-3.768544912338257,2.585376501083374,2.3162901529580355,-9.48247357545793,-0.9422618533954024,1.452592670738922,0.3468265992946666,0.6038840369876101,0.3863528331600866,-0.5034102011316957,-0.5114815546143547,1.3129569974302078
2025-11-21 04:28:04.670,-7.357756380191445,-16.04298184560537,-23.40630930392742,6.984661102294922,-3.428287506103516,1.688359260559082,2.55005010125488,-9.356206325891613,-1.459120950436592,1.2748698135414722,0.3363355558445774,0.5858276222746885,0.5197222560106065,-0.5355579777958221,-0.5068155763967599,1.2665316539627665
2025-11-21 04:28:04.680,-9.551239068648218,-28.934457808864117,-17.64230154032707,7.205955505371094,-1.9301053285598757,2.466742038726806,2.784925901839137,-9.17644480202496,-2.0512040691576896,1.1248681293780871,0.3203525515381198,0.5668470266764687,0.634829684662271,-0.5662827652774749,-0.5053538773206158,1.2103427473370836
2025-11-21 04:28:04.690,-4.970314715689421,-37.34586808670759,-8.313769987824559,6.654618740081787,-1.488967776298523,2.6442885398864746,3.062285337887704,-8.934647385483979,-2.6391037647143003,1.0240648895511553,0.2996530526325482,0.550499477300383,0.7113097327452665,-0.5942082240080242,-0.5040584782966241,1.1458975727817011
2025-11-21 04:28:04.700,-2.8331980575770137,-40.86965829868316,4.333690006060898,4.719398021697998,-1.3399269580841064,2.377035856246948,3.323410847494006,-8.688218802011013,-3.104865711724758,0.9641015767698232,0.2812605069933467,0.5372894319376978,0.751413798258177,-0.6170631521146185,-0.5014436473428765,1.0885421428200326
2025-11-21 04:28:04.710,-2.464670450133085,-40.788704355049134,13.362279119306802,2.8312244415283203,-0.4440946877002716,2.6827008724212646,3.56929553334862,-8.481719493344425,-3.389831238862872,0.9434873278414054,0.2668366602173928,0.5305495590243494,0.7596155239447895,-0.6328512034721795,-0.4968045572592651,1.0449405147250204
2025-11-21 04:28:04.720,-4.331656162145734,-36.32810792473554,17.158527843546867,2.1211562156677246,0.8927674293518066,3.1462996006011963,3.806128897741437,-8.28873842242062,-3.6028573189496997,0.9486733045040754,0.2507398195642215,0.5304794220214315,0.7579692616681587,-0.6423785035628037,-0.4930222926667347,1.0069694014190689
2025-11-21 04:28:04.730,-2.7536095570772883,-29.01679356224537,14.922935029113292,2.4800455570220947,1.1456094980239868,3.202672243118286,4.028222665902972,-8.079713979190588,-3.8291017770498983,0.95921894229902,0.2319676397201986,0.5324410166306048,0.7600615302679407,-0.6495295903153838,-0.4907227516457469,0.9682612167782132
2025-11-21 04:28:04.740,-3.705197749483585,-20.450922206008432,10.324290895068645,3.3574647903442383,0.8995097279548645,2.857464551925659,4.231173634438217,-7.837468818882107,-4.103855414514244,0.9593028896818268,0.2121181137818355,0.5314815720296547,0.7701242812473305,-0.6582227175461113,-0.48915854872806,0.925962121517306
2025-11-21 04:28:04.750,-7.393643101608752,-15.549647708797457,5.558823044663668,3.7886884212493896,0.5577628016471863,2.3087925910949707,4.399993200790882,-7.570709395042061,-4.415292476731539,0.9470410070407574,0.1926795333053713,0.5265397766697868,0.7871337291208635,-0.6686502439186601,-0.4884028899862375,0.8819778046536559
2025-11-21 04:28:04.760,-7.986710701322555,-12.241837166017293,1.7344895049288869,3.7091803550720215,0.1083822473883628,1.784132719039917,4.53621719622612,-7.306969026762246,-4.711828614675999,0.9288686864568436,0.1756685160997687,0.5191106894878846,0.8043848980052566,-0.6795637175982694,-0.4877067348968933,0.8406899498462695
2025-11-21 04:28:04.770,-6.039380117484927,-8.740216700273752,-0.7918886288374662,3.388340950012207,-0.7858838438987732,1.2498054504394531,4.660170615892112,-7.064955921643972,-4.953746442726255,0.9089321777837274,0.1625879550371056,0.51033958284883,0.815925240949628,-0.6907649590446178,-0.4857598025488219,0.8044149777848905
2025-11-21 04:28:04.780,-3.339412718746066,-5.75652880602181,-3.8463866738498207,2.858874559402466,-2.125324249267578,0.7081694006919861,4.801222469875216,-6.86001553285718,-5.104785145455598,0.8885021766832069,0.1551877627572279,0.5006098826099481,0.8160328775512062,-0.7029822116880865,-0.4807520515692933,0.7747352803993913
2025-11-21 04:28:04.790,-1.5952695425480603,-3.6300253118604418,-4.588845793607831,2.0325582027435303,-3.512228012084961,0.2323149591684341,4.977827575537562,-6.711279261851311,-5.133258375746012,0.8695989575523912,0.1547054111364158,0.490783795121266,0.8007693005832439,-0.7161911139170288,-0.4714527264949891,0.7537255930788369
2025-11-21 04:28:04.800,-1.090720768764615,-1.008231870648265,-3.138521897611022,1.1845157146453855,-4.59541130065918,-0.1393712013959884,5.189893286159634,-6.627026276671886,-5.031691267672181,0.8546987562639582,0.1607477744606456,0.4818947285864711,0.7699221475266282,-0.7296494650743897,-0.4577654965738624,0.7420069399699811
2025-11-21 04:28:04.810,-2.502857265186309,3.049537792256474,-0.5557283414006233,0.5579749345779419,-5.048089981079102,-0.6465630531311035,5.404928367981315,-6.604927257588505,-4.83032756832838,0.8425902130136111,0.1718818149368644,0.4737984146887148,0.7293176325922468,-0.7423541487894592,-0.4414543862087317,0.7389540388864521
2025-11-21 04:28:04.820,-4.71501484349668,6.150925014215708,1.837847588072717,0.0150236226618289,-4.897141933441162,-1.273849368095398,5.57722671636045,-6.644280193811655,-4.573672189873457,0.831312729918799,0.1866175443972229,0.4662035847115297,0.6868547539053351,-0.7530031723238705,-0.4252228385732116,0.7443964560870298
2025-11-21 04:28:04.830,-6.144522161436081,8.64773423140943,3.724326520584524,-0.4089188575744629,-4.460324764251709,-1.9337908029556277,5.678102335038781,-6.744044636377692,-4.295044341324269,0.8198733126738812,0.2040295352115447,0.4590142745658163,0.6475988636779522,-0.7607947355497906,-0.4109371063141094,0.7583178499596527
2025-11-21 04:28:04.840,-7.297989601492882,11.176895566153526,6.117942782068252,-0.8223187327384949,-3.745521306991577,-2.390251398086548,5.700757818961143,-6.893968071341514,-4.018077996246516,0.8088374644365369,0.2230291466959791,0.4525183785788074,0.613961757759105,-0.7654311946176201,-0.3994999956437475,0.7795917257769208
2025-11-21 04:28:04.850,-8.410330081391335,14.07801798992157,8.919280889526009,-1.3290075063705444,-2.7573487758636475,-2.5615336894989014,5.654005420136452,-7.077371751102805,-3.756783559814095,0.8014694288932351,0.2420756624861466,0.447916200696889,0.5864639084522943,-0.7665802225556385,-0.3913122967255781,0.8062421935097309
2025-11-21 04:28:04.860,-9.969588983881472,15.532654488420484,10.186249036556482,-1.5722100734710691,-1.4208258390426636,-2.661835193634033,5.543906630560755,-7.277895492491125,-3.530966971737146,0.7988960615899793,0.2597123622274411,0.445871829967115,0.567117646833387,-0.7641066963715368,-0.3871548824467722,0.8362558449629527
2025-11-21 04:28:04.870,-12.44214463430643,14.92277136298418,9.97935049943924,-1.2794846296310425,0.0159796848893165,-2.918310642242432,5.362640547350049,-7.479796951973438,-3.386017525793612,0.7949287342360601,0.2746539665421854,0.4450892584041868,0.5631945081095744,-0.7584946839714128,-0.3887758033006138,0.8675193763865213
2025-11-21 04:28:04.880,-15.031878218913077,14.797861373245714,10.478180311053992,-0.8916387557983398,1.249272346496582,-3.492490291595459,5.098484584006667,-7.6830416427582495,-3.3386709604680536,0.7820296012388057,0.2873463636819117,0.4438205377695116,0.5797673297058952,-0.7503158215273912,-0.3968396436341067,0.9002016059082162
2025-11-21 04:28:04.890,-16.89751543892622,14.257156413453815,12.373950803524256,-0.7837879061698914,2.101431131362915,-4.148494243621826,4.742453470042348,-7.899204267305135,-3.358883435152471,0.7574895553297435,0.2995292010491334,0.4415885537150161,0.6162471511109702,-0.7394575524912568,-0.4104685353603175,0.936509742244656
2025-11-21 04:28:04.900,-16.722345919024942,13.322454473918675,15.119910722631214,-0.9532694220542908,3.0178568363189697,-4.410982608795166,4.308708709539473,-8.124642085197568,-3.4052307603076097,0.7245191185202772,0.311573062626339,0.4395995717773815,0.668806580806441,-0.725558514403267,-0.4280644968089943,0.9763932212775716
2025-11-21 04:28:04.910,-12.122364398896693,13.790811990380286,16.58512706733346,-0.8551769256591797,3.5007359981536865,-3.743341445922852,3.8533909996539353,-8.326196923199296,-3.4635549389824267,0.6884039804612917,0.3212561684846148,0.4390764027650135,0.7321699758472304,-0.7097043089703213,-0.4475781691872786,1.0141576297168824
2025-11-21 04:28:04.920,-2.432871290290356,14.314139114391804,17.95862725136876,-0.6573083996772766,3.269315004348755,-2.108084201812744,3.482878355872631,-8.46151315613985,-3.5274265226513144,0.6590654288131486,0.3258399802215364,0.4404749311281351,0.7917527761241009,-0.6953842093496693,-0.4650278868772825,1.0408500080416154
2025-11-21 04:28:04.930,6.960423534023762,12.485536032265424,22.099075197482108,-0.8705567717552185,1.9982612133026123,0.0405669137835502,3.2984313045382496,-8.522683371895551,-3.557330954788625,0.6540592533613042,0.3251651802263604,0.4449394753078072,0.8231440207247529,-0.6857127948778678,-0.4754938606724639,1.0533229289610748
2025-11-21 04:28:04.940,11.111326238656044,9.353929028609397,24.873912836027145,-1.6553847789764404,0.6978470683097839,1.8261253833770752,3.3355849771514534,-8.534663148024677,-3.493391566580534,0.6858106379344041,0.3219120528092088,0.4536356341748926,0.8085024114565131,-0.6813825944513159,-0.4757153773525616,1.0557977702330077
2025-11-21 04:28:04.950,6.638322746711969,7.100258121171593,22.09372331506014,-2.1294569969177246,0.6790283918380737,2.713207244873047,3.514139171054959,-8.52061708701551,-3.349668447561562,0.7469700128032483,0.317107840744054,0.4667106613551479,0.7614407172930615,-0.6792291913087422,-0.4693307829804541,1.0528972378654784
2025-11-21 04:28:04.960,3.368805401968956,7.008876891547441,15.920731430464985,-2.222463846206665,1.4957733154296875,2.442347526550293,3.706958037154376,-8.496274672919512,-3.2003383023157714,0.8157812564423957,0.3107151427511954,0.4820177862273672,0.7121836724531434,-0.6757670955019143,-0.4630916073725012,1.0479050209505003
2025-11-21 04:28:04.970,1.180863981026411,6.568351969385147,11.670248407661914,-2.0034055709838867,3.7649855613708496,1.265478491783142,3.789498665457964,-8.492392863050103,-3.112772831587493,0.8728047628551799,0.3031863119544018,0.4973775333933766,0.6876665605975902,-0.6677022436741924,-0.4635379097736023,1.0471128416050648
2025-11-21 04:28:04.980,-8.613336287245154,3.8182822768718,9.720359371513128,-1.4276360273361206,8.30610179901123,-0.8690848350524902,3.6263635744825,-8.53635592341721,-3.1859847827926275,0.9032884463870208,0.2912659867443236,0.5126517968927299,0.720843780122824,-0.6496777883774657,-0.4798656423007494,1.0561483494173578
2025-11-21 04:28:04.990,-16.48389372125864,-1.2585738281726837,10.26596028665304,-0.6662790775299072,11.157146298408612,-3.797772884368897,3.087137747332453,-8.650577930402756,-3.436200483588874,0.884179453975323,0.2751212123640477,0.5244114670171829,0.8388569856771444,-0.6183792371144545,-0.5166314851806716,1.0803303050999038
2025-11-21 04:28:05.000,-18.60836424828768,-5.649350287806987,5.423278848186135,0.5189680457115173,9.146587371826172,-4.2559332847595215,2.347993743471801,-8.766437183201312,-3.7157641516834494,0.8125204325838027,0.2603085879455338,0.5273789961452773,1.0072501628174173,-0.5844534773239748,-0.5590394241021149,1.1060333327612837
2025-11-21 04:28:05.010,-15.770532685691116,-14.494204589641091,1.2537617517158388,0.7856473922729492,5.650108337402344,-3.313551902770996,1.7252473370701074,-8.816192270973325,-3.933023339295387,0.7277813054205442,0.2496802755293358,0.5236059193164312,1.157415346018506,-0.560178565242545,-0.5913515231916511,1.1174839441576248
2025-11-21 04:28:05.020,-19.06559246796965,-39.01296893975734,-3.4192306440874933,-1.1521095037460327,2.9945778846740723,-2.049121856689453,1.3214160687938332,-8.86028977137506,-3.989925668473541,0.6702820778995147,0.2464564860570789,0.520890469876297,1.2509776956101608,-0.5441016529718755,-0.6098243449900205,1.1278625080704603
2025-11-21 04:28:05.030,-21.78796926691532,-49.57808986763954,-7.802734774631261,-2.596966028213501,2.3255257606506348,-0.7793481349945068,1.0960811267539858,-8.954903407049178,-3.844308114010096,0.6525367196888552,0.2494940535770098,0.5251773377788161,1.2930481040942876,-0.529219586555362,-0.6179547978435395,1.1509362608900855
2025-11-21 04:28:05.040,-14.752303737163542,-39.95683618252277,-8.907934735125302,-2.934680223464966,2.643663167953491,0.1485589295625686,0.9774141961235552,-9.063394761428237,-3.615236031268537,0.6632656067045303,0.2528627676708838,0.5344152269726101,1.3067492513214334,-0.5140376176645816,-0.6214709693695462,1.1789592066991312
2025-11-21 04:28:05.050,-4.405393014007807,-21.441478719234464,-11.195436600494384,-2.690056562423706,4.0595879554748535,1.689980149269104,0.940085605334863,-9.1544749622792,-3.388543829400837,0.7066504753620394,0.2503430214925688,0.5486060370788052,1.3001718657904506,-0.4969532897322253,-0.6240171037896727,1.2040435578591042
2025-11-21 04:28:05.060,5.022150701388717,-6.086832189011574,-12.170443662410976,-2.413743495941162,3.0520212650299072,2.5983054637908936,1.0220109512843192,-9.216457078939676,-3.1910534643590447,0.789016145944866,0.2422714132325897,0.5665164334194812,1.2608449992479716,-0.4807986212294891,-0.6238561589068705,1.2220944800542082
2025-11-21 04:28:05.070,5.59123186083734,1.2618898208528757,-11.327302400720118,-2.353044986724853,0.9390583038330078,1.977060317993164,1.1795699956931174,-9.263760681906342,-2.9936154140263795,0.8794440809037427,0.238320093503757,0.58189906399731,1.1954482975157457,-0.4706748120030631,-0.6189201886340202,1.2364977612979913
2025-11-21 04:28:05.080,2.042872440272569,6.832867998212575,-10.738803424096108,-2.51088547706604,-1.7319163084030151,0.1118173748254776,1.2906043125532567,-9.31999461030364,-2.7644939391851424,0.9411947653804728,0.2440571604276887,0.5906290839018893,1.1340185593946013,-0.4657894291462158,-0.6120731965030602,1.2544389117027384
2025-11-21 04:28:05.090,4.026317124542594,11.782906818592547,-10.931178930342195,-2.9618842601776123,-3.772922992706299,-2.050575256347656,1.2730989048704504,-9.404267469227314,-2.4717116008162496,0.950878182679378,0.2634376923466348,0.5901224597164276,1.0951673190530575,-0.4654733603451651,-0.6047235769865894,1.283340851822072
2025-11-21 04:28:05.100,-2.7531004385113715,11.668013195955751,-9.565490881362557,-3.2297840118408203,-3.279324531555176,-3.3819005489349365,1.0922724551860243,-9.509639230281111,-2.1316806045383214,0.9111941991796012,0.2900037939154936,0.5840040314909286,1.0972782494424358,-0.4632813137566365,-0.6001728105282556,1.3240544867223445
2025-11-21 04:28:05.110,-7.890031949812173,11.452922000032665,-9.160674985963103,-2.93977689743042,-1.7335575819015503,-3.754614114761353,0.7949651136733591,-9.605496144014596,-1.8091085464529693,0.8239944247850849,0.3151410812755245,0.5764079704855891,1.156772409977799,-0.4563834597768402,-0.6001284509858339,1.3679046763730425
2025-11-21 04:28:05.120,-8.943112431490421,10.582499932706355,-9.767180743920802,-2.2579128742218018,0.0271182879805564,-3.2358343601226807,0.4667409115778282,-9.671805476224424,-1.5520061548829078,0.6916163363593573,0.3333809143937655,0.5702747785292642,1.2786663464867605,-0.4456275206740462,-0.6042019553700436,1.4047726256674609
2025-11-21 04:28:05.130,-6.559222906512022,6.577150777390599,-11.056025791716577,-1.5530115365982056,0.7090185284614563,-2.551900148391724,0.1810698847851715,-9.709065824082494,-1.3680848809882995,0.5339303539173765,0.3441826356604286,0.5665425553891126,1.4392083017706274,-0.4338912423699577,-0.6101690898285164,1.4296058627331245
2025-11-21 04:28:05.140,-3.523620700627565,1.5018629445761442,-13.648048364043236,-0.8025927543640137,0.0820711851119995,-2.656046867370605,-0.0721714154765242,-9.725945647212862,-1.2534632071606815,0.3475214745806224,0.352040791213026,0.5620315311248782,1.6283104393954853,-0.4247833531491712,-0.6162361556517933,1.4424150447167594
2025-11-21 04:28:05.150,-3.590836041766405,-5.470512308526039,-15.136578948837515,-0.2665479481220245,-0.7309263944625854,-3.6339423656463614,-0.3718674559237435,-9.72518635327816,-1.2053433193750678,0.1004289195169428,0.3611138934299753,0.5528174622791386,1.870047341419938,-0.4188470853738057,-0.6233431793967434,1.4418115681695811
2025-11-21 04:28:05.160,-5.033533096146583,-11.945983749639987,-11.477690530586242,-0.2822729349136352,-1.0420591831207275,-4.478032112121582,-0.7596865142170339,-9.70478186315298,-1.187636690031737,-0.1813549388412648,0.3729633312313423,0.5386986096210332,2.1398699672456822,-0.4136068529418135,-0.6321642091844195,1.4265348043526442
2025-11-21 04:28:05.170,-3.745816175597906,-12.929874375236034,-4.624043655978143,-0.5953109860420227,-0.7320078611373901,-4.523597717285156,-1.1919253271363677,-9.665255323928594,-1.1543624892003834,-0.4256863186403786,0.3861210949810439,0.5233168069892992,2.3722026111417627,-0.4066550373986093,-0.6416243298048759,1.4007786003911713
2025-11-21 04:28:05.180,2.5618852082163093,-10.826574062007666,-0.3231274269457906,-0.7126514911651611,-0.1575431376695633,-3.944115400314331,-1.59881832107082,-9.613027124041318,-1.0972327810071407,-0.6013586893779945,0.3981004577051368,0.5098957019319479,2.540136034686735,-0.3981074139824344,-0.6504099282432105,1.371751737216144
2025-11-21 04:28:05.190,7.141774957430362,-8.832728979754448,1.5559946399971842,-0.6381540894508362,0.698257565498352,-3.370438814163208,-1.9518939462304117,-9.555337151616811,-1.0276241880562156,-0.7183629293229026,0.4068897701534936,0.499764860433453,2.656989729723523,-0.3882217673203713,-0.6587561059222996,1.343917630796539
2025-11-21 04:28:05.200,8.409958325469493,-8.112829482328891,1.7540397163122892,-0.7370594143867493,1.5596847534179688,-3.0348618030548096,-2.2689807047724724,-9.49412894193828,-0.940011078793928,-0.800852448268919,0.4123051435318616,0.4927869169321577,2.7488301804254944,-0.3761319043531603,-0.6676003969112092,1.3176600093883029
2025-11-21 04:28:05.210,12.737816848897934,-8.271867367118597,3.393952994967997,-1.2693331241607666,1.312510371208191,-2.3618884086608887,-2.542109371383488,-9.436693821057675,-0.8104596199251711,-0.8723314185375817,0.4169684512337442,0.4885266268681984,2.832966075408517,-0.3629464369649521,-0.6750917118007819,1.2952436795196394
2025-11-21 04:28:05.220,15.855219386112688,-8.60979934529066,6.339142231738567,-1.9269020557403564,0.5378603935241699,-1.2346038818359375,-2.719432562187314,-9.40058205871284,-0.6357047452393919,-0.945155946602504,0.42342684384657,0.48715860459161,2.9119525710183227,-0.3521704230614428,-0.6777626302745248,1.2820184051147854
2025-11-21 04:28:05.230,12.575877397447824,-8.887578175795078,8.965096884283422,-2.3454763889312744,0.8225187659263611,-0.2468430399894714,-2.7912241252005097,-9.39185339333415,-0.415402901995927,-1.0244098954427971,0.430584882457638,0.4897306068147102,2.9938524062688896,-0.3432945867459853,-0.6759507948627359,1.2789090714176743
2025-11-21 04:28:05.240,9.73467781972289,-9.126774469926954,5.24465772652626,-2.172755241394043,1.7726218700408936,0.8509212136268616,-2.768149831344187,-9.406442475178835,-0.16311452311147,-1.103388188821727,0.4345813975954674,0.497429778215813,3.082735247047061,-0.3338074453576534,-0.6725142223373317,1.2841243161155198
2025-11-21 04:28:05.250,10.82113800843358,-7.900159960594773,-4.690414947508275,-1.7482153177261353,2.220597982406616,1.9577603340148928,-2.635063549412787,-9.445682598677276,0.077087705793092,-1.1737281684911294,0.4336530961496863,0.5098697323557118,-3.112346404557404,-0.3250879153097993,-0.6680537745373816,1.2986327994831048
2025-11-21 04:28:05.260,9.681980833280086,-4.583765713864564,-10.416858119606973,-1.4824931621551514,1.6880698204040527,2.7768595218658447,-2.4040562608249485,-9.503266772639751,0.2807064083889126,-1.2427994932279989,0.4299030674457603,0.5248129073317004,-3.0253553365782,-0.3193721398138637,-0.6616313978108648,1.3214077943450269
2025-11-21 04:28:05.270,6.100955406910181,0.0452308883458375,-13.531862948030232,-1.238721489906311,0.3900576531887054,2.946990489959717,-2.121791809339076,-9.564428220567107,0.4360291085803881,-1.3206882558346982,0.4269177740568294,0.5388932160066764,-2.9389138762272657,-0.3184539950352327,-0.6526273763760344,1.3480764054261232
2025-11-21 04:28:05.280,1.1258216005012391,6.0012418177485465,-15.503244854062794,-0.8803572058677673,-0.7757349014282227,2.311875820159912,-1.866528469764441,-9.612596915930508,0.5333497381908818,-1.4005220044734248,0.4267437836467173,0.5487422916199877,-2.863265310667682,-0.322048959808165,-0.6426944925172681,1.3715300409571525
2025-11-21 04:28:05.290,-1.7354891834907231,11.347613367342948,-16.080853018838166,-0.5096380114555359,-1.1223686933517456,1.298624038696289,-1.6979463654294609,-9.64099883455038,0.5818392995391041,-1.4636177631425735,0.4288070170210704,0.5534754707073857,-2.811460650316604,-0.3272520410877266,-0.6345831050007629,1.3867340457077768
2025-11-21 04:28:05.300,-0.149679689335823,15.30998438167572,-14.957138912010192,-0.109830766916275,-0.2864646315574646,0.7026497721672058,-1.6106575196854769,-9.654880060386658,0.5995600304730236,-1.498216641463378,0.4304114396960447,0.5553302874417384,-2.7852390574186208,-0.3308892181246643,-0.6299735472426683,1.3946356458337124
2025-11-21 04:28:05.310,6.298090090382098,18.49662821289897,-14.54143162024021,0.4912604093551636,1.0008912086486816,1.078737735748291,-1.5274929142646492,-9.669058223342894,0.5886232971234246,-1.5056865844393197,0.4273188379808076,0.5585411399418297,-2.773776816772192,-0.3318906544261367,-0.6287122364730652,1.403086004394697
2025-11-21 04:28:05.320,13.808404930216073,19.68515644494295,-16.11139311853051,1.2921358346939087,0.8543546199798584,1.963395118713379,-1.375015703164786,-9.695950321921703,0.5179581443242729,-1.487582895286205,0.4191211364686484,0.5640130395887051,-2.781338954490231,-0.3343397482592649,-0.6280475815105007,1.4203999164141756
2025-11-21 04:28:05.330,14.025920722937585,18.55930883321762,-16.950594702684878,2.188419342041016,-0.7624382376670837,2.7094414234161377,-1.1454154318306595,-9.733234050655364,0.3500982167840004,-1.4222103480456885,0.409336874890609,0.56868530823364,-2.8449588840572564,-0.3437980879884769,-0.625174581530623,1.448357031673906
2025-11-21 04:28:05.340,11.157664795982836,17.28063797343373,-14.950750087755916,2.9593937397003174,-2.80332350730896,3.3038575649261475,-0.8551152656663209,-9.768979902297255,0.0787175628840923,-1.2344404299824567,0.4010730267858801,0.5698156253972501,-3.049796449482648,-0.3629206658723208,-0.6186591723225225,1.4831178742539737
2025-11-21 04:28:05.350,6.418468866431713,13.26099667339325,-10.860699618971347,3.220306396484375,-4.18619441986084,3.977491855621338,-0.4956623240271582,-9.790900057682396,-0.2509396494229324,-0.7081989855227441,0.3947177069267768,0.5680523034853409,2.6729405196256115,-0.3899292520707392,-0.6078401734686,1.5141139096803655
2025-11-21 04:28:05.360,1.9397791455447675,8.030613555935025,-6.748920133459568,3.209045648574829,-4.860235691070557,4.523698329925537,-0.0574879150803433,-9.78930372840166,-0.5801797688290476,0.2507657838986177,0.3893104496425995,0.5653683006199097,1.6695603271116892,-0.4212215614599964,-0.5927633943630752,1.511309440202908
2025-11-21 04:28:05.370,-2.651642636030912,4.5026013423502445,-5.325690580615401,3.2764194011688232,-4.889413356781006,4.881238460540772,0.4399986332658678,-9.756527247959374,-0.88711323601678,0.7622983952894665,0.3833938539821206,0.5625776942845501,1.110362470988603,-0.4538062009351938,-0.5749569256130767,1.4696483153342823
2025-11-21 04:28:05.380,-6.158721951702237,0.5109715003073215,-6.7565072275877,3.597332000732422,-4.400867462158203,5.121593475341797,0.9767720988277344,-9.685252402296662,-1.1883515603028236,0.94429143971087,0.3750552371673641,0.5597757315229095,0.8828105380243122,-0.486263948905007,-0.5563560480903506,1.4132862256289247
2025-11-21 04:28:05.390,-3.5033003816545008,-2.378230768564343,-5.414642537266015,4.027841091156006,-2.4179649353027344,5.228579998016357,1.533022052949667,-9.568086158552765,-1.507294029714167,1.0163147801639976,0.3612912586725919,0.5583513503958568,0.7769360883837051,-0.5161453587241078,-0.5397279433462968,1.3497713874410089
2025-11-21 04:28:05.400,2.091149272185564,-6.399019485074281,-10.265304453092812,6.158459186553955,-2.7854249477386475,2.7056028842926025,1.959690591455996,-9.410192767623066,-1.943777421400696,0.9862519936398096,0.3439057047857943,0.5514263147818422,0.7813215183528784,-0.5439167862282945,-0.5308601074174543,1.2854798927411673
2025-11-21 04:28:05.410,-5.254478278794885,-15.776042389023305,-21.697789229774475,7.848276138305664,-2.466277837753296,1.395995020866394,2.199776235643029,-9.211642372134328,-2.544998370823264,0.8764857189342213,0.3272946428439116,0.5321041165412789,0.8580285363536018,-0.5736048870420142,-0.5298309553557269,1.220660350259762
2025-11-21 04:28:05.420,-7.585945542618631,-29.44650599849224,-19.270635732609037,8.404675483703613,-0.972527027130127,1.9097354412078855,2.393820113492757,-8.93688668884337,-3.251469354616105,0.7735280158458466,0.3052772857159009,0.5094330228278183,0.9361682331660708,-0.6021035989216977,-0.5336243240509019,1.1464518176361878
2025-11-21 04:28:05.430,-4.03045466273874,-41.09058886828422,-10.384253488600253,7.772160530090332,0.1498579829931259,2.136697292327881,2.590042504425347,-8.587894971996546,-3.9635973412573335,0.7070022160241858,0.2777253696084216,0.4892064942491451,0.991994320789812,-0.6266835887025273,-0.5392709852546744,1.0669283584764466
2025-11-21 04:28:05.440,-1.616777610000968,-49.95237560021877,4.060940401895344,4.975444316864014,0.281481921672821,1.7119754552841189,2.73935832888484,-8.261141974964737,-4.518831469400227,0.671257145741574,0.2532762370133587,0.4742158472023601,1.0258235465061454,-0.6440401871721609,-0.5442267354037401,1.0017255216880097
2025-11-21 04:28:05.450,-0.140996324403584,-51.100259687185286,13.97986039803028,2.8913540840148926,1.0071094036102295,2.0122313499450684,2.861856581306457,-8.031881383913754,-4.844483811713755,0.6638670755429105,0.2357796538938347,0.4673940379387939,1.0372094787932389,-0.653801775311975,-0.5463459348718985,0.9597078471052708
2025-11-21 04:28:05.460,-3.2409435766875743,-40.05703258676529,15.47479383560419,2.3337018489837646,1.5432753562927246,2.817603349685669,2.98506298199743,-7.834031245648861,-5.08799826130569,0.6772522689532152,0.2176030812179523,0.467186059483737,1.0402232494750572,-0.6587358958252971,-0.5481359759258267,0.925379155340912
2025-11-21 04:28:05.470,0.5969079085290432,-26.29666483448744,11.682351517909764,2.609733819961548,0.547623336315155,3.1097166538238525,3.1610908722937103,-7.614658426883817,-5.309884524196386,0.6994232015457839,0.1983513340120449,0.4685719747408842,1.0338236983919278,-0.664538300338695,-0.5472531167934842,0.8890589002297749
2025-11-21 04:28:05.480,-2.703230784448981,-17.796712349838018,6.511433565855026,3.134977102279663,-0.2912997007369995,2.7647883892059326,3.378695220081508,-7.361109782272577,-5.528913644090294,0.7157653145320324,0.1803267682344633,0.4671102093253425,1.0222581738651084,-0.6738499099893396,-0.5433385216654006,0.8490064289364225
2025-11-21 04:28:05.490,-6.811326613011956,-13.43028122690916,2.989783873039484,3.3104090690612797,-0.9354097247123718,2.2002885341644287,3.594118132176995,-7.090570839893817,-5.742517231804132,0.7218356781208699,0.164486882908118,0.4622611754136925,1.011565512549038,-0.6852471221021956,-0.5382332564754696,0.8081885601995964
2025-11-21 04:28:05.500,-5.9337044050484895,-9.98027988924384,0.6941437094002961,3.214203357696533,-1.5033700466156006,1.7178974151611328,3.801518189075589,-6.826716489845514,-5.9257736120492215,0.7204490924032028,0.1517168946507636,0.4552166491855072,1.0004036562722638,-0.6975681520617103,-0.5321263931178721,0.7699945624093548
2025-11-21 04:28:05.510,-4.327948832060397,-6.579089636498689,-1.2699749276310204,2.916013240814209,-2.409867525100708,1.1948225498199463,4.014906672734022,-6.584529781726002,-6.057628306359052,0.7141568484610995,0.1427436023873779,0.4468037967102184,0.9854856646631294,-0.710682422566952,-0.5243290877234936,0.7361437591543575
2025-11-21 04:28:05.520,-2.191924353098869,-3.8766397732943294,-2.226196040534973,2.34549617767334,-3.691648960113525,0.589423656463623,4.25961676185131,-6.385656145632266,-6.10323095062673,0.7042125491123384,0.1393759187790888,0.4374591584608419,0.9614622145686048,-0.7251271413705989,-0.5132195837627646,0.7091062667483331
2025-11-21 04:28:05.530,-1.4724229150801895,-1.2628349927484988,-1.0575865609258412,1.5094658136367798,-4.64653205871582,-0.0503935515880584,4.532511619706452,-6.256005683368444,-6.0406228110224,0.6923121023373712,0.1425687496618934,0.4281087753619536,0.9270786535294924,-0.7401464241829351,-0.4985783558543622,0.6918138244175792
2025-11-21 04:28:05.540,-1.322864806297421,2.424739421761036,1.468966637146473,0.8358358144760132,-5.108503341674805,-0.8297298550605774,4.799394962187111,-6.207278769600391,-5.882677397644519,0.6786506313822935,0.1517962184195264,0.4190934872709646,0.8864638904823368,-0.7543618620776148,-0.48193034942442,0.6853787760225017
2025-11-21 04:28:05.550,-1.9691618918955325,6.669851857441663,3.816124806576967,0.2441109865903854,-4.985122680664063,-1.6440293788909912,5.016830967670678,-6.236351719349623,-5.666543414670229,0.6618476694524206,0.1657726705486394,0.4100248553399874,0.8461386502705226,-0.7665943535616822,-0.4655450851833496,0.6892141458464224
2025-11-21 04:28:05.560,-3.816578395563364,9.237189485844969,6.432686192354559,-0.5433111190795898,-4.2383246421813965,-2.386901617050171,5.147754518610239,-6.3470888068288565,-5.420837300252914,0.6436127364442492,0.1833627770686349,0.4018498549301827,0.811231506197024,-0.7752284558008502,-0.4515702184071992,0.7039357774799119
2025-11-21 04:28:05.570,-5.370795212233066,11.698427038919926,9.844000948750972,-1.426530361175537,-2.919482707977295,-2.915278196334839,5.166988795912266,-6.537575138327479,-5.170369670522213,0.6273908331118724,0.2031835348371148,0.3962366133200126,0.7857252188592052,-0.7787423851683475,-0.4418974221950831,0.7297014548745927
2025-11-21 04:28:05.580,-6.060771280559897,14.95177300106287,12.792231160652635,-2.1125667095184326,-1.5260778665542605,-3.053906202316284,5.077951499065756,-6.782907158735394,-4.937303841969371,0.6160127173632096,0.2232251731140657,0.3942547961244477,0.7713557357097836,-0.7768311574912217,-0.4373408865122316,0.7637905596193079
2025-11-21 04:28:05.590,-6.711473323118686,17.906356965905427,12.602258039373158,-2.34802508354187,-0.2760869860649109,-2.9386649131774902,4.913876204630732,-7.042666932946443,-4.735509934514761,0.609487863215823,0.2415926891732893,0.3953986166097164,0.7669155267134904,-0.7708423976308905,-0.4371441370481466,0.8011432755339066
2025-11-21 04:28:05.600,-8.90419087242186,16.443201645386218,11.343479628539084,-2.2345359325408936,0.7809730172157288,-2.8781142234802246,4.693089427414536,-7.289720370319485,-4.583151965880393,0.6041662894689646,0.2572424710717403,0.398219039629332,0.773547216999215,-0.7620384986555271,-0.441072948973996,0.8380566864677348
2025-11-21 04:28:05.610,-11.7412187174201,15.242642783808709,11.59638237646222,-2.1541006565093994,1.450161695480347,-3.0313708782196045,4.42244322526902,-7.523586409339308,-4.473033887082338,0.5960561897552006,0.2710123367530274,0.4014324127113357,0.7910853518918816,-0.751221631333514,-0.4484088123628595,0.8744523142771438
2025-11-21 04:28:05.620,-13.446369607400891,14.319060788702965,12.733317199391124,-2.274297952651977,1.8696638345718384,-3.038943290710449,4.114967760159075,-7.751615997290611,-4.376057321669161,0.5853599218541261,0.2840214304552972,0.4050364577636406,0.8161373639131264,-0.7387492842734197,-0.4577410392856069,0.9115349449229808
2025-11-21 04:28:05.630,-13.276975163769722,13.182207798838617,14.924924741625786,-2.497887134552002,2.405641794204712,-2.7324910163879395,3.793093475079536,-7.970629919615387,-4.272223437707126,0.5763421810108929,0.2958901602272251,0.4101417369348241,0.8447346274680991,-0.7246915122760773,-0.4680331857728608,0.9489049804254996
2025-11-21 04:28:05.640,-9.39793359003067,13.951707485735415,16.206234133219716,-2.3730390071868896,2.4700231552124023,-1.8548506498336792,3.4989202668741344,-8.159982278648018,-4.164447245860099,0.5735772106033041,0.3049403518660077,0.4172168067371561,0.8720260714327108,-0.7101586844971532,-0.4781381570682097,0.9828592286365032
2025-11-21 04:28:05.650,-1.8421531763121484,14.942336479675769,17.19580046636462,-2.0561373233795166,1.8017734289169312,-0.542308509349823,3.3097987939879294,-8.292740643799304,-4.055373999939858,0.5823867442025946,0.310015122665726,0.4254379002604967,0.886284332660008,-0.6983947968151681,-0.4849101429979653,1.007733490787649
2025-11-21 04:28:05.660,0.2190738358184695,13.27365624848008,19.32032126227617,-1.9541219472885127,1.3130565881729126,0.7251309156417847,3.258802766244113,-8.368086099901795,-3.940268488118052,0.6079065604466689,0.3111587711247625,0.4349510464860165,0.8797771671297189,-0.6906302821727928,-0.4868547223311265,1.0222957288276926
2025-11-21 04:28:05.670,-2.350228078395128,10.083459693211315,20.130611224722863,-2.2502999305725098,1.4942718744277954,1.4627677202224731,3.3005762076124547,-8.412157296818494,-3.8094881450414655,0.65077465051193,0.3093289279883306,0.4470458406488792,0.8568525570893981,-0.6844213972507113,-0.4858323348748559,1.0309765434910412
2025-11-21 04:28:05.680,-3.4065742838710547,7.542519657868146,17.4651879006207,-2.467282772064209,1.8678287267684937,1.5833520889282229,3.3703616915002463,-8.448724986237288,-3.664710256272554,0.7049204815039904,0.3059050728104536,0.461596645822812,0.827213942227568,-0.6773250479566894,-0.4843361082774907,1.038275921101377
2025-11-21 04:28:05.690,-1.926988053032756,7.01790541665554,13.707462676042317,-2.339711904525757,2.168551206588745,0.8536379337310791,3.406155766198039,-8.4927330547899,-3.5273169247969984,0.7564355024964169,0.3027598907542291,0.4759305554826393,0.8028712013495841,-0.6686970235475048,-0.4844283559161946,1.0471823211072269
2025-11-21 04:28:05.700,-1.2054907650217412,6.740714030650258,11.092488267195224,-1.9754668474197388,4.09076738357544,-0.5874687433242798,3.318223800244928,-8.562700909507274,-3.4409190365433693,0.7894494779394573,0.3004092315240771,0.4879706231997799,0.8035486773414297,-0.6565569123886317,-0.4904813634391612,1.0616327153040763
2025-11-21 04:28:05.710,-8.770684319251774,3.636749651679396,9.803390121421216,-1.4160996675491333,7.6366286277771,-2.425928831100464,2.984945493097603,-8.668612768787145,-3.4807524497598408,0.790405666030903,0.2948748298190324,0.498563316177165,0.8619310326562543,-0.6353144462741732,-0.5107435442454608,1.0842489039020515
2025-11-21 04:28:05.720,-12.86685940839648,-2.6397271573096512,9.907231019645929,-1.0603232383728027,9.409099578857422,-4.149823188781738,2.382350917234272,-8.802012938973307,-3.608236089378595,0.7475411421823004,0.2866138115668875,0.5061443954003416,0.9872466584924052,-0.6043872997279927,-0.5444138394416622,1.1141935676586707
2025-11-21 04:28:05.730,-12.620547729301451,-5.831082819485664,9.111722446745633,-0.3107656240463257,8.299026489257812,-3.9659109115600586,1.681589981651306,-8.912710278964042,-3.729108201903105,0.6702580049692909,0.2779918317568035,0.5091888821942372,1.1471640945255823,-0.5713702718127335,-0.5805026377981378,1.1405032019752066
2025-11-21 04:28:05.740,-7.781395634004474,-13.783054215860366,4.994533795666694,0.2782196402549743,6.539236068725586,-2.2332980632781982,1.112945313923806,-8.957521480593085,-3.833346575012803,0.5969160367069719,0.2680504544952096,0.5097308333953087,1.288232177582061,-0.5449026739079913,-0.6094296810400144,1.151591808148238
2025-11-21 04:28:05.750,-6.688001262116432,-39.46786257901192,0.643432636077702,-0.8241117000579834,5.076452732086182,-0.512152373790741,0.7747723666027188,-8.976116290947795,-3.8729111081600185,0.5668237528892834,0.2572851938061247,0.513732805351582,1.373353563959525,-0.5249580585826845,-0.6279346562502081,1.1562748134999958
2025-11-21 04:28:05.760,-13.95634508240819,-54.42022244005203,-3.891459741285443,-1.8332946300506592,3.6309640407562256,0.2671356797218323,0.602236044749245,-9.029864247748256,-3.7774671591416,0.571517932228468,0.25054219825872,0.5226786815981168,1.4126983150773325,-0.5074569145585519,-0.6375916509275501,1.1701006678445636
2025-11-21 04:28:05.770,-14.125679904806614,-48.85034141027927,-5.941731644159555,-2.232095003128052,2.756223678588867,0.6137793660163879,0.5248188604066149,-9.103106594091653,-3.6094869662225246,0.5905818212295406,0.2477626479555948,0.5330531850034804,1.4264083069558422,-0.4925571713521244,-0.6417595773404345,1.1897029144464113
2025-11-21 04:28:05.780,-8.124531026038527,-29.7385307964921,-7.023648928743601,-2.402214527130127,2.207756996154785,1.2739697694778442,0.5211447750037536,-9.180413121134045,-3.408635308054089,0.6254229977768497,0.2462508651570059,0.5448186434254316,1.4190816073118482,-0.4793157077794924,-0.6424869824322081,1.211491780697841
2025-11-21 04:28:05.790,-1.6524007120460271,-10.207204146301745,-8.018689309385419,-2.4909162521362305,1.354830265045166,1.8716039657592771,0.610174947989732,-9.252417450115084,-3.192309017378092,0.6839751690981707,0.245383624374767,0.5579886217112967,1.3819352401314982,-0.4687845376289377,-0.6392781968840019,1.232990179379031
2025-11-21 04:28:05.800,-2.109868585702777,0.654844549190998,-8.151783774623274,-2.569689989089966,0.3547300100326538,1.7849072217941284,0.7569950831759721,-9.317665875095129,-2.962848812101781,0.7579292595962324,0.2466293415375995,0.5709101311613818,1.3206519821355007,-0.4611483165527982,-0.632912285334122,1.2536764907760245
2025-11-21 04:28:05.810,-2.391692892205715,6.155735629367828,-8.324227668952942,-2.6944758892059326,-1.0769693851470947,0.8432430624961853,0.896513590111956,-9.381024540805816,-2.7134908971786498,0.826837066406524,0.2526649218041426,0.5809372391059348,1.2516960000721955,-0.4563128534572117,-0.6248607566797592,1.275095909754339
2025-11-21 04:28:05.820,-1.0939842275399714,12.46362932088375,-9.723501761192082,-2.915074110031128,-2.6920151710510254,-0.9558069109916688,0.9446457528572528,-9.453218839401003,-2.432010143416375,0.8601559692346001,0.2670454542497672,0.5847332552302087,1.200310835697033,-0.4541481274027292,-0.616865622350748,1.3015064771436005
2025-11-21 04:28:05.830,-4.732389756667613,16.521443407452107,-9.525929855346678,-3.224839687347412,-2.7086493968963623,-2.6922528743743896,0.8308888791654259,-9.53995136643648,-2.1140803581789136,0.8350674465206483,0.289011305796471,0.5820191594010973,1.196316290573487,-0.4512396396912247,-0.6116444401041998,1.3370447964964411
2025-11-21 04:28:05.840,-8.539292561390996,16.187184564834833,-9.47656289010942,-3.2027416229248047,-1.4288642406463623,-3.6459648609161377,0.5600170881031081,-9.62602455278039,-1.787856353457272,0.7410271845683531,0.3123134046884124,0.5761823857593408,1.2672430514952386,-0.4433586122201901,-0.6114796903853161,1.3785699417935515
2025-11-21 04:28:05.850,-8.269519342687726,13.836230510252712,-10.899882459324598,-2.8024685382843018,0.1245788633823394,-3.690738677978516,0.2107859547435306,-9.690072369799015,-1.4928047549821435,0.5686744564555783,0.3316211253081783,0.5703141499743065,1.430522377957211,-0.4306842460370346,-0.6158573991869372,1.4164508656110284
2025-11-21 04:28:05.860,-6.019944180130958,9.859911634588242,-12.51269993352294,-2.3815267086029053,1.4603554010391235,-3.2372913360595703,-0.138691280597914,-9.726736505329608,-1.241689036606252,0.3231111787075718,0.3446329335375484,0.5664119417298634,1.6820309365543047,-0.4148571296152455,-0.623136765474882,1.4430464001742402
2025-11-21 04:28:05.870,-3.236869459116458,4.305192518112063,-14.84097336974144,-1.9383219480514529,1.8253659009933472,-2.9604649543762207,-0.4576827585164457,-9.742274850723147,-1.0242042235448956,0.0291819936987467,0.352863766641145,0.5641940261105238,1.99104153967213,-0.3979318824876022,-0.631523940924409,1.4561521894441862
2025-11-21 04:28:05.880,-1.0259819738071412,-2.69577286965847,-18.604212973827124,-1.2712386846542358,0.940661072731018,-3.395137071609497,-0.7775995528526604,-9.738063955029844,-0.8578036279674619,-0.2744495075578625,0.3600535965750115,0.5599460241310716,2.307191404912802,-0.3831629733383104,-0.6403186338778931,1.4524577628751203
2025-11-21 04:28:05.890,-0.6840916864633559,-10.788153438198568,-19.2292644423008,-0.4228691160678863,-0.240033820271492,-4.122183322906494,-1.1476227326165884,-9.70860755892098,-0.7721959402434527,-0.5152704715685452,0.3690142524341976,0.5499640167930021,2.5493107229222645,-0.3728634086578042,-0.6498776480240563,1.429274346006791
2025-11-21 04:28:05.900,0.2117911314643919,-15.901901642310618,-12.863611804777385,0.0157051533460617,-0.3281330466270447,-4.248436450958252,-1.5565847148448229,-9.652310502159596,-0.7617902084980159,-0.6580499776624931,0.3784409511304672,0.5356067390694217,2.6864621636870707,-0.3657344420115503,-0.6604136431323222,1.3931467828967727
2025-11-21 04:28:05.910,4.636398402899504,-17.17702679231167,-3.857235984644293,-0.0594415292143821,0.080171912908554,-3.631280422210693,-1.9397788532838225,-9.582515665921568,-0.7635732194572686,-0.7405718718572655,0.3858761244772541,0.5221593819522626,2.7665816328954262,-0.3583970054408271,-0.6708210020849198,1.3565864249897357
2025-11-21 04:28:05.920,13.043748591697216,-14.586960030227898,0.0044329409461468,-0.1988846361637115,-0.1608461886644363,-2.951433658599853,-2.253978950473666,-9.51442003481686,-0.7521719008032232,-0.7952655003016494,0.3922400924372875,0.5112049362244728,2.8195044767613653,-0.3517790941518311,-0.679020360686351,1.3260583587502843
2025-11-21 04:28:05.930,15.3803315910995,-11.476740097993613,1.5434398404590786,-0.6235811114311218,-0.0632653161883354,-2.248046636581421,-2.5002748474776744,-9.455316103941202,-0.7183380202624946,-0.8405811193156987,0.3985207576241966,0.5027020532280048,2.8618242394129894,-0.3461388402424638,-0.6845872831299527,1.302311338469813
2025-11-21 04:28:05.940,11.9581172550261,-8.439219491267204,3.588176467168331,-1.1405714750289917,0.2429491877555847,-1.6674503087997437,-2.6843267620146274,-9.410901792675256,-0.6322354616936295,-0.8899204705096116,0.4046438839733065,0.4977495746793868,2.910279922301511,-0.339680526869113,-0.6878414841582433,1.2857367759003218
2025-11-21 04:28:05.950,8.917012360072135,-5.16642122515738,6.212954477149248,-1.659747838973999,0.5796315670013428,-1.3281835317611694,-2.827809934797883,-9.37730639706552,-0.4899145010901615,-0.948134314676506,0.4109867444437883,0.4957344902322217,2.970046717200807,-0.3317667861533594,-0.6893968929671677,1.273797652300685
2025-11-21 04:28:05.960,9.913938992851971,-3.915977511948346,9.0958380643934,-2.3005213737487797,0.9844661951065063,-0.5172114968299866,-2.921822974230349,-9.357027579146624,-0.2817342718656174,-1.0189077774229045,0.4174669274724601,0.4972463162375676,3.04546568959351,-0.3221406642443433,-0.688979588972417,1.2668113703632111
2025-11-21 04:28:05.970,11.511622026282549,-3.6701018861830232,6.298099442732334,-2.424762487411499,1.6311851739883425,0.8475533723831177,-2.9098537194952367,-9.36497824589014,-0.0172108543161768,-1.0998582294947872,0.4223178811456842,0.5043129722915649,3.1349615939736375,-0.3119408627903103,-0.6855719167946336,1.2695317945699025
2025-11-21 04:28:05.980,9.852724353432654,-3.019714900922775,-3.538936050920188,-2.126327991485596,1.896875500679016,2.2065675258636475,-2.76259599660933,-9.406192884331942,0.2490036581253632,-1.1810716345762389,0.423141510979594,0.5169327442495859,-3.051701618166382,-0.3031953857743401,-0.6795619564707261,1.2840343184094811
2025-11-21 04:28:05.990,8.819415909194946,-0.8738380132496356,-10.091598576003312,-1.6741671562194824,1.3393670320510864,3.108853340148926,-2.501118312564492,-9.47046106610298,0.4745393469016998,-1.265167665657496,0.4212009467759167,0.5324800100906664,-2.954090468857656,-0.2982341817677012,-0.6709033482135007,1.308196248363399
2025-11-21 04:28:06.000,5.798571711981296,3.322352278351784,-13.552901059883832,-1.185457706451416,-0.027751563116908,3.1734585762023926,-2.1917072032168505,-9.537998478803038,0.6272048471152782,-1.3520839794625363,0.4192965956365756,0.5467826419448983,-2.862870055649606,-0.2988021719468354,-0.6602547514441196,1.336186608558834
2025-11-21 04:28:06.010,1.306706429309398,8.344619884118437,-15.582550445967913,-0.8064780831336975,-1.391669988632202,2.2613141536712646,-1.9315930626101792,-9.588559622260927,0.7063285065822303,-1.433607286923956,0.4204776308085046,0.5557497431466294,-2.791025385517297,-0.3043986757769367,-0.6493707737835664,1.3595051907227071
2025-11-21 04:28:06.020,-3.0282839918255804,13.22380588364005,-15.48976811737418,-0.4521912038326263,-1.419106364250183,0.9871995449066162,-1.7887001108050344,-9.613798692935704,0.7387921216830611,-1.4910050519890754,0.4242472867470609,0.5587034018609699,-2.749901706649538,-0.3108893888379933,-0.64125858028115,1.3721502370520813
2025-11-21 04:28:06.030,-0.6634884588956832,17.13183272884488,-14.16499952328205,0.0153695903718471,-0.0756252408027648,0.4789043366909027,-1.7310126225985585,-9.62376596019864,0.7463974090550094,-1.515093750816742,0.426240692288719,0.5594353817049942,-2.734489717119017,-0.3142848973746179,-0.637633085450886,1.3773682400051173
2025-11-21 04:28:06.040,9.166417329007386,19.38613842705488,-14.62082839756012,0.7094434499740601,1.1965361833572388,1.091094732284546,-1.655806428836286,-9.63874374909997,0.7233857321061193,-1.5133585894912829,0.4221452563725038,0.5625874940851159,-2.72970422388889,-0.3147579658185461,-0.6373507768466277,1.3854816439786315
2025-11-21 04:28:06.050,16.646843226534127,18.915301368737214,-16.83185024983883,1.619567632675171,0.6975452303886414,2.159965753555298,-1.491247880928963,-9.672186584496496,0.6287906550019979,-1.4893775417975428,0.4128476182276978,0.5681953761188919,-2.742559469765748,-0.3179961667547558,-0.6368589510375148,1.4050078679184297
2025-11-21 04:28:06.060,17.061332374686003,16.956403681224582,-17.348219225275514,2.557302951812744,-1.3104918003082275,3.179572343826294,-1.2323672276400028,-9.71977952579856,0.4213626141179353,-1.4216046159561104,0.4025492767858192,0.5727859908147912,-2.8121401990367643,-0.3302771311763117,-0.6330776570233105,1.4375939044621675
2025-11-21 04:28:06.070,13.421535610395669,13.703680819416045,-13.728837472504376,3.053112268447876,-3.2516794204711914,4.053183555603027,-0.8842986169874668,-9.765967860999703,0.1194466006328817,-1.248766797888638,0.3941064683068723,0.5747007105864343,-3.0073303023101445,-0.3530331277633645,-0.6243130407076766,1.4796777577363158
2025-11-21 04:28:06.080,5.691599529993534,8.561097565963864,-8.187274774721264,3.1745474338531494,-4.302704334259033,4.79071855545044,-0.4476996360972523,-9.794110836422442,-0.2129314788722433,-0.7077653976943303,0.3872859150512815,0.5751556844191039,2.697644805644812,-0.3825827960996378,-0.6106029386567727,1.5202213555809818
2025-11-21 04:28:06.090,-0.6789905639320611,4.563984324073791,-4.833422903995215,3.1317684650421143,-4.624157905578613,5.250534534454346,0.0644285690976772,-9.792022924232482,-0.5315339209405705,0.4959099790987935,0.3806494068380623,0.5754090194077778,1.4501722596007132,-0.4149571466471374,-0.5931450802452328,1.5161716164726546
2025-11-21 04:28:06.100,-5.640305980607867,2.1442641917794942,-3.712193891981244,3.256011724472046,-4.267353534698486,5.389550685882568,0.6181687962878495,-9.752138073089718,-0.8270628911364823,0.9733924943799588,0.3727996467257676,0.5756799582021451,0.9289442198943488,-0.4473369285957643,-0.5740231577644104,1.4653088434296613
2025-11-21 04:28:06.110,-10.290164169061184,-0.2830605702996254,-4.431773363672197,3.741086006164551,-3.328962564468384,5.286118030548096,1.176185979278013,-9.669785368573663,-1.132351221465692,1.098702057328011,0.3615540345783591,0.5756939884547295,0.7664123505210402,-0.4780640017034495,-0.5561563497074644,1.4035305920708483
2025-11-21 04:28:06.120,-6.5267907094627615,-3.1858746004164216,-2.850530592910945,4.539254665374756,-2.0063037872314453,4.5992279052734375,1.703521973604709,-9.54259808155298,-1.485667596578598,1.1218888197409884,0.3453708644222344,0.5750690086094447,0.7171938488102908,-0.5061136366057832,-0.5420917944056155,1.3382129288959512
2025-11-21 04:28:06.130,-2.0703613357007504,-7.214027123692631,-7.716018614208698,6.132463455200195,-2.321915864944458,2.197361469268799,2.0598867034375665,-9.386768637415766,-1.953413557013124,1.0556277813074155,0.3285064239708301,0.5663680549455128,0.7588743450914962,-0.5331530702623954,-0.5357784423031197,1.277112597100505
2025-11-21 04:28:06.140,-8.468793376275897,-15.20166546125412,-15.955436833143231,7.149007320404053,-1.393551230430603,1.4297386407852173,2.2613762211181223,-9.199438724121451,-2.5351325181081887,0.9469902785790636,0.3113238736839341,0.5494562792652542,0.8424103793687318,-0.5598177990886185,-0.5364506904171628,1.2170505071558269
2025-11-21 04:28:06.150,-6.446646328645945,-29.45595888649225,-15.13011998195648,7.610938549041748,-0.1842026561498642,1.9203591346740725,2.431869712032378,-8.948382480847835,-3.1910584327951077,0.8559259842351997,0.2885718165366291,0.5316329113209253,0.9196032063550046,-0.5842579838839282,-0.5410503291539863,1.1493081230944842
2025-11-21 04:28:06.160,1.3092872395828363,-40.48957878513336,-8.405345863237976,7.072702407836914,-0.2208194136619568,2.04260802268982,2.614210730998218,-8.634348680135608,-3.84503555150181,0.7937273602704473,0.2627239108733651,0.5145389600783222,0.9736932007199944,-0.6070726854255007,-0.5456083719397307,1.0768284849713297
2025-11-21 04:28:06.170,3.501084459170699,-45.14434637293815,3.1150007367700336,4.820989608764648,-0.4603997766971588,2.0698044300079346,2.802100616262853,-8.332095333588123,-4.346817490920424,0.7615564159682713,0.2408025605553162,0.5011681816374951,0.9982034957715894,-0.6258577830798281,-0.5469430942167806,1.0152970909686097
2025-11-21 04:28:06.180,0.8362044481649994,-40.72556196243763,9.626790276455878,3.1579482555389404,0.5910685062408447,2.5736865997314453,2.993471037119627,-8.088767638739943,-4.667052192099392,0.7580536669119718,0.2229968508340366,0.4949613175638108,1.0004869479312022,-0.6384653344172863,-0.545571124672558,0.9698921186625316
2025-11-21 04:28:06.190,-5.091474412983656,-32.936683863723275,13.549440690296889,2.372845411300659,2.083487033843994,3.042039155960083,3.149926504200697,-7.870686613351106,-4.929567110237479,0.7736320293919663,0.2029043759703223,0.4954349378103324,1.0022024726991716,-0.6443180492729799,-0.5461027844071,0.931618863208172
2025-11-21 04:28:06.200,-0.5103536606699228,-23.90775192838907,11.798626950293778,2.3731837272644043,1.543257713317871,3.055713415145874,3.2924154052495958,-7.653961094224453,-5.171776030188799,0.7958600044217498,0.1817924577898081,0.4982410905201796,1.0038902300450043,-0.6477825892223534,-0.5468866681307687,0.8954441011643389
2025-11-21 04:28:06.210,-0.3617468612626194,-16.63485000640154,6.771883075895905,2.962508201599121,0.7470358610153198,2.578582525253296,3.4493688849806783,-7.416999427276849,-5.409283056059479,0.8111490290107763,0.1624995108777178,0.4983293300044147,1.0031336924865475,-0.6538628562561677,-0.5456418586145977,0.8576748065630923
2025-11-21 04:28:06.220,-6.640224196419119,-12.778327722984551,2.346604627200961,3.347370386123657,0.357269674539566,1.9549431800842283,3.5846243276447054,-7.160284427589177,-5.661376825687289,0.81419145553092,0.1449670712986041,0.4944285671474094,1.006342203875938,-0.6620463861993698,-0.5442605724868504,0.8185353072585596
2025-11-21 04:28:06.230,-5.901866082239151,-9.782009479740262,-0.4203904811501502,3.3345367908477783,-0.3121078908443451,1.4909648895263672,3.701744394159317,-6.903181305366754,-5.90030073261857,0.8092335888057441,0.1299616385432507,0.4879012620557991,1.010485733856798,-0.6713335437676518,-0.5425620096826875,0.7809135676638049
2025-11-21 04:28:06.240,-2.8021494238406417,-6.706497288271785,-2.598562787750363,2.9694597721099854,-1.537880778312683,1.046540379524231,3.8430285955935712,-6.664221158078313,-6.0819146063536405,0.8008014614877965,0.1192162888147518,0.4800415745747639,1.007266258033084,-0.6822757322820822,-0.5383749091049601,0.7471646647305483
2025-11-21 04:28:06.250,-1.4644476984173058,-3.644723699298501,-3.897309636357426,2.287442207336426,-3.091093778610229,0.4786233305931091,4.035072970189154,-6.471227812194824,-6.165370303675532,0.7902395035211605,0.114948473866635,0.4716214181703333,0.9912825788332728,-0.6952012785974523,-0.5301465733547858,0.7206611837504701
2025-11-21 04:28:06.260,0.1569406202495098,-0.7889414694696665,-3.5544349410861726,1.4720884561538696,-4.588410377502441,-0.0774027928709983,4.286248455928265,-6.347575129041076,-6.124275492221116,0.7785480185043698,0.1183926801627581,0.4632971711142881,0.9601519404917344,-0.7098546032488899,-0.5171511645608001,0.7040008226523132
2025-11-21 04:28:06.270,0.1984694392070174,2.585615627893805,-2.103586144432425,0.8877301812171936,-5.385218143463135,-0.660522997379303,4.568984616579115,-6.293335589331388,-5.974001344123482,0.7658349093351154,0.1283149964944882,0.455121385824068,0.9178830847661672,-0.7251329821229566,-0.5005815462862586,0.6967670212065836
2025-11-21 04:28:06.280,-1.486378082935512,5.898171319374442,-0.0201274267494678,0.4550205767154693,-5.5543365478515625,-1.3510732650756836,4.829282150928676,-6.301144801777601,-5.757080594685673,0.7501456362426976,0.1427696443070762,0.4464584972659349,0.872815714110853,-0.7395265471789014,-0.4831065784338028,0.697805848529928
2025-11-21 04:28:06.290,-3.079775694131851,7.718871081030368,2.098757993623614,0.0335289947688579,-5.257484436035156,-2.0958139896392822,5.026710556650161,-6.372431922399997,-5.5040609423846005,0.7310581649257185,0.1606511131823761,0.4373286679711385,0.8306962777473341,-0.7516878597811921,-0.4667979425320975,0.7073307945364149
2025-11-21 04:28:06.300,-5.216053563332557,9.483043484300374,4.629515073126554,-0.5215874910354614,-4.400634765625,-2.777951717376709,5.130909766793251,-6.509744297593832,-5.240933737567067,0.7095651278848074,0.1810326347403993,0.428405199286557,0.7960057358744448,-0.7603108892237656,-0.4534573807882774,0.7259004581919902
2025-11-21 04:28:06.310,-7.107116316503286,11.209759724879264,7.886100455582142,-1.212364673614502,-3.0829899311065674,-3.208869695663452,5.123969738397002,-6.708660603785514,-4.990912098038196,0.6890567681460665,0.2024495803668217,0.4213358311531612,0.7722443243561454,-0.7640196224950412,-0.4447071271597276,0.7533594731650176
2025-11-21 04:28:06.320,-7.712834138953685,13.71637429677248,10.403584796535968,-1.8626413345336916,-1.8064424991607664,-3.348801851272583,5.017711842158437,-6.952156056416034,-4.760302430465817,0.672842384903211,0.2236316274481608,0.4173764812936714,0.7590789362277324,-0.7626460642429767,-0.440632267277099,0.787969500609802
2025-11-21 04:28:06.330,-8.705266967445612,15.215920781099795,11.189635805261137,-2.0408897399902344,-0.3361424505710602,-3.2786223888397217,4.833094987215102,-7.209262685769796,-4.564879811608791,0.6607502828346926,0.2429607429883913,0.4163558475534197,0.7568662437244063,-0.757012047555795,-0.4410791467590945,0.8258734433185566
2025-11-21 04:28:06.340,-10.56190371940136,13.578824605691432,11.218075133281946,-1.763984441757202,1.061848759651184,-3.1378302574157715,4.580289562186598,-7.447123931905627,-4.442035814489424,0.6483357227882499,0.2584939925888275,0.4169840873297679,0.7700758522315491,-0.7481003577650063,-0.4468233173349478,0.8623832380608597
2025-11-21 04:28:06.350,-12.060028646492958,13.295651807188989,11.205499729347228,-1.392581820487976,1.9020758867263796,-3.224660873413086,4.273485712727904,-7.6571566753953695,-4.390404703712463,0.6306471887044705,0.2706662595905136,0.4176663890991969,0.7988923378168936,-0.7371851176512652,-0.4570039933357994,0.8959655582614883
2025-11-21 04:28:06.360,-13.622407726830245,12.63931438909173,12.713542823863028,-1.2832939624786377,2.4592881202697754,-3.3628933429718018,3.9203535350754857,-7.850012658634782,-4.3793274293810125,0.6055943347983225,0.2812131675445704,0.4177708555744127,0.8406420790081622,-0.7248102108667055,-0.4701454552781287,0.9280931237300885
2025-11-21 04:28:06.370,-13.52686879300475,11.51124559418559,15.826910990995168,-1.3229377269744873,3.052841901779175,-3.173065423965454,3.5352658379748463,-8.03112325902283,-4.378736185489594,0.5770599711087692,0.2904289583875126,0.4185445136117791,0.8915768167847531,-0.7106819594723497,-0.4851830779345121,0.959573126525305
2025-11-21 04:28:06.380,-7.616728218895196,11.597964092695712,17.332700169104335,-1.1924034357070925,3.0415971279144287,-2.1979668140411377,3.176231450541317,-8.178893315345048,-4.3803681706056,0.5519667776979343,0.2966945728104007,0.4207965625853427,0.9434186204965896,-0.6963281645011725,-0.5000295874168865,0.986345181917588
2025-11-21 04:28:06.390,1.5529022269397974,11.375856296008823,19.671305614244936,-1.170582294464111,2.212585210800171,-0.6165817379951477,2.941463201984763,-8.273868770068884,-4.365922296623886,0.5427964669089529,0.2989203181181463,0.4252268661470209,0.9779180132564796,-0.6849489415654484,-0.5105621970385612,1.004138543850908
2025-11-21 04:28:06.400,5.211633408802747,9.346654653692244,22.51633030321598,-1.518909573554993,1.2412266731262207,0.872172474861145,2.8810674777328966,-8.326725915509462,-4.305285457092523,0.5590608340658872,0.2981581344693386,0.432653838536453,0.9810466486536926,-0.6780150064420322,-0.5140118272831061,1.014259770398405
2025-11-21 04:28:06.410,2.604960964354873,6.707408557897806,22.754817572295664,-2.0772740840911865,0.9265960454940796,1.707227349281311,2.9488384069278832,-8.36434574432969,-4.184790361186861,0.59972283404045,0.2959501382088946,0.4437869090954659,0.956952241027654,-0.6733514587284483,-0.5119224524150492,1.0215646828327487
2025-11-21 04:28:06.420,0.0618868395924568,5.525948364543915,18.73137337284088,-2.302442789077759,1.1879358291625977,1.5887726545333862,3.0498271305918694,-8.404227672863007,-4.029628148786723,0.6515504441721206,0.2935618652775225,0.4571007380574611,0.9229251560374712,-0.6682491106614434,-0.5082553786878801,1.0294054036068043
2025-11-21 04:28:06.430,-1.1942203062057497,6.096354050594568,13.932571408110856,-2.137338876724243,2.463718175888061,0.6959719061851501,3.0814494725629684,-8.45688724990487,-3.8930850043997167,0.6967775944442535,0.2913460954911226,0.4700813323802375,0.901248364160054,-0.660404234702024,-0.5079441397840166,1.0399175895215522
2025-11-21 04:28:06.440,-6.3106841990172855,6.3223576856762165,9.812456640452146,-1.6592377424240112,5.482044696807861,-0.5593082904815674,2.937852025750279,-8.528165018177033,-3.8483509596601126,0.7217552873813864,0.2866260234480184,0.482231604906057,0.9187708247219912,-0.6459422528336919,-0.5177419832194965,1.054454036250814
2025-11-21 04:28:06.450,-12.893838600736856,4.315845429551601,6.532416148129105,-1.0034931898117063,8.000677108764648,-2.187011480331421,2.5538798886761067,-8.617027542978525,-3.9236332873985167,0.7146464343648802,0.277675313302248,0.4925491970993269,0.9937909857775898,-0.6225807825084394,-0.5410034911179288,1.0731159741283798
2025-11-21 04:28:06.460,-9.029177434527874,-0.1616115346699953,6.807762783050537,-0.5811536908149719,8.609228134155273,-3.548473834991455,1.9643372482180597,-8.713244522196055,-4.048595007324218,0.6685258539840544,0.2677108029672367,0.4982822525055486,1.1190668520987106,-0.5931846660345897,-0.572867869644913,1.0940739012913228
2025-11-21 04:28:06.470,-6.9058245133519165,-5.184452556410432,9.93443934456706,-0.2221635729074478,6.995517730712891,-3.5509796142578125,1.319852618869394,-8.79005303658843,-4.142865820910036,0.5967074784668084,0.2597338853761541,0.4991596756916447,1.2623779735012122,-0.5640331285944167,-0.604354659604943,1.1114352959307976
2025-11-21 04:28:06.480,-7.567856928220391,-14.462780692851542,6.541827535074949,-0.2294365018606186,5.574641227722168,-2.2604546546936035,0.7979526050515472,-8.829508264142275,-4.19206765871346,0.531988389352161,0.2530416365843851,0.4984625846552556,1.3826983219438902,-0.5405731100797271,-0.6287174797731301,1.1205944829788062
2025-11-21 04:28:06.490,-8.367153787487744,-36.68260408421754,0.2105056216984987,-1.4432481527328491,4.51926326751709,-0.6094704866409302,0.468233890081942,-8.869476117393374,-4.157346766205132,0.5038179304746389,0.2463588958565581,0.5024993473052826,1.4586409077629334,-0.5209296389957114,-0.6445417052639016,1.1300531704073318
2025-11-21 04:28:06.500,-13.799250148379802,-47.96002572495937,-5.304204140472412,-2.202460527420044,2.5451362133026123,0.0856361910700798,0.300891191348806,-8.948952974212169,-3.99951416555196,0.5025946507487257,0.244088265822269,0.5110919084022479,1.495705847123319,-0.5041095002277491,-0.6519813933311124,1.1494502992429034
2025-11-21 04:28:06.510,-13.140412145638464,-41.80512245476245,-8.383422200721501,-2.079275369644165,1.8976163864135744,0.4644559621810913,0.2446431978935375,-9.032606824454664,-3.8108454048693177,0.5130468959272971,0.2451744244210738,0.5198628656498435,1.506687730298442,-0.4921543742877741,-0.653770731719136,1.170818383395409
2025-11-21 04:28:06.520,-8.546386903566122,-28.45717698123455,-9.254798207771778,-2.0739104747772217,2.603644371032715,1.1459896564483645,0.2308759538257494,-9.1078476511389,-3.6282512879252433,0.5371565628540909,0.2440433194015649,0.5302685051531707,1.5072491616299275,-0.4801945693401178,-0.6547300671416937,1.1910050128527
2025-11-21 04:28:06.530,-0.6434685841739177,-11.076364815390107,-8.83878521105349,-2.176584482192993,2.564587116241455,1.8524975776672363,0.2753604077184572,-9.179479639676211,-3.4397283654540773,0.5831634249608779,0.2403142468834634,0.5434969563582287,1.4909137304845417,-0.4676009188472567,-0.6543772531946911,1.2112212144058734
2025-11-21 04:28:06.540,0.7497837635576725,-0.3423772671431302,-8.283113568276166,-2.3874049186706543,1.2482037544250488,1.7553917169570925,0.3804290941724553,-9.249542771461606,-3.2359888768896456,0.6438940478031818,0.2379730511708041,0.557231918855995,1.4537715552407933,-0.4570438623774582,-0.6511315858054885,1.232106706947778
2025-11-21 04:28:06.550,1.017894017484784,6.030673663938045,-8.292290561944245,-2.65722393989563,-1.0730891227722168,0.7364987730979919,0.4971869763111695,-9.322551309049128,-3.002206132239103,0.6950712561516795,0.2428041062634444,0.5673500583655002,1.4066786446154502,-0.4510692333338281,-0.6447454419106369,1.2552779590793102
2025-11-21 04:28:06.560,1.5899889717966318,11.721806745463608,-8.921147852441669,-3.136080503463745,-3.2932679653167725,-0.9221805334091188,0.5544676738150417,-9.405715329948068,-2.719460619238019,0.7100232819703373,0.2587188510834718,0.5707482389750619,1.3696643097426622,-0.4500182690355216,-0.6362346837515916,1.2838622206761463
2025-11-21 04:28:06.570,-3.714642454177141,13.811833735620974,-7.692854596242308,-3.5540812015533447,-3.270471811294556,-2.503885507583618,0.4734918836753815,-9.501072477465868,-2.382394756375998,0.6695815722092372,0.2830947238975888,0.5681139990364197,1.37460663975731,-0.4487625523344161,-0.6290596233448063,1.320502872341669
2025-11-21 04:28:06.580,-9.71226140525341,13.607695310866832,-7.843905573931336,-3.5314652919769287,-1.8081169128417969,-3.4838571548461914,0.2393032616376876,-9.591272388350964,-2.029931564026326,0.562200965224082,0.3084433308623984,0.562750911473169,1.453450580014285,-0.4421679705948076,-0.6266271947124926,1.3608282707485129
2025-11-21 04:28:06.590,-10.674199726760389,11.998579029273984,-9.73322528282702,-2.9258687496185303,-0.0251546148210763,-3.613213777542114,-0.0910289821203798,-9.655104516792298,-1.7149490842871369,0.3792172480554688,0.3291662825312811,0.5570540335975783,1.6238262605214662,-0.4301738980526472,-0.6295162783517536,1.394766125013451
2025-11-21 04:28:06.600,-7.923306442904471,7.874460286670923,-11.776477077805994,-2.176034688949585,1.2536052465438845,-3.265263319015503,-0.434851443103142,-9.686720136761664,-1.4658528890401124,0.1477110043470909,0.342581359685064,0.5527476105694257,1.8591807824666156,-0.4150888629710358,-0.6362462300627737,1.4142432870704735
2025-11-21 04:28:06.610,-4.242035512453318,1.9070541030287744,-14.7185160338521,-1.4867057800292969,1.1450703144073486,-3.3042960166931152,-0.7681306635659187,-9.6922497138381,-1.2808853209629654,-0.0941167370420974,0.3515451570622776,0.5482729332866995,2.1109858778362804,-0.4002912642308319,-0.6446547665920194,1.4179021061174562
2025-11-21 04:28:06.620,-2.744180634474754,-5.20793689237237,-17.51294450805187,-0.9035761952400208,0.3254423439502716,-3.975628137588501,-1.1267944641213865,-9.672474753788112,-1.1592848210986704,-0.3204748416276347,0.3604660647221718,0.5402165207592513,2.3419831967370515,-0.3882210093704459,-0.6538461189084799,1.405186157010205
2025-11-21 04:28:06.630,-3.2461165954113005,-11.433142948329449,-16.86689350616932,-0.5798084735870361,-0.3162926733493805,-4.723249912261963,-1.5505165008470416,-9.621766310814024,-1.0899181471448391,-0.5104614598284564,0.3712638003965417,0.5271151760914526,2.52889708262365,-0.3782794779042894,-0.6642420727474189,1.3763101793011527
2025-11-21 04:28:06.640,-0.569639962375164,-13.218817573833466,-10.017601611900329,-0.5324733257293701,-0.1743261218070984,-4.619659900665283,-2.00203204197064,-9.543306522083284,-1.0428620891984552,-0.6493151329278128,0.3828294564369495,0.5116344886846543,2.6613637691792467,-0.3689918353290339,-0.6749198720850061,1.3385266610550186
2025-11-21 04:28:06.650,5.162233710339665,-12.08238427068591,-2.9312735241428016,-0.4673313498497009,0.4613563120365143,-3.773748874664306,-2.407255641388148,-9.454808738940956,-0.9910276378691196,-0.7401892484866524,0.391873094424423,0.4984332416342097,2.7510549676545946,-0.3589269766198566,-0.6849608454544105,1.302116391070593
2025-11-21 04:28:06.660,12.596819647711516,-9.84165467788577,0.4923351888984441,-0.2410827577114105,0.585046648979187,-2.926551342010498,-2.7285192472234368,-9.371962697950003,-0.944390389856696,-0.7942756213704444,0.3976885833356381,0.4885454450117983,2.808380114986937,-0.3495819663469787,-0.6935124800740815,1.271941350084722
2025-11-21 04:28:06.670,14.0756074216485,-7.951445911195874,2.451282268510759,-0.3588016629219055,0.9944493174552916,-2.0654118061065674,-2.9690558500483637,-9.30326500929892,-0.8968467675890773,-0.8280678769670597,0.4011004483188907,0.481841826395869,2.8482427872225973,-0.341245770299724,-0.700355735154893,1.2490006749357774
2025-11-21 04:28:06.680,11.609907043945787,-7.109315872374177,5.250970562934875,-0.8636538982391357,1.2098842859268188,-1.323636770248413,-3.135180770489573,-9.256847541517018,-0.8073325739458203,-0.8597010803060576,0.4032788004691053,0.4792019602515552,2.8895606889406515,-0.3324389810290741,-0.7051354084366611,1.2343557933707707
2025-11-21 04:28:06.690,10.619127243357896,-6.81249390322566,8.369870645231009,-1.5102976560592651,1.1891340017318726,-0.839096188545227,-3.243938959111273,-9.23105142148137,-0.6594936901710927,-0.9015458374334704,0.4063517614917036,0.4797588111503998,2.941025779811452,-0.3231665487865719,-0.7072998676529322,1.226476537783432
2025-11-21 04:28:06.700,11.732812123602628,-7.774020136800408,12.023666708779334,-2.2491118907928467,1.3444136381149292,0.0066774333827197,-3.293251856073737,-9.226458832994105,-0.4442601997004821,-0.9589638745933586,0.4107729603989393,0.4836841664838206,3.007501975749796,-0.3132741006217846,-0.706522957544319,1.2250919317668836
2025-11-21 04:28:06.710,12.508280948036909,-8.847472959899902,7.18691349131763,-2.2466557025909424,2.2936153411865234,1.5057332515716553,-3.2305998773276805,-9.25762963180542,-0.1729499989545904,-1.0255285836940202,0.4133912194529808,0.4935145008149039,3.0881087614868687,-0.30286748253941,-0.7027250171872044,1.2345974824897683
2025-11-21 04:28:06.720,12.085492758095263,-7.424786427891254,-4.565461995410919,-1.8468811511993408,3.0043375492095947,2.9710700511932373,-3.020745120753348,-9.329237070423364,0.1038672473755199,-1.089842689310083,0.4105209395140677,0.5100776177760681,-3.1072215524303664,-0.292925845450545,-0.6967694740581432,1.257482442382338
2025-11-21 04:28:06.730,10.492572409021854,-4.00025270895958,-10.932623868453502,-1.331529974937439,2.5525214672088623,3.947221279144287,-2.6853800704598427,-9.42583048173785,0.3358868456779048,-1.1537939803082338,0.4034539076645216,0.5304137779299402,-3.017159065913678,-0.2859105623433324,-0.6885791342608499,1.291200977938089
2025-11-21 04:28:06.740,6.231167010188102,0.7417787362784147,-15.094206957054135,-0.8590502142906189,0.5911670923233032,4.026665687561035,-2.293753473109752,-9.52251332490146,0.4804483152171596,-1.2217140899336771,0.3969651855290019,0.5491356099894236,-2.935118239609276,-0.2854842383353709,-0.6777665673026294,1.3294878791014904
2025-11-21 04:28:06.750,0.6016039573907852,6.169147484126687,-16.59370901771784,-0.616660475730896,-1.258454442024231,3.1069095134735107,-1.9481920229725536,-9.59599824782908,0.5401383388850838,-1.291763585563321,0.3953303376436307,0.5615370022977576,-2.871134839779649,-0.2921404364553167,-0.6656155621397903,1.36315309447334
2025-11-21 04:28:06.760,-4.911834469670057,11.496394062012431,-15.77985464078784,-0.4674153327941894,-1.37366783618927,1.6514396667480469,-1.7272876107260584,-9.636697337964176,0.5664982302833348,-1.3537371313783737,0.397658686603066,0.5673689662180862,-2.824676995686324,-0.3000420973418013,-0.6556940805424949,1.384352493083258
2025-11-21 04:28:06.770,-3.4467724387466907,16.52396737297177,-14.341990413391589,-0.1665505617856979,0.23505799472332,0.6805795431137085,-1.6242963150680063,-9.653355627298357,0.587152201657556,-1.391047194221355,0.3989873700795578,0.5701450096109337,-2.7947266508715414,-0.303510329960012,-0.6508649213814002,1.393750880861036
2025-11-21 04:28:06.780,6.128260762465,20.04177324984073,-14.888835191112756,0.3735431432723999,1.904554843902588,0.9056606888771056,-1.546955593495071,-9.665452892327307,0.5969475829523057,-1.4007569165530849,0.3941914715907449,0.5747233121302475,-2.773312948846335,-0.3013642492282334,-0.6507579204736402,1.4008977962437967
2025-11-21 04:28:06.790,14.759648839229344,19.7173285297513,-17.164311103123424,1.1641865968704224,1.3732430934906006,1.7752853631973269,-1.408682410445064,-9.689364513790608,0.5497485728712752,-1.3865927089209065,0.3845917972554005,0.5813497447683408,-2.7695132797554014,-0.3003492653149696,-0.6510852189077404,1.4159820076607454
2025-11-21 04:28:06.800,16.659436166125534,17.75304856467843,-17.56266510903239,2.0836181640625,-0.9482787251472472,2.7626101970672607,-1.185711494122818,-9.726637136608362,0.3962387673206627,-1.333491617609698,0.3749745535914839,0.586864269220053,-2.819082037430967,-0.3084410650738884,-0.647957210790834,1.442967161129824
2025-11-21 04:28:06.810,13.789981969296932,16.289849989539384,-16.048438941967486,2.959747076034546,-3.649958610534668,3.632627010345459,-0.8788001657016575,-9.766398653632402,0.1247530638773925,-1.1745746809465525,0.3685945361242821,0.5887888931604469,-3.0005764793632768,-0.3294258216311778,-0.6394876139129173,1.4801620477451014
2025-11-21 04:28:06.820,6.796619457745551,12.302394802832604,-12.376747156244516,3.3786118030548096,-5.108196258544922,4.505275249481201,-0.4781717120546847,-9.792523274970057,-0.2195961791921407,-0.6466196154433291,0.3645949044336938,0.5879272588036856,2.711080308203876,-0.3605017831254906,-0.6256600731882449,1.5171139997505576
2025-11-21 04:28:06.830,1.1645651726543902,7.49059190223217,-8.116441827607154,3.4340031147003174,-5.565700531005859,5.258673191070557,0.024155851148488,-9.790223765856028,-0.5668787905661389,0.4837724797411585,0.3605855568867644,0.5868294594474213,1.528210068081044,-0.3960592764478248,-0.6072449674379173,1.5129087405653652
2025-11-21 04:28:06.840,-3.413095210072398,3.773497963249683,-7.473180748704076,3.618409395217896,-5.331949710845947,5.52404462003708,0.6006559359509498,-9.747330380547046,-0.8939554300617426,0.9791010761917828,0.3548965536140075,0.5860206412095964,0.9791737924279214,-0.4326716646154291,-0.5860234689658178,1.4607504745594757
2025-11-21 04:28:06.850,-6.923172538515925,0.2083563347101211,-7.713620905417203,4.090053558349609,-3.596087694168091,5.52404462003708,1.2017791240874678,-9.655127897667883,-1.2266272226832806,1.117628393805806,0.3445658597886907,0.5856121758900267,0.7956300706709295,-0.4672601605866086,-0.5656860310595259,1.3947798480701517
