time,acc_z,acc_y,acc_x,gyr_z,gyr_y,gyr_x,grav_z,grav_y,grav_x,yaw,qx,qz,roll,qw,qy,pitch
2025-11-21 05:02:51.180,1.2944770623333752,6.383681046167015,-0.2170532897762954,-0.2041953802108764,1.9814344644546509,0.7398182153701782,1.2668699473530054,-9.620043724805116,1.4213368709653615,1.2594767933587792,-0.6542665018993664,-0.2054250239836668,-0.8427959839583801,0.7227676296837808,0.0856910267222663,1.375403411344302
2025-11-21 05:02:51.190,0.0289314954519271,6.723615011811256,-0.90193115818128,-0.321497231721878,1.796496868133545,0.7423487305641174,1.364194741681963,-9.60668272345066,1.421622556038946,1.2413299193527805,-0.6497501888660846,-0.2128922007977278,-0.8060095831991607,0.7240383268389882,0.090940169020963,1.3685059733017
2025-11-21 05:02:51.200,-0.3030572102762758,6.949781728500128,-2.252920089070499,-0.3865265846252441,1.3397246599197388,0.8308101296424866,1.4612521172463893,-9.59058557513058,1.4338036999590693,1.2266252154134494,-0.6454007908366105,-0.2196333590373978,-0.7759172740350552,0.7254407488009079,0.0946292328234156,1.360492522122256
2025-11-21 05:02:51.210,-0.3645097501046955,6.636364598381519,-3.74575246271193,-0.3833291828632355,0.8913453817367554,0.9377976059913636,1.56176021778658,-9.5716546646893,1.454202052604407,1.211119608625639,-0.6411539483827466,-0.2250032311002673,-0.7497503305767917,0.7273246213421023,0.0964054219539295,1.351437484461242
2025-11-21 05:02:51.220,-0.558194439253211,5.742637058791518,-5.373107580828666,-0.3174930512905121,0.5738439559936523,0.9563851952552797,1.6628190840773285,-9.551213349685073,1.4763945951901376,1.194177626621463,-0.637062150604339,-0.2290299717466117,-0.7260820735897545,0.729606371961053,0.0968072037244077,1.342055609652229
2025-11-21 05:02:51.230,0.0447328756958246,4.393100518667698,-6.668299951824546,-0.2062826454639434,0.4554970264434814,0.9542897939682008,1.7609439427427946,-9.53105728136301,1.4927841505855322,1.1758448185034822,-0.6331346584219921,-0.232062271754619,-0.7031678439843021,0.7320725823586682,0.0967333784124168,1.3331611537163428
2025-11-21 05:02:51.240,0.9828998609930276,2.734585707655549,-7.13510264005959,-0.1032483056187629,0.2696636021137237,0.9655813574790956,1.857371642101556,-9.511522559809684,1.5004985243551432,1.1552674693699547,-0.6292772877459004,-0.2342357638340302,-0.6795160430091901,0.7347334546230534,0.0964909259289924,1.3248419890023486
2025-11-21 05:02:51.250,1.554734118542075,1.1463292587399485,-6.360172744807601,-0.085752934217453,-0.0075597455725073,1.0004078149795532,1.95202297943756,-9.491619004943969,1.506378083913028,1.1336669570529745,-0.6255737734546712,-0.2354514128986567,-0.6572457100830292,0.737623327288512,0.0955614053201285,1.316639953508421
2025-11-21 05:02:51.260,1.9669528375439345,0.0726285983592271,-4.737434180575609,-0.1496630162000656,-0.3650900423526764,1.1571632623672483,2.0499189977832137,-9.46867242912054,1.5206743202909827,1.112152622773206,-0.6219159297985524,-0.2358084835027603,-0.6382463812111425,0.7408853353492926,0.093294111301589,1.307494476259888
2025-11-21 05:02:51.270,1.952907361056656,-0.2308984213858842,-3.497905244612693,-0.2493485957384109,-0.7911885976791382,1.539317011833191,2.166466232845932,-9.437635485821962,1.5517181317217648,1.0888231022872734,-0.6177592547536898,-0.2353597176167432,-0.6215449271726015,0.7450266727388315,0.0889633030502726,1.295596808952626
2025-11-21 05:02:51.280,2.221104270353913,-0.1526028833061456,-3.32077348472774,-0.2869932949542999,-0.9429284930229188,2.1121420860290527,2.3227912054151294,-9.392779860529304,1.5970980731494724,1.059621465438518,-0.6121526661462444,-0.2344345613489667,-0.6023397210568984,0.7506463034951125,0.0827025969957369,1.279237516239837
2025-11-21 05:02:51.290,3.799889126569032,-0.2383691956579685,-3.3737703308999536,-0.2522843182086944,-0.9214056730270386,2.819068193435669,2.5365152046382424,-9.329009691408276,1.6450070946633817,1.0215690035403024,-0.6041298850866318,-0.2335819144349106,-0.5753413694993453,0.7581330685423575,0.0755036275905937,1.2574072998517618
2025-11-21 05:02:51.300,5.626525877058506,-0.9648550857365132,-2.684235576599836,-0.1981055438518524,-0.8591927289962769,3.6177124977111816,2.8191701167464256,-9.239531665056944,1.6892951492011543,0.9747547216881252,-0.5930214643188517,-0.2329333115666898,-0.5398436948041027,0.767775826770707,0.0677337935291962,1.2290474724841545
2025-11-21 05:02:51.310,5.22802281806767,-2.6728490901887416,-1.1518696494713423,-0.2432959228754043,-0.9420524835586548,4.315563678741455,3.167095665666461,-9.117546622854473,1.7350075374536216,0.9239857388797492,-0.5788186949757075,-0.2324008460549664,-0.5011702021465481,0.7794016183151922,0.0590930142991322,1.1936816344255456
2025-11-21 05:02:51.320,4.141094135062397,-5.605533357912302,0.9894101196698843,-0.4562193751335144,-0.9926609992980956,5.003990173339844,3.5680858652979133,-8.95570244847238,1.7984883682392536,0.8761962326178104,-0.5618590709205307,-0.2321946097385896,-0.4668811600570031,0.7924693058096092,0.0489145266940687,1.1511362987567737
2025-11-21 05:02:51.330,6.737700820308923,-9.036769204831122,3.2432179513603447,-0.7640618681907654,-0.9495143294334412,5.726245880126953,4.02438469517529,-8.741225000533461,1.8883043943732976,0.8344412082071481,-0.5416913378164594,-0.2331383248201056,-0.4387182860372264,0.8067422393347582,0.0372018179130433,1.10032979387047
2025-11-21 05:02:51.340,6.971476842957735,-12.566477116417884,4.658388700911402,-0.9596415162086488,-1.1508886814117432,5.828495025634766,4.50408135177493,-8.476610187506676,2.007667563639581,0.8006023516100358,-0.5194083515072224,-0.2348490683476365,-0.4193090517470224,0.8212735777075726,0.023889736579936,1.0439034848433588
2025-11-21 05:02:51.350,2.431372576165199,-16.565815633141995,4.71415618084073,-0.66514652967453,-1.1842809915542605,5.225551128387451,4.940224697852134,-8.198010103747249,2.1347569432437417,0.7731676157695179,-0.4980086738088488,-0.2358062775056422,-0.4078836628874476,0.8344319704408054,0.0102959355810994,0.9898878002104656
2025-11-21 05:02:51.360,-2.365297637233138,-21.634782446241378,4.757825811219215,0.3145460486412048,-0.3505324125289917,4.571238994598389,5.3140550878793,-7.944231742033362,2.1955343602895736,0.7433597774737115,-0.4786003881488281,-0.234778650717453,-0.3917961426083275,0.8460616492147286,0.0005012098710961,0.9442991454088514
2025-11-21 05:02:51.370,-7.516239553707837,-24.07690321091413,6.617393355929851,1.946579933166504,1.3714395761489868,3.8238346576690674,5.655794641640782,-7.735901126286387,2.082836055739969,0.7005386263612704,-0.4600376982078629,-0.2311658697749733,-0.3528537262957036,0.8572792334139836,0.0001748879568111,0.9089231773754904
2025-11-21 05:02:51.380,-11.96731295339465,-18.225491889148948,11.24208729251027,3.0523643493652344,3.7578048706054688,1.6814243793487549,5.919709197443724,-7.623207059520483,1.7361323036998508,0.6470580515122827,-0.4449563776172721,-0.225963849514644,-0.2852802991048943,0.8664650627674143,0.0138793160371449,0.8904434099510196
2025-11-21 05:02:51.390,-1.37836983589828,-11.340196953606604,9.076699648681284,3.0457000732421875,3.8677282333374015,0.3101305663585663,6.04511778435409,-7.61798903261125,1.2622111617617309,0.5962587595764419,-0.4363609322060962,-0.2214924020346751,-0.2058411109976408,0.8712957466826808,0.0370663722796049,0.8895980429571441
2025-11-21 05:02:51.400,6.239058640220761,-6.475645628637075,3.916026319526136,2.5795161724090576,2.495687246322632,0.5332536697387695,6.10724077078998,-7.625154686456918,0.853821937920153,0.5509340954935379,-0.4305933497152442,-0.2161017261507516,-0.13890454434437,0.8744613664375559,0.056628189798281,0.890759238047086
2025-11-21 05:02:51.410,2.11431971989274,-3.931124812197685,0.6792794638760388,1.9781018495559688,1.515176773071289,0.7378484010696411,6.171713535222411,-7.600397846341132,0.5606177574099972,0.5140358787738988,-0.4248724530828274,-0.2105970999233181,-0.090588040964362,0.8776779803583149,0.0693800646967935,0.8867544557982409
2025-11-21 05:02:51.420,-1.8943571185410024,-2.955020602694153,-0.3475664332840592,1.516812801361084,1.4075753688812256,0.5369961261749268,6.227113935405016,-7.568094244107604,0.342628428892605,0.4861227942163394,-0.4199285505488714,-0.2062096089137145,-0.0549666030810892,0.8803249879936434,0.0785211315102901,0.8815583011754017
2025-11-21 05:02:51.430,-1.7149077293634414,-1.7176672572046516,0.2780025197250768,1.2603527307510376,1.4425501823425293,0.3004980683326721,6.262094647893309,-7.545498965939879,0.1483150773185771,0.4643587213141927,-0.4160416769304613,-0.2033714956824395,-0.0236801506084476,0.8819966052859154,0.0873575401583732,0.8779432055569042
2025-11-21 05:02:51.440,-0.3693833474904298,0.2937427078336477,0.074316697576642,1.176055073738098,0.845092236995697,-0.0554157607257366,6.273035728624463,-7.5378481589257715,-0.0156587945770763,0.4454672926294666,-0.4137211478746124,-0.2005269719206816,0.0024962016658682,0.8829635818120206,0.094863057857994,0.8767227134697209
2025-11-21 05:02:51.450,-0.0593599514633417,3.422755603343248,-0.4344176913283765,1.1691542863845823,0.2933537065982818,-0.5676971673965454,6.249418706193566,-7.556194547477364,-0.1380957806564867,0.4271880150487987,-0.4139624070502811,-0.1963840475937169,0.0220937845808296,0.8832128301762968,0.1000172723984137,0.8796524834577575
2025-11-21 05:02:51.460,0.0438432333797216,6.014535014563799,-0.4394015441555529,1.1221615076065063,-0.163773775100708,-0.9931374788284302,6.189759479522705,-7.602937593951821,-0.2293289618457667,0.4086569832840708,-0.4167844026340673,-0.1910217448937293,0.037032797666686,0.8826666973376215,0.103444943446317,0.8871644418592368
2025-11-21 05:02:51.470,-1.4733856226325035,6.922450069460273,0.6508689966235309,0.8406715393066406,-0.5100254416465759,-1.3220171928405762,6.102425479462743,-7.67138569175601,-0.2839576104708947,0.392060383415332,-0.4216861586818359,-0.1853118444219042,0.0464983856823403,0.8813606879308878,0.1050889263496977,0.8982913476516561
2025-11-21 05:02:51.480,-4.1604485316127535,6.862607302916049,2.04515645955652,0.4232705533504486,-0.6210935115814209,-1.6254944801330566,5.990964753884077,-7.758187776896357,-0.2987359495436772,0.3805714234168123,-0.4283260492674296,-0.1805123445108194,0.0498231467913668,0.8791299697801023,0.1052738927637383,0.9126297534631892
2025-11-21 05:02:51.490,-6.304434490972757,6.22307664271295,3.249289672489464,0.0561498068273067,-0.5699256658554077,-1.9066818952560425,5.85522240448594,-7.861758626008033,-0.28197602646593,0.3752743786443092,-0.4364546497375414,-0.1772794085605602,0.0481208634882485,0.8758454377789149,0.1047572946481862,0.9300941945247576
2025-11-21 05:02:51.500,-7.026336560392379,5.170664269554615,4.080520423895121,-0.2616897225379944,-0.5474852323532104,-2.144667387008667,5.696806450986862,-7.978613904106616,-0.2418668285153806,0.3754455667572722,-0.4458149568647003,-0.175445751411015,0.0424310795107134,0.8715934136610007,0.1038880224997522,0.9503038034353712
2025-11-21 05:02:51.510,-6.997137353914976,4.757959666731954,4.634969539140164,-0.5901509523391724,-0.5031707882881165,-2.3160383701324463,5.51916674157977,-8.104155177485943,-0.1784626066299155,0.3813599130555917,-0.4561514252483398,-0.1749459689959965,0.032323802181468,0.8664831588817375,0.1025997017616102,0.9726730957733548
2025-11-21 05:02:51.520,-6.636356415075063,5.509929542157054,4.68467114315927,-0.9130546450614928,-0.4070607423782348,-2.428419828414917,5.326727522447705,-8.233333346062897,-0.0925924229116644,0.3938412319655041,-0.4671353051820088,-0.1759301944685934,0.0173808576534237,0.8606021279213021,0.1009805830506941,0.9964844748778102
2025-11-21 05:02:51.530,-5.883968021976948,7.007024541679025,4.019830100610852,-1.1778316497802734,-0.3369871079921722,-2.503058671951294,5.123210444462299,-8.361993043723702,0.0132024269589921,0.4131072127134038,-0.4785024843685405,-0.1783176670988843,-0.0025769775907784,0.854057260010611,0.0991178393133208,1.0211052759814958
2025-11-21 05:02:51.540,-4.867056585788727,8.516929338413476,2.9019989143416285,-1.3457685708999634,-0.3757908642292022,-2.5414726734161377,4.911199094375967,-8.487152039787173,0.1369912626138422,0.4385017982794398,-0.4901228840069842,-0.1816058428710545,-0.0278864159776564,0.8470070211832458,0.0968404829781563,1.0460451795471413
2025-11-21 05:02:51.550,-4.150446193036437,9.97274306399822,1.6443652896285057,-1.41901695728302,-0.5366426110267639,-2.553546905517578,4.693780332288146,-8.605953191256523,0.2763831018297001,0.468879211636499,-0.5018702289393168,-0.1851173118965649,-0.0588149256931321,0.8396712817189158,0.093862030338413,1.0707555469694363
2025-11-21 05:02:51.560,-4.178325549086928,11.304738686734437,0.6958215794846415,-1.447856307029724,-0.8586497902870178,-2.6228296756744385,4.4689217755883925,-8.718551980954409,0.4312488520339131,0.5034383522987762,-0.5138959282583122,-0.18815433133643,-0.096201653181169,0.8321355269782715,0.0897740456715611,1.095254666753647
2025-11-21 05:02:51.570,-4.85861170578748,12.360125691789388,0.8067410377934575,-1.52825927734375,-1.1915936470031738,-2.8026039600372314,4.2271410179212685,-8.82807969264388,0.6055387395564467,0.5434079837400854,-0.526672177944264,-0.1904073229446715,-0.1422822189407102,0.8241779265393149,0.0842152570602265,1.1202597273526242
2025-11-21 05:02:51.580,-5.375826776659489,12.692681237620114,1.2310264805555342,-1.6389329433441162,-1.31221342086792,-3.024973154067993,3.960703373381495,-8.93572933550179,0.7974606568161398,0.5917582638823398,-0.5404045347884502,-0.1923470605239357,-0.1986867584431735,0.8154398602776198,0.0776097025495303,1.1461652677989491
2025-11-21 05:02:51.590,-5.089897957447171,12.339181103438138,0.4998096164323389,-1.5890742540359497,-1.3037259578704834,-3.2173469066619877,3.669687460163236,-9.039822162660956,0.9926759165327996,0.6490257577032262,-0.554860335142048,-0.194199740952982,-0.2641842524943809,0.8058464805293064,0.0709084790576498,1.172712029080927
2025-11-21 05:02:51.600,-3.8824151418253776,10.91946160454154,-0.9025652183011174,-1.3255226612091064,-1.4556442499160769,-3.315896987915039,3.3585333065405485,-9.13862331315279,1.1731097867030649,0.7118956606156902,-0.5697339263944486,-0.1951249235008725,-0.3360442016909946,0.7957158584080092,0.0645423045895108,1.1995619482549509
2025-11-21 05:02:51.610,-2.2374892957046626,8.529216573056578,-1.8239685541935264,-1.010475516319275,-1.7726831436157229,-3.187265634536743,3.039845834803581,-9.228172651174663,1.3306130823366342,0.7765322315643105,-0.584502095529216,-0.1940830072394384,-0.4125983425920044,0.7856975709739251,0.0580370058274764,1.2256080064875603
2025-11-21 05:02:51.620,-0.4200003127887844,5.78843610241413,-1.8092542385339736,-0.870086669921875,-2.0843446254730225,-2.8356661796569824,2.7342952002763745,-9.302076091775298,1.4715220207177102,0.842033956427341,-0.5983470602179042,-0.1911810034172692,-0.4937171058759693,0.7764405605396983,0.0507004044237462,1.248617445110319
2025-11-21 05:02:51.630,2.076895413644612,2.953695491570234,-2.319645162474364,-0.8429957032203674,-2.3392446041107178,-2.406553030014038,2.456973758150637,-9.356687971928714,1.608118210466206,0.9090707503485536,-0.6107029412610824,-0.1871994598521973,-0.5795403982156524,0.7682623868817674,0.0420846431530919,1.266695703987152
2025-11-21 05:02:51.640,5.8450663366526365,-0.8352718434900045,-3.849405729410052,-0.7226183414459229,-2.3588180541992188,-1.8455771207809448,2.217108332585543,-9.393355614590645,1.7377198651522396,0.9734262488676372,-0.6212076844263155,-0.1825278037555412,-0.6647706411896537,0.76139646438899,0.032556785152348,1.2794419375616652
2025-11-21 05:02:51.650,8.05456901654005,-5.443164282873273,-5.138953957039117,-0.3850868940353393,-1.460471749305725,-0.8783189654350281,2.0527029294133183,-9.412706796270609,1.832411534498632,1.0195753708523845,-0.6282818907036763,-0.1782881823511424,-0.72875740362938,0.7568830722249662,0.0245589468160403,1.2863921245390275
2025-11-21 05:02:51.660,6.8989224788784975,-9.260134892624617,-5.577855077391862,-0.0304133556783199,-0.0357942469418048,-0.1284947693347931,1.9958350870266557,-9.418228190040589,1.8665427905507384,1.03615845504894,-0.630694252487125,-0.1767315548400057,-0.7519358681413731,0.7553311149356713,0.0215751407588753,1.2884056020749102
2025-11-21 05:02:51.670,7.488395853492618,-11.041092426478862,-3.8822029603794217,0.3353675603866577,0.4762530624866485,0.0693184360861778,2.000872788932919,-9.421250752732156,1.8457846646822988,1.0321356453482895,-0.6304330013541026,-0.177072784095105,-0.7451023653453931,0.7554212968852907,0.0231972544030382,1.289513876839076
2025-11-21 05:02:51.680,8.522916596129535,-12.248084535974264,0.7459146670393645,0.482799619436264,0.0360210873186588,-0.016586884856224,2.0096255658395585,-9.428269107061624,1.7998697395950556,1.0198763053344828,-0.6299854934155884,-0.1763945637007108,-0.7303923649054983,0.7558752002870699,0.0256103150445835,1.2921035032557235
2025-11-21 05:02:51.690,8.255667342945934,-9.202660608777403,4.960840200379491,0.4117267727851867,-0.4878671765327453,-0.0353344716131687,2.001092423032969,-9.43724619424343,1.7619285698659717,1.0085447195018653,-0.6303081480640136,-0.1739056956969372,-0.7219271837080281,0.756164074754231,0.0261594266369838,1.295450757048962
2025-11-21 05:02:51.700,7.031117949450016,-2.7805297127068043,6.465187947508692,0.3626118302345276,-0.5421964526176453,0.2377649247646331,1.9998101281374687,-9.44201881547272,1.7376459231331944,0.9960439086104104,-0.6303995064230071,-0.1707800804276256,-0.7153677780180266,0.7568328739205751,0.0251896978736229,1.29724635931945
2025-11-21 05:02:51.710,5.101987039169669,2.937565025502443,6.571281593096256,0.5078185796737671,-0.2994895279407501,0.4847299754619598,2.027796013302356,-9.441862748128177,1.7057725290104746,0.9750631470589776,-0.6292889051530991,-0.1678884846626799,-0.6993602728776926,0.7584209084557907,0.0246303360207816,1.297187466059817
2025-11-21 05:02:51.720,4.366252259230613,6.153989662483334,8.132869230794906,0.5052975416183472,-0.1590055227279663,0.5114555954933167,2.0720554262675344,-9.440330716255309,1.6604628763400018,0.9480549139319042,-0.6274777032641873,-0.165252157561491,-0.6755698127275955,0.7604848653824784,0.0250261400270364,1.2966100413191486
2025-11-21 05:02:51.730,4.387904119068384,5.102831088778376,11.604659206420182,0.0354953929781913,0.081607349216938,0.3510667085647583,2.113101430144161,-9.435887180849909,1.633779452075809,0.9294312645644286,-0.6257934077150281,-0.1640260564269431,-0.6581636270247406,0.762124507274565,0.0253854233658021,1.2949415233836603
2025-11-21 05:02:51.740,3.9220381271615614,1.1700941652089356,12.81714465263486,-0.6529611945152283,0.2737155854701996,-0.001847194507718,2.132748526030779,-9.427098309716582,1.6587972812153398,0.9345019247875817,-0.6250067036867566,-0.1658555524658316,-0.6610410900502952,0.7623857079827504,0.0250341913220854,1.2916698541527196
2025-11-21 05:02:51.750,3.466044709971547,-2.518629419335723,12.074232528412342,-1.0829799175262451,-0.1354548782110214,-0.164666473865509,2.1253136998549103,-9.414071654883026,1.7403110506892203,0.9617331425973444,-0.6253973570252436,-0.169567085500457,-0.686129027852725,0.7613197951871927,0.0227442362217451,1.2868883941471192
2025-11-21 05:02:51.760,-4.251779492354393,-6.32757454354167,10.77212584798336,-0.8838295340538025,-0.5009095072746277,-0.4862589538097381,2.091610898347944,-9.401731813269851,1.844718350625038,0.9961011132859796,-0.626912772240063,-0.1722998260915923,-0.7227586733741834,0.7595756975278003,0.0183819792384697,1.282430306302654
2025-11-21 05:02:51.770,-1.7251131892964242,-17.068378201544284,7.768252659314871,0.0383733920753002,-0.8371261358261108,-0.8453590869903564,2.0137642730794845,-9.407751804211737,1.8998333579950035,1.024706073373559,-0.6301539069375124,-0.1720392096773859,-0.7562948014878392,0.757017884015409,0.0152527962656209,1.2845968214913277
2025-11-21 05:02:51.780,14.79654853708148,-37.27987088918686,-6.280514101681113,1.574451923370361,1.797101974487305,0.5336537957191467,1.9833634357273575,-9.427712057700752,1.831638358169049,1.013309649202108,-0.6313183227824456,-0.1691549559199829,-0.7456484666951504,0.7566439230932611,0.0177138193175263,1.2918972623952711
2025-11-21 05:02:51.790,6.276427709150314,-43.555835657000536,-23.100494465506078,3.143789052963257,5.893371584415475,2.1790924072265625,2.201889574535191,-9.438322299042344,1.4967153525546193,0.9101441980622388,-0.6212028695467824,-0.175525393669746,-0.5969997752417217,0.7625326778335156,0.0429170200872556,1.2958546330550536
2025-11-21 05:02:51.800,4.061160474386811,-15.26492475824356,-16.16322501257658,2.0571696758270264,4.118196487426758,3.0959808826446533,2.537857851418853,-9.409418860641122,1.0920248371005057,0.7770393397683069,-0.6043982972632828,-0.185112999058976,-0.4063460972669229,0.7714454198257971,0.0728557163065613,1.285199490014175
2025-11-21 05:02:51.810,-8.429131227973103,2.8819886842310427,-2.65896698756963,0.5325055122375488,-0.1452245563268661,2.2512142658233643,2.811586237488687,-9.348727368313073,0.9309520854823292,0.7039908762127419,-0.5917494611311657,-0.1863513716394327,-0.3197507123419253,0.7801437023796143,0.0805082152161964,1.2639962729257246
2025-11-21 05:02:51.820,-22.235507282710078,8.73996067968607,0.6081622929930687,-0.273855447769165,-0.2350538372993469,0.9870208501815796,2.9594913183674216,-9.303048151677846,0.9301125659182669,0.6846799971053152,-0.5856699794476076,-0.1856605984871036,-0.3045067938270303,0.7851256833975404,0.078093607424421,1.248930683628937
2025-11-21 05:02:51.830,-18.665005588442085,13.967842627978325,0.7575532285153865,-0.8683359026908875,0.0998469293117523,-0.2691261768341064,2.989867751930654,-9.287627879706024,0.9854257262088356,0.6988827246542169,-0.5846324228678279,-0.1879543616687291,-0.3183763436095321,0.7855661314475376,0.0759216573810421,1.2439964485498851
2025-11-21 05:02:51.840,-1.530145912991464,17.81060643515587,-3.3614296125039456,-0.906714141368866,-0.2501704096794128,-0.524643063545227,2.945269024008512,-9.29218715044558,1.0728721736673266,0.7313028010036065,-0.5868766090312667,-0.1913667672535192,-0.3493302284999709,0.7832916659686354,0.0735452999903767,1.2454477531678023
2025-11-21 05:02:51.850,5.229985058051348,11.65076863116622,-7.794864771908522,-0.2149221450090408,-1.0213075876235962,-0.3842287063598633,2.899975884081423,-9.297568843483925,1.1470650987338271,0.7531915696720626,-0.5893174230181635,-0.1915986409872517,-0.3766582089668677,0.781759385391863,0.0696229247619619,1.2471690889150475
2025-11-21 05:02:51.860,-2.5450650063186884,2.583380416187644,-6.594316431725025,0.5550026893615723,-1.21722674369812,-0.9572304487228394,2.826832906459272,-9.318270270729064,1.1615736626882105,0.7552793279243716,-0.592841975399446,-0.1873168930143184,-0.3898759656486487,0.7804106671631954,0.0664080370466483,1.253874139293763
2025-11-21 05:02:51.870,-5.389697481101751,-5.693543065276741,-4.638853394836187,0.8679616451263428,-1.2260465621948242,-1.4388506412506104,2.6990634356364605,-9.36044878576696,1.125811517498642,0.7478405449349645,-0.5984726838648061,-0.1803122150895687,-0.3951704303825021,0.7778827251214134,0.0649346246573582,1.2679790491755851
2025-11-21 05:02:51.880,-5.40456245727837,-13.612614647090432,-0.6142576872587203,0.4439792931079864,-0.7321745753288269,-1.6118649244308472,2.54483821182549,-9.408083812645078,1.0872621527433397,0.7462130460055743,-0.6050600466437905,-0.1740690282080277,-0.4037682453576686,0.7742419375305626,0.0644336976668719,1.284716698705164
2025-11-21 05:02:51.890,-4.379415692186355,-15.674874509400128,1.8261384455785157,-0.1916062086820602,0.0899448469281196,-1.711645245552063,2.3845970887258647,-9.450327209612729,1.0841634560756386,0.766934776511083,-0.6117091527815057,-0.172178993606382,-0.4267163529565344,0.7693731824979391,0.0650484255775656,1.3004002707442006
2025-11-21 05:02:51.900,-0.7514192558050156,-10.0156422945261,0.3630556057736277,-0.4662972092628479,0.003016781527549,-1.5718252658843994,2.230287693762779,-9.484382039427755,1.1147653689578174,0.806348337453721,-0.6180202691578709,-0.1733835195203786,-0.4635118342513021,0.7639706945878195,0.0658628844886928,1.3137214148499556
2025-11-21 05:02:51.910,-0.47057862657718363,-0.15001052872538545,-0.6661390099370852,-0.41114693880081177,-0.9443986713886261,-1.3337525725364685,2.0178314494531597,-9.521890809088944,1.1944346065435558,0.871147437313854,-0.6270662299683731,-0.17247310569753815,-0.5349547119393455,0.7570525101718912,0.062407830805543546,1.3292668318289516
2025-11-21 05:02:51.920,-1.2633237991787492,4.685163895112276,-0.0912418211534619,-0.3812953531742096,-1.1224700212478638,-1.233515381813049,1.8154862647913397,-9.551677460065484,1.2805613497056063,0.936040863670392,-0.6358372755439466,-0.168943241204859,-0.6143105197180103,0.7510140758979994,0.0560974231288093,1.3422644682609643
2025-11-21 05:02:51.930,-1.2894197789438069,5.439885115072131,0.5034945885553955,-0.3720626533031463,-0.8720852136611938,-1.174256443977356,1.687754787891358,-9.567787467867136,1.333905401880294,0.9817124589500468,-0.6412700420334102,-0.1668327331102879,-0.6688248078264188,0.7471401234160363,0.0521650314218522,1.3496325877225943
2025-11-21 05:02:51.940,-0.6841844793133437,5.340820345208049,1.2116082249887288,-0.3342833220958709,-0.6010587811470032,-1.0930070877075195,1.5697401106245814,-9.581400982677936,1.379516667845845,1.027670539678692,-0.646173182689987,-0.1655121523570876,-0.7209886070713756,0.743397785796659,0.0492518827909287,1.356052409518693
2025-11-21 05:02:51.950,-0.0132436585851013,4.906292033112049,1.9279528064116835,-0.2780684530735016,-0.3717043101787567,-0.9765442609786988,1.4641294262483715,-9.592791560742258,1.4159985786773264,1.0715214381685727,-0.6504693397885059,-0.1648252641258172,-0.7686883276972908,0.739920539196027,0.0473266335968669,1.3615728751915932
2025-11-21 05:02:51.960,0.4024725471436977,4.224612668487429,2.236006655931473,-0.2090616971254348,-0.1526526510715484,-0.8353234529495239,1.3737255172237752,-9.602139234802126,1.4429836162365972,1.1110571814333752,-0.6540749516853973,-0.1646618153416473,-0.8099814845433155,0.7368358806185822,0.0463189748933573,1.3662129926428055
2025-11-21 05:02:51.970,0.8193256479479372,3.2677135101914403,2.029450940902531,-0.1403426378965377,0.0901687517762184,-0.6650855541229248,1.301338764796406,-9.609655601781606,1.459948633432388,1.1441842325821945,-0.6568953615494828,-0.1650074079140521,-0.8427756383788967,0.7342496329508083,0.0462457695367677,1.3700204770049564
2025-11-21 05:02:51.980,1.1475218295253813,2.373881925705075,1.68068747985363,-0.1265490651130676,0.3537148833274841,-0.4748362600803375,1.2499718579135837,-9.614995793765782,1.4696332843616604,1.1701288671164285,-0.6588253238371239,-0.1660799962642169,-0.8659927800726985,0.7322215238441123,0.0470994974231987,1.372769780379478
2025-11-21 05:02:51.990,1.7165397144794463,2.05264506174624,1.1588890267141163,-0.1525718718767166,0.5564289689064026,-0.2648920714855194,1.2211454302713274,-9.61757411982119,1.476977363514155,1.189033992910183,-0.6598277932117506,-0.1680021901147804,-0.8799340419867852,0.7307779320419775,0.0486435365174449,1.37411051525177
2025-11-21 05:02:52.000,2.6007372091799974,2.396303016349673,0.6641518912404776,-0.2081986367702484,0.6944605708122253,0.0213514100760221,1.2180145118344574,-9.616466450840234,1.486738879071921,1.1999464378776568,-0.6598150000499631,-0.170677361154294,-0.8844258278392524,0.7300483847135983,0.0504252809407832,1.3735332939588576
2025-11-21 05:02:52.010,3.40143575193882,2.95010418908,0.0794724729046225,-0.2114580273628235,0.8854513764381409,0.392962098121643,1.2493012651756406,-9.610772038590907,1.4975580869890748,1.198866995497275,-0.658450263608679,-0.1740901952657673,-0.8755317569621485,0.7303349876273467,0.0524081678784283,1.3705923152590451
2025-11-21 05:02:52.020,3.9364521447002887,3.662765551945567,-0.2960286268137395,-0.1766015142202377,1.068094253540039,0.7500933408737183,1.31882049934268,-9.600535306736829,1.5036039430245756,1.1835317760238795,-0.6555551930590812,-0.1781475623214422,-0.8507745944090543,0.73178180714186,0.0548293136909932,1.365409396212926
2025-11-21 05:02:52.030,4.309340285441279,4.471904590791463,-0.0034795126788318,-0.1699276268482208,1.2510159015655518,1.085822582244873,1.423724935145676,-9.585471008595825,1.5040455493122338,1.1565177181008963,-0.6512171105705873,-0.1827894702927809,-0.8128253422182418,0.7342873483955892,0.0576758502909794,1.358008889140064
2025-11-21 05:02:52.040,5.002931621655821,5.090369082090258,0.919595263557136,-0.2468847334384918,1.414699912071228,1.4489102363586426,1.5643638244137168,-9.563634439840913,1.5033366703905164,1.1216827357655343,-0.6454056355358486,-0.1882127711940383,-0.7655073314337123,0.7377914239264938,0.0607553068028691,1.3477102732924828
2025-11-21 05:02:52.050,5.679152720874548,5.621887111341953,2.03655390477553,-0.4184855222702026,1.45013165473938,1.7741477489471436,1.7400290188774463,-9.53206616614461,1.5107549838230012,1.084543385152685,-0.6381643336885717,-0.1945286690222138,-0.7149859138998076,0.7422097393345376,0.0634782685215246,1.3335985397403571
2025-11-21 05:02:52.060,4.8260360086143015,6.887018106073141,2.4697537447467446,-0.5971742868423462,1.3944661617279053,1.8455073833465576,1.934740274594724,-9.490861464574932,1.5332016473002732,1.0529019670768436,-0.6301484280013449,-0.2015050390772897,-0.6701255962066793,0.7470207498359068,0.0653349370518705,1.316333042874966
2025-11-21 05:02:52.070,2.33743055614233,8.105436449468135,1.9999767168760296,-0.6759498119354248,1.393940806388855,1.6159069538116455,2.120572935068607,-9.445741050866246,1.565737743115425,1.0318337939921942,-0.6224389114410271,-0.2087844129446504,-0.636007194431681,0.7513509128539861,0.0667133487780179,1.2986549080473275
2025-11-21 05:02:52.080,-1.3182811317689715,8.68863439707458,1.13776060622856,-0.7321673035621643,1.6155517101287842,1.2523354291915894,2.2785054889649152,-9.403303008109331,1.598961382803321,1.0222151623549474,-0.6157264479102362,-0.2164984102713661,-0.6119054136685846,0.7545195771364327,0.0686257282981516,1.2829941757123895
2025-11-21 05:02:52.090,-3.637790685164928,9.11678089917898,-1.15956268819198,-0.7229028940200806,1.6678651571273804,0.9675514698028564,2.408218787331879,-9.36577728731334,1.6288259213216605,1.0215627486570773,-0.6100092624959141,-0.2247358340843664,-0.594684271297842,0.7564910755839528,0.0714402712358342,1.2698064889856946
2025-11-21 05:02:52.100,-4.795870295192301,8.939191458654403,-4.058718341931701,-0.5667814612388611,1.494847059249878,0.8360541462898254,2.516889005409181,-9.333336322435736,1.65060023849532,1.023198162115352,-0.6050896250999588,-0.2323134697482071,-0.5804485375168503,0.7578627945587939,0.0744373206510342,1.258841497006753
2025-11-21 05:02:52.110,-3.7375828925207255,8.199303066167236,-6.279657777112722,-0.3421601355075836,1.2130136489868164,0.9272679090499878,2.6199393377780917,-9.303627997392416,1.6579508935190737,1.0204124759677793,-0.6003821900261296,-0.2384601819298714,-0.5642031820394343,0.7594184671207013,0.0772107621205311,1.2491176637384755
2025-11-21 05:02:52.120,-1.41454151173681,6.735463270515203,-7.604113067471981,-0.1342290490865707,0.7635814547538757,1.156185746192932,2.732249958184361,-9.27211876040697,1.6531750574193893,1.009602498396241,-0.5953577774679869,-0.2426853711753382,-0.5441317695378021,0.7618462300080291,0.0790135157094897,1.2391052373770353
2025-11-21 05:02:52.130,-0.1433560392722487,4.333125065654516,-7.650975940933823,-0.0419928207993507,0.4264124929904938,1.3227392435073853,2.856734415987134,-9.236149621403216,1.6440734670750796,0.9925910470398034,-0.5899373173164731,-0.2452145057839276,-0.5222159715501988,0.7651945343985481,0.0795049666104812,1.228019999070729
2025-11-21 05:02:52.140,1.6850319387987256,1.4031611628055571,-7.302136199778318,-0.0685863494873046,0.0068280310370028,1.4308103322982788,2.986504412977397,-9.195389740991592,1.641944053830951,0.9742656576683032,-0.5844299177372558,-0.2466266100890024,-0.502680377310342,0.7690543657808319,0.0785641776192105,1.215860500524916
2025-11-21 05:02:52.150,4.0252839821025725,-1.7103028659164905,-6.900097952398657,-0.174734741449356,-0.6265023946762085,1.7373929023742676,3.1242510879352685,-9.145904702332617,1.6618837029233573,0.9562654402060832,-0.5788448969093032,-0.2467978635907568,-0.4888643435256735,0.7735523263700232,0.0751406110101785,1.201614001677686
2025-11-21 05:02:52.160,3.872039293761551,-4.445902134528756,-6.471023229533434,-0.3406124114990234,-1.1310839653015137,2.2757108211517334,3.290513955542445,-9.077745358341932,1.7138937300153076,0.9373035868948812,-0.572312173238729,-0.2459293337199907,-0.4801951961430183,0.7792870038220084,0.0684780934333516,1.1828091062873696
2025-11-21 05:02:52.170,1.923149205522239,-6.773343211576342,-5.978064355778693,-0.5055384039878845,-1.303783893585205,2.8779408931732178,3.499717554731667,-8.983647270974517,1.7934487666368484,0.9167697131628428,-0.5639522437085069,-0.244899004345243,-0.4735621071323964,0.7864226030565477,0.0593458335823096,1.158185639048139
2025-11-21 05:02:52.180,3.535373682263493,-9.298507001116873,-5.34339107247889,-0.6419236660003662,-1.4069424867630005,3.721542835235596,3.766492176140845,-8.854329986187816,1.8933466263242065,0.8935221216233271,-0.5528240634467253,-0.2443188675258741,-0.4657906456572736,0.7952018390177746,0.0484550372206745,1.1264465853130698
2025-11-21 05:02:52.190,6.367254812023043,-12.086100660860538,-4.802667992508411,-0.6290066242218018,-1.740687131881714,4.395687580108643,4.093611083875596,-8.681503814542292,2.011028710635751,0.865901853760459,-0.5385383886154792,-0.2435164199456566,-0.456631463419557,0.8058634571787945,0.0355010637711636,1.0870677870352177
2025-11-21 05:02:52.200,5.495675975877046,-15.733007549417016,-3.630750703525543,-0.3445730805397033,-2.05240249633789,4.411956310272217,4.4333772917374965,-8.482547176340223,2.135870895835012,0.8352695845374177,-0.5229894360711622,-0.2411038313972991,-0.4489580398556613,0.8172565429495289,0.0210406938804778,1.0451086427722147
2025-11-21 05:02:52.210,3.601192600607872,-20.30922708568573,-0.6960106723159551,0.1804522275924682,-1.747223973274231,3.978889226913452,4.742001926882565,-8.288615088301897,2.232190312513709,0.8021958329057713,-0.5080976946390158,-0.23681744435498,-0.439956532433264,0.8280654633507843,0.0078693844131729,1.006945860696432
2025-11-21 05:02:52.220,1.6594231580287218,-24.90014617843628,2.69858062055558,0.9446039795875548,-1.3346869945526123,3.6511788368225098,5.018754044687747,-8.115596024432778,2.2626544243603943,0.7643158270890887,-0.4940771818253279,-0.2308054968583731,-0.4235521741572852,0.8382208394345078,-0.0015837639823339,0.974748088686202
2025-11-21 05:02:52.230,-4.401840874484181,-23.101880951428413,9.741049692842363,2.0393483638763428,-0.1267556697130203,2.5954339504241943,5.256271007430553,-7.985331229662894,2.1855159473612904,0.7182257442544157,-0.4816420714695354,-0.2224388065489885,-0.3940456809816648,0.847653375129471,-0.0050662393946941,0.9514829180923852
2025-11-21 05:02:52.240,-1.998272251045704,-15.397606551027296,15.686718091928958,2.652701139450073,1.1010112762451172,1.28754460811615,5.418837650868296,-7.934037680277228,1.9640842963702976,0.6685017263862187,-0.4729851503524188,-0.2137018612324181,-0.3477271178937584,0.8547604490298489,0.0010966533768464,0.942528357730116
2025-11-21 05:02:52.250,4.119291176316142,-7.333382401913404,13.596075015699862,2.5790839195251465,0.7146903872489929,1.0104200839996338,5.5215603587180375,-7.923668261954188,1.7024246798872946,0.6198652483414854,-0.4673056019833851,-0.2045358752431994,-0.2990750816341219,0.8600502310468654,0.0102101691437016,0.940731431138617
2025-11-21 05:02:52.260,0.1178565640956163,-3.1733366058826444,11.195389838743209,1.8754856586456297,0.8327056765556335,1.1613720655441284,5.619548439261317,-7.898798609113693,1.483254105696082,0.5781646623380698,-0.4617095022399605,-0.1966164363021696,-0.2580600995904787,0.8647885857611273,0.0175242394161907,0.9364399659378074
2025-11-21 05:02:52.270,-2.822311921903491,-1.0886509767532349,7.890230687254667,1.1096893548965454,1.0897067785263062,0.959058165550232,5.717799554654955,-7.858180767521262,1.313828536274284,0.5499297636035309,-0.4559596290514251,-0.1925605230914469,-0.2258581907874433,0.8685890911574422,0.0239620961207531,0.9294841258454664
2025-11-21 05:02:52.280,-3.125689888566732,0.53023967987895,5.017561620032787,0.8249292373657227,1.488980054855347,0.6137625575065613,5.794925464433431,-7.824773587960005,1.1671104001577943,0.5320645564400389,-0.4512053356916189,-0.191535781714366,-0.1987434233514416,0.8710757605108104,0.0308996027390787,0.923811337559186
2025-11-21 05:02:52.290,-1.5506027178257702,1.889144936850667,3.188332514962554,0.893137514591217,1.661277174949646,0.2685573995113373,5.846548099642992,-7.808359628775715,1.0088527790255843,0.5169771290913134,-0.4476223970994666,-0.1914913335355287,-0.1708726137562604,0.8725950304559729,0.0392835542206105,0.9210397292571926
2025-11-21 05:02:52.300,-6.56515697273612,1.5332190368264913,0.965212740067765,1.047641634941101,3.302750825881958,-0.5295669436454773,5.864255021247267,-7.818597529673576,0.8064966345783322,0.5012076867478678,-0.4454371027858964,-0.1920916085240754,-0.1366702083456144,0.8729803850343256,0.050911617379613,0.9227673633972738
2025-11-21 05:02:52.310,3.525004848462343,0.4268056088894605,-1.1878012329436838,1.10351300239563,1.7531085014343262,-0.5855672359466553,5.840363273528218,-7.856462273165583,0.5801228875426575,0.4845459247450436,-0.4450559087440053,-0.1926936919585092,-0.0990051742577868,0.872149522094347,0.064417199864552,0.92919123634018
2025-11-21 05:02:52.320,-1.4947820464044808,-0.6798854669451713,-1.990164347913861,1.158185601234436,0.7868526577949524,-0.7858151197433472,5.794468952837586,-7.90018451051414,0.426152149949409,0.4662440355463251,-0.4464634692868238,-0.1898837744221646,-0.0734124766594834,0.8714241089067281,0.0723510571823865,0.9366784611091596
2025-11-21 05:02:52.330,-2.225666463702917,-2.941453849634528,-4.020792515902221,0.9890352487564088,0.733637273311615,-0.9923691153526306,5.724193639606237,-7.957401020208,0.2894292285487055,0.4491079443187503,-0.4492427939697683,-0.1869064452937653,-0.0505194210799102,0.8700108007333962,0.0795502648403203,0.9465931485776712
2025-11-21 05:02:52.340,5.264338578552008,-2.0099732102334498,-3.4959786604642864,0.8481186032295227,-1.037125825881958,-0.6444462537765503,5.657710704395175,-8.00691762304902,0.2235538855756632,0.4337868988658612,-0.4526026420822339,-0.1822111640550252,-0.0394925912413399,0.8690581862228769,0.0817795395883801,0.9552850464809666
2025-11-21 05:02:52.350,2.6736767731845377,-1.5564841770797968,-0.1660848258928395,0.4811077713966369,-2.407511949539185,-0.3902221024036407,5.613702635842562,-8.036483909273148,0.2676887588457204,0.4224776655562962,-0.4560444835869432,-0.1751376948866157,-0.0476487940778374,0.8692214461289834,0.0761857074680596,0.9605262494364436
2025-11-21 05:02:52.360,-1.1376467705905438,0.308688348031044,3.5865614331871267,0.0454907864332199,-2.90093731880188,-0.5137818455696106,5.570661366495489,-8.06096368601322,0.3987371234750375,0.4183246407813682,-0.4601181462152199,-0.1676121607022548,-0.0714561938528431,0.8694428752852764,0.0653193706631347,0.9648957140110832
2025-11-21 05:02:52.370,-4.779273088395596,1.946197195893526,4.480701645231247,-0.2149847447872162,-2.608958959579468,-0.91310715675354,5.500525753995776,-8.099445100098848,0.559990711552836,0.4212268577912095,-0.4654800597548726,-0.1614658703695834,-0.1014572045808674,0.8685490814051696,0.0536614024829427,0.9718205941810506
2025-11-21 05:02:52.380,-6.210961257505416,3.5847400629788635,3.640253275886178,-0.2068828791379928,-2.1188266277313232,-1.2701170444488523,5.396633417844772,-8.157665233877301,0.7065694026660174,0.4274429735309762,-0.4721560108521632,-0.1566386762824288,-0.1301872862276061,0.8663810788973987,0.0437831329511044,0.9824333337035152
2025-11-21 05:02:52.390,-6.3973407382071015,5.038446002629399,3.308585618805885,-0.1125477626919746,-1.6389228105545044,-1.4724724292755127,5.269821393877267,-8.22976659349203,0.8187189142264425,0.4338319741359074,-0.4795696170056324,-0.1526198889445259,-0.1541277246395718,0.8633616157667521,0.0364260056421655,0.9958153811561048
2025-11-21 05:02:52.400,-5.873423831608891,6.431247683984041,2.8105238689541814,-0.121388129889965,-1.3634880781173706,-1.5786049365997314,5.131071679356694,-8.30815273246467,0.9039303691744804,0.4403596315889072,-0.4872665973874417,-0.1492426492267356,-0.1743786864444979,0.8598479411076617,0.0309744710923909,1.010684651427875
2025-11-21 05:02:52.410,-5.539211166220903,7.717418544134497,2.2891920104131103,-0.2008780092000961,-1.2302825450897217,-1.650835037231445,4.984503984561562,-8.388094284185767,0.9823349936518816,0.4489649754478294,-0.4951483950157407,-0.1465304827051665,-0.1945841476578118,0.8559602235280538,0.026250272030912,1.026221424437976
2025-11-21 05:02:52.420,-5.452147799795866,8.863773521837592,1.766328412260115,-0.2634628117084503,-1.0864194631576538,-1.699227809906006,4.832199499680102,-8.467532562559843,1.058829619789496,0.4600956935142649,-0.5031350752064928,-0.1444453203006465,-0.2157103979598402,0.8517682543324157,0.0219428461617136,1.0420656337724743
2025-11-21 05:02:52.430,-5.551105602154135,9.811450093758106,1.0338820794072,-0.24916473031044,-0.8763182759284973,-1.7655340433120728,4.674977139879763,-8.546563429176807,1.1274834692988545,0.4729618871972387,-0.5111802382305306,-0.1428971807085563,-0.2366548406481995,0.8473121370265682,0.0183646110655824,1.0582669692692832
2025-11-21 05:02:52.440,-5.54111904566884,10.286780956363677,0.2946397297386079,-0.1590856909751892,-0.6731515526771545,-1.877896189689636,4.510714213918149,-8.627299346145987,1.1804878411903976,0.4862366355019952,-0.5193896587006724,-0.1416323839497874,-0.2559667893186106,0.8425691482823766,0.01587319762267,1.0753144950258822
2025-11-21 05:02:52.450,-5.333444263482093,10.157826075148582,0.0238465934030711,-0.06272604316473,-0.544198215007782,-2.0370359420776367,4.334912533593178,-8.712027547621727,1.2163499396231026,0.4993698296263065,-0.5279888397489308,-0.1403747083997706,-0.273559324521335,0.8374449668800119,0.0144483424968718,1.093803492371922
2025-11-21 05:02:52.460,-5.062959097117186,9.781111069595813,0.3365564520351588,-0.0302088502794504,-0.5335144400596619,-2.2116801738739014,4.143286384409666,-8.801134402573108,1.2424196889683603,0.5133220933878933,-0.5371836141637717,-0.1389810120471662,-0.2913314093708132,0.8318252195794867,0.0135996700157609,1.1139904461503194
2025-11-21 05:02:52.470,-4.977497320669889,9.480953818544744,0.7990085438452661,-0.0695008113980293,-0.5464674830436707,-2.363246202468872,3.934972135275602,-8.892579345083236,1.268234952095896,0.5300351475784489,-0.5469989584014795,-0.1375655771503462,-0.3117864074873602,0.8256533771152437,0.0128216483364486,1.1356081094086925
2025-11-21 05:02:52.480,-4.6968896964803335,9.380710652551054,0.9435003091491758,-0.1426330804824829,-0.5463566780090332,-2.468903064727783,3.71287252189517,-8.983272592443226,1.2983699781186877,0.5510747696526672,-0.5572732580881107,-0.1363452132974018,-0.3364023695064145,0.8189711231434021,0.0119455896979944,1.1580904030492891
2025-11-21 05:02:52.490,-3.9009178899824617,9.40496421931982,0.8261386889636516,-0.2141761928796768,-0.5354006886482239,-2.497659206390381,3.482082237058877,-9.070074677583577,1.3338802674390375,0.5771645024297182,-0.5677533527536557,-0.1354084397518801,-0.3658266391453951,0.811912197864599,0.0109243724022571,1.1807468531084289
2025-11-21 05:02:52.500,-2.7893182915791868,9.245016818469765,0.6196402570798992,-0.2780401408672333,-0.4762662649154663,-2.425768613815308,3.2516979026749726,-9.149397220623491,1.373083566058427,0.6080390071939531,-0.5780247445248395,-0.1348227760518492,-0.3995531823293654,0.8047441677226032,0.009845516058308,1.2026022747276248
2025-11-21 05:02:52.510,-1.4084689138248565,8.858878151011467,0.2755481488429009,-0.3593712449073791,-0.4685651957988739,-2.3003089427948,3.029043578021228,-9.218905056613684,1.416703365945816,0.643571889654619,-0.5877813843463395,-0.1346260043103953,-0.4374806775173154,0.7976928933815688,0.0086485552473032,1.22282588042901
2025-11-21 05:02:52.520,0.3418479825720191,8.000468593040107,-0.1024510513015091,-0.4538170397281647,-0.6099875569343567,-2.120870590209961,2.817750020815432,-9.277477072569727,1.4693908539079128,0.6837909693775137,-0.5968985475451195,-0.1345817197319551,-0.4806809073133076,0.7909191970527776,0.0068446343211273,1.240787135793362
2025-11-21 05:02:52.530,1.9189391866117715,6.604758330762386,0.0110727442868053,-0.5874365568161011,-0.7202607989311218,-1.895109295845032,2.6216639696136115,-9.324121919366716,1.535581528174132,0.7285486364998415,-0.6052407663860906,-0.1345344991925758,-0.5298591359988774,0.7845815055999392,0.0039930743790204,1.2557945744489651
2025-11-21 05:02:52.540,3.361988415430486,4.689098896473646,0.2071133489117026,-0.7549866437911987,-0.7274601459503174,-1.6576013565063477,2.445147419017553,-9.358389515149591,1.616220706770569,0.7778758886269953,-0.6126435043589317,-0.1349276940528752,-0.5840630616364453,0.7787568676075337,0.0003316211329444,1.2672757276511877
2025-11-21 05:02:52.550,5.076013224479556,2.053289204868674,0.0980085388094186,-0.8720380067825317,-0.7242273688316345,-1.3330724239349363,2.2927409350663424,-9.380293888443708,1.709912843685597,0.8296621214539643,-0.6189401040365523,-0.1358735162999675,-0.6408039454118816,0.7735861937655686,-0.0039862730268124,1.2748404049563429
2025-11-21 05:02:52.560,6.772066615769266,-1.3424176480293273,-0.2008402599915862,-0.8063971996307373,-0.5719510316848755,-0.8130619525909424,2.1801528128929437,-9.389441656017302,1.8043568218812345,0.8756937593854411,-0.6235162398890199,-0.137170574752088,-0.6913620669630277,0.7696370083343458,-0.008404627052815,1.2780557780423234
2025-11-21 05:02:52.570,8.004238174706696,-4.767557516160607,-0.5227031468942761,-0.5479418039321899,-0.5310323238372803,-0.3716920912265777,2.11665079318881,-9.38920726273954,1.8796167916573585,0.9064186394319708,-0.6260447993363625,-0.1381286021040088,-0.7261537386110118,0.7673588475356221,-0.012196501111975,1.277972789737532
2025-11-21 05:02:52.580,7.228137482109665,-7.663805611890554,0.5151067004159092,-0.2857658565044403,-0.3819850385189056,-0.3091008961200714,2.0781243709176778,-9.387997302427888,1.9280261639088392,0.9241751662998424,-0.6275485426372741,-0.1382130660162476,-0.7479487576877848,0.7660626447232136,-0.0150987284526152,1.277545765430073
2025-11-21 05:02:52.590,5.517696084505319,-7.666417840215563,2.4908605379223823,-0.2152445018291473,0.1686148047447204,-0.4732946753501892,2.039151958444714,-9.39151963133514,1.9523286843858656,0.9393169557861568,-0.6291069639066763,-0.1387551929187588,-0.7636494328914607,0.7646664033413861,-0.0160190157699315,1.2787908403447137
2025-11-21 05:02:52.600,5.034326876872778,-4.200387743291259,3.641362698432803,-0.2972107231616974,0.6848954558372498,-0.5054835081100464,2.0010344092354178,-9.396582759943604,1.96735381956026,0.9577300556833797,-0.6306794744053704,-0.1411421881525528,-0.776911132257669,0.7629569157162084,-0.0147998514192002,1.2805896884780406
2025-11-21 05:02:52.610,4.7651077849209305,-0.1081289508074521,3.947167599982023,-0.338771104812622,0.9659214019775392,-0.3907619416713714,1.9750185089692471,-9.399245257151126,1.980875710564852,0.976821546150427,-0.6317835595602416,-0.1450209822615014,-0.786878761381046,0.761358505365576,-0.0123130927324961,1.2815399793668916
2025-11-21 05:02:52.620,4.040165032631158,2.92173675725162,4.429689835396409,-0.3654746413230896,1.1039328575134275,-0.2401183843612671,1.9662883822858328,-9.398501160785557,1.993055393180251,0.9931410184358792,-0.6321881451672611,-0.1496311042890644,-0.7921585366957093,0.7601732205597391,-0.0092380741230553,1.2812741129849825
2025-11-21 05:02:52.630,4.847192193889618,4.474989697325229,5.332759203827381,-0.5048515796661377,1.1077229976654053,-0.1105233877897262,1.972092684650421,-9.393427510783075,2.011155113494396,1.0079003948377825,-0.631990816658943,-0.1547596040984124,-0.7952045141599713,0.7593405932313658,-0.0062339922561254,1.2794674105528516
2025-11-21 05:02:52.640,6.523179533228277,2.9421488461613654,7.547673971891402,-0.727792501449585,1.1200116872787476,-0.0475079379975795,1.987459180608392,-9.382551311981675,2.0464906307697297,1.0243880749698993,-0.6313891720393984,-0.1605276882078033,-0.8000308010956433,0.758658742688358,-0.003936609632904,1.2756306526890206
2025-11-21 05:02:52.650,6.415262763866782,-2.822925669887662,11.153346348261833,-1.1049364805221558,0.9933845400810242,-0.1385505646467209,2.0034984612613917,-9.365206793949008,2.109333309782296,1.0474660352333138,-0.6307482757702634,-0.1674150604952179,-0.8111253366519757,0.7577085584436757,-0.0025726395377325,1.269610346970821
2025-11-21 05:02:52.660,3.786283795064688,-6.476373358389735,10.688712236237526,-1.3246632814407349,0.7397213578224182,-0.1060062050819397,2.0066369054175914,-9.341668097451327,2.208403048082441,1.079470682355533,-0.6306187599679094,-0.1747649301230728,-0.8332297690213608,0.7561529767254235,-0.0031569983910102,1.2616217235101947
2025-11-21 05:02:52.670,-7.5998080637544385,-8.402339667159318,7.566296839296817,-0.9922636151313782,0.9785469174385072,-0.2170052826404571,2.0169785589508717,-9.316846959927677,2.3018537774570285,1.1072098889395652,-0.6301979279918264,-0.181864525916356,-0.8512639066167293,0.7548261293384335,-0.0036448538341535,1.253408837138634
2025-11-21 05:02:52.680,-9.649436408028006,-14.801156907659768,3.5512317611306905,-0.1650815159082412,0.1387670189142227,-0.870076060295105,1.9802097940020265,-9.31398981693089,2.344938447554409,1.1338734242305664,-0.6316895362810444,-0.1864161162201292,-0.8695265762301473,0.7524702957858043,-0.0023940849039171,1.252476589777609
2025-11-21 05:02:52.690,17.39224658305049,-34.58444405648708,-6.905068142026662,1.2219008207321167,0.9374933242797852,0.2231398969888687,1.9301573307186364,-9.335389163312316,2.3011679871499537,1.136478131712154,-0.6337104089043681,-0.1843183068936572,-0.8728563920667993,0.751290413336044,-0.000695446723574,1.2595242549050891
2025-11-21 05:02:52.700,15.372762032628058,-44.58864952557695,-25.60001769966668,2.871020555496216,5.893371584415475,1.8922922611236568,2.1502495497994123,-9.356832348835468,1.999123899438977,1.0597311784189984,-0.6243335696213641,-0.1923310253552573,-0.7489929398990988,0.7567304555164189,0.0239870951695915,1.2667449161424098
2025-11-21 05:02:52.710,6.35140900811553,-22.086192335033417,-22.77493213956356,2.118710994720459,5.66231107711792,2.8202757835388184,2.512673433540761,-9.348627999591828,1.568439257159084,0.9421010521987038,-0.6068970712724471,-0.2070318482634951,-0.5580319869854582,0.7650152962345279,0.0597097566636876,1.263962714340041
2025-11-21 05:02:52.720,-6.722484546476602,-0.159901808142662,-4.027728160384297,0.2830759286880493,-0.2048914730548858,2.127530336380005,2.789259839390218,-9.297343802556394,1.3963507521383465,0.8685186098495371,-0.5940772210265036,-0.2105717551193758,-0.4641410431972468,0.7732219053512033,0.0697106552905109,1.2470969701973609
2025-11-21 05:02:52.730,-22.289681098778487,8.667712605077028,-1.4707548357374964,-0.644574761390686,-1.0314171314239502,0.661690890789032,2.9068586293324827,-9.25399156756401,1.4436702833265065,0.856231981717407,-0.5896321387090913,-0.2095152819513951,-0.4609582233125237,0.7773749335899066,0.0642292950650262,1.2334748245778266
2025-11-21 05:02:52.740,-22.289681098778487,15.411639752554892,-2.582259887725115,-1.0938585996627808,-0.4734164178371429,-0.9731571078300476,2.880665911194682,-9.24597134271562,1.544074192839861,0.881473637702251,-0.5913041217239484,-0.2106486437993348,-0.4920412232312563,0.7762089019465278,0.0590453621682255,1.2310123875817511
2025-11-21 05:02:52.750,-7.909673638871312,18.854525377924904,-5.365300706470013,-1.380151629447937,-0.5718151330947876,-1.5743330717086792,2.74582957072556,-9.264226545852422,1.674788192681968,0.9353199725099932,-0.5974870765821795,-0.2137150644092628,-0.5476954814525433,0.7709243011735845,0.0548712160571138,1.236642676046554
2025-11-21 05:02:52.760,6.154550218975544,14.853762708687782,-9.814030173379182,-0.7990527749061584,-1.013994216918945,-0.8515641093254089,2.6172061134219167,-9.277667042183875,1.8015353347197172,0.9855935569672476,-0.6033875235984636,-0.2155018980552776,-0.6028595145781737,0.7661588617912116,0.049830941776673,1.2408468736256844
2025-11-21 05:02:52.770,2.4838100348889824,5.613192932754755,-7.763271363770961,0.4561879634857178,-1.6310784816741943,-0.467497855424881,2.5387758430466056,-9.289339944320917,1.852885290467739,1.000716174641903,-0.607083590566103,-0.2120448151597619,-0.6304695415199082,0.7645120400640866,0.0448103746051255,1.2445406906599876
2025-11-21 05:02:52.780,-7.16800011653304,-3.814167242768407,-2.7649928286179897,1.4697210788726809,-1.6713042259216309,-1.0487862825393677,2.4404997393421826,-9.32566155002415,1.801775719346851,0.9884782017167112,-0.6113899722590908,-0.2028319622985789,-0.6359589697705303,0.7637343380286777,0.042088495098689,1.256301651996186
2025-11-21 05:02:52.790,-10.431990222287178,-17.151962493681907,5.569809133580327,1.1699225902557373,-0.5878139734268188,-1.820459008216858,2.286317185629159,-9.384172191181776,1.6971913092784583,0.9789586313143028,-0.6176953497374374,-0.1935458282342825,-0.6385712296042222,0.7609926341703415,0.0433902791423989,1.2761993435674668
2025-11-21 05:02:52.800,-5.570321759277582,-23.728567912149423,10.493187326049805,-0.1758603304624557,0.4912546873092651,-2.2947943210601807,2.0893021830141545,-9.43845849264264,1.649455160113424,1.009861264910282,-0.6255157515487902,-0.1911270164355645,-0.668291195923976,0.7549802882504086,0.0469603657906699,1.2959057817746162
2025-11-21 05:02:52.810,2.974664045318961,-14.22158708742261,6.903696853673457,-0.9498615264892578,0.4859916865825653,-1.8397178649902344,1.8993321304745967,-9.470085803049802,1.6971733352303504,1.0788023541695646,-0.6330476332253857,-0.1946879186268818,-0.7292474859062384,0.7476199522929918,0.0491091297418446,1.308048782612909
2025-11-21 05:02:52.820,2.490933018636704,-2.506928460147977,2.8490920845404264,-1.0227950811386108,-0.1516292691230774,-1.3261021375656128,1.756081305142492,-9.480839252254366,1.7889254439935087,1.1483268352223537,-0.6388673312401731,-0.1986051431213753,-0.7946628159357093,0.7416813893171711,0.0480968270475448,1.3123043950295543
2025-11-21 05:02:52.830,-1.362776545447111,3.548204522264004,1.1963285305313764,-0.8982197642326355,-0.607851505279541,-1.3104867935180664,1.6262885117985306,-9.485076451432704,1.8865052359968424,1.2110688119889996,-0.6442610736007165,-0.2005596059799506,-0.8593399977461444,0.7366773345935711,0.0448333946083704,1.3139999108475733
2025-11-21 05:02:52.840,-2.127484321892261,6.299574775981903,0.0383427362672984,-0.7561374306678772,-0.5989770889282227,-1.415196180343628,1.4847906676135956,-9.490447038555144,1.9741333966977892,1.2733449273677204,-0.6500750782580305,-0.2012214404715408,-0.925938031682324,0.7315827097609512,0.0412205605241443,1.316165276646967
2025-11-21 05:02:52.850,-1.9709033287353808,6.812739402419329,-1.1503313339881598,-0.612526535987854,-0.2977499961853027,-1.439725637435913,1.3406297416992483,-9.497087791743876,2.0441165951147675,1.3352867323912196,-0.6558484409863115,-0.2019416386899187,-0.9903210208300528,0.7263419338697007,0.0388552079761934,1.318867493500846
2025-11-21 05:02:52.860,-1.4659966814249754,6.510127159431576,-1.865172963502258,-0.4887042045593261,-0.1242003217339515,-1.4484994411468506,1.1994919629983605,-9.504076335456968,2.0986076253674923,1.3963576129126156,-0.6613745901105484,-0.202963133959186,-1.0515469096580028,0.7210846787636227,0.0377701096822798,1.321742388027932
2025-11-21 05:02:52.870,-0.90826240702942,5.972949789243936,-1.6243305095985532,-0.3585803508758545,0.0900542736053466,-1.39845609664917,1.064034787217155,-9.511279398703577,2.1386346614599225,1.455532639863328,-0.666576446787923,-0.2041296523754548,-1.1091267012675123,0.7159480560272768,0.0377513394449692,1.3247399717349255
2025-11-21 05:02:52.880,-0.1262936991818249,4.668728893139958,-1.286509736716002,-0.311211496591568,0.2506500780582428,-1.2673135995864868,0.9410701593928038,-9.517584636327625,2.1680245682038364,1.511114334099389,-0.6712111635984712,-0.2056404358782214,-1.1612701053416097,0.7111210387190668,0.0386568062754451,1.3273938021547116
2025-11-21 05:02:52.890,0.8228915968012064,3.2284675414741035,-1.5526124502129852,-0.319346159696579,0.2049406915903091,-1.0866461992263794,0.834793777649477,-9.521176523339747,2.195604795177281,1.5611629921901722,-0.6751772012468327,-0.207321121110803,-1.20746467420027,0.7068100715106949,0.0396624274602359,1.3289181304118785
2025-11-21 05:02:52.900,1.5702442607544362,2.098326031947136,-1.967153036291152,-0.3312390446662903,0.0625198855996131,-0.897038459777832,0.7436020061828196,-9.521846385425327,2.2252774643853304,1.6046060116117522,-0.6785875377968887,-0.2087166740920453,-1.248300617374564,0.703100543630604,0.0400724443248635,1.329203434570272
2025-11-21 05:02:52.910,2.50216752935648,1.460904326722026,-2.234696742376685,-0.342876523733139,-0.0345897898077964,-0.7004526853561401,0.6682043815016746,-9.519937336933612,2.25714238294065,1.6404151955910449,-0.6814304449795782,-0.2097651157594634,-1.282976525765244,0.700048270473424,0.039794540243011,1.3283910357026647
2025-11-21 05:02:52.920,3.920401173609495,1.4859066660314797,-2.1551488661482927,-0.3404341340065002,-0.0924373790621757,-0.5156111717224121,0.609129347926937,-9.516060203239322,2.289972785527259,1.6684442803251194,-0.6836801040166928,-0.2106186645062212,-1.3108178382695177,0.6976366527812872,0.039045645478104,1.326749498618544
2025-11-21 05:02:52.930,5.250536263170838,1.7900562015891075,-1.60933679247573,-0.3238225877285003,-0.1054792627692222,-0.3165235519409179,0.5672239872746169,-9.510908811825514,2.321911499971151,1.6883796532145188,-0.6852999684846456,-0.2113299584936702,-1.3311972307900453,0.6958880045740937,0.0379944413104204,1.3245849355661674
2025-11-21 05:02:52.940,5.803558268222212,1.9962825385332104,-0.746556325943768,-0.3325939774513244,-0.0540006235241889,-0.0922875329852104,0.545864790240489,-9.504500113826987,2.353066078300029,1.699554147453468,-0.6861580989624286,-0.2121342746105324,-1.3428480198873525,0.6948600832845602,0.0368198865534761,1.3219177925757244
2025-11-21 05:02:52.950,5.697881971263885,2.000491096138954,-0.238696527916193,-0.3948604762554168,-0.0694783553481102,0.1481049358844757,0.5470935648504645,-9.495838668465614,2.387492517906427,1.701748200235407,-0.6861890343882563,-0.2131938366795537,-1.3455355199450632,0.6945807260867757,0.0353638253370886,1.3183570566387572
2025-11-21 05:02:52.960,4.662991810792684,1.92826757144928,-0.561649402012676,-0.4782893359661102,-0.0682533010840416,0.3841789960861206,0.5707332740372046,-9.483920267134904,2.428977351591736,1.6952789845231655,-0.6854118236008591,-0.2144900300550929,-1.3400141751100376,0.695049240134171,0.0333366626012069,1.3135361206067055
2025-11-21 05:02:52.970,3.09540639398396,2.1878128261268137,-1.633580860763788,-0.5619789958000183,0.002511064056307,0.5447664856910706,0.6142597330853342,-9.46842985253632,2.478285133987665,1.682309492071303,-0.6839038506050297,-0.2162459851795253,-1.3278358433796051,0.6961006966254379,0.0309353027440049,1.3073995664457552
2025-11-21 05:02:52.980,2.1737159117132423,2.773635277017951,-2.929955719542503,-0.6177775263786316,0.0661992281675338,0.6439279317855835,0.6713439947016537,-9.449866606363653,2.533715637047589,1.6660662803928712,-0.6818823954825581,-0.2185157986402408,-1.3117840130126983,0.6974811166876861,0.0284144400258687,1.3002244356116024
2025-11-21 05:02:52.990,2.191287224239111,3.3918682976484296,-3.842516262157261,-0.6607329249382019,-0.002869991119951,0.7043253779411316,0.7360730719827115,-9.428847783732412,2.5933415459707376,1.6482741272166097,-0.6795677322628044,-0.2209662823922753,-1.2942378503377672,0.6990731337054499,0.0256595911805015,1.2923181774526664
2025-11-21 05:02:53.000,1.7988363048940896,4.051303097239137,-4.237568596172332,-0.7020049691200256,-0.112741895020008,0.6997324824333191,0.8006683668162673,-9.40563525044918,2.657694775676727,1.6309087332088037,-0.677257144493465,-0.2232146280634941,-1.2781801137425066,0.7007124741079032,0.0223614897125667,1.2838332911056434
2025-11-21 05:02:53.010,0.8296340567987411,4.76915676805079,-4.494122560079395,-0.7056386470794678,-0.1754767447710037,0.6301497220993042,0.8593256499029696,-9.381137353530526,2.7251065161705017,1.616009263415176,-0.6751560167070614,-0.2252753951359631,-1.2653293624154114,0.7021854446871264,0.018733339738055,1.2751354036796416
2025-11-21 05:02:53.020,-0.0404372973937541,5.300490088385343,-4.819757951258123,-0.6430287957191467,-0.2840271890163421,0.5270281434059143,0.907138444500789,-9.35746421699822,2.790222839203477,1.6043591416928786,-0.673441440570974,-0.2269281639927521,-1.2564619938204995,0.7033880521548947,0.0150145475171885,1.2669600797440104
2025-11-21 05:02:53.030,-0.8322803335238248,5.31247044903636,-4.809159108093381,-0.569604218006134,-0.3928292393684387,0.4060640931129455,0.941066725326702,-9.336225029614567,2.8495044647336005,1.5959256023576889,-0.6722290781794125,-0.2279309086491344,-1.2518176891946275,0.7042929244939407,0.0112701441827151,1.2598027321115908
2025-11-21 05:02:53.040,-1.1101924350190906,4.630077383184433,-4.564526175865531,-0.5570335388183594,-0.500464141368866,0.2729614078998565,0.9599561347138136,-9.317026408147813,2.9054937707200645,1.591176711156232,-0.6715653714919971,-0.2284280572971635,-1.2516939949209411,0.7048154179150157,0.0074706309854146,1.253467394239159
2025-11-21 05:02:53.050,-0.6689268505573273,3.487252917695045,-4.38530971866101,-0.5955569744110107,-0.7063446044921875,0.1448798775672912,0.9617679333761334,-9.298279622101782,2.964351033358276,1.590572774642182,-0.6715304193524799,-0.2284493002035972,-1.257066780277067,0.7048740354776116,0.0032215858854053,1.2473970948780588
2025-11-21 05:02:53.060,-0.0157821640867739,2.1077689830750224,-4.205195728094876,-0.6516627669334412,-0.9505833387374878,0.0351537801325321,0.9453307394467294,-9.27885186805427,3.029792058300972,1.593774834049479,-0.6721592393591779,-0.2278596841293912,-1.2683563255700196,0.7044702846285629,-0.0018714954410774,1.2412199927332008
2025-11-21 05:02:53.070,0.2855365319591015,0.8763082027554512,-4.242653644351661,-0.6913248300552368,-1.1255894899368286,-0.0417031832039356,0.9126116152148692,-9.258407630440592,3.101516985818744,1.5999765047108097,-0.6733567152729323,-0.2267157313142316,-1.2846259705535414,0.7036548652821418,-0.0077776685221953,1.2348380310096438
2025-11-21 05:02:53.080,0.5720335064481944,0.3905699279040098,-4.714429737085104,-0.7089288830757141,-1.242655873298645,-0.0033576600253582,0.8730170522555708,-9.236845202451944,3.1763045157775283,1.6065381366004254,-0.6747490700407288,-0.225200641004507,-1.302566726869844,0.7027063009796668,-0.0142200817063677,1.228231125504249
2025-11-21 05:02:53.090,1.1942781008075922,0.5422282238364219,-5.576640440905094,-0.7419711947441101,-1.4487851858139038,0.1364571303129196,0.8357054126016795,-9.21312764225602,3.2542642460316418,1.6102885709909045,-0.6759679616194135,-0.2232280804492352,-1.319424975212516,0.7019816387253118,-0.0214054980246882,1.2211022765375603
2025-11-21 05:02:53.100,2.366216505643725,0.499998855394125,-6.481347055149078,-0.7860127091407776,-1.650715947151184,0.4054428040981293,0.8086443141315132,-9.18601284083724,3.3367125198766585,1.6082905703764274,-0.6766750150141795,-0.2206189927884572,-1.3330327661764445,0.7018237969852335,-0.0296906862542204,1.213119233529884
2025-11-21 05:02:53.110,3.74791577822566,-0.103830376830697,-7.042632446154951,-0.8330224752426147,-1.7010551691055298,0.7697873115539551,0.8052572289764881,-9.154097361138463,3.4240956197753545,1.5976329915389371,-0.6763338542475117,-0.2176807500407717,-1.3398197587964151,0.702617753341686,-0.0389335861757646,1.2039361647218625
2025-11-21 05:02:53.120,5.569942404571175,-0.7593126394033431,-7.352378778806329,-0.806771457195282,-1.691114902496338,1.1739213466644287,0.8345468902163207,-9.117667618885635,3.513127071402967,1.5770604982005134,-0.6745946500901444,-0.2146516030469041,-1.3375682422287098,0.7046096781004637,-0.0487032837591238,1.193715240190068
2025-11-21 05:02:53.130,6.611617110615969,-1.5093705437272786,-7.1004381539136165,-0.6855603456497192,-1.629731297492981,1.6591084003448486,0.903332768607512,-9.078987467357516,3.595327215705812,1.545295573910214,-0.6712041873946397,-0.2113424047385352,-1.3246397597845767,0.7080901191818005,-0.0585472979194575,1.1831439584285248
2025-11-21 05:02:53.140,6.003169570940733,-3.15316592451334,-6.298057357156276,-0.4839448928833008,-1.5016876459121704,2.3314826488494877,1.0250092563174664,-9.038708648461103,3.663537705361843,1.4995017907356964,-0.665655358247309,-0.2075722731584203,-1.297985383665155,0.7135648561552834,-0.0681323352437291,1.1724192389184256
2025-11-21 05:02:53.150,6.113441378995776,-6.391456356343626,-4.949351422637701,-0.1490257233381271,-1.4698729515075684,3.050185203552246,1.2134145437583326,-8.99667626389563,3.709155254937708,1.4363974274309983,-0.6573955424868847,-0.2029021572072789,-1.254629719053446,0.7215938545594794,-0.0772280815348609,1.1615115384567776
2025-11-21 05:02:53.160,6.689117114403843,-11.231722550362347,-3.3203730872333046,0.3142652213573456,-1.5499941110610962,3.5208449363708496,1.4517672266729176,-8.95603621047139,3.721850778120756,1.3591043415451407,-0.6470226535355488,-0.1963775329495909,-1.1988830287470444,0.7317481655873492,-0.0856864003923998,1.1512197453627315
2025-11-21 05:02:53.170,8.448284841254353,-17.363327947080133,-2.057718711748719,0.8478346467018127,-1.5429259538650513,4.247232913970947,1.736948442388326,-8.916028025209902,3.6956519225031137,1.2680260566478567,-0.6346173489668955,-0.1875708698041591,-1.1314371988131104,0.7438930873002363,-0.0932796480993241,1.1413149552880113
2025-11-21 05:02:53.180,6.649373133036494,-23.194417780828477,-1.2186088975310323,1.6579139232635498,-1.3086247444152832,4.940306663513184,2.0951493016071616,-8.872473545643686,3.6138580209136006,1.1574832779526096,-0.6191770414849805,-0.1762856190144172,-1.0453964779339024,0.7587795453099809,-0.098979304314112,1.130770100623609
2025-11-21 05:02:53.190,-1.7267261774510143,-25.22998252843618,-0.0048933249995112,2.721592903137207,-0.964549720287323,4.500700950622559,2.477308690170944,-8.839806955316662,3.4483538627192374,1.036352357715467,-0.6029151525387252,-0.1619398874602182,-0.9478256723092808,0.7746502988046653,-0.1009243844468887,1.1230138625237007
2025-11-21 05:02:53.200,-10.604357544249297,-20.279023670601845,4.945174429214,3.355281114578247,0.8020171523094177,2.9602324962615967,2.802253176476061,-8.8435964107275,3.1793998514443635,0.9244698256089589,-0.5899721751989768,-0.1476353107786675,-0.8483653693903842,0.7880857188929691,-0.0951718229925735,1.1239071596476906
2025-11-21 05:02:53.210,-7.911944506412744,-15.745170280897616,7.583419823533296,3.164172649383545,1.873407244682312,2.1183769702911377,3.0626378045871854,-8.871262416288257,2.84452550727725,0.8300750105231888,-0.5806984739152056,-0.1377553730181434,-0.7484915476576134,0.7982320749690338,-0.0814751805598957,1.1304802952882584
2025-11-21 05:02:53.220,-3.1077856908246875,-12.422615757972002,7.251019760525226,2.699770212173462,1.3165069818496704,2.393760681152344,3.303062471470237,-8.879493069016933,2.532735686099529,0.7439971129388415,-0.5718171276255498,-0.1299263879463719,-0.6541566742791214,0.8071730442056998,-0.0679401353422757,1.1324535812011547
2025-11-21 05:02:53.230,-1.770806142196059,-7.534616337397694,6.4039522653013465,2.227447032928467,0.6977080702781677,2.6043529510498047,3.549249062880873,-8.852347287937999,2.28236114147976,0.6632706801030875,-0.5617819018324447,-0.1219362243281085,-0.5714772396322308,0.8161451854537661,-0.0586494544385111,1.125976488667613
2025-11-21 05:02:53.240,-1.5334838252425194,-4.449469471621513,4.203322043177486,1.8223674297332764,0.674077033996582,2.306727886199951,3.782686939616501,-8.805279831814765,2.0805596352405846,0.5943915310766444,-0.5517718986973518,-0.1148381510758872,-0.5028598431438815,0.8244244437178938,-0.0518113678831178,1.1149496822231306
2025-11-21 05:02:53.250,-1.763665038269758,-3.469496311730146,0.7974839646264911,1.7368862628936768,0.5686001181602478,1.6376527547836304,3.9678272339120495,-8.763827292963862,1.9031755080297588,0.5394075310847101,-0.5437146079806906,-0.108909898593349,-0.4472369578087491,0.830928152450262,-0.0455142154157127,1.105439840356761
2025-11-21 05:02:53.260,0.096650109937787,-4.967586167508364,-3.050667088547349,2.235682725906372,-0.0085614873096346,1.183478593826294,4.095148084184527,-8.74310833006203,1.7199400244422256,0.4874166773227192,-0.5381762783680883,-0.1013738011714686,-0.3976233908468049,0.8357737296106595,-0.0396465691456155,1.1007536151943085
2025-11-21 05:02:53.270,-0.2873749263674021,-7.452866859471798,-6.522779135733843,3.058024406433105,-0.8332273364067078,0.8285953402519226,4.175857989929616,-8.743907371485232,1.508872384946793,0.4254063397376008,-0.5346681122535789,-0.0890230892282732,-0.3467345321019147,0.8396335569853594,-0.0349358048245536,1.1009334725807909
2025-11-21 05:02:53.280,-2.543288059774041,-9.873224705147743,-7.964758981755375,3.845210075378418,-1.3609440326690674,0.4744209945201874,4.216984365566074,-8.764588340464234,1.252764411241561,0.3481538640222834,-0.5329698614404634,-0.071459124460029,-0.2887719606761811,0.8425556425808138,-0.0306064618804582,1.1056129187551096
2025-11-21 05:02:53.290,-3.0795950768679377,-11.114136619901656,-4.6423947207048535,3.8733972632885103,-1.848924994468689,0.2608160376548767,4.230607817249,-8.793649599775671,0.9716345898088068,0.2599756590769846,-0.5325198595868971,-0.0504280191779573,-0.2257529079606854,0.8444868570206914,-0.0268632438396654,1.1122631454338152
2025-11-21 05:02:53.300,-2.8569980353593825,-10.28002037618756,0.2481363372389227,3.5236732959747314,-2.498915672302246,0.2278985679149627,4.232765872065722,-8.815981843093038,0.7297453302659094,0.1746940554607958,-0.5324621494557716,-0.0286776543832029,-0.1707256002993887,0.845569937467614,-0.0259433210503775,1.1174350655310672
2025-11-21 05:02:53.310,-3.3950293920278547,-7.698983308255672,2.999759908130765,2.8231632709503174,-3.481650114059448,0.3526220917701721,4.238834962846338,-8.824448642665148,0.5759801982473581,0.1024214476899201,-0.5319588397432555,-0.0075002512241257,-0.1350545630330939,0.8462057113533381,-0.0299891526713405,1.119410301567083
2025-11-21 05:02:53.320,-4.770489477959275,-4.276631025016307,4.624911670984328,2.1331419944763184,-4.389885902404785,0.6344359517097473,4.25992568167001,-8.817406907460093,0.5260635267054662,0.0448532689595413,-0.5302738369981328,0.013569492034515,-0.1228691764571728,0.8467653709704056,-0.040173256377508,1.1177669679343298
2025-11-21 05:02:53.330,-6.240752000135183,-0.2753787836253643,5.172670348680019,1.4410686492919922,-4.7186055183410645,0.8835336565971375,4.302496410895884,-8.7943054333359,0.5648842557480559,0.0027665671842478,-0.5269206806304995,0.0332652211883793,-0.1305455290363156,0.8475020112261539,-0.0546656109677725,1.1124142547306124
2025-11-21 05:02:53.340,-6.861514246982336,3.4060224952071905,3.615661563204229,1.0114165544509888,-4.919647216796875,1.0067740678787231,4.3564311224401,-8.760504870542883,0.6674154961463064,-0.0269041169034585,-0.5222511767706022,0.0512575572478881,-0.1520203547641651,0.8482268438597149,-0.0716766279767836,1.1046854516826992
2025-11-21 05:02:53.350,-7.423865221393108,6.362066595730185,2.3911159691005945,0.8627957105636597,-4.992253303527832,0.9966803789138794,4.4080692474797365,-8.723197760933637,0.8031978122286498,-0.0505585204668241,-0.5168832979934028,0.0683676171806688,-0.1802335327892675,0.8485722202354865,-0.089903688521832,1.096290500103696
2025-11-21 05:02:53.360,-8.149597078233956,8.405745091688633,1.7050266790792346,0.8722749352455139,-5.115858554840088,0.8638347387313843,4.445168267296254,-8.689456819373369,0.9508909308571368,-0.0727821337696744,-0.5114243069553358,0.0853858632280402,-0.2107394546688627,0.8481448391895579,-0.1086493070462988,1.0888144736046557
2025-11-21 05:02:53.370,-9.277163184314963,9.799723415607213,2.004618112941086,0.8919810652732849,-5.1306328773498535,0.6249911189079285,4.4574850202947855,-8.66532015698254,1.1015593389693648,-0.0948295306830676,-0.5063884457731828,0.1025531085872293,-0.2422716537679272,0.8466116865352425,-0.1276802640984698,1.0835314323575775
2025-11-21 05:02:53.380,-10.094825136834382,10.60746603165865,2.7321459132879973,0.8283549547195435,-5.015166282653809,0.3104209303855896,4.438673352319002,-8.654545664989948,1.2519548484243452,-0.1150937391267392,-0.5021908731058484,0.1192509983949327,-0.2749143011692209,0.8438533440444567,-0.1466116111897833,1.0811899877168705
2025-11-21 05:02:53.390,-10.598099652898313,11.41876370984316,3.592876023161411,0.7440749406814575,-4.721059322357178,-0.0403488390147686,4.386194100280106,-8.65884833061993,1.398585671583563,-0.1319184384184662,-0.4991331094189695,0.1348273832632365,-0.3086692882606108,0.8399138751893223,-0.1650226744412792,1.0821237463564106
2025-11-21 05:02:53.400,-10.570379286801815,12.214730547904969,4.461200825947523,0.6403006315231323,-4.200900554656982,-0.456241101026535,4.300413467141985,-8.679391936954856,1.5313364379502832,-0.1443522708153376,-0.4975884063155725,0.1485936150150474,-0.3420903205440825,0.834973119063366,-0.1820596210684105,1.0866050252199695
2025-11-21 05:02:53.410,-9.292351401096582,12.389371660017966,4.630638524198532,0.5423740744590759,-3.671279191970825,-0.9316412806510924,4.178486000345647,-8.717862245124579,1.6460604031085968,-0.1510548570925751,-0.49798457885941,0.1601264102043483,-0.3752687765199862,0.8290977254829937,-0.1974027915406851,1.0951011246155866
2025-11-21 05:02:53.420,-7.730160536807775,11.359257043385504,4.323275871813297,0.4754073619842529,-3.158125400543213,-1.3997517824172974,4.019447238773108,-8.773968163228034,1.7412367872320114,-0.1515801492566392,-0.5004875151822163,0.169514330229607,-0.4087981471941669,0.8223135899756507,-0.2111337809624175,1.1077496479710014
2025-11-21 05:02:53.430,-6.383238563096523,9.217056213876605,4.156733895003796,0.3958054482936859,-2.4794719219207764,-1.8547570705413816,3.826530172996223,-8.845355821615456,1.8132076523348688,-0.1453783905264516,-0.5051642491330119,0.1766146177115652,-0.4425109805445649,0.8148042481436665,-0.2229581576379676,1.124322562538814
2025-11-21 05:02:53.440,-4.108379029418527,7.447447172510624,4.295167383182049,0.2258350551128387,-1.7798068523406982,-2.164060592651367,3.6087387782037257,-8.926015750738978,1.8637664577052,-0.1309371997213476,-0.5117986408707402,0.1809714466114402,-0.476728150166635,0.8069967602242,-0.2325245862634237,1.1437674530130566
2025-11-21 05:02:53.450,-0.947284942254424,6.384100732883811,4.407182820034027,-0.0274102445691823,-1.2652480602264404,-2.2174129486083984,3.383684406670928,-9.004703503006697,1.9069253620825704,-0.1074190560584343,-0.5193761909321015,0.1826455627975094,-0.5131979347150929,0.7994750884270442,-0.2402675123710561,1.1635733752124249
2025-11-21 05:02:53.460,1.889648210197687,5.088303381732106,4.187530599805712,-0.3065904676914215,-1.063095211982727,-2.060006618499756,3.1684020720899104,-9.071506756213306,1.959432378911227,-0.0756695268603012,-0.5266417862714647,0.1823528147998422,-0.5538602965924482,0.79264808686855,-0.247194013656278,1.1811310267385078
2025-11-21 05:02:53.470,3.4845541801303623,2.6066256826967,3.6520530192732807,-0.5657810568809509,-1.0470843315124512,-1.7066075801849363,2.9757497947290537,-9.120800071692466,2.0313326629959048,-0.0384191736543765,-0.5325865620619715,0.1810710312116243,-0.5989720760079245,0.7867238056331605,-0.2542253582843666,1.1945836004872683
2025-11-21 05:02:53.480,3.8298838673383,-1.247187341761589,3.8348283380031583,-0.8412027955055237,-0.8481256365776062,-1.1208537817001345,2.82614609323889,-9.1475378564924,2.1226934343539177,-6.83602986905e-05,-0.5364079297543158,0.1790403848918533,-0.6441990731477795,0.7823285054119868,-0.2610999384407858,1.202075897933456
2025-11-21 05:02:53.490,3.7801053986907,-6.558954026442766,4.7524619460985065,-1.1142078638076782,-0.795910656452179,-0.3665626645088196,2.7408020979523657,-9.147008864182231,2.2339681358411907,0.0339620180087434,-0.537322070285684,0.1763748101161353,-0.6838676054259221,0.7801499399134018,-0.2674751903492992,1.2019262097537706
2025-11-21 05:02:53.500,4.509096549588442,-12.517141130840775,5.950764845442771,-1.2395442724227903,-1.2507308721542358,0.4146239757537842,2.720345000857115,-9.118959412261844,2.369534398020059,0.0583998914159457,-0.5347358525681689,0.1744516364705618,-0.7165838235921554,0.7799138851390951,-0.27451515302632,1.1940730944260187
2025-11-21 05:02:53.510,6.067484514462947,-16.85579226644039,5.474690470993519,-0.9603289365768432,-2.098323106765747,0.961947500705719,2.7442244736164807,-9.072213443177938,2.5168556876614687,0.0680848382938322,-0.5289504309448297,0.1754982588765312,-0.7422079166476092,0.7804594254017058,-0.2833636145584866,1.18132082500343
2025-11-21 05:02:53.520,6.453362485158444,-15.197760855031012,4.317617699921131,-0.5107247233390808,-2.1665639877319336,1.183546543121338,2.784813965897262,-9.02377820583284,2.643224351775646,0.0628262505721187,-0.5217580630764508,0.1799841982342607,-0.7593192047676638,0.7807635829868154,-0.2928865367505608,1.168512647816737
2025-11-21 05:02:53.530,5.538643010944128,-8.627883283513784,1.9570111431136723,-0.1354150474071502,-1.3628705739974976,1.3780509233474731,2.853632358318567,-8.978926087671518,2.721408538435399,0.0460093085971389,-0.5146130257871052,0.185299764376893,-0.7616855184904423,0.7817664835168954,-0.2994639749329417,1.1569867511204883
2025-11-21 05:02:53.540,2.556095518898964,-2.765778718298673,-0.4676958376824855,0.19645956158638,-0.3489985764026642,1.2673074007034302,2.950867282406985,-8.94081993663907,2.7430855327144266,0.0227513179195287,-0.5086063293858233,0.1896191108057426,-0.7489226791968291,0.7838986332185474,-0.3014419313013803,1.1474270803531694
2025-11-21 05:02:53.550,-0.1296130528628826,2.3089544032424687,-1.9135320668712257,0.4916708469390869,0.5052341222763062,0.8587537407875061,3.0487434270083904,-8.918297723707557,2.7091554983228443,-0.0008416402175995,-0.5050306718030063,0.1923466603867368,-0.726488638353591,0.7864130498584972,-0.2991677849359112,1.1418711102379149
2025-11-21 05:02:53.560,-1.3444526609882712,6.954490636843443,-2.541127959130704,0.6505390405654907,0.969539761543274,0.450228601694107,3.127085726839304,-8.913846589517593,2.633454945172369,-0.0216643652103361,-0.5040765447773763,0.1936834474437761,-0.6999152436006428,0.7886215188940031,-0.2940575502232079,1.1407810494998247
2025-11-21 05:02:53.570,-2.962401360595226,11.316922461003063,-1.7976175767540932,0.5195866227149963,1.1517080068588257,0.0298209208995103,3.17713132199049,-8.921523700016737,2.5461051630213856,-0.0367522830922905,-0.504985108814096,0.1937611068069857,-0.6755848204985625,0.7902185408970211,-0.2880996748696766,1.1426627310080095
2025-11-21 05:02:53.580,-6.702586836829781,14.993297436106204,-1.1962050502821802,0.1290090084075927,1.550586462020874,-0.6541555523872375,3.184756410041451,-8.938959987986088,2.474409461598098,-0.0388614584272935,-0.5078493630670817,0.1913548873425366,-0.66052970407062,0.7910503663800297,-0.2823324938625741,1.1469656701567594
2025-11-21 05:02:53.590,-9.543375495666265,13.824793754959106,-1.4130655939653516,-0.3856013119220733,2.2018027305603027,-1.6674093008041382,3.1284117147460577,-8.972196487155555,2.4255136210039256,-0.0193536846872526,-0.5139804774517135,0.1844783372421084,-0.6595086438889849,0.7908680993275738,-0.2762597713092597,1.155283449297149
2025-11-21 05:02:53.600,-8.622844704824686,5.8941620837330815,-1.3887719874471425,-0.9013296365737916,2.0243349075317383,-2.575159311294556,2.989736819027364,-9.021737055394054,2.4166326876729727,0.0265321209129772,-0.5234584549939478,0.1733652081222259,-0.6797872042619221,0.7889097659795329,-0.2712141061756785,1.1679813801406262
2025-11-21 05:02:53.610,-8.312764025652408,-2.8377292712658644,0.4912596686214208,-1.2643420696258545,0.5961676239967346,-3.3141791820526123,2.7574679860711098,-9.07926043908,2.4766528566107158,0.0976423832290748,-0.5346514919230139,0.1614740211833328,-0.731798677436786,0.7839119994332574,-0.2712121735666836,1.183217580880147
2025-11-21 05:02:53.620,-11.291515632545948,-16.655332822459936,2.881708405984938,-1.084431767463684,-1.1282280683517456,-3.454620122909546,2.4371593428730964,-9.138149850422144,2.5932322403773664,0.1855114044718609,-0.5461566506393347,0.1529088529836286,-0.8164142216625839,0.7751641409826246,-0.2783026554853508,1.199428872621192
2025-11-21 05:02:53.630,-16.160213555800915,-30.949784070563314,3.554779809001088,-0.883574903011322,-1.1084182262420654,-2.8047118186950684,2.11582588667199,-9.184217774114012,2.7099478177443146,0.2700671909037472,-0.5559694429430458,0.1481807473806929,-0.9078960504700688,0.7654538500578233,-0.2881334380622892,1.212596774106392
2025-11-21 05:02:53.640,-9.7047298407048,-27.78255454938412,-0.4011024278342723,-0.7647220492362976,0.3791426122188568,-2.087247610092163,1.883321637524664,-9.209357476067542,2.7948551751792428,0.3405564574631313,-0.5636656961076897,0.1425414320164518,-0.9778350343595134,0.7587520248831934,-0.2936976348847682,1.2199819095827027
2025-11-21 05:02:53.650,3.7599534220218658,-11.834052483940123,-5.0230935351967805,-0.364543616771698,1.0106263160705566,-1.2894781827926636,1.7488054689206185,-9.22444807769358,2.832250255332887,0.3911003224343258,-0.5697982535362017,0.1357599476178708,-1.017636312096542,0.755469137256872,-0.2935399200965541,1.2244872423764035
2025-11-21 05:02:53.660,7.568133407074213,-0.8534089732050896,-4.590947149801254,-0.1979863196611404,0.4552687704563141,-0.4602003991603851,1.6927881058834493,-9.231716607391832,2.8425813874721526,0.4166696935787947,-0.5731718933349329,0.1312347780949636,-1.0336841992015993,0.7543776622343241,-0.2918318140211249,1.2266775460972812
2025-11-21 05:02:53.670,4.422344733330607,5.244659480091929,-3.371908336420357,-0.2230216860771179,-0.866736650466919,-0.1395546346902847,1.663566103052348,-9.230257056233286,2.8644875143319366,0.426369604869609,-0.5737332772273452,0.1306111650428128,-1.044647604009354,0.7534978482218773,-0.2932777931186331,1.22623668242444
2025-11-21 05:02:53.680,1.6884610364645718,7.788505173748731,-0.677694678902626,-0.244852676987648,-1.7858928442001345,-0.118066668510437,1.6104497221536933,-9.225773773339393,2.908941280825436,0.4332601963974686,-0.572973463503166,0.133561279518229,-1.0651776581839285,0.75118009121802,-0.2993181004980755,1.224885825723532
2025-11-21 05:02:53.690,0.6726765584796667,6.618730742013455,0.8738602250814438,-0.1070595681667327,-1.4029531478881836,0.1927586644887924,1.5642559801250695,-9.2197315705657,2.9529718534708023,0.4352935736847135,-0.5714635905221347,0.1376180175289825,-1.0836543307097823,0.7488766041335218,-0.3060629104263177,1.2230730708113189
2025-11-21 05:02:53.700,-1.4753234588272868,4.5753965294480325,-0.8709902226030826,0.1622539311647415,-0.5769708156585693,0.2412457764148712,1.5583723289139568,-9.217005360472202,2.9645696445450187,0.4282045980087384,-0.5698985211550627,0.1409652667645902,-1.0868276414666638,0.7480532383776376,-0.3094524123730686,1.2222581129898
2025-11-21 05:02:53.710,-4.540884018993378,2.282126602071524,-1.6228709584400056,0.2246453166007995,0.3961604833602905,-0.1766253411769867,1.5599533144950866,-9.222318079927565,2.9471634594529865,0.424093156139646,-0.5699591068308404,0.1421023574823053,-1.083979167460823,0.7478919653061876,-0.3092104985132975,1.2238480160944656
2025-11-21 05:02:53.720,-4.459531431430578,0.1546264980882406,-2.3346003011524674,0.2331195026636123,1.2979507446289062,-0.6155859231948853,1.547284533188492,-9.235832810539009,2.9113033337816594,0.4314978431146548,-0.5724840356834274,0.1399030585086906,-1.0822870419771269,0.7478748020957552,-0.3055690999090811,1.2279239379940234
2025-11-21 05:02:53.730,-1.329509505008906,-1.8608698594808577,-2.643399708342552,0.1732774078845977,1.4486455917358398,-0.6797980666160583,1.5264325915567576,-9.252416865593194,2.869352782280743,0.4462173771355406,-0.5763064316076051,0.1355984444104936,-1.081894779068564,0.7479569058787858,-0.300074149426399,1.2329899043769872
2025-11-21 05:02:53.740,0.7872172760255635,-3.340701589512825,-2.178221990960836,0.0420051403343677,0.8348892331123352,-0.4542051255702972,1.5061286391966044,-9.26477132025361,2.840069696912169,0.4599545873410476,-0.5794391109439941,0.1318313235213032,-1.0831926502641465,0.7479383685188014,-0.2957348949640023,1.236811961353376
2025-11-21 05:02:53.750,0.6561835427097976,-3.6942823877155777,-1.2396028779819608,-0.152365580201149,0.0786080360412597,-0.1900099068880081,1.4894699114710093,-9.26822409105599,2.837582848532498,0.4691510166202901,-0.580847398052647,0.1299011954115636,-1.0874214513727731,0.7477081342115419,-0.2944052850559537,1.237887769259755
2025-11-21 05:02:53.760,-0.3320828137524426,-2.7167694804579017,-0.910581643757224,-0.2771725058555603,-0.4258593618869781,-0.0950634330511093,1.4717228039868175,-9.263965264567732,2.860658603693545,0.4757781005519376,-0.5808901234564473,0.1294617579967265,-1.0956399233489225,0.7471791313896361,-0.2958541638011028,1.2365613706602567
2025-11-21 05:02:53.770,-1.0357277803391218,-1.3846563688218594,-1.1157488270372151,-0.276467889547348,-0.5612767934799194,-0.1476609855890274,1.446482856529206,-9.257570010572673,2.89404211011827,0.4827520385827205,-0.5805737324979466,0.1297160288487813,-1.107297516349573,0.7462733452288891,-0.2986369683849937,1.2345790477723044
2025-11-21 05:02:53.780,-0.9213843389309944,-0.3714467097610235,-1.872053809057176,-0.1853214800357818,-0.5873513221740723,-0.2240732014179229,1.4124946622096002,-9.25354207023084,2.9235569584161043,0.4909551491862926,-0.5805603792795064,0.1302221811992763,-1.120725409863235,0.7450229931645697,-0.3015500960641821,1.2333363412096552
2025-11-21 05:02:53.790,-0.7129660449005663,0.5011246445536613,-2.7303701357871293,-0.0567276775836944,-0.6265647411346436,-0.2257562428712844,1.3736160654999314,-9.253277866336704,2.942855240865052,0.4986949700123277,-0.5808350935051432,0.1312002240320717,-1.1340900014402302,0.7435195715113443,-0.3042953534771437,1.233255017541164
2025-11-21 05:02:53.800,-1.1157627094320952,1.3192337563186882,-3.245748931142688,0.0783166959881782,-0.647091805934906,-0.2150109261274337,1.334832161336392,-9.256611979195474,2.9502149559780952,0.5044781278116636,-0.58124088359578,0.132766101532725,-1.1459047612643385,0.7419102605163423,-0.3067597311855518,1.23428313559083
2025-11-21 05:02:53.810,-1.5005904404222965,1.857535162100196,-3.235200356860459,0.2092853337526321,-0.6665668487548828,-0.26713827252388,1.2936414882920682,-9.264147635397316,2.944903697827458,0.5092432312498992,-0.5819198282028518,0.1348393515598198,-1.156891613443349,0.7401187642098109,-0.3088882506214158,1.2366180593361709
2025-11-21 05:02:53.820,-1.2946902666926383,1.9709926144540308,-2.5931407627016303,0.2930907309055328,-0.7987949848175049,-0.3479921221733093,1.2436638438105585,-9.27600115479827,2.9290771831423044,0.5146904894821508,-0.5829912237729687,0.1374609530898056,-1.1692709768898426,0.7379117284347951,-0.3109855684150003,1.2403230281826754
2025-11-21 05:02:53.830,-1.0641735381007194,1.817983488434553,-1.5123939832016824,0.2997027337551117,-0.9109590649604796,-0.4439460933208465,1.1817884754601866,-9.28998759457469,2.910308185264468,0.5223215546163098,-0.5843475755030556,0.1405005225134537,-1.1850682915563218,0.7351966241844773,-0.3135019412169401,1.2447468667877115
2025-11-21 05:02:53.840,-0.6107903764743358,1.5360913773924112,-0.5357175267681479,0.238464668393135,-0.9308286309242249,-0.5651745796203613,1.10848497351408,-9.303778804039954,2.895053332987428,0.5337872814157409,-0.5859718471551831,0.1434162425993084,-1.2051269904929196,0.7320851993049896,-0.31641742859849,1.2491663793846213
2025-11-21 05:02:53.850,0.2584073366887867,1.096981582725048,0.1081613917723298,0.1384759247303009,-0.9407333135604858,-0.7112114429473877,1.0224906976252794,-9.316126828959584,2.8869854696050283,0.5506315895163972,-0.5879263479368841,0.1458375336802308,-1.2304092507289746,0.7286041348744168,-0.3197031304755335,1.253173672256331
2025-11-21 05:02:53.860,1.2339838690564036,0.46929538183361286,0.7129071543201804,-0.03435005340725185,-0.950492650270462,-0.894029974937439,0.8668531958635896,-9.329637760178745,2.893733482560515,0.5876328903163162,-0.5914478915983938,0.1483016252298776,-1.279804796197982,0.722633508538858,-0.3255552995941182,1.257617097956511
2025-11-21 05:02:53.870,1.6348761612713336,-0.0620762246847152,0.9174220111712812,-0.1916567236185073,-0.8602380752563477,-0.9365611672401428,0.6978247360005975,-9.336062532529237,2.91913592710346,0.6324177673537648,-0.5951518431274221,0.1495383533985517,-1.3361480855780754,0.7163919143083863,-0.3319866319446578,1.2597485211044988
2025-11-21 05:02:53.880,1.6895915017992258,-0.2651426362931728,0.7610355176731943,-0.2768560945987701,-0.7464160919189453,-0.8847319483757019,0.5895390967940911,-9.335157692644,2.9457874949246645,0.6629853946104821,-0.5974096772368026,0.1495935265240908,-1.373276214260332,0.7125166394255049,-0.3362194951434824,1.2594473650464717
2025-11-21 05:02:53.890,1.92440621984601,-0.1861333969861268,0.4124401066675782,-0.3403389453887939,-0.6197018623352051,-0.802000105381012,0.4910440165767445,-9.330669733574986,2.977899373978376,0.6917177655727375,-0.5993792770908822,0.1491068714681659,-1.4073708536065497,0.7090863990624422,-0.3401590887170281,1.2579567739444582
2025-11-21 05:02:53.900,2.0501421390146017,-0.0206616797566413,0.0964516647562384,-0.413270503282547,-0.5309874415397644,-0.7196314930915833,0.4034657228995114,-9.323010158732531,3.014813684877753,0.7176504512396588,-0.6009954340062587,0.1482302596690832,-1.4377590394029898,0.7061153594834755,-0.3438509282919029,1.255428767087809
2025-11-21 05:02:53.910,1.7491653882741929,0.0568166967213153,-0.3247136001586914,-0.5086542367935181,-0.4620080888271332,-0.6829464435577393,0.3237640808815136,-9.31175402070284,3.0588921883180737,0.7415135066931144,-0.6022985324842896,0.1469072332796669,-1.4653453740479168,0.7035096097016249,-0.347460939579689,1.2517489847683745
2025-11-21 05:02:53.920,1.5013275225251912,0.0666723203033208,-1.0397489986792203,-0.5979231595993042,-0.4624774754047394,-0.6732872128486633,0.2470384042006917,-9.296768633016944,3.111181763003766,0.7643564269805687,-0.6033766098011294,0.1451740743524986,-1.491559181641561,0.7010848376669175,-0.3511996780328463,1.2469125674673551
2025-11-21 05:02:53.930,1.0665899515926838,0.0053542205095291,-1.950672003220021,-0.6521406173706055,-0.5031101703643799,-0.6758179664611816,0.1695664757298305,-9.278694631665944,3.1697686842679977,0.786502336290909,-0.6042828399459204,0.1432740205454438,-1.517352365673635,0.698654354387528,-0.3552418408899861,1.2411705090266478
2025-11-21 05:02:53.940,0.8816203376889228,-0.07657704372406,-2.933952972485125,-0.6688411235809326,-0.5898014307022095,-0.6640463471412659,0.0904257463970687,-9.258564866828918,3.2312825988948344,0.807734314940979,-0.6050533065143227,0.1414259232332174,-1.54281915330145,0.6961387250009362,-0.3595831842300022,1.234886641180559
2025-11-21 05:02:53.950,0.85588851506114,-0.1550157896667718,-3.83560867472589,-0.6559988260269165,-0.7359032034873962,-0.6446923613548279,0.0088673369179741,-9.237437323126196,3.292424173077941,0.8275926937445712,-0.6056623118491492,0.1399484481548594,-1.5681030785786405,0.6934454212376548,-0.3643090112017387,1.2284109014605986
2025-11-21 05:02:53.960,0.684897157627344,-0.3336977016031742,-4.466420314161479,-0.6301235556602478,-0.8761848211288452,-0.6504999995231628,-0.0770696860792115,-9.216023363697529,3.3510216157361863,0.8463403425433373,-0.6061503845003526,0.1390023043081487,-1.593791136140147,0.6904700243060715,-0.3694741827623309,1.2219651763348855
2025-11-21 05:02:53.970,0.6294201850771903,-0.6044271981179714,-4.898392804294824,-0.6031587719917297,-0.9712839126586914,-0.685978889465332,-0.1692844621843658,-9.19459069956839,3.406056981998682,0.8649483136490184,-0.6066642200416871,0.1384537024155621,-1.620456473498963,0.6871676969537501,-0.3749528367819087,1.2156261596614557
2025-11-21 05:02:53.980,0.8727882119357585,-0.8545031981825828,-5.2293385768413545,-0.588721752166748,-1.0562152862548828,-0.7096432447433472,-0.2678031790056265,-9.172861682841182,3.4579289157941937,0.8836743126536125,-0.6072370052017244,0.1381855669554443,-1.648088163754788,0.683557312114098,-0.3806801572800848,1.2093083075717066
2025-11-21 05:02:53.990,1.1956617371857166,-0.9855746331602334,-5.452729399076103,-0.6028450131416321,-1.147730588912964,-0.6949924230575562,-0.3702600572597235,-9.15012845750749,3.5083380835607647,0.9017577149014004,-0.6077419278162481,0.1381639838414922,-1.6759442686725778,0.679729841351212,-0.3866881937222709,1.2028093908601474
2025-11-21 05:02:54.000,1.4660288301289082,-1.0772744272142647,-5.680803410691023,-0.6390039920806885,-1.2611967325210571,-0.6157600283622742,-0.4724351411640644,-9.125614193975926,3.559540155270696,0.9177061414952312,-0.6079403478531382,0.138429068552386,-1.7027487641161605,0.6758326547223584,-0.3930598189570922,1.1959221159214497
2025-11-21 05:02:54.010,1.470476018796116,-1.2371674675285815,-6.032922904169559,-0.658320963382721,-1.4325727224349976,-0.4732756018638611,-0.5701065204409882,-9.0996468090266,3.611337270264327,0.929807076712754,-0.6075713666995933,0.1392394104248522,-1.7273699420651345,0.6719709078916736,-0.3999054618182275,1.188755632775962
2025-11-21 05:02:54.020,0.9645278265435248,-1.4037024300754068,-6.147929924052954,-0.6319262385368347,-1.571891188621521,-0.2974989414215088,-0.6595663170158863,-9.0739214161396,3.66050345223248,0.9370364548229504,-0.6065122354927608,0.1408637541002176,-1.7490680520958748,0.6682280977366003,-0.4071503774318653,1.1817797431293262
2025-11-21 05:02:54.030,0.4275602997142821,-1.58327807598114,-5.793157870239019,-0.5582738518714905,-1.6086400747299194,-0.11685112118721,-0.7365622437391429,-9.050717066162823,3.703019528661668,0.9393950782886532,-0.6048474775821492,0.1432871271954766,-1.7671421907535858,0.664766469099554,-0.4143835793933595,1.1755878203914183
2025-11-21 05:02:54.040,0.372195482301712,-1.6183400370121002,-4.796515315097571,-0.4348669946193695,-1.6267437934875488,0.0212399028241634,-0.8003088858541101,-9.031966772985458,3.735434774576128,0.9379337492213962,-0.6027978501461593,0.1464011327269927,-1.7818534611270898,0.6616361137078263,-0.4212352674207102,1.1706507511938733
2025-11-21 05:02:54.050,0.9382031525891272,-1.729628913155198,-3.0360391359969974,-0.3067867755889892,-1.723932147026062,0.128834530711174,-0.8557524675913154,-9.018990971556306,3.754449563908577,0.934025748829765,-0.6005404410858834,0.1503699264021045,-1.7948980220200794,0.6586028651627082,-0.4277644357644895,1.1672676313269947
2025-11-21 05:02:54.060,1.2605074265837668,-2.184160733360052,-0.9510817041888832,-0.2751164436340332,-1.7571102380752563,0.1925295442342758,-0.9063155838105827,-9.010079935348031,3.763969964186847,0.9282751602510412,-0.5980593861306909,0.155059445429486,-1.8070854475178528,0.6555512896797933,-0.4342052564868766,1.1649597694592837
2025-11-21 05:02:54.070,1.7538731275737285,-2.968047257527709,-0.1214896599009633,-0.4338267147541046,-1.665948748588562,0.2372064590454101,-0.9516658607523888,-8.999070465555787,3.7790813163399695,0.9211746515353008,-0.5953081417236142,0.1594381488844496,-1.817491574369785,0.6527312426395748,-0.440601489606089,1.1621254613453234
2025-11-21 05:02:54.080,2.080430163642019,-2.958244240915775,-0.8675506035432219,-0.6144221425056458,-1.7176469564437866,0.4006058871746063,-0.9870279007084668,-8.98238879534602,3.809576115585864,0.9103030485491403,-0.5917713965944154,0.1634256579834712,-1.8243130011137167,0.6503597008846338,-0.4473600703035903,1.1578658338607912
2025-11-21 05:02:54.090,1.532348683732748,-2.842209631550312,-2.2010180523976683,-0.726777970790863,-1.7747142314910889,0.5703169107437134,-1.0101140311330556,-8.96165346583128,3.852119372282922,0.89448833189749,-0.5872489375784024,0.1674814971970019,-1.827245430774554,0.6484200028789995,-0.4545769114854707,1.1526281649200794
2025-11-21 05:02:54.100,1.2899603155612944,-3.117075789478421,-3.560713582964241,-0.7732706665992737,-1.788480281829834,0.7253867387771606,-1.0210619069311768,-8.939376167571544,3.9006905109673737,0.8745771211613899,-0.5819469853464089,0.1717394707777959,-1.8268163493107576,0.6468739754614615,-0.4619495364563295,1.1470687885302977
2025-11-21 05:02:54.110,1.4900724074088036,-3.76565192592442,-4.810131167995929,-0.8205100893974304,-1.735334038734436,0.8871399760246277,-1.0184146072927862,-8.916734127652644,3.952857920578122,0.8509871559778561,-0.5759872833845922,0.1761722152603676,-1.8229526233076847,0.6457853755935655,-0.4692156677477984,1.141487963803088
2025-11-21 05:02:54.120,2.1073530957505104,-5.099743644157051,-6.196313138949871,-0.8246320486068726,-1.7390910387039185,1.110633373260498,-0.9982396881397811,-8.894366813021898,4.008013990610838,0.8231708407436407,-0.5693157777322816,0.1808216140207033,-1.8148909697856488,0.6452965679032946,-0.4762096231130375,1.1360407558995165
2025-11-21 05:02:54.130,2.4379870258688925,-5.981184533625841,-6.720880033889412,-0.7460299134254456,-1.7638914585113523,1.3040562868118286,-0.961063584499061,-8.87498582072556,4.059725180886685,0.7910289852342729,-0.5619443383190819,0.1861710934666898,-1.8032482398138188,0.6452439351356392,-0.4829277020664006,1.1313719855677156
2025-11-21 05:02:54.140,2.985630260491371,-5.381323035988212,-5.8372857657790185,-0.5505754947662354,-1.6219193935394287,1.4380186796188354,-0.9080614776298404,-8.862531997343897,4.098945722901821,0.7563540440828882,-0.5543958664028129,0.192233892044414,-1.788810649213185,0.645560220935131,-0.4888184455699179,1.1283962725784809
2025-11-21 05:02:54.150,3.995228158795834,-5.439335079973936,-4.620520158027112,-0.374043345451355,-1.502557396888733,1.7296603918075562,-0.8320387067876756,-8.85898628756106,4.122675850318372,0.7184438436186089,-0.5467856957942203,0.1989756151661519,-1.7699413312481649,0.6465187677737515,-0.4934040629448341,1.1275523851634437
2025-11-21 05:02:54.160,4.196118979930877,-6.938294704324006,-4.23532607794255,-0.3626641929149627,-1.6617872714996338,2.27897047996521,-0.7201868629995734,-8.860143056380748,4.141203440655768,0.6713965715534292,-0.5379186668642613,0.206996012773516,-1.742981879596053,0.6484082701444209,-0.4973558257616766,1.127827576689331
2025-11-21 05:02:54.170,3.094083620947599,-7.929045278817415,-4.819404607775807,-0.3998384475708008,-2.016383409500122,2.9225995540618896,-0.5664050721071661,-8.861190519607067,4.162793925695121,0.6103319325297958,-0.5266348994171985,0.2170910622482991,-1.706029546109429,0.651147255124959,-0.5015319571130585,1.1280767623963284
2025-11-21 05:02:54.180,1.7559212922751903,-7.797554741644859,-5.644692817389965,-0.3502582609653473,-2.314708948135376,3.4822890758514404,-0.3734190327472984,-8.86055163718164,4.185876110596954,0.5351896030697305,-0.512837839691821,0.2295433432217141,-1.6597700896125105,0.6544239633434874,-0.5060004175122464,1.12792470676524
2025-11-21 05:02:54.190,0.6083715518295765,-6.835250509434938,-6.254709798339009,-0.2156852930784225,-2.5390748977661133,3.9231905937194815,-0.1474876591842621,-8.85829187555611,4.20467462683022,0.4487298333327295,-0.4971253914797827,0.2441158376059377,-1.6058590192067606,0.6579419872497329,-0.5102804355367688,1.1273873888444834
2025-11-21 05:02:54.200,-1.2585779198259115,-4.802565116655826,-6.425118387448787,0.0502371452748775,-2.576096296310425,4.190848350524902,0.1030762522614561,-8.85530730678737,4.212276918527484,0.3544122362934285,-0.4803001192209145,0.2604471211966151,-1.5463307728197302,0.6613793494312481,-0.5138641542037435,1.1266784709666304
2025-11-21 05:02:54.210,-2.782403689885139,-2.288188678589463,-6.077414372324943,0.5546539425849915,-2.238440990447998,4.276490688323975,0.3759316000901162,-8.857418599852918,4.192279547898471,0.2557577762553213,-0.4637902215659935,0.2779836425941777,-1.4813631644679648,0.6647498257742629,-0.5154914666665081,1.1271798020313626
2025-11-21 05:02:54.220,-2.542909874111414,-1.0194973610281943,-5.287232547405361,1.1097439527511597,-1.9491984844207764,4.181396961212158,0.6639105567652732,-8.870352315706015,4.128738803619146,0.1555169352244574,-0.4489421335088693,0.2963322990508966,-1.4113589286090025,0.6678602685652464,-0.5143937627681188,1.1302626031154177
2025-11-21 05:02:54.230,-2.375318680509925,-1.5887135450333356,-4.485290726587176,1.5057659149169922,-1.9378020763397217,3.9896774291992183,0.9468777496930212,-8.891156034281849,4.027549004425108,0.0552991392337318,-0.435743333261823,0.3154420094214871,-1.3398893756125951,0.6699057169160205,-0.5117132177323989,1.1352640133859233
2025-11-21 05:02:54.240,-4.08949283490181,-3.12435133343935,-3.724800860098004,1.7530263662338257,-1.884473443031311,3.687551975250244,1.2121117175314575,-8.914591270405053,3.902719386446476,-0.043054396012122,-0.4239785540659488,0.3347772383807831,-1.2696604041632888,0.6706151194842491,-0.5083716042901177,1.1409632943385049
2025-11-21 05:02:54.250,-5.620487181416154,-5.179969273516536,-3.216974964340031,1.8537466526031492,-1.8227488994598389,3.355051279067993,1.4539777423292397,-8.937140955865383,3.766144677877426,-0.1372187243029367,-0.4136472976850759,0.35355005001948,-1.2023600432007695,0.6701750705329467,-0.504741197947113,1.1465148635091464
2025-11-21 05:02:54.260,-6.236949685242772,-7.330095635327696,-2.889316250640153,1.8402037620544436,-1.827924489974976,3.157609462738037,1.675995668775588,-8.954815144243836,3.6294241310968993,-0.2273847343913889,-0.4041963985888896,0.371544721644114,-1.1381894039035194,0.6688845966582918,-0.5011719022184686,1.1509143027651756
2025-11-21 05:02:54.270,-6.293005334463715,-8.350514787375927,-2.701869140706956,1.7757188081741333,-1.947352647781372,3.1066105365753174,1.8882728301912544,-8.963603430855274,3.5012329277306797,-0.315694629131244,-0.3947483573319931,0.3890721431048102,-1.0761923580309385,0.667006760725632,-0.4978941785836797,1.153117978609714
2025-11-21 05:02:54.280,-6.120701140865683,-7.343331548997759,-2.8493437212139368,1.7137774229049685,-2.122763395309448,3.0651891231536865,2.0942526450283823,-8.96207958228886,3.386093513639271,-0.4027446628146821,-0.3847824412062356,0.4064352293911732,-1.016894692090826,0.6645206039263692,-0.495141700397789,1.1527351069118197
2025-11-21 05:02:54.290,-5.823036875674128,-5.130235813054442,-3.024631899058819,1.7074114084243774,-2.2360990047454834,2.942809581756592,2.290093343167007,-8.95305690239966,3.281559664714336,-0.4871323340110325,-0.3745517874471745,0.4235758877480589,-0.9615031189220266,0.6613212318747463,-0.4928982614550927,1.1504746752024675
2025-11-21 05:02:54.300,-5.263541290694475,-3.2760739267796275,-3.337454570415616,1.7817158699035645,-2.395942211151123,2.805114269256592,2.471603172005713,-8.940938594582676,3.18138254969418,-0.5684192693351098,-0.3644268295805075,0.4405545415215731,-0.9103028186139824,0.6572126782505245,-0.4910971286980589,1.1474565123650582
2025-11-21 05:02:54.310,-5.009840085870027,-2.5630390544265507,-3.274950767968595,1.9312238693237305,-2.5860631465911865,2.736121892929077,2.6397300799190995,-8.928380726304649,3.0799729702696204,-0.648468354845675,-0.3543637268355989,0.4578095397493171,-0.8622162328247979,0.651919649316984,-0.4897321447215755,1.1443500457535574
2025-11-21 05:02:54.320,-4.877378073316812,-2.822975938770175,-2.561233466309309,2.0466384887695312,-2.7572360038757324,2.7283802032470703,2.8017548715651035,-8.91459770014584,2.974981148444116,-0.72913746852645,-0.344213333386573,0.4755351506758608,-0.8153760593600983,0.6455355696658598,-0.4885360092899881,1.1409648521938651
2025-11-21 05:02:54.330,-4.908623106408119,-3.335751858150959,-1.5785349731072782,2.06335973739624,-2.967043161392212,2.7240004539489746,2.9603412131950257,-8.896374061191082,2.8742469840630887,-0.809722371797447,-0.3336129290906894,0.4935662620867739,-0.770643356868416,0.6382223597171889,-0.4876135865784889,1.1365269494571368
2025-11-21 05:02:54.340,-5.381846183079481,-3.652008011087775,-0.6805100285843014,2.012608289718628,-3.151104688644409,2.69968318939209,3.1139383682355284,-8.871911235585808,2.786210680952668,-0.8883130337745335,-0.3223500836955547,0.5115855985799025,-0.7299095000689323,0.6301165730606227,-0.487158853599284,1.130635543493249
2025-11-21 05:02:54.350,-5.756963105785847,-3.5873318330377337,-0.2387342295780777,1.9287525415420528,-3.276780605316162,2.6883203983306885,3.263402368994057,-8.84037043441832,2.7144883837834,-0.9636695646914144,-0.3104174522691189,0.5293098342675789,-0.6938309541697878,0.6214646950732758,-0.4870870519509783,1.1231466134201544
2025-11-21 05:02:54.360,-6.156884799402952,-3.1959464970976112,-0.6902829423189163,1.8966401815414429,-3.425067663192749,2.6835856437683105,3.409688031977415,-8.802146209964155,2.6583169992282984,-1.035913157769223,-0.297820267046153,0.5467516992952206,-0.6622001883890605,0.6122976415889675,-0.4872959840867485,1.1142243838542365
2025-11-21 05:02:54.370,-6.863564749771356,-2.816510542148352,-1.355501586008072,1.9599409103393557,-3.4516284465789795,2.637518882751465,3.552234216171503,-8.760202672725915,2.6097639807224278,-1.1061189849700106,-0.2849038876403237,0.5640184319887331,-0.6336255226095971,0.6024921264588011,-0.4875615107362714,1.104616885718658
2025-11-21 05:02:54.380,-7.279806294548511,-2.701529825749993,-1.989614605076611,2.105962991714477,-3.3877477645874023,2.5227530002593994,3.689102939251065,-8.719261590528488,2.5564427249014376,-1.1752893547360113,-0.2724100799831819,0.581056120306513,-0.605993167022023,0.5920015677483992,-0.4875457418016345,1.095412818731664
2025-11-21 05:02:54.390,-7.263658292824029,-2.830241545858979,-2.4361256159111857,2.2962441444396973,-3.376138925552368,2.378535032272339,3.816306885145604,-8.683024740499258,2.492239425060153,-1.2441649475506105,-0.260683063753387,0.5978961224363878,-0.5785163876099708,0.5806011378347906,-0.4873056949443538,1.087401464543159
2025-11-21 05:02:54.400,-7.431897721201181,-2.896762474992871,-2.2194113488309086,2.46212100982666,-3.3229868412017822,2.2587716579437256,3.934268663181365,-8.651817701330781,2.4161845055140554,-1.3133620618829922,-0.2497088870586089,0.6145832687150822,-0.5507504098835876,0.5682245743358082,-0.4868815002140046,1.0805988418347836
2025-11-21 05:02:54.410,-7.572106986880302,-2.6003099236786364,-1.5063237233772873,2.583498477935791,-3.211005449295044,2.1168344020843506,4.045597579073906,-8.624455647152661,2.328582356037199,-1.3825411638239735,-0.239591763182983,0.6309167902253106,-0.5222732628290516,0.5551685342248008,-0.4861354868523355,1.0747048461430346
2025-11-21 05:02:54.420,-7.376931036260723,-2.2004151180684564,-0.461783837159723,2.611907720565796,-3.145370960235596,1.98820960521698,4.149097993297874,-8.600127846103906,2.234540821162611,-1.4506582964711252,-0.2302189667781697,0.6466858815402882,-0.4940181753918396,0.5416110172481704,-0.4852361253891161,1.0695179543647466
2025-11-21 05:02:54.430,-7.019530387508869,-1.5783996562898155,0.3964375047631561,2.5527963638305664,-3.204836845397949,1.9010597467422483,4.246296677029132,-8.57525936230719,2.1457557455115017,-1.516424773269597,-0.2209867031373797,0.661802315714179,-0.4678977453034809,0.5277484885782111,-0.484421297805006,1.0642660083484463
2025-11-21 05:02:54.440,-6.841522429311275,-0.6564660129129887,1.0570131449520588,2.4495725631713867,-3.3260090351104736,1.8262629508972168,4.336588357850909,-8.548191907161474,2.0719091496646405,-1.5790883931434736,-0.2113110927287777,0.6762983957759348,-0.4457092257228165,0.5135416072024566,-0.4839867223512206,1.0586056263482388
2025-11-21 05:02:54.450,-6.736302643948793,0.586093084526062,1.6266173053614794,2.320142984390259,-3.366233587265014,1.7160354852676392,4.419164057467878,-8.519429338535666,2.0151127650789915,-1.6379625712108432,-0.2011970599183065,0.6900289048242757,-0.4278274327899776,0.4991739872210928,-0.4839473887168524,1.0526526428061462
2025-11-21 05:02:54.460,-6.79337653030157,1.959513189062476,2.0206812128610907,2.1772232055664062,-3.35532283782959,1.5354150533676147,4.490452931655943,-8.491792559069395,1.97374483577162,-1.692300623298958,-0.1909831505836531,0.7027358539633575,-0.4141234953239926,0.4848831003370031,-0.484330522370574,1.0469904823821783
2025-11-21 05:02:54.470,-7.127409747469425,3.24529651120007,2.240211268014461,2.0438878536224365,-3.338284969329834,1.3339065313339231,4.546310720217227,-8.468397070434689,1.9461998262420293,-1.741989916591409,-0.1808552650836408,0.7143151835484636,-0.4044793480978106,0.4706922216154232,-0.4852772732727681,1.042240368863635
2025-11-21 05:02:54.480,-7.548157956016063,4.440460235735774,2.181721961905807,1.9199891090393064,-3.2142043113708496,1.1098172664642334,4.586231519456208,-8.450897069579362,1.9285237381674347,-1.7873120279094332,-0.1710647801866967,0.7247283728960404,-0.3980554278064047,0.4567291365308824,-0.4867279690140755,1.0387123476075977
2025-11-21 05:02:54.490,-7.702612604668736,5.582496765717864,1.8185054664820437,1.797345757484436,-2.9770166873931885,0.8192489147186279,4.608555871728062,-8.442071373566984,1.9139051379673184,-1.8282704502199647,-0.1621603291708971,0.7338196420132241,-0.3936208551028576,0.4432604050288178,-0.4886031772086994,1.0369411112659597
2025-11-21 05:02:54.500,-7.538786901080608,6.454107166045904,1.6134700928881764,1.6583467721939087,-2.660308361053467,0.4835781455039978,4.61052834084481,-8.444736208862066,1.8973275126539169,-1.864568407936375,-0.1546176520167287,0.741417681641584,-0.3903983243710013,0.4305478130659597,-0.4909397650170261,1.0374753056928168
2025-11-21 05:02:54.510,-7.156743978503346,7.133028171873092,1.589388813946396,1.503454566001892,-2.342489719390869,0.1193762049078941,4.589860815869272,-8.460463354825974,1.877265552356094,-1.8958093303148085,-0.148645225928122,0.7474223113815878,-0.3882431837829708,0.4187811890174216,-0.4938489902003433,1.040638269232155
2025-11-21 05:02:54.520,-6.584860621115565,7.641315547662973,1.6861996674038469,1.3152588605880735,-2.0992953777313232,-0.2484085857868194,4.5433547930210825,-8.489611123377085,1.8587151656650005,-1.9212040586244328,-0.1440020537802263,0.7517848580611918,-0.388331904972752,0.4080027021905532,-0.497611069205292,1.0465458877344946
2025-11-21 05:02:54.530,-5.823738886463642,7.993954681101441,1.911727940058708,1.108390212059021,-1.9092066287994385,-0.6061446070671082,4.470267637239396,-8.531154847642778,1.8456725826099516,-1.9404335436944933,-0.1403794620665956,0.7545716256619274,-0.39155807232288,0.3981733666228043,-0.5023677807645457,1.0550718666033243
2025-11-21 05:02:54.540,-4.775507013860345,7.811734073644876,2.290332266489416,0.8765960931777954,-1.7698180675506592,-0.946466624736786,4.370438020482659,-8.583564249315858,1.841760231471807,-1.9530446660736165,-0.1375003459243403,0.7558372448078677,-0.3988286723601003,0.389281809889459,-0.5081961571842929,1.0660143473245691
2025-11-21 05:02:54.550,-3.7143636372357607,7.408042798361182,2.629026315075159,0.6135156750679016,-1.6420936584472656,-1.2877546548843384,4.243482204130292,-8.645096868643163,1.850824120154232,-1.9581817509622603,-0.1351293489708372,0.7555852508878708,-0.411282583922984,0.3813769700539238,-0.5151530614894951,1.0791451164161836
2025-11-21 05:02:54.560,-2.6896079172879457,6.748548962059616,2.933886336989701,0.3034726977348327,-1.5162122249603271,-1.6245510578155518,4.088420237234234,-8.714038887444138,1.8763640734717248,-1.954493341800041,-0.1331306375869525,0.7537480324004072,-0.4302684694269311,0.3745869941243156,-0.5232827251246823,1.094250426450938
2025-11-21 05:02:54.570,-1.5055179599523545,5.718093569165468,3.3342192417562004,-0.0906825885176658,-1.3878912925720217,-1.9155818223953247,3.906602949881553,-8.786711909466982,1.9241959380961955,-1.939945134464944,-0.131286191883547,0.7502518360594298,-0.4576696016130867,0.3691929681882907,-0.5325247614738331,1.110667365187305
2025-11-21 05:02:54.580,-0.0853244138032197,4.250814446714521,3.505643729910254,-0.5563008785247803,-1.3311145305633545,-2.107938766479492,3.703112759903073,-8.856809528043865,2.003564073843509,-1.9123762437230267,-0.1290786347891683,0.7451496182807382,-0.4959448099747104,0.3654563029974901,-0.542708487707627,1.1270351788302655
2025-11-21 05:02:54.590,0.936566856624186,2.289867425456643,3.697597211351991,-1.019361972808838,-1.3182357549667358,-2.18233060836792,3.4855233174234628,-8.917615586662292,2.120761443378031,-1.8710018234818369,-0.1259444416043745,0.7386837905975253,-0.5466084916193196,0.3633983908544283,-0.553557374679887,1.1417039444062789
2025-11-21 05:02:54.600,1.7803063764691351,-0.2461199559152126,4.231649727517366,-1.3841521739959717,-1.3888105154037476,-2.056044816970825,3.26622181032896,-8.962877454668282,2.2735458207309245,-1.8182606447782488,-0.1215140629026823,0.7313923095383329,-0.608089054898461,0.3627620407389048,-0.5645381944009044,1.1529356129054478
2025-11-21 05:02:54.610,2.404238485524058,-3.304375307634473,5.2498319142937655,-1.638325810432434,-1.5344290733337402,-1.66756272315979,3.064267451615631,-8.986258914777636,2.4551576486393807,-1.7605169641860137,-0.1153046589372399,0.7241952976631092,-0.6754854450967158,0.363008716912355,-0.5748657896168042,1.1588503338396965
2025-11-21 05:02:54.620,3.071806907209754,-6.213168996682763,6.14359043354392,-1.7039483785629272,-1.5625358819961548,-1.1022289991378784,2.900229858842492,-8.984774229177832,2.651958570112288,-1.7062237604912516,-0.1073869579989351,0.7179977290287741,-0.7407120113474328,0.3637991659778418,-0.5836072966993261,1.158472376612051
2025-11-21 05:02:54.630,5.5639107231915,-8.482918347740172,5.933021683481336,-1.5021121501922607,-1.6763330698013306,-0.469803124666214,2.786165965028107,-8.962730739673972,2.842026383937895,-1.6639998892655152,-0.0983646185484746,0.7135894383465482,-0.7953229129401466,0.3644790339973111,-0.5901435975168395,1.1528986321652592
2025-11-21 05:02:54.640,8.650933319711685,-9.84435867614746,4.740729714989662,-1.0685179233551023,-1.909484624862671,0.1337928473949432,2.7195789849206804,-8.929624588885902,3.006009031653404,-1.6396744159884722,-0.0884898975931995,0.7116136373146248,-0.8353827594265466,0.3636840220220547,-0.5945667265879863,1.1446568353731483
2025-11-21 05:02:54.650,8.936645281302928,-9.94786581237316,2.7580779346629978,-0.6757094264030457,-1.7849541902542114,0.5463466048240662,2.693637903456389,-8.893603427433968,3.1334538005664943,-1.6324243853247795,-0.0786065738823742,0.7118964004769098,-0.8607330609160867,0.3613045446349131,-0.5970625515399982,1.1358559994577744
2025-11-21 05:02:54.660,6.920259281417727,-8.257271855533123,-0.1852180357068777,-0.2783095240592956,-1.088115692138672,0.6493921279907227,2.702335881435871,-8.861718927395343,3.215229874238372,-1.6362487582904963,-0.0708668364834539,0.7134311632564226,-0.8718552210603305,0.3588826795129465,-0.5976596874978816,1.12820260458231
2025-11-21 05:02:54.670,4.235237230615318,-5.828074869841337,-2.011682936760783,0.1160010248422622,-0.1133361980319023,0.4708295464515686,2.7359295234799386,-8.843442681470513,3.237064981688559,-1.6458183758907694,-0.0675039811633515,0.7152902082741797,-0.8691023163598319,0.3575660496945517,-0.5966151392320767,1.123870947446583
2025-11-21 05:02:54.680,2.4713567960292098,-2.973071223169565,-2.4304490315794944,0.3760108947753906,0.6856696605682373,0.1751963496208191,2.775236866995692,-8.842613244909048,3.20572145665884,-1.655499944492324,-0.0687961863417861,0.7166288549514256,-0.8572501047826141,0.3576882031456286,-0.5947851588509413,1.123675207809202
2025-11-21 05:02:54.690,2.470886548168957,-0.2645370716154575,-3.069737115198373,0.5074647665023804,1.0304476022720337,0.0019409477245062,2.8104227466672658,-8.85467719219029,3.1411142521917816,-1.6637788135855025,-0.0731716230254077,0.7173554950453231,-0.8409051126516086,0.3587377798414559,-0.5927514020383946,1.1265289860903096
2025-11-21 05:02:54.700,2.2268571347922084,1.7995558513402938,-3.555586449208856,0.4545686244964599,1.0702000856399536,0.0019790902733802,2.843613068607449,-8.86978299138546,3.06776786095202,-1.6716220916154971,-0.0783904831478825,0.7178592488162497,-0.8232992284816834,0.3600861243827075,-0.590653046980978,1.1301265027099945
2025-11-21 05:02:54.710,-1.122299563854933,2.281987485861778,-2.969404225094616,0.2849375009536743,1.0884592533111572,-0.1782018691301345,2.8711145312562585,-8.882801462912559,3.0038208739593624,-1.6766334879653149,-0.0834673661090692,0.7179233837432104,-0.8079828818620176,0.3619008056693615,-0.5887674418425015,1.1332490261554502
2025-11-21 05:02:54.720,-6.562226764503121,-1.467979964196682,-0.3074582217141985,0.254755824804306,0.8589242696762085,-0.6802948713302612,2.867674327674508,-8.902504526770114,2.9482626528665423,-1.6754070216560517,-0.0885690978688352,0.7169743760717456,-0.7992537205013619,0.3635361661754133,-0.5881707323763329,1.13801511168362
2025-11-21 05:02:54.730,-8.239010222655534,-9.010195086160302,0.0564563389763236,-0.2700514793395996,-0.3486900925636291,-1.2319401502609253,2.791453257781267,-8.929557953390479,2.939587763501704,-1.6584521881259922,-0.091522857241246,0.7139451605996431,-0.8112401659293722,0.364152289443805,-0.5910152796036069,1.144640404010561
2025-11-21 05:02:54.740,-9.829014976543188,-14.71208161689043,-0.5176508319407701,-0.4280671179294586,-1.4151873588562012,-1.314053654670715,2.649103180681169,-8.953255055320263,2.998642302277684,-1.629446486488873,-0.0893479275032327,0.7099119536109593,-0.8472093433954229,0.362065829492348,-0.5974531541031406,1.1505241770851171
2025-11-21 05:02:54.750,-12.925586322653292,-11.73970948190093,-3.814211374171078,-0.199111983180046,-1.2317101955413818,-1.412326693534851,2.487017014236748,-8.977916033846139,3.0630308955579992,-1.598893559502054,-0.0859519281367507,0.7058780127491638,-0.8888132864579985,0.3585231262946648,-0.6048220290209848,1.15673070239372
2025-11-21 05:02:54.760,-12.14568448420763,-3.571849017223716,-7.740106761282682,0.0551889650523662,-1.116342544555664,-1.7017762660980225,2.314194349722564,-9.012972734180092,3.095355540579557,-1.5675029933031015,-0.0845683293645652,0.7015691317007897,-0.9288108973612867,0.354671616864936,-0.6122557632910685,1.1657076689117487
2025-11-21 05:02:54.770,-9.410850939270851,3.719434364628792,-8.803824372309446,0.146477609872818,-1.4102660417556765,-1.892641544342041,2.1115286278694865,-9.056408555802705,3.113405284272134,-1.5311668540121124,-0.0837001092063109,0.6967031086936257,-0.9748477515849464,0.3496608915264311,-0.6207546146695918,1.1770979279864011
2025-11-21 05:02:54.780,-4.942880180796981,7.539440981075167,-6.752633016502857,0.1104056686162948,-1.8335087299346924,-1.5760210752487185,1.9025433476060627,-9.09612097298801,3.132301415660977,-1.4942018557759864,-0.0816712022072304,0.692121226565855,-1.0249572797314603,0.3434690897181082,-0.6295451548897071,1.1877923120647154
2025-11-21 05:02:54.790,-0.5722440073937177,7.909305390080809,-2.71095407217741,-0.1028786450624466,-2.558988094329834,-0.9526304006576538,1.7186175436668096,-9.119574329289794,3.1701918781161305,-1.4649060269261234,-0.0763278454745568,0.6890149371788369,-1.0740248156206245,0.3359815351351731,-0.637611911884521,1.1942435373241451
2025-11-21 05:02:54.800,0.1789075373858213,7.377175366410612,0.5392760960325599,-0.2220152914524078,-2.627603054046631,-0.3569263219833374,1.5764909000590444,-9.124493665513397,3.2293469546571374,-1.4474028521102968,-0.0677590383334379,0.687646368676135,-1.116652291752778,0.327904167324919,-0.6442282580343126,1.19561007418516
