time,acc_z,acc_y,acc_x,gyr_z,gyr_y,gyr_x,grav_z,grav_y,grav_x,qz,qy,qx,qw,roll,pitch,yaw
2025-11-21 05:02:50.390,-2.1486616134643555,-2.1220078468322754,-0.0924766585230827,1.554707646369934,1.3160953521728516,0.6029219031333923,6.124485492706299,-7.659031867980957,-0.017300933599472,-0.8673843145370483,0.4172683656215668,-0.1167273595929145,0.2447575628757476,0.0028248780872672,0.8962716460227966,2.5901784896850586
2025-11-21 05:02:50.400,-1.6708087921142578,-0.9113831520080566,1.0548986196517944,1.2915949821472168,1.4002487659454346,0.3035914003849029,6.142740726470947,-7.641776561737059,-0.2009054273366928,-0.8673459887504578,0.4186771214008331,-0.1073165386915206,0.2467865794897079,0.032694473862648,0.8934593200683594,2.5715198516845703
2025-11-21 05:02:50.410,-1.2587833404541016,1.504133701324463,0.8130636215209961,1.188267469406128,0.8761541843414307,-0.051131185144186,6.136384963989258,-7.641744613647461,-0.3448162972927093,-0.8662973642349243,0.4206323623657226,-0.1009942665696144,0.2497948557138443,0.0561330392956733,0.8934539556503296,2.5532329082489014
2025-11-21 05:02:50.420,-0.6279134750366211,4.746782302856445,0.1314559280872345,1.1722888946533203,0.2443378269672393,-0.5613778233528137,6.097076416015625,-7.667693614959717,-0.4500218033790588,-0.8637160062789917,0.4236314594745636,-0.0983463749289512,0.254674345254898,0.0736758410930633,0.8976871371269226,2.5326287746429443
2025-11-21 05:02:50.430,-1.1445164680480957,6.921545028686523,0.8728272914886475,1.1094402074813845,-0.1966686397790908,-1.0204932689666748,6.025486946105957,-7.719498157501221,-0.5227346420288086,-0.8600142002105713,0.427913099527359,-0.0983670204877853,0.25998055934906,0.0865372717380523,0.9062063694000244,2.5123112201690674
2025-11-21 05:02:50.440,-3.1830527782440186,7.448258876800537,2.1199300289154053,0.8218272924423218,-0.5247604250907898,-1.356041669845581,5.9263529777526855,-7.79389762878418,-0.5512555837631226,-0.855901300907135,0.4332441091537475,-0.1006956696510315,0.26380455493927,0.0927508175373077,0.9186060428619384,2.497735977172852
2025-11-21 05:02:50.450,-5.537397861480713,6.860515117645264,3.1982421875,0.3914731442928314,-0.6227618455886841,-1.6596330404281616,5.7970781326293945,-7.891397953033447,-0.5386178493499756,-0.8517150282859802,0.4398871660232544,-0.104549266397953,0.2648589313030243,0.092645950615406,0.9351676106452942,2.491804838180542
2025-11-21 05:02:50.460,-6.798910140991211,5.749250411987305,4.079224586486816,0.0175763443112373,-0.5567173957824707,-1.9397892951965328,5.6403489112854,-8.006747245788574,-0.4988579750061035,-0.8475376963615417,0.4478088915348053,-0.1090387925505638,0.2631684243679046,0.0882149934768676,0.9552549123764038,2.4937703609466557
2025-11-21 05:02:50.470,-6.891098499298096,5.010287284851074,4.763692855834961,-0.2977326214313507,-0.5130428671836853,-2.1730754375457764,5.460301876068115,-8.134268760681152,-0.434940755367279,-0.8432688117027283,0.4566860795021057,-0.1141924858093261,0.2594140172004699,0.0794872567057609,0.9781482815742492,2.5023913383483887
2025-11-21 05:02:50.480,-6.449881076812744,5.4116058349609375,4.932656288146973,-0.6279548406600952,-0.4608464241027832,-2.338186502456665,5.263566017150879,-8.267119407653809,-0.3464082777500152,-0.8389570116996765,0.4660680890083313,-0.120055615901947,0.2540045380592346,0.0657176971435546,1.0028575658798218,2.5175817012786865
2025-11-21 05:02:50.490,-5.782769680023193,6.753881454467773,4.450984001159668,-0.9539161920547484,-0.3596493005752563,-2.441647291183472,5.056591033935547,-8.399114608764648,-0.2369479984045028,-0.834662675857544,0.4756043553352356,-0.1264361441135406,0.2472906410694122,0.0468249395489692,1.02839457988739,2.539064884185791
2025-11-21 05:02:50.500,-4.931477546691895,8.259623527526855,3.5167038440704346,-1.211702585220337,-0.2936048507690429,-2.5087568759918213,4.842721939086914,-8.526796340942383,-0.1103646084666252,-0.8302865624427795,0.4850826859474182,-0.133359283208847,0.2398631274700164,0.0227858424186706,1.0541713237762451,2.5658605098724365
2025-11-21 05:02:50.510,-4.237152576446533,9.595406532287598,2.3442177772521973,-1.3661613464355469,-0.3468665182590484,-2.5439095497131348,4.62519121170044,-8.647375106811523,0.029933288693428,-0.8256877660751343,0.4942592978477478,-0.1410269886255264,0.232505664229393,-0.0064717209897935,1.0796374082565308,2.5965049266815186
2025-11-21 05:02:50.520,-4.260605812072754,10.7347412109375,1.4155068397521973,-1.427944898605347,-0.5354127287864685,-2.56308388710022,4.401957511901856,-8.761245727539062,0.1836587637662887,-0.8206908702850342,0.5031342506408691,-0.1497282534837722,0.2256189435720443,-0.0416978672146797,1.1048535108566284,2.630728244781494
2025-11-21 05:02:50.530,-4.943577289581299,11.80429458618164,1.2931556701660156,-1.4684237241744995,-0.8741568326950073,-2.6525633335113525,4.165002346038818,-8.871088981628418,0.3562712073326111,-0.8150658011436462,0.5119255781173706,-0.1599255353212356,0.2191432863473892,-0.0853315368294715,1.1304386854171753,2.670424699783325
2025-11-21 05:02:50.540,-5.238085746765137,12.2959623336792,1.580845832824707,-1.5632294416427612,-1.189465880393982,-2.8538923263549805,3.902333021163941,-8.979866027832031,0.5515293478965759,-0.8085774779319763,0.5210965871810913,-0.1717402338981628,0.2125231921672821,-0.1404033452272415,1.157225251197815,2.719343662261963
2025-11-21 05:02:50.550,-4.919105529785156,11.843688011169434,0.9146209359169006,-1.6591004133224487,-1.2789454460144043,-3.0818521976470947,3.612728118896485,-9.085553169250488,0.7558608651161194,-0.8012027144432068,0.5308713316917419,-0.1843307018280029,0.2056017816066742,-0.2062465697526931,1.1849188804626465,2.778299331665039
2025-11-21 05:02:50.560,-4.101683616638184,10.409497261047363,-0.4130181074142456,-1.571751356124878,-1.275749683380127,-3.2661375999450684,3.300130605697632,-9.186029434204102,0.9467666149139404,-0.792818009853363,0.5412625670433044,-0.1969136297702789,0.1992471367120742,-0.2793840765953064,1.213124394416809,2.843656539916992
2025-11-21 05:02:50.570,-2.599861860275269,8.377394676208496,-1.3731307983398438,-1.278812289237976,-1.4611002206802368,-3.3268558979034424,2.9772889614105225,-9.277594566345217,1.110121250152588,-0.7834438681602478,0.5516319274902344,-0.2095298171043396,0.1949749588966369,-0.3568960428237915,1.2408244609832764,2.910106897354126
2025-11-21 05:02:50.580,-0.6205885410308838,6.183831691741943,-1.4000908136367798,-0.9858731627464294,-1.8073009252548216,-3.150027275085449,2.662621259689331,-9.354803085327148,1.2523914575576782,-0.773572564125061,0.5609476566314697,-0.2226698249578476,0.1932391971349716,-0.4396561086177826,1.266054630279541,2.977020263671875
2025-11-21 05:02:50.590,1.8232629299163816,3.596867561340332,-1.666212797164917,-0.8793498873710632,-2.1247403621673584,-2.763347625732422,2.3796002864837646,-9.412020683288574,1.3862698078155518,-0.764050304889679,0.5680679678916931,-0.2365860342979431,0.1937858611345291,-0.5275004506111145,1.2861429452896118,3.044116497039795
2025-11-21 05:02:50.600,5.931571006774902,-0.0624599456787109,-3.52924919128418,-0.858045220375061,-2.347374200820923,-2.303033828735352,2.138471841812134,-9.450305938720703,1.512963056564331,-0.755066454410553,0.5723826885223389,-0.2516869902610779,0.1972469836473465,-0.6157399415969849,1.3003917932510376,3.1050970554351807
2025-11-21 05:02:50.610,10.565033912658691,-4.474997520446777,-6.547187805175781,-0.6812165379524231,-2.1769368648529053,-1.6287412643432615,1.9730674028396609,-9.4713134765625,1.603619933128357,-0.7476440072059631,0.5733575224876404,-0.265824556350708,0.2040267288684845,-0.6824698448181152,1.308531403541565,3.1376182527542116
2025-11-21 05:02:50.620,10.33098316192627,-8.900836944580078,-7.947903156280518,-0.2966673970222473,-1.0690945386886597,-0.6402050256729126,1.9162172079086304,-9.478750228881836,1.628428339958191,-0.743809700012207,0.5721359252929688,-0.2737893164157867,0.2108247131109237,-0.704386293888092,1.3114726543426514,3.1376182527542116
2025-11-21 05:02:50.630,8.18348217010498,-11.682393074035645,-5.2115983963012695,0.1017297506332397,0.2390116602182388,0.0085218641906976,1.935760259628296,-9.480323791503906,1.595830321311951,-0.7433847784996033,0.5710054636001587,-0.2743290662765503,0.2146517932415008,-0.689439594745636,1.312098741531372,3.1187193393707275
2025-11-21 05:02:50.640,7.570011138916016,-12.98630142211914,0.7566840648651123,0.4223648905754089,0.4616453647613525,0.0809577107429504,1.962877988815308,-9.483550071716309,1.5426558256149292,-0.7436935901641846,0.5708316564559937,-0.2721622586250305,0.2167920768260955,-0.6660935282707214,1.313387751579285,3.095475673675537
2025-11-21 05:02:50.650,7.667500495910644,-9.944449424743652,5.480894088745117,0.4841484129428863,-0.1466026902198791,-0.0458050183951854,1.969633102416992,-9.487643241882324,1.5084896087646484,-0.7432631254196167,0.570755660533905,-0.2716885209083557,0.2190508097410202,-0.6535832285881042,1.315032958984375,3.0803279876708984
2025-11-21 05:02:50.660,7.634082794189453,-3.19034481048584,6.573190689086914,0.3722989559173584,-0.5908048748970032,0.0159784946590662,1.9787455797195437,-9.487237930297852,1.499091386795044,-0.7427436709403992,0.5696884989738464,-0.273069679737091,0.2218552678823471,-0.6483452916145325,1.314869046211243,3.0687079429626465
2025-11-21 05:02:50.670,6.062023162841797,2.537150382995605,6.202713489532471,0.3786903321743011,-0.500260055065155,0.3291569948196411,2.0182034969329834,-9.480560302734377,1.4886970520019531,-0.7432776093482971,0.5676475763320923,-0.2736356556415558,0.2245844453573227,-0.6355404853820801,1.3121931552886963,3.0507476329803467
2025-11-21 05:02:50.680,4.734505653381348,5.999761581420898,7.849611282348633,0.5256925225257874,-0.2424736618995666,0.5240946412086487,2.078607082366944,-9.471246719360352,1.4646742343902588,-0.7447797656059265,0.565600574016571,-0.2722435593605041,0.2264564484357834,-0.6138348579406738,1.308504939079285,3.0281262397766118
2025-11-21 05:02:50.690,4.816431045532227,5.605442523956299,11.515425682067873,0.3829512596130371,-0.0869496464729309,0.463376373052597,2.135255813598633,-9.459343910217283,1.4600998163223269,-0.7468767166137695,0.5639877319335938,-0.2702778577804565,0.2259267121553421,-0.5997743010520935,1.3038638830184937,3.01763916015625
2025-11-21 05:02:50.700,4.104348182678223,1.5480737686157229,13.266505241394045,-0.2199706137180328,0.1708367466926574,0.2013290375471115,2.1665689945220947,-9.444311141967772,1.5104135274887085,-0.7493915557861328,0.5632206797599792,-0.2689204514026642,0.2210804373025894,-0.6088074445724487,1.2981131076812744,3.0358376502990723
2025-11-21 05:02:50.710,2.708627700805664,-2.7011280059814453,13.080716133117676,-0.882545530796051,0.2006632685661316,-0.1139799356460571,2.1627357006073,-9.42685890197754,1.6208925247192385,-0.7516553997993469,0.5631722807884216,-0.2693847715854645,0.2127980887889862,-0.6431580781936646,1.2915812730789185,3.081754446029663
2025-11-21 05:02:50.720,-4.539403915405273,-7.903812408447266,10.916021347045898,-1.1115707159042358,-0.2978657782077789,-0.2918738424777984,2.113867282867432,-9.413658142089844,1.7564146518707275,-0.7525330781936646,0.5642712116241455,-0.2716997861862182,0.203644722700119,-0.6933011412620544,1.2867379188537598,-3.1365978918075563
2025-11-21 05:02:50.730,-2.538017749786377,-20.37250518798828,7.931675434112549,-0.5928021669387817,-0.6003919839859009,-0.6945319175720215,2.0200119018554688,-9.41916561126709,1.835551381111145,-0.749345064163208,0.5651288032531738,-0.27533659338951105,0.2079859748482704,-0.7029327154159546,1.2925090789794922,-0.0017603635787968308
2025-11-21 05:02:50.740,6.515484094619751,-28.88079261779785,-12.131498098373413,0.6790860295295715,-0.2403431981801986,-0.5304860472679138,2.117672920227051,-9.44331979751587,1.556058943271637,-0.7461570501327515,0.5659863948822021,-0.2789734005928039,0.2123272269964218,-0.7125642895698547,1.2982802391052246,3.1376182527542116
2025-11-21 05:02:50.750,15.56898593902588,-37.38908004760742,-26.71695251083374,1.9153555929660797,3.3821148350834846,1.1931275427341461,2.215333938598633,-9.467473983764648,1.276566505432129,-0.7490077018737793,0.565653920173645,-0.259007841348648,0.2278992384672165,-0.5227665305137634,1.30702543258667,2.954954147338867
2025-11-21 05:02:50.760,-3.971289873123169,-11.039381980895996,-8.731972694396973,3.151625156402588,5.782119976043728,2.916741132736206,2.5510096549987797,-9.436503410339355,0.784296989440918,-0.7610992193222046,0.5668836832046509,-0.2204031646251678,0.2253736555576324,-0.2982735931873321,1.2951724529266355,2.792144775390625
2025-11-21 05:02:50.770,-15.852302551269531,4.768433570861816,3.853739261627197,1.356574296951294,1.954169988632202,2.931654453277588,2.8101367950439453,-9.375282287597656,0.6144962906837463,-0.7703832387924194,0.5615888833999634,-0.2033243775367736,0.2231295704841613,-0.2152827084064483,1.2730931043624878,2.737165927886963
2025-11-21 05:02:50.780,-21.904682159423828,9.4835844039917,0.6155859231948853,-0.026098208501935,-0.8826786875724792,1.6681549549102783,2.9193267822265625,-9.339658737182615,0.6470702886581421,-0.7742378115653992,0.5569158792495728,-0.2024857848882675,0.2222611457109451,-0.2181240171194076,1.2609490156173706,2.7419769763946533
2025-11-21 05:02:50.790,-18.167631149291992,14.288100242614746,0.6552292108535767,-0.6343462467193604,-0.1199718713760376,0.2833519876003265,2.9142653942108154,-9.336261749267578,0.7153000831604004,-0.7756813168525696,0.557117760181427,-0.2025674879550933,0.2165747880935669,-0.2406896352767944,1.2598148584365845,2.772902011871338
2025-11-21 05:02:50.800,-1.072490930557251,17.433095932006836,-2.8153507709503174,-0.9826774597167968,0.1015966013073921,-0.5954652428627014,2.868791341781616,-9.343354225158691,0.8013468980789185,-0.7750868797302246,0.5578474998474121,-0.2062487155199051,0.2133259624242782,-0.2723896503448486,1.262187361717224,2.804069757461548
2025-11-21 05:02:50.810,4.64483642578125,9.48407745361328,-7.281810283660889,-0.6449986100196838,-0.6387403607368469,-0.4878767132759094,2.8349804878234863,-9.348087310791016,0.8640279769897461,-0.7731420397758484,0.5569290518760681,-0.2128057330846786,0.2163218259811401,-0.2958306074142456,1.263780117034912,2.813240528106689
2025-11-21 05:02:50.820,-3.0840864181518555,-0.4267778396606445,-6.883048057556152,0.2135792225599289,-1.2001181840896606,-0.6295527219772339,2.7580435276031494,-9.37137508392334,0.8607662916183472,-0.7690727114677429,0.55842524766922,-0.2180371433496475,0.2216940522193908,-0.3025141060352325,1.2717379331588743,2.804361581802368
2025-11-21 05:02:50.830,-5.678159236907959,-7.614766120910644,-4.44622802734375,0.8058487772941589,-1.2597712278366089,-1.2782796621322632,2.6085145473480225,-9.418896675109863,0.8064896464347839,-0.7625556588172913,0.563778281211853,-0.2217133194208145,0.2269495278596878,-0.2998535931110382,1.2886501550674438,2.789067029953003
2025-11-21 05:02:50.840,-4.253195762634277,-13.694854736328123,-0.7727141380310059,0.7121082544326782,-0.999854326248169,-1.6053061485290527,2.429649829864502,-9.470460891723633,0.7599776387214661,-0.7557756304740906,0.5706880688667297,-0.2245828211307525,0.2295231819152832,-0.3031519055366516,1.308195948600769,2.785069465637207
2025-11-21 05:02:50.850,-2.733363389968872,-14.566253662109377,1.1246631145477295,0.065511830151081,-0.2350170314311981,-1.686263918876648,2.251976251602173,-9.51430606842041,0.7595802545547485,-0.7505064606666565,0.5778496861457825,-0.2264307588338852,0.2270658463239669,-0.3253118097782135,1.3260103464126587,2.8089241981506348
2025-11-21 05:02:50.860,-0.9947140216827391,-8.327303886413574,0.8058270215988159,-0.4266258180141449,0.2240983992815017,-1.6404588222503662,2.089471340179444,-9.548334121704102,0.7961265444755554,-0.7464272379875183,0.5842429399490356,-0.2283129245042801,0.2222154885530471,-0.364036500453949,1.340764045715332,2.852712392807007
2025-11-21 05:02:50.870,-0.9214646816253662,-1.1003198623657229,0.0812135338783264,-0.4937354922294616,-0.3766930401325226,-1.449782133102417,1.943408489227295,-9.57436752319336,0.8514885902404785,-0.7422232031822205,0.58888179063797,-0.2326628267765045,0.219524398446083,-0.4129490256309509,1.3527122735977173,2.899587869644165
2025-11-21 05:02:50.880,-1.0474371910095217,3.2772932052612305,-0.1756882667541504,-0.418103963136673,-1.0477898120880127,-1.3059756755828855,1.806861162185669,-9.595518112182615,0.9119598269462584,-0.7375603318214417,0.5921727418899536,-0.239180251955986,0.2193833887577057,-0.467416912317276,1.3629162311553955,2.9448435306549072
2025-11-21 05:02:50.890,-0.7943300008773804,5.177535057067871,-0.0650775432586669,-0.3978645205497741,-1.1628350019454956,-1.250583529472351,1.674989938735962,-9.613533973693848,0.9719851016998292,-0.7328858971595764,0.5950416922569275,-0.2460175901651382,0.2197247296571731,-0.5258030295372009,1.3720130920410156,2.992748022079468
2025-11-21 05:02:50.900,-0.405264139175415,5.619866371154785,0.3971776962280273,-0.3957340717315674,-0.9551145434379578,-1.203713297843933,1.550593018531799,-9.628565788269045,1.0279936790466309,-0.7286431789398193,0.5978779196739197,-0.2519598305225372,0.2194022089242935,-0.5854375958442688,1.3799309730529783,3.044187307357788
2025-11-21 05:02:50.910,0.1763923168182373,5.3585205078125,1.1653518676757812,-0.3637770712375641,-0.6632407307624817,-1.1248860359191897,1.4366271495819092,-9.6408109664917,1.0776116847991943,-0.724990725517273,0.600741446018219,-0.2566361427307129,0.218256801366806,-0.6435641646385193,1.3866291046142578,3.0972135066986084
2025-11-21 05:02:50.920,0.7481899261474609,4.830286979675293,1.881694793701172,-0.306254506111145,-0.4171718955039978,-1.0151671171188354,1.3366844654083252,-9.650446891784668,1.1191657781600952,-0.7219714522361755,0.6034955382347107,-0.2600792348384857,0.2165852338075637,-0.6970569491386414,1.3920745849609375,-3.1349740028381348
2025-11-21 05:02:50.930,0.9669685959815979,4.434382438659668,1.9393896460533142,-0.27056919038295746,-0.30798550695180893,-0.9453943371772766,1.2948467135429382,-9.654203414916992,1.134948968887329,-0.7207677066326141,0.6047594249248505,-0.26123611629009247,0.215662695467472,-0.7199658751487732,1.3942551016807556,-3.1123491525650024
2025-11-21 05:02:50.940,1.1857472658157349,4.038477897644043,1.9970844984054563,-0.2348838746547699,-0.19879911839962,-0.8756215572357178,1.2530089616775513,-9.657959938049316,1.150732159614563,-0.7195639610290527,0.6060233116149902,-0.2623929977416992,0.2147401571273803,-0.742874801158905,1.3964356184005735,-3.08972430229187
2025-11-21 05:02:50.950,1.6458245515823364,3.108112335205078,1.6638611555099487,-0.15925233066082,0.0302259866148233,-0.7073147296905518,1.189390778541565,-9.66358757019043,1.1708205938339231,-0.7178487777709961,0.6081918478012085,-0.2635537981986999,0.212920531630516,-0.7775302529335022,1.399775743484497,-3.0539710521698
2025-11-21 05:02:50.960,2.006326675415039,2.416783332824707,1.2593226432800293,-0.1219691783189773,0.2912080883979797,-0.514507532119751,1.148300290107727,-9.667068481445312,1.1830366849899292,-0.71697998046875,0.6099132895469666,-0.263550341129303,0.2109188735485077,-0.8002970814704895,1.401875138282776,-3.028117418289185
2025-11-21 05:02:50.970,2.5336785316467285,2.431711196899414,0.8737106323242188,-0.135817214846611,0.5234288573265076,-0.3025261759757995,1.1318458318710327,-9.667770385742188,1.1931177377700806,-0.7170515060424805,0.6109903454780579,-0.2626456022262573,0.2086749076843261,-0.8117458820343018,1.4023007154464722,-3.011911392211914
2025-11-21 05:02:50.980,3.5194828510284424,3.035540580749512,0.364038348197937,-0.1858831644058227,0.6716294288635254,-0.0394136235117912,1.1456369161605835,-9.664639472961426,1.2052576541900637,-0.7181535959243774,0.610990047454834,-0.2613042891025543,0.2065591216087341,-0.810753583908081,1.4004076719284058,-3.007756471633911
2025-11-21 05:02:50.990,4.358150005340576,3.59749698638916,-0.314083456993103,-0.2082530558109283,0.8314144015312195,0.3206351399421692,1.1988178491592407,-9.65684700012207,1.2159478664398191,-0.7205474376678467,0.6096257567405701,-0.2592946887016296,0.2047781646251678,-0.7924919724464417,1.3957834243774414,-3.020457029342652
2025-11-21 05:02:51.000,4.766398906707764,4.270652770996094,-0.4247893095016479,-0.1720351278781891,1.0231562852859497,0.6998580694198608,1.292135238647461,-9.644295692443848,1.2199761867523191,-0.7242903709411621,0.6070384979248047,-0.256171315908432,0.2031847089529037,-0.7566820383071899,1.3885798454284668,-3.049401998519897
2025-11-21 05:02:51.010,5.187755107879639,5.128025054931641,0.1683530807495117,-0.1486000120639801,1.1999850273132324,1.0460587739944458,1.423009157180786,-9.625872611999512,1.2198468446731567,-0.7293631434440613,0.6033144593238831,-0.251909464597702,0.2014515101909637,-0.7086766958236694,1.378488540649414,-3.0887300968170166
2025-11-21 05:02:51.020,5.980246067047119,5.779692649841309,1.4593182802200315,-0.2018616646528244,1.3661613464355469,1.4050424098968506,1.592761516571045,-9.598734855651855,1.2238463163375854,-0.735889732837677,0.5982623100280762,-0.2467264682054519,0.1991846710443496,-0.6551609039306641,1.3645106554031372,-3.131542921066284
2025-11-21 05:02:51.030,5.891388893127441,6.364407539367676,2.700156211853028,-0.3563204407691955,1.4375319480895996,1.746982216835022,1.7964249849319458,-9.560349464416504,1.2421574592590332,-0.7437452673912048,0.5918207764625549,-0.24115552008152,0.1960489898920059,-0.6049719452857971,1.3462013006210327,3.1138432025909424
2025-11-21 05:02:51.040,4.276841163635254,7.232997417449951,2.707876443862915,-0.5491276383399963,1.3906617164611816,1.8758753538131716,2.008079290390014,-9.513517379760742,1.2770971059799194,-0.7519919872283936,0.5847611427307129,-0.2359467297792434,0.1920719444751739,-0.5664557814598083,1.325679063796997,3.088292598724365
2025-11-21 05:02:51.050,1.1869621276855469,7.825658798217773,1.7596503496170044,-0.6545857191085815,1.3704222440719604,1.6873290538787842,2.1943247318267822,-9.466753959655762,1.3175301551818848,-0.7595133185386658,0.5785840153694153,-0.2310002744197845,0.1871334910392761,-0.5407329201698303,1.3067442178726196,3.076585292816162
2025-11-21 05:02:51.060,-2.187729597091675,8.407092094421387,0.350409984588623,-0.6982602477073669,1.5451204776763916,1.3251498937606812,2.3409132957458496,-9.426626205444336,1.3524881601333618,-0.7659316062927246,0.5742362141609192,-0.2256089150905609,0.1808372288942337,-0.5239067077636719,1.2914949655532837,3.076572895050049
2025-11-21 05:02:51.070,-4.479598045349121,8.672442436218262,-2.091667890548706,-0.7025212049484253,1.6889269351959229,1.0141018629074097,2.4549803733825684,-9.394104957580566,1.376319169998169,-0.771243155002594,0.5713232755661011,-0.2200467586517334,0.1742215305566787,-0.5109627842903137,1.2797077894210815,3.0812809467315674
2025-11-21 05:02:51.080,-4.904376029968262,8.344253540039062,-4.7848711013793945,-0.5704323053359985,1.532337665557861,0.8596430420875549,2.5517609119415283,-9.36729907989502,1.382968783378601,-0.7755002379417419,0.5688467025756836,-0.2151972502470016,0.1694195121526718,-0.4966546893119812,1.2703304290771484,3.0809359550476074
2025-11-21 05:02:51.090,-3.030111074447632,7.551863670349121,-6.505015850067139,-0.3414071798324585,1.2383333444595337,0.9161003828048706,2.653837919235229,-9.340898513793944,1.3693552017211914,-0.7792460918426514,0.5657387375831604,-0.2112619578838348,0.167581558227539,-0.4763579070568084,1.2613639831542969,3.068835020065308
2025-11-21 05:02:51.100,-0.9946093559265136,5.689560890197754,-7.231919288635254,-0.1304910480976104,0.8047835230827332,1.1302121877670288,2.773500919342041,-9.309822082519531,1.3436126708984375,-0.7828862071037292,0.561337411403656,-0.2085452526807785,0.1688147187232971,-0.4511274993419647,1.2511215209960938,3.0453546047210693
2025-11-21 05:02:51.110,0.3128306865692138,2.942668914794922,-6.944576263427734,-0.0303591415286064,0.4147751033306122,1.3144975900650024,2.9057364463806152,-9.273048400878906,1.3181990385055542,-0.7865098714828491,0.5558933615684509,-0.2069571316242218,0.171911358833313,-0.4258884787559509,1.2393964529037476,3.0173275470733643
2025-11-21 05:02:51.120,2.274892568588257,0.1017932891845703,-6.196284294128418,-0.0591204315423965,0.0142474919557571,1.4231513738632202,3.04460883140564,-9.22989273071289,1.3076106309890747,-0.7900485992431641,0.5494893789291382,-0.2069531083106994,0.1762243956327438,-0.4056623578071594,1.226126194000244,2.990031480789185
2025-11-21 05:02:51.130,3.9749715328216553,-2.4953527450561523,-5.722983360290527,-0.1752308309078216,-0.5971962809562683,1.6915900707244873,3.201322555541992,-9.173910140991213,1.3271387815475464,-0.793745219707489,0.5412039160728455,-0.2094667106866836,0.182182639837265,-0.3929942548274994,1.2096105813980105,2.963839530944824
2025-11-21 05:02:51.140,3.0223422050476074,-4.848176002502441,-5.782329559326172,-0.3467333614826202,-1.150052189826965,2.22101092338562,3.393574953079224,-9.096548080444336,1.3808903694152832,-0.7982563972473145,0.5302985906600952,-0.2139141112565994,0.1892377138137817,-0.3864518105983734,1.1879087686538696,2.938804149627685
2025-11-21 05:02:51.150,2.7360424995422363,-7.011799812316895,-5.391119956970215,-0.521431565284729,-1.3588378429412842,2.846435785293579,3.634166955947876,-8.990592002868652,1.4602925777435305,-0.8041732907295227,0.5165687203407288,-0.2187824845314026,0.1964594721794128,-0.3820770382881164,1.159955382347107,2.9144389629364014
2025-11-21 05:02:51.160,5.674365997314453,-9.874600410461426,-4.620608329772949,-0.6567161679267883,-1.4547088146209717,3.641099691390991,3.961802244186402,-8.832991600036621,1.5661338567733765,-0.8124462366104126,0.4979244172573089,-0.2237757593393325,0.20476034283638,-0.3764553964138031,1.1214112043380735,2.88590669631958
2025-11-21 05:02:51.170,6.301543712615967,-14.442729949951172,-3.92634916305542,-0.6503247618675232,-1.7764092683792114,4.333500862121582,4.313696384429932,-8.645002365112305,1.6811738014221191,-0.8211046457290649,0.4772518277168274,-0.2286774516105651,0.213832825422287,-0.3716210126876831,1.0791246891021729,2.8562607765197754
2025-11-21 05:02:51.180,4.78046464920044,-19.85406875610352,-2.7544989585876465,-0.3776251077651977,-2.088522434234619,4.375045299530029,4.643214702606201,-8.449707984924316,1.7925927639007568,-0.8287522792816162,0.4569072723388672,-0.2334474027156829,0.2234004139900207,-0.3684378862380981,1.03847336769104,2.8271801471710205
2025-11-21 05:02:51.190,3.5408473014831543,-25.27827835083008,-0.0765442848205566,0.1656437367200851,-1.841388463973999,3.944690942764282,4.920088291168213,-8.277535438537598,1.856211304664612,-0.8348566293716431,0.439997911453247,-0.2356843948364257,0.2320971041917801,-0.3607609868049621,1.0048352479934692,2.7990009784698486
2025-11-21 05:02:51.200,-0.7307019233703613,-27.93375015258789,4.19020938873291,0.9730903506278992,-1.3172937631607056,3.531380653381348,5.15443229675293,-8.136821746826172,1.8423774242401123,-0.8399509191513062,0.4273467063903808,-0.2336062937974929,0.2393436431884765,-0.3432835042476654,0.9786146879196168,2.770500421524048
2025-11-21 05:02:51.210,-3.097255229949951,-22.234703063964844,11.92518138885498,2.0500409603118896,-0.1785596907138824,2.5779969692230225,5.328376293182373,-8.05402660369873,1.7062982320785522,-0.8437851071357727,0.4214703142642975,-0.22514708340168,0.2443322092294693,-0.3099102079868316,0.963654637336731,2.7408878803253174
2025-11-21 05:02:51.220,2.082903861999512,-10.696781158447266,15.533828735351562,2.712615966796875,1.0327434539794922,1.2995842695236206,5.438011169433594,-8.028265953063965,1.464702010154724,-0.8457704186439514,0.4214955568313598,-0.2123206555843353,0.2488650232553482,-0.2631013989448547,0.9590656161308287,2.7066478729248047
2025-11-21 05:02:51.230,2.402566909790039,-2.744368553161621,12.797815322875977,2.5794618129730225,0.7941312193870544,0.9746882319450378,5.526242256164551,-8.005491256713867,1.2422397136688232,-0.846683919429779,0.4214265048503876,-0.20159313082695,0.254727840423584,-0.221113845705986,0.955033004283905,2.671872854232788
2025-11-21 05:02:51.240,-1.4861531257629397,-0.479619026184082,9.030475616455078,1.8391247987747192,0.7430000305175781,1.1760172843933103,5.62506628036499,-7.960808753967285,1.074500322341919,-0.8485456109046936,0.4197498857975006,-0.1923836767673492,0.2583968341350555,-0.1887462884187698,0.947187840938568,2.6473445892333984
2025-11-21 05:02:51.250,-2.987036228179932,0.0027360916137695,5.522665977478027,1.06683087348938,1.1115707159042358,0.99599289894104,5.71034574508667,-7.9170732498168945,0.9393042325973512,-0.8507513403892517,0.419302836060524,-0.18336987495422358,0.25825655460357666,-0.16295789927244186,0.941044420003891,2.635275363922119
2025-11-21 05:02:51.260,-3.3616729974746704,0.5281338691711426,2.978090137243271,0.8133054375648499,1.497184991836548,0.6061176061630249,5.752203702926636,-7.902390480041504,0.779206246137619,-0.8529570698738098,0.4188557863235473,-0.174356073141098,0.2581162750720978,-0.1371695101261139,0.934900999069214,2.62320613861084
2025-11-21 05:02:51.270,-3.736309766769409,1.0535316467285156,0.4335142970085144,0.9390029311180116,1.785863161087036,0.2098509073257446,5.794061660766602,-7.887707710266113,0.619108259677887,-0.8538123369216919,0.4214593470096588,-0.1641860902309417,0.2577196955680847,-0.1064482927322387,0.9345341324806212,2.6090383529663086
2025-11-21 05:02:51.280,-1.988376259803772,0.5105772018432617,0.23901756107807154,1.062037318944931,1.7208839654922485,-0.20345950126647952,5.763457536697388,-7.920856475830078,0.4077756553888321,-0.8529645502567291,0.42718449234962463,-0.15332345664501185,0.2574980556964874,-0.0703505557030439,0.9402675032615662,2.59085750579834
2025-11-21 05:02:51.290,-0.2404427528381347,-0.0323772430419921,0.0445208251476287,1.1850717067718506,1.655904769897461,-0.6167699098587036,5.732853412628174,-7.954005241394043,0.1964430510997772,-0.8521167635917664,0.4329096376895904,-0.142460823059082,0.2572764158248901,-0.0342528186738491,0.946000874042511,2.572676658630371
2025-11-21 05:02:51.300,-3.832440853118897,-1.992647171020508,-3.16699743270874,1.2457900047302246,0.7142387628555298,-0.8170337080955505,5.659547805786133,-8.008599281311035,0.0473634824156761,-0.8488883972167969,0.4387672245502472,-0.1375743001699447,0.2606629431247711,-0.0083686113357543,0.9555822610855104,2.550076484680176
2025-11-21 05:02:51.310,1.3680334091186523,-1.976724624633789,-2.069871425628662,1.174419403076172,0.4371449947357178,-0.9427312016487122,5.583286762237549,-8.061718940734863,-0.0773508995771408,-0.8452965617179871,0.4441232681274414,-0.1344846189022064,0.2648435533046722,0.0138531299307942,0.96503084897995,2.527082920074463
2025-11-21 05:02:51.320,1.971806526184082,-1.076828956604004,0.8877820372581482,0.8260881900787354,-1.260836482048035,-0.6231613159179688,5.535704135894775,-8.094517707824707,-0.0718609094619751,-0.8420092463493347,0.4455058872699737,-0.138860285282135,0.270671010017395,0.0129806352779269,0.9709299802780152,2.5126936435699463
2025-11-21 05:02:51.330,-0.5944395065307617,0.3086013793945312,3.829503297805786,0.3584509193897247,-2.6392478942871094,-0.4111799597740173,5.501894474029541,-8.117668151855469,0.0550525896251201,-0.8391543030738831,0.4439850449562073,-0.1495284587144851,0.2762943208217621,-0.0100057870149612,0.9751243591308594,2.510750293731689
2025-11-21 05:02:51.340,-3.681736469268799,1.458348274230957,4.550161838531494,-0.0814903229475021,-2.917273759841919,-0.6199656128883362,5.44223165512085,-8.1546049118042,0.2343464493751526,-0.8362128734588623,0.4428811073303222,-0.1624183505773544,0.2796867191791534,-0.0430341772735118,0.9818713068962096,2.519057512283325
2025-11-21 05:02:51.350,-5.309437274932861,2.804160118103028,3.294602394104004,-0.2881455421447754,-2.4901154041290283,-1.0449936389923096,5.341967582702637,-8.214129447937012,0.4022935926914215,-0.8326792120933533,0.4440441727638244,-0.1745285391807556,0.2810869514942169,-0.0751662328839302,0.9928898215293884,2.531207323074341
2025-11-21 05:02:51.360,-5.629728317260742,4.447332382202148,2.7504959106445312,-0.2316881865262985,-1.9500422477722168,-1.3752158880233765,5.21324634552002,-8.289042472839355,0.5331224203109741,-0.8285983204841614,0.4472885727882385,-0.1847466975450515,0.2814718186855316,-0.1019088104367256,1.0070273876190186,2.542832851409912
2025-11-21 05:02:51.370,-5.397143840789795,6.174519062042236,2.717871904373169,-0.1315562725067138,-1.504774808883667,-1.5381964445114136,5.072025299072266,-8.369450569152832,0.6302589774131775,-0.8242955803871155,0.4517606496810913,-0.1931604593992233,0.2813149988651275,-0.123628057539463,1.0225627422332764,2.5532443523406982
2025-11-21 05:02:51.380,-5.193038940429688,7.645645618438721,2.4444096088409424,-0.1539261788129806,-1.2704235315322876,-1.6223498582839966,4.924275875091553,-8.450479507446289,0.7150441408157349,-0.8199308514595032,0.4567336738109588,-0.200813740491867,0.2806805968284607,-0.1442000567913055,1.0386284589767456,2.564483880996704
2025-11-21 05:02:51.390,-5.00930118560791,8.811519622802734,1.844428300857544,-0.2423405200242996,-1.153247952461243,-1.6830681562423706,4.771045684814453,-8.530503273010254,0.7987579703330994,-0.8155102133750916,0.4618938565254211,-0.2083228826522827,0.2796402871608734,-0.1658793538808822,1.0549371242523191,2.577692031860352
2025-11-21 05:02:51.400,-4.981335163116455,9.629268646240234,0.983912229537964,-0.2870802879333496,-0.9945281744003296,-1.7341994047164917,4.613227844238281,-8.609430313110352,0.8753464818000793,-0.8110275864601135,0.4673332571983337,-0.2153845131397247,0.2782864868640899,-0.1875178068876266,1.0714954137802124,2.592046976089477
2025-11-21 05:02:51.410,-5.049716472625732,9.922423362731934,0.1865319013595581,-0.2423405200242996,-0.7718944549560547,-1.809830904006958,4.44830846786499,-8.689590454101562,0.9348590970039368,-0.8063748478889465,0.4734069108963012,-0.2215520143508911,0.2766952216625213,-0.207145944237709,1.0888439416885376,2.60620379447937
2025-11-21 05:02:51.420,-5.03582239151001,9.759061813354492,-0.040039837360382,-0.135817214846611,-0.5769568085670471,-1.933397889137268,4.271891117095947,-8.7733154296875,0.9748165011405944,-0.8013966083526611,0.4803714752197265,-0.2267981767654419,0.2748986780643463,-0.2243516892194748,1.1076005697250366,2.6197855472564697
2025-11-21 05:02:51.430,-4.930065631866455,9.47591495513916,0.3938359022140503,-0.050598569214344,-0.4885424971580505,-2.101704835891724,4.078856945037842,-8.861495971679688,1.0035970211029053,-0.7959598302841187,0.4882521331310272,-0.2316161543130874,0.2727851867675781,-0.2412562221288681,1.128149390220642,2.6343307495117188
2025-11-21 05:02:51.440,-4.797669887542725,9.262975692749023,0.9952292442321776,-0.0442071706056594,-0.4949339032173157,-2.278533458709717,3.867288589477539,-8.952550888061523,1.0326135158538818,-0.7900428175926208,0.4968491494655609,-0.2365673035383224,0.2702020704746246,-0.2609249949455261,1.1503483057022097,2.652229070663452
2025-11-21 05:02:51.450,-4.467380046844482,9.217177391052246,1.1509255170822144,-0.1027949899435043,-0.5045210123062134,-2.417146921157837,3.6408495903015137,-9.043049812316896,1.066696286201477,-0.783746600151062,0.5058549046516418,-0.2418245524168014,0.2671571969985962,-0.2850041389465332,1.173561930656433,2.674770832061768
2025-11-21 05:02:51.460,-3.602472305297852,9.323238372802734,0.9826894998550416,-0.1784265339374542,-0.5034557580947876,-2.500235080718994,3.405353546142578,-9.129627227783203,1.106287121772766,-0.7771684527397156,0.5149353742599487,-0.247420385479927,0.2638823688030243,-0.3141116201877594,1.1970410346984863,2.7020931243896484
2025-11-21 05:02:51.470,-2.352626323699951,9.283032417297363,0.7175946235656738,-0.2466014474630355,-0.4746944606304168,-2.490648031234741,3.1714794635772705,-9.20819854736328,1.149433732032776,-0.7705788016319275,0.5236585140228271,-0.2531429231166839,0.260593056678772,-0.3477035164833069,1.2196378707885742,2.73356294631958
2025-11-21 05:02:51.480,-1.035350322723389,8.979851722717285,0.4735134840011596,-0.3126458823680877,-0.4246285259723663,-2.3905160427093506,2.947776556015014,-9.276399612426758,1.1955784559249878,-0.7642382383346558,0.5317121744155884,-0.2588192522525787,0.2573610842227936,-0.3853130340576172,1.2404485940933228,2.768821477890014
2025-11-21 05:02:51.490,0.5028254985809326,8.183904647827148,0.2739357948303222,-0.4031907021999359,-0.4672378301620483,-2.2391197681427,2.738793134689331,-9.333120346069336,1.2499094009399414,-0.7582160830497742,0.5387194752693176,-0.2648428976535797,0.2544562220573425,-0.4281404316425323,1.2587697505950928,2.808022737503052
2025-11-21 05:02:51.500,2.24424409866333,6.824214458465576,0.2521708011627197,-0.5161054134368896,-0.6291532516479492,-2.0409865379333496,2.547770738601685,-9.377750396728516,1.3179693222045898,-0.752530038356781,0.5443122982978821,-0.2717056572437286,0.2521878182888031,-0.4773939847946167,1.2739522457122805,2.8511276245117188
2025-11-21 05:02:51.510,3.830089092254639,4.873044490814209,0.3421155214309692,-0.6694989800453186,-0.7026543617248535,-1.8066352605819704,2.3791072368621826,-9.409964561462402,1.4010000228881836,-0.7474749088287354,0.5484462380409241,-0.2791164815425873,0.2501638829708099,-0.532200276851654,1.2853970527648926,2.8983049392700195
2025-11-21 05:02:51.520,5.641480445861816,2.159876823425293,0.1379951238632202,-0.8324795961380005,-0.6962629556655884,-1.5371313095092771,2.237386465072632,-9.429903984069824,1.497134804725647,-0.7432238459587097,0.551033616065979,-0.2868571579456329,0.2483813315629959,-0.5897160172462463,1.2927100658416748,2.9470458030700684
2025-11-21 05:02:51.530,7.645870208740234,-1.4262800216674805,-0.5841901302337646,-0.8836107850074768,-0.6355446577072144,-1.1227556467056274,2.138605117797852,-9.437211036682127,1.592421293258667,-0.7400792837142944,0.5516793727874756,-0.2942980527877807,0.2476311326026916,-0.6400409936904907,1.295437574386597,2.987179756164551
2025-11-21 05:02:51.540,8.530527114868164,-5.424405097961426,-0.903290629386902,-0.7099778056144714,-0.5183690190315247,-0.5837476849555969,2.092587471008301,-9.434882164001465,1.6656701564788818,-0.7382481098175049,0.5505899786949158,-0.300263911485672,0.2483585476875305,-0.6722884774208069,1.2945653200149536,3.0090014934539795
2025-11-21 05:02:51.550,7.741146087646484,-8.649567604064941,-0.0793801546096801,-0.413843035697937,-0.4725640118122101,-0.2897433936595917,2.071457862854004,-9.431586265563965,1.710152506828308,-0.7369652390480042,0.549180269241333,-0.304608017206192,0.2499943971633911,-0.6901444792747498,1.2933357954025269,3.0174949169158936
2025-11-21 05:02:51.560,6.48547887802124,-8.107893943786621,1.620668888092041,-0.2157096862792968,-0.1380808353424072,-0.3738967776298523,2.0450055599212646,-9.433113098144531,1.7334128618240356,-0.7359207272529602,0.5491234660148621,-0.3069155812263489,0.2503736913204193,-0.7031181454658508,1.2939047813415527,3.026322841644287
2025-11-21 05:02:51.570,5.8371100425720215,-4.007414817810059,3.076048851013184,-0.2338186502456665,0.469101995229721,-0.505985677242279,2.0170044898986816,-9.435824394226074,1.751366376876831,-0.7357115745544434,0.5503784418106079,-0.3069934546947479,0.2481271028518676,-0.7150232195854187,1.2949182987213137,3.0416626930236816
2025-11-21 05:02:51.580,5.254237651824951,0.2617387771606445,3.747026920318604,-0.3158415853977203,0.8921326398849487,-0.4505935609340668,2.0024759769439697,-9.435022354125977,1.7722392082214355,-0.7365652322769165,0.5518580675125122,-0.3055402040481567,0.2440686225891113,-0.7244792580604553,1.294617772102356,3.059664487838745
2025-11-21 05:02:51.590,4.4223737716674805,3.262035369873047,4.484776973724365,-0.3371462523937225,1.0721570253372192,-0.2876129150390625,2.006272554397583,-9.429960250854492,1.7947489023208618,-0.7383105158805847,0.5530416369438171,-0.3030734360218048,0.2391421794891357,-0.7298063039779663,1.292730689048767,3.076343536376953
2025-11-21 05:02:51.600,5.20784330368042,4.649774551391602,5.714774131774902,-0.4074516296386719,1.1286144256591797,-0.1480673849582672,2.0271260738372803,-9.419452667236328,1.8262144327163696,-0.7407503128051758,0.553548276424408,-0.3003824651241302,0.2337598800659179,-0.7333057522773743,1.2888540029525757,3.09210467338562
2025-11-21 05:02:51.610,6.788254737854004,2.3176393508911133,8.25409984588623,-0.6045197248458862,1.1073096990585327,-0.0596530511975288,2.058838367462158,-9.40168285369873,1.881470799446106,-0.743833065032959,0.5533313751220703,-0.2980819344520569,0.2273409515619278,-0.7404148578643799,1.2824126482009888,3.1122946739196777
2025-11-21 05:02:51.620,5.951739311218262,-3.797396659851074,11.96703052520752,-0.9208939671516418,1.1030488014221191,-0.0713706091046333,2.084493398666382,-9.377375602722168,1.9723320007324217,-0.7474730610847473,0.5532847046852112,-0.2959669232368469,0.2180908769369125,-0.7577575445175171,1.2738217115402222,-3.1365561485290527
2025-11-21 05:02:51.630,2.658114433288574,-7.277381896972656,10.41244888305664,-1.2692251205444336,0.859110414981842,-0.1555240154266357,2.0887701511383057,-9.349737167358398,2.095196008682251,-0.7505803108215332,0.5533742308616638,-0.2954307794570923,0.207670047879219,-0.7869341373443604,1.2643375396728516,-3.091116189956665
2025-11-21 05:02:51.640,-9.655781745910645,-10.83078384399414,6.200430870056152,-1.187202215194702,0.8378057479858398,-0.100131906569004,2.0678935050964355,-9.330498695373535,2.1990911960601807,-0.7530508637428284,0.5554488897323608,-0.2933313548564911,0.1958253979682922,-0.816135585308075,1.2578998804092407,-3.0409464836120605
2025-11-21 05:02:51.650,-9.044055938720703,-20.215274810791016,3.846812009811402,-0.5235620141029358,0.6929340958595276,-0.597595751285553,1.9950740337371824,-9.33824634552002,2.2332077026367188,-0.7526718974113464,0.5600551962852478,-0.2908912897109985,0.1876311600208282,-0.8416579961776733,1.2604771852493286,-2.999046564102173
2025-11-21 05:02:51.660,25.639539123536252,-44.90827941894531,-18.521339416503903,0.7909355163574219,0.0994661301374435,-0.5475297570228577,1.9951744079589844,-9.372124671936035,2.086369514465332,-0.7479587197303772,0.5576209425926208,-0.2955220639705658,0.2056290507316589,-0.8077377676963806,1.2719974517822266,-3.0668745040893555
2025-11-21 05:02:51.670,22.54953384399414,-41.11919403076172,-26.71695251083374,2.7616167068481445,5.562247276306152,1.504109025001526,2.277822256088257,-9.404062271118164,1.595467448234558,-0.7526510953903198,0.5562891960144043,-0.2727741301059723,0.2228293418884277,-0.6110181212425232,1.2832671403884888,3.0287129878997803
2025-11-21 05:02:51.680,-5.01536226272583,-12.352985382080078,-8.512645721435547,2.869338274002075,5.782119976043728,2.8432400226593018,2.6399929523468018,-9.380703926086426,1.0969111919403076,-0.7667388916015625,0.5588231086730957,-0.2304659336805343,0.2161333262920379,-0.3937946557998657,1.2749836444854736,2.8854494094848637
2025-11-21 05:02:51.690,-19.689414978027344,4.164557456970215,4.884686470031738,0.9464595317840576,1.6143606901168823,2.6333892345428467,2.863646984100342,-9.328095436096191,0.9780368208885192,-0.7753456234931946,0.5544766187667847,-0.2157551795244217,0.211765170097351,-0.3291141390800476,1.2571046352386477,2.848604440689087
2025-11-21 05:02:51.700,-22.043811378479003,10.454946517944336,-1.9316998720169067,-0.5714974999427795,-1.6336679458618164,1.1621692180633545,2.904851198196411,-9.30404281616211,1.0802907943725586,-0.7771358489990234,0.5509557127952576,-0.2198673635721206,0.2101572006940841,-0.3560431897640228,1.249251365661621,2.87135910987854
2025-11-21 05:02:51.710,-21.3554801940918,16.21470832824707,-2.9821219444274902,-1.0252867937088013,-0.7122414112091064,-0.5208989381790161,2.8107659816741943,-9.318716049194336,1.1964645385742188,-0.7756864428520203,0.5535452961921692,-0.22422856092453,0.2040092051029205,-0.4024398922920227,1.2540199756622314,2.9206933975219727
2025-11-21 05:02:51.720,-3.2716598510742188,18.512621017456304,-5.985681056976318,-1.3374000787734983,-0.3426055610179901,-1.6095670461654663,2.661029577255249,-9.345396041870115,1.323963642120361,-0.7718883752822876,0.5573822855949402,-0.2316252589225769,0.1996573954820633,-0.4616762101650238,1.2628735303878784,2.975799083709717
2025-11-21 05:02:51.730,7.297806739807129,11.67318344116211,-9.170140266418455,-1.0913312435150146,-0.8176994919776917,-1.2196917533874512,2.560111284255981,-9.358149528503418,1.428721904754639,-0.7680477499961853,0.5579078197479248,-0.2412664294242859,0.2015737891197204,-0.5090179443359375,1.2671937942504885,3.005949020385742
2025-11-21 05:02:51.740,-0.7086012363433838,0.7042055130004883,-6.706719398498535,0.052729032933712,-1.481339693069458,-0.5027899742126465,2.4903433322906494,-9.374423027038574,1.4452558755874634,-0.7629251182079315,0.5602988600730896,-0.2461699843406677,0.20811536163091654,-0.5163061618804932,1.278182327747345,2.9964946508407593
2025-11-21 05:02:51.750,-8.542765617370605,-9.846832275390623,-1.3851726055145264,1.26496422290802,-1.757235050201416,-0.8372731804847717,2.3234589099884033,-9.428750991821289,1.3532597422599792,-0.7578024864196777,0.5626899003982544,-0.2510735392570495,0.2146569341421127,-0.5235943794250488,1.2891708612442017,2.9870402812957764
2025-11-21 05:02:51.760,-8.348549842834473,-20.51778984069824,6.692366600036621,0.7350107878446579,-0.7085131257772446,-1.5424573719501498,2.156574487686157,-9.483078956604004,1.2612636089324951,-0.7505497336387634,0.5721840262413025,-0.2503013610839844,0.2159393876791,-0.5292022824287415,1.313199520111084,2.993025302886963
2025-11-21 05:02:51.770,-1.5033408403396606,-20.44581413269043,9.760777473449709,0.2050573527812957,0.3402087986469269,-2.247641563415528,1.931424260139465,-9.532642364501951,1.2524821758270264,-0.7448392510414124,0.5825905799865723,-0.2492247223854065,0.2090207785367965,-0.5753030776977539,1.333848476409912,3.052088737487793
2025-11-21 05:02:51.780,3.748469352722168,-8.385490417480469,6.019803047180176,-0.9006544947624207,0.6833469867706299,-2.013290405273437,1.7515043020248413,-9.555721282958984,1.3382104635238647,-0.7411794066429138,0.5896281003952026,-0.2510713636875152,0.1998873353004455,-0.6524229049682617,1.344091773033142,3.1376182527542116
2025-11-21 05:02:51.790,0.4686554670333862,0.8840198516845703,2.68305778503418,-1.0881354808807373,0.0600525103509426,-1.3826724290847778,1.620138168334961,-9.562748908996582,1.4489182233810425,-0.7384757995605469,0.5935338139533997,-0.2551735937595367,0.1930222660303115,-0.7296667695045471,1.3473026752471924,-3.0610873699188232
2025-11-21 05:02:51.800,-2.22871470451355,4.956705570220947,0.8847185373306274,-0.9358072280883788,-0.5290213227272034,-1.2516487836837769,1.487790584564209,-9.568156242370604,1.5515345335006714,-0.7350495457649231,0.5967977643013,-0.2607224583625793,0.1885692179203033,-0.8063680529594421,1.3498036861419678,-2.9859373569488525
2025-11-21 05:02:51.810,-1.6196568012237549,6.622074604034424,-0.7490171194076538,-0.7845441102981567,-0.6121095418930054,-1.402911901473999,1.340877652168274,-9.575641632080078,1.6369237899780271,-0.7307591438293457,0.6004984974861145,-0.2665254175662994,0.1853559762239456,-0.8844901919364929,1.353313684463501,-2.911574363708496
2025-11-21 05:02:51.820,-1.1558128595352173,6.708954811096191,-1.798030972480774,-0.6396724581718445,-0.3159747421741485,-1.4519126415252686,1.1949862241744995,-9.583758354187012,1.7011654376983645,-0.7264642715454102,0.6046735644340515,-0.2710028886795044,0.1821455955505371,-0.9584272503852844,1.3571836948394775,-2.839399099349976
2025-11-21 05:02:51.830,-0.7329912185668945,6.310392379760742,-2.0134198665618896,-0.5043878555297852,-0.0869496464729309,-1.4476516246795654,1.0535099506378174,-9.591767311096191,1.748860001564026,-0.7223008871078491,0.6091364026069641,-0.2742969393730163,0.1788727194070816,-1.0286157131195068,1.3610703945159912,-2.769101619720459
2025-11-21 05:02:51.840,-0.036905825138092,5.56602668762207,-1.594562530517578,-0.3722989559173584,0.090944267809391,-1.402911901473999,0.9206801056861876,-9.599218368530272,1.7826220989227295,-0.7184046506881714,0.613674521446228,-0.2765175700187683,0.1756029725074768,-1.0940557718276978,1.3647520542144775,-2.701955556869507
2025-11-21 05:02:51.850,0.6704394817352295,4.2842206954956055,-1.2278594970703125,-0.2998631000518799,0.2645772397518158,-1.2825405597686768,0.8045415282249451,-9.60487461090088,1.8081759214401243,-0.71507328748703,0.617897093296051,-0.2778183221817016,0.1723088920116424,-1.1521528959274292,1.3675899505615234,-2.6407675743103027
2025-11-21 05:02:51.860,1.2393183708190918,2.9500551223754883,-1.45826518535614,-0.3073197305202484,0.2539249360561371,-1.098255276679993,0.7064839005470276,-9.607726097106934,1.8338143825531008,-0.7122400403022766,0.6213324069976807,-0.2791512012481689,0.1695133745670318,-1.203066349029541,1.369036078453064,-2.5876107215881348
2025-11-21 05:02:51.870,2.0512990951538086,1.9939508438110352,-1.89470648765564,-0.3307548463344574,0.1015966013073921,-0.9065132737159728,0.6260274648666382,-9.60798454284668,1.8614768981933596,-0.7100078463554382,0.6232049763202667,-0.28139646351337433,0.1682418137788772,-1.2416322231292725,1.3686214089393616,-2.550519824028015
2025-11-21 05:02:51.880,3.3271265029907227,1.6808433532714844,-2.1265618801116943,-0.3435376584529876,-0.0166442655026912,-0.7115756869316101,0.5653613805770874,-9.60609245300293,1.8904348611831665,-0.7077756524085999,0.6250775456428528,-0.2836417257785797,0.1669702529907226,-1.280198097229004,1.3682067394256592,-2.5134289264678955
2025-11-21 05:02:51.890,4.928933620452881,1.8711891174316408,-1.849176526069641,-0.3435376584529876,-0.0762973129749298,-0.5219641923904419,0.5258969664573669,-9.602380752563477,1.920444369316101,-0.7063696980476379,0.625432550907135,-0.2863927483558655,0.1668985038995742,-1.3035074472427368,1.3663336038589478,-2.494205951690674
2025-11-21 05:02:51.900,6.010843753814697,2.172393798828125,-1.1241726875305176,-0.3275591433048248,-0.1007976755499839,-0.3227656185626983,0.5079408288002014,-9.597211837768556,1.9508715867996216,-0.7056431770324707,0.624936580657959,-0.2890613675117492,0.1672288328409195,-1.3160851001739502,1.3637542724609375,-2.486224889755249
2025-11-21 05:02:51.910,6.181089401245117,2.37353515625,-0.2577912807464599,-0.3307548463344574,-0.0603188201785087,-0.09906667470932,0.5128103494644165,-9.590227127075195,1.983678102493286,-0.7057604193687439,0.6236937642097473,-0.2913074791431427,0.1674762070178985,-1.3178200721740725,1.3603171110153198,-2.488363981246948
2025-11-21 05:02:51.920,5.502620220184326,2.3445968627929688,-0.0801870822906494,-0.3904078900814056,-0.0571231208741664,0.1470021605491638,0.5398702621459961,-9.580620765686035,2.022537469863892,-0.7066937685012817,0.621606707572937,-0.2933928668498993,0.1676593869924545,-1.3099504709243774,1.3556787967681885,-2.499818801879883
2025-11-21 05:02:51.930,4.119579792022705,2.381649971008301,-1.0273847579956057,-0.4777570068836212,-0.0688406825065612,0.3866795897483825,0.5864009857177734,-9.56824016571045,2.0676817893981934,-0.708304762840271,0.618681788444519,-0.2955244183540344,0.1679359674453735,-1.2944492101669312,1.349842548370361,-2.519170045852661
2025-11-21 05:02:51.940,2.715374231338501,2.7570810317993164,-2.35725998878479,-0.5619103908538818,-0.003861469682306,0.5560516119003296,0.6470474004745483,-9.55343532562256,2.1174488067626958,-0.7104500532150269,0.6152212619781494,-0.29751056432724,0.1680802702903747,-1.2742291688919067,1.3430569171905518,-2.5428707599639893
2025-11-21 05:02:51.950,2.190408945083618,3.341655731201172,-3.359060525894165,-0.6183677911758423,0.0621829777956008,0.6529878377914429,0.7174032330513,-9.536548614501951,2.1702423095703125,-0.7129529118537903,0.6113781929016113,-0.2993983030319214,0.1681533902883529,-1.2515406608581543,1.3355519771575928,-2.56882643699646
2025-11-21 05:02:51.960,1.990576267242432,3.9273757934570312,-3.829965114593506,-0.6620423197746277,-0.0017310036346316,0.706249475479126,0.7910821437835693,-9.517659187316896,2.2268245220184326,-0.7155173420906067,0.6072039008140564,-0.3016114234924316,0.168430671095848,-1.229450821876526,1.3274251222610474,-2.5950253009796143
2025-11-21 05:02:51.970,1.2120747566223145,4.497916221618652,-4.146838665008545,-0.7035863995552063,-0.1210371032357215,0.6955971717834473,0.859251856803894,-9.497212409973145,2.2880196571350098,-0.7178575992584229,0.6029917001724243,-0.3042882680892944,0.1687902212142944,-1.211548924446106,1.318918228149414,-2.6178994178771973
2025-11-21 05:02:51.980,0.1670933365821838,4.990255355834961,-4.427927970886231,-0.7089125514030457,-0.1881467849016189,0.6242265701293945,0.9163339138031006,-9.476739883422852,2.3499181270599365,-0.7198255062103271,0.599123477935791,-0.3071335554122925,0.1690303981304168,-1.1989898681640625,1.310674071311951,-2.6355154514312744
2025-11-21 05:02:51.990,-0.7159299850463867,5.175014495849609,-4.540575981140137,-0.6449986100196838,-0.2904091477394104,0.5102466344833374,0.9577655792236328,-9.458395957946776,2.4066219329833984,-0.7211971282958984,0.595815896987915,-0.3101145029067993,0.1694317460060119,-1.1920408010482788,1.3034976720809937,-2.647942066192627
2025-11-21 05:02:52.000,-1.2279599905014038,4.8098578453063965,-4.312554836273193,-0.5714974999427795,-0.4043890833854675,0.3824186623096466,0.982685923576355,-9.442625045776367,2.4579575061798096,-0.7219337224960327,0.5930846333503723,-0.3132851421833038,0.1700434535741806,-1.1904642581939695,1.2974753379821775,-2.655566453933716
2025-11-21 05:02:52.010,-1.165866136550903,3.847146034240722,-3.934561252593994,-0.5619103908538818,-0.5162385702133179,0.2450035959482193,0.9913316369056702,-9.428088188171388,2.509743452072144,-0.7220750451087952,0.5907842516899109,-0.3169070780277252,0.1707381308078766,-1.194613337516785,1.2920361757278442,-2.65826678276062
2025-11-21 05:02:52.020,-0.550446629524231,2.487560272216797,-3.678810119628906,-0.6119763851165771,-0.7239589691162109,0.1107842326164245,0.9827653765678406,-9.413273811340332,2.5680387020111084,-0.7215220928192139,0.5886058807373047,-0.3216147422790527,0.1717933863401413,-1.205300211906433,1.286598563194275,-2.6566567420959477
2025-11-21 05:02:52.030,0.0022838711738586,1.1114444732666016,-3.734993934631348,-0.6737598776817322,-0.9689626097679138,-0.0053261648863554,0.9573506116867064,-9.397849082946776,2.6333038806915283,-0.7202401757240295,0.586409330368042,-0.3275863528251648,0.1733937412500381,-1.222097635269165,1.2810415029525757,-2.65173888206482
2025-11-21 05:02:52.040,0.4239125847816467,0.4689903259277344,-4.195169925689697,-0.7153039574623108,-1.1383346319198608,-0.0703053772449493,0.9214676022529602,-9.381845474243164,2.7022714614868164,-0.7184531092643738,0.5840834379196167,-0.3344619572162628,0.1755189895629882,-1.2421643733978271,1.275383234024048,-2.645793914794922
2025-11-21 05:02:52.050,0.8199654817581177,0.6987476348876953,-4.838335037231445,-0.736608624458313,-1.261901617050171,-0.0191741939634084,0.8872820734977722,-9.364627838134766,2.772519826889038,-0.7165564894676208,0.5812628865242004,-0.341898649930954,0.178285151720047,-1.2610688209533691,1.2694114446640017,-2.642939329147339
2025-11-21 05:02:52.060,1.9140597581863403,1.044635772705078,-5.732460021972656,-0.7728265523910522,-1.4696221351623535,0.1395455300807953,0.8643078207969666,-9.344993591308594,2.845075845718384,-0.7147243618965149,0.57730633020401,-0.3502141833305359,0.1823089271783828,-1.2758653163909912,1.2627381086349487,-2.6476171016693115
2025-11-21 05:02:52.070,3.571533679962158,0.6802034378051758,-6.630799293518066,-0.8228924870491028,-1.6645597219467163,0.421832263469696,0.8650230765342712,-9.321208000183104,2.9218482971191406,-0.7132880091667175,0.5715648531913757,-0.3594575226306915,0.1879470646381378,-1.282964110374451,1.254836916923523,-2.6641383171081543
2025-11-21 05:02:52.080,5.481700420379639,-0.0970897674560546,-7.153416633605957,-0.8623061180114746,-1.71249520778656,0.8010552525520325,0.9031454920768738,-9.292414665222168,3.00095534324646,-0.7127642035484314,0.5638009309768677,-0.3688914477825165,0.194973886013031,-1.2784658670425415,1.2455205917358398,-2.694995880126953
2025-11-21 05:02:52.090,7.014042854309082,-0.8476114273071289,-7.150527000427246,-0.8175663352012634,-1.6911906003952026,1.2260831594467163,0.9840204119682312,-9.259567260742188,3.0761218070983887,-0.7133139371871948,0.5541291236877441,-0.3778489828109741,0.2033576369285583,-1.2611933946609497,1.235196828842163,-2.740309000015259
2025-11-21 05:02:52.100,6.833531379699707,-2.122227668762207,-6.590118408203125,-0.6737598776817322,-1.6326028108596802,1.752308368682861,1.113060712814331,-9.223883628845217,3.138701677322388,-0.7151364088058472,0.5428785681724548,-0.38539919257164,0.2129090130329132,-1.2300074100494385,1.2243177890777588,-2.7994558811187744
2025-11-21 05:02:52.110,6.525112152099609,-5.228217124938965,-5.363215446472168,-0.4383433759212494,-1.5346013307571411,2.458690881729126,1.3072530031204224,-9.183833122253418,3.18099045753479,-0.7186332941055298,0.5296942591667175,-0.3908614218235016,0.2240927815437317,-1.1808795928955078,1.2124849557876587,-2.876169919967652
2025-11-21 05:02:52.120,6.651002883911133,-10.413603782653809,-3.7263898849487305,-0.0644465982913971,-1.5409927368164062,3.1447010040283203,1.56091570854187,-9.140381813049316,3.1917619705200195,-0.7232430577278137,0.5147995352745056,-0.3942041397094726,0.237705796957016,-1.1159510612487793,1.200056552886963,-2.9695241451263428
2025-11-21 05:02:52.130,8.600614547729492,-16.34291648864746,-2.6574063301086426,0.4244953691959381,-1.645385503768921,3.65175199508667,1.8576722145080569,-9.095359802246094,3.1613094806671143,-0.7279173135757446,0.4985812902450561,-0.3958557248115539,0.2546592056751251,-1.0395238399505615,1.1875845193862915,-3.0773849487304688
2025-11-21 05:02:52.140,8.241706848144531,-23.03348159790039,-2.392277479171753,1.0210258960723877,-1.604906678199768,4.399545669555664,2.217073440551758,-9.043563842773438,3.077162027359009,-0.7332122921943665,0.4811882078647613,-0.3942317068576813,0.2746616303920746,-0.9464487433433532,1.1736973524093628,3.081125020980835
2025-11-21 05:02:52.150,0.458465576171875,-28.00495147705078,-2.057127952575684,1.917952060699463,-1.3865339756011963,4.904466152191162,2.604534864425659,-8.994539260864258,2.912914037704468,-0.7387240529060364,0.4661033749580383,-0.387238085269928,0.2950950860977173,-0.8412317633628845,1.1609641313552856,2.952231884002685
2025-11-21 05:02:52.160,-8.235404014587402,-24.39333724975586,1.083082914352417,2.96094822883606,-0.6664364337921143,4.142824172973633,2.925078630447388,-8.976493835449219,2.652707099914551,-0.7428004741668701,0.4586906731128692,-0.3747870624065399,0.3120656311511993,-0.7366054058074951,1.1563704013824463,2.8395466804504395
2025-11-21 05:02:52.170,-8.177955627441406,-16.69089126586914,6.420487403869629,3.4232594966888428,1.112635850906372,2.636584997177124,3.1595301628112797,-8.990262031555176,2.315800905227661,-0.7464436292648315,0.4599822461605072,-0.3568264544010162,0.322355568408966,-0.6325043439865112,1.1598711013793943,2.748603582382202
2025-11-21 05:02:52.180,-4.631688117980957,-11.535637855529783,8.90273666381836,3.085580587387085,1.8178201913833616,2.0963785648345947,3.3683855533599854,-8.99199104309082,1.9921005964279173,-0.7506024837493896,0.4625204205513,-0.3381345868110657,0.3291439414024353,-0.5340802073478699,1.160312533378601,2.669909238815308
2025-11-21 05:02:52.190,-2.5635366439819336,-7.127083778381348,7.70823860168457,2.5421786308288574,1.0348738431930542,2.491713285446167,3.600756883621216,-8.953839302062988,1.741753101348877,-0.7548698782920837,0.4603069126605987,-0.3233110606670379,0.3372817039489746,-0.4505378007888794,1.1506701707839966,2.596268892288208
2025-11-21 05:02:52.200,-2.0759165287017822,-5.837484359741211,6.173904180526733,2.308359980583191,0.7743578255176544,2.547105312347412,3.7181111574172974,-8.922999858856201,1.643709421157837,-0.7568265795707703,0.4578391760587692,-0.3174458891153335,0.3417031317949295,-0.4168107956647873,1.1430884003639221,2.564025640487671
2025-11-21 05:02:52.210,-1.5882964134216309,-4.547884941101074,4.6395697593688965,2.0745413303375244,0.5138418078422546,2.602497339248657,3.835465431213379,-8.892160415649414,1.5456657409667969,-0.7587832808494568,0.4553714394569397,-0.3115807175636291,0.3461245596408844,-0.3830837905406952,1.1355066299438477,2.531782388687134
2025-11-21 05:02:52.220,-2.3207895755767822,-4.220691680908203,1.3122657537460327,1.748579978942871,0.5692338943481445,2.113422393798828,4.023871898651123,-8.837679862976074,1.369033932685852,-0.7617663145065308,0.4517882466316223,-0.3012092411518097,0.3533729612827301,-0.3279429078102112,1.1225131750106812,2.480210065841675
2025-11-21 05:02:52.230,-1.4593064785003662,-6.086398124694824,-2.177119255065918,1.854038119316101,0.3753614723682403,1.442325472831726,4.148655414581299,-8.806915283203125,1.182071089744568,-0.7622173428535461,0.4504154622554779,-0.2925805151462555,0.3613133132457733,-0.2775731682777405,1.115328669548035,2.430084705352783
2025-11-21 05:02:52.240,-1.6578824520111084,-8.870715141296387,-5.766730785369873,2.511286735534668,-0.3766930401325226,1.009840965270996,4.223170280456543,-8.798539161682129,0.9596530795097352,-0.7589492201805115,0.4504299461841583,-0.2859914600849151,0.3732529878616333,-0.2234408855438232,1.1133908033370972,2.3668713569641118
2025-11-21 05:02:52.250,-3.4405083656311035,-11.01057243347168,-7.707532405853271,3.3859763145446777,-1.1479216814041138,0.6529878377914429,4.254903316497803,-8.808666229248047,0.6881659030914307,-0.7519419193267822,0.4519934952259063,-0.2806459963321686,0.3892596065998077,-0.1603461951017379,1.1157348155975342,2.2864060401916504
2025-11-21 05:02:52.260,-4.172071933746338,-11.041986465454102,-3.9887290000915527,3.9424625887871056,-1.6379289627075195,0.3302222490310669,4.256721496582031,-8.825882911682129,0.3930459916591644,-0.7426351308822632,0.4546918869018554,-0.2760849297046661,0.4068482518196106,-0.0920742973685264,1.1197459697723389,2.1969542503356934
2025-11-21 05:02:52.270,-4.059387683868408,-9.030531883239746,1.820266962051392,3.8642659187316895,-2.168415069580078,0.1736329793930053,4.249887943267822,-8.836706161499023,0.1465510129928589,-0.7329081296920776,0.4563284516334533,-0.2740079760551452,0.4237093925476074,-0.0344697795808315,1.1222838163375854,2.1149067878723145
2025-11-21 05:02:52.280,-4.933300495147705,-6.0732831954956055,5.337857246398926,3.161212205886841,-2.926860809326172,0.2013290375471115,4.250603675842285,-8.837575912475586,0.0040378188714385,-0.7238948345184326,0.4549752473831177,-0.276183009147644,0.4389723837375641,-0.0009499535080976,1.1224886178970337,2.0519604682922363
2025-11-21 05:02:52.290,-5.816722869873047,-2.39077091217041,6.572438716888428,2.399437427520752,-3.9814414978027344,0.3749620318412781,4.271402359008789,-8.827513694763184,-0.0223429221659898,-0.715275228023529,0.4492273926734924,-0.2835733294486999,0.4540509879589081,0.0052307313308119,1.1201273202896118,2.0070931911468506
2025-11-21 05:02:52.300,-6.316411018371582,1.44720458984375,6.3501482009887695,1.671883225440979,-4.666519641876221,0.6561835408210754,4.318848609924316,-8.804302215576172,0.0467778295278549,-0.7074547410011292,0.4393982589244842,-0.2944981753826141,0.4687299728393554,-0.010830596089363,1.1147234439849854,1.9780373573303225
2025-11-21 05:02:52.310,-6.859002590179443,4.526429176330566,4.626889228820801,1.0678961277008057,-4.87530517578125,0.8585777878761292,4.381026744842529,-8.771849632263184,0.1779208332300186,-0.7004688382148743,0.4270309805870056,-0.3070412874221802,0.4824039340019226,-0.0405893102288246,1.1072659492492676,1.9604973793029783
2025-11-21 05:02:52.320,-7.324792861938477,6.927050590515137,3.112143278121948,0.7760222554206848,-4.990350246429443,0.9107742309570312,4.4412150382995605,-8.736730575561523,0.3398899435997009,-0.6934659481048584,0.413409411907196,-0.3203961551189422,0.4955239295959472,-0.0763819888234138,1.0993196964263916,1.947537422180176
2025-11-21 05:02:52.330,-8.186159133911133,8.62122631072998,2.4873502254486084,0.736608624458313,-5.070242881774902,0.8319469690322876,4.485424518585205,-8.705758094787598,0.5109990239143372,-0.68577641248703,0.3995532989501953,-0.3341618478298187,0.508334219455719,-0.113435260951519,1.0924128293991089,1.9348366260528564
2025-11-21 05:02:52.340,-9.132411003112791,9.941852569580078,2.696820020675659,0.7813484072685242,-5.153331279754639,0.6338136196136475,4.502177238464356,-8.68513011932373,0.6850572228431702,-0.6770598292350769,0.3860300481319427,-0.348473310470581,0.5207083225250244,-0.1510031223297119,1.087863564491272,1.9218348264694212
2025-11-21 05:02:52.350,-9.767108917236328,10.72654914855957,3.3233139514923096,0.7696308493614197,-5.101134777069092,0.3483312129974365,4.484591484069824,-8.678644180297852,0.8602129220962524,-0.6675707697868347,0.3733752071857452,-0.3632360398769378,0.5319772362709045,-0.1895133256912231,1.086441159248352,1.9105641841888428
2025-11-21 05:02:52.360,-9.95954132080078,11.427410125732422,3.926793336868286,0.6865426898002625,-4.887022972106934,0.0117175634950399,4.430611610412598,-8.687467575073242,1.0334292650222778,-0.6576807498931885,0.3619974553585052,-0.3782321214675903,0.5416219234466553,-0.2291506379842758,1.0883769989013672,1.9027924537658687
2025-11-21 05:02:52.370,-9.57268524169922,11.940251350402832,4.503576278686523,0.5874760150909424,-4.447081565856934,-0.364309698343277,4.341219425201416,-8.7119722366333,1.1940455436706543,-0.6478100419044495,0.3525524437427521,-0.3928946256637573,0.5492565035820007,-0.2684110999107361,1.0937910079956057,1.8991235494613647
2025-11-21 05:02:52.380,-8.270708084106445,11.724926948547363,4.565169334411621,0.4873441159725189,-3.8727877140045166,-0.8117075562477112,4.214505195617676,-8.753744125366211,1.3342845439910889,-0.6380482912063599,0.345555305480957,-0.4070768654346466,0.5547741055488586,-0.3066096305847168,1.1031535863876345,1.899767637252808
2025-11-21 05:02:52.390,-6.626192092895508,10.228522300720217,4.0686798095703125,0.418103963136673,-3.336975574493408,-1.287866711616516,4.049026012420654,-8.813112258911133,1.4507993459701538,-0.6283248662948608,0.3412016034126282,-0.4208783507347107,0.5582568645477295,-0.3440572023391723,1.116767406463623,1.904991626739502
2025-11-21 05:02:52.400,-4.912426471710205,8.184806823730469,3.6029772758483887,0.3754946291446686,-2.7361841201782227,-1.7448517084121704,3.849226713180542,-8.887429237365723,1.5386509895324707,-0.6188868880271912,0.3397197127342224,-0.4339753091335296,0.5596739649772644,-0.3802734911441803,1.1343640089035034,1.915173888206482
2025-11-21 05:02:52.410,-2.4649689197540283,6.9772820472717285,3.783944606781006,0.2700365781784057,-2.0033037662506104,-2.120878934860229,3.626746416091919,-8.969395637512207,1.602197527885437,-0.6101734638214111,0.3407244384288788,-0.4460877180099487,0.5591073036193848,-0.4159912168979645,1.154576539993286,1.9312858581542969
2025-11-21 05:02:52.420,0.5105345249176025,6.364793300628662,4.215560436248779,0.052729032933712,-1.375881552696228,-2.273207187652588,3.403388500213623,-9.046286582946776,1.6589274406433103,-0.6026012897491455,0.3426986336708069,-0.4572014212608337,0.5571321249008179,-0.4535443782806396,1.174415946006775,1.9539141654968264
2025-11-21 05:02:52.430,2.79016661643982,5.12435245513916,4.25692892074585,-0.2274272441864013,-1.046724557876587,-2.170944929122925,3.195903778076172,-9.10905647277832,1.7267533540725708,-0.5962960720062256,0.3441135883331299,-0.4675896763801574,0.5544156432151794,-0.4953671395778656,1.1913373470306396,1.9830528497695925
2025-11-21 05:02:52.440,4.131896495819092,2.570876121520996,3.691344976425171,-0.5001268982887268,-1.0009195804595947,-1.8758753538131716,3.0161144733428955,-9.153386116027832,1.813554763793945,-0.5911974310874939,0.3440052270889282,-0.4773692190647125,0.5516018271446228,-0.5413663983345032,1.2037335634231567,2.016756296157837
2025-11-21 05:02:52.450,4.648726940155029,-1.3283147811889648,3.773622751235962,-0.7653699517250061,-0.907179057598114,-1.3634982109069824,2.882317304611206,-9.174966812133787,1.9190168380737305,-0.5894429385662079,0.34118224680423737,-0.4848157614469528,0.5486622154712677,-0.5862390697002411,1.205963909626007,2.052400231361389
2025-11-21 05:02:52.460,4.386152029037476,-7.470007419586182,5.245836853981018,-1.044461011886597,-0.7569811940193176,-0.6306179761886597,2.841583728790283,-9.155454158782957,2.0618010759353638,-0.5876884460449219,0.3383592665195465,-0.4922623038291931,0.5457226037979126,-0.631111741065979,1.2081942558288574,2.0880441665649414
2025-11-21 05:02:52.470,4.123577117919922,-13.611700057983398,6.718050956726074,-1.0865377187728882,-1.2842715680599213,0.09374049305915833,2.8008501529693604,-9.135941505432127,2.204585313796997,-0.5888813138008118,0.3315895795822143,-0.4972370862960815,0.5440794229507446,-0.6668332815170288,1.1988085508346558,2.1145856380462646
2025-11-21 05:02:52.480,5.511100769042969,-17.887449264526367,5.544482707977295,-1.1286144256591797,-1.811561942100525,0.8180989623069763,2.8339052200317383,-9.086328506469728,2.361777782440185,-0.5887906551361084,0.3212728202342987,-0.5022895932197571,0.5457238554954529,-0.6947779655456543,1.1851292848587036,2.1249032020568848
2025-11-21 05:02:52.490,7.407202243804932,-14.276665687561035,2.5311567783355717,-0.6844122409820557,-2.2823948860168457,1.1238207817077637,2.884979248046875,-9.038752555847168,2.479562997817993,-0.5862023830413818,0.3098590970039367,-0.5068474411964417,0.5508718490600586,-0.7099681496620178,1.1724307537078855,2.1156585216522217
2025-11-21 05:02:52.500,6.64090633392334,-7.136756896972656,-0.7573516368865967,-0.2487319111824035,-1.6858644485473633,1.3006495237350464,2.970536947250366,-8.992862701416016,2.544548511505127,-0.5837251543998718,0.2998289465904236,-0.5085738301277161,0.5574228167533875,-0.7083104848861694,1.1605353355407717,2.092486619949341
2025-11-21 05:02:52.510,2.9944963455200195,-1.787822723388672,-2.688222885131836,0.1070559173822403,-0.6195661425590515,1.3240846395492554,3.080284595489502,-8.955503463745117,2.5458197593688965,-0.5833353400230408,0.2941904962062835,-0.5063607096672058,0.5628238320350647,-0.6906850934028625,1.1510863304138184,2.065208911895752
2025-11-21 05:02:52.520,0.0710010528564453,3.113713264465332,-3.3460917472839355,0.4319519996643066,0.3210346102714538,0.9896014928817748,3.180741786956787,-8.935855865478516,2.490731954574585,-0.5841395258903503,0.2932627201080322,-0.501820981502533,0.566527783870697,-0.6643299460411072,1.146196722984314,2.039482593536377
2025-11-21 05:02:52.530,-1.6237118244171145,8.129385948181152,-2.639662742614746,0.651390016078949,0.9102416038513184,0.5464645624160767,3.2548511028289795,-8.933491706848145,2.401886463165283,-0.5851000547409058,0.2955735027790069,-0.4966740310192108,0.5688665509223938,-0.6357382535934448,1.1456117630004885,2.0171267986297607
2025-11-21 05:02:52.540,-3.859496116638184,12.771370887756348,-1.4058665037155151,0.5949326157569885,1.136070966720581,0.1299584358930587,3.295005321502685,-8.941697120666504,2.315035581588745,-0.5862674713134766,0.2994962632656097,-0.4922433197498321,0.5694637894630432,-0.6124617457389832,1.1476447582244873,2.003058195114136
2025-11-21 05:02:52.550,-7.465096950531006,15.236600875854492,-1.594050407409668,0.2519276142120361,1.440727710723877,-0.4718982279300689,3.280897617340088,-8.96343994140625,2.2500791549682617,-0.5887867212295532,0.3059019148349762,-0.4890243411064148,0.5662238001823425,-0.6011401414871216,1.1530767679214478,2.0076253414154053
2025-11-21 05:02:52.560,-9.631277084350586,11.013028144836426,-1.4545488357543943,-0.239144816994667,2.0894546508789062,-1.4220861196517944,3.1854496002197266,-9.008427619934082,2.207150936126709,-0.5935456156730652,0.3169459104537964,-0.4869625568389892,0.5568808913230896,-0.6059348583221436,1.1645333766937256,2.0404746532440186
2025-11-21 05:02:52.570,-10.129671096801758,2.247866630554199,0.7218875885009766,-0.7781527042388916,2.211956262588501,-2.4096901416778564,2.9935927391052246,-9.072461128234863,2.2134196758270264,-0.5990598201751709,0.3308753967285156,-0.4877403974533081,0.541994571685791,-0.6366731524467468,1.1813873052597046,2.105703830718994
2025-11-21 05:02:52.580,-12.04281997680664,-8.283402442932129,3.790935516357422,-1.2031806707382202,1.0114387273788452,-3.1862452030181885,2.6902413368225098,-9.145467758178713,2.300741195678711,-0.6021682620048523,0.3442105948925018,-0.4943226873874664,0.5239823460578918,-0.7075152397155762,1.20149028301239,2.205125093460083
2025-11-21 05:02:52.590,-14.69537353515625,-24.056201934814453,3.900943994522095,-1.1861369609832764,-0.7900034189224243,-3.5047497749328613,2.299560070037842,-9.21911334991455,2.4270029067993164,-0.6007586717605591,0.355989545583725,-0.5059906244277954,0.5062943696975708,-0.8123549222946167,1.222888469696045,2.326756000518799
2025-11-21 05:02:52.600,-12.965721130371094,-31.5723934173584,0.1074874401092529,-0.9219591617584229,-1.252314567565918,-2.965741872787476,1.946268916130066,-9.274628639221191,2.5226337909698486,-0.5975082516670227,0.3658786118030548,-0.516624391078949,0.492154449224472,-0.9136625528335572,1.2398920059204102,2.438434362411499
2025-11-21 05:02:52.610,-1.5857336521148682,-20.809192657470703,-5.382874011993408,-0.7675004005432129,0.1197055578231811,-2.1251399517059326,1.738742470741272,-9.303491592407228,2.567530870437622,-0.5961790680885315,0.3730153441429138,-0.5217359066009521,0.4829303026199341,-0.975533962249756,1.2490733861923218,2.510392665863037
2025-11-21 05:02:52.620,7.318186283111572,-4.732977867126465,-5.361807823181152,-0.4170387387275696,1.096657395362854,-1.342193603515625,1.6571637392044067,-9.317057609558104,2.5722784996032715,-0.5962300896644592,0.377201646566391,-0.5227112770080566,0.4785410463809967,-0.9984812140464784,1.2534778118133545,2.541102170944214
2025-11-21 05:02:52.630,5.419825553894043,3.808673858642578,-2.490102052688598,-0.1784265339374542,0.6171693801879883,-0.5251598954200745,1.638550043106079,-9.319622039794922,2.574915647506714,-0.5962786674499512,0.3781149089336395,-0.5229591727256775,0.4774877727031708,-1.0040760040283203,1.2543166875839231,2.54848861694336
2025-11-21 05:02:52.640,1.0167397260665894,7.439384460449219,-0.468966007232666,-0.2199706137180328,-0.714371919631958,-0.1256974935531616,1.6134036779403689,-9.31406021118164,2.6106715202331543,-0.5943929553031921,0.3753938674926758,-0.5261356830596924,0.4784952104091644,-1.0172441005706787,1.2524993419647217,2.552748680114746
2025-11-21 05:02:52.650,1.3487396240234375,7.8119659423828125,0.6359038352966309,-0.2785584330558777,-1.7700178623199463,-0.1256974935531616,1.5606536865234375,-9.30585479736328,2.671293973922729,-0.5901322364807129,0.36993274092674255,-0.5318115651607513,0.48164306581020355,-1.036380112171173,1.2500181794166565,2.5530799627304077
2025-11-21 05:02:52.660,1.5780678987503052,5.611991882324219,-1.1754392385482788,-0.157121866941452,-1.5346013307571411,0.1075885370373725,1.5498300194740295,-9.303014278411865,2.687368869781494,-0.5858715176582336,0.3644716143608093,-0.5374874472618103,0.4847909212112427,-1.0555161237716677,1.2475370168685913,2.5534112453460693
2025-11-21 05:02:52.670,-1.7445948123931885,2.809189796447754,-2.705843210220337,0.1326215118169784,-0.6057181358337402,0.2492645233869552,1.5390063524246216,-9.30017375946045,2.703443765640259,-0.5844987630844116,0.3631616830825805,-0.5381878018379211,0.4866504967212677,-1.053274393081665,1.248005509376526,2.545856475830078
2025-11-21 05:02:52.680,-3.797903299331665,0.5865077972412109,-3.4124011993408203,0.2529928386211395,0.3711005449295044,-0.1288931965827942,1.5283758640289309,-9.312457084655762,2.66694450378418,-0.5851192474365234,0.3665193319320678,-0.536412239074707,0.4853462278842926,-1.0504052639007568,1.2519776821136477,2.550166368484497
2025-11-21 05:02:52.690,-2.364028215408325,-1.014216423034668,-3.099381446838379,0.2561885416507721,1.2734861373901367,-0.5901390910148621,1.5011066198349,-9.331357955932615,2.61588191986084,-0.5870913863182068,0.3730861246585846,-0.5331712961196899,0.4815172553062439,-1.0498318672180176,1.2581849098205566,2.5654373168945312
2025-11-21 05:02:52.700,-0.4208794832229614,-2.238499641418457,-1.7785850763320925,0.2018616646528244,1.4918588399887085,-0.6838796138763428,1.474104404449463,-9.348652839660645,2.5690650939941406,-0.5893189907073975,0.3796731531620025,-0.5298017263412476,0.4773484170436859,-1.0498714447021484,1.2639708518981934,2.582053899765014
2025-11-21 05:02:52.710,0.0289276838302612,-2.986753463745117,-0.5153393745422363,0.0591204315423965,0.8718932271003723,-0.4591154456138611,1.4523831605911257,-9.357921600341797,2.547602653503418,-0.5906246304512024,0.383515328168869,-0.5280767679214478,0.4745666086673736,-1.0526537895202637,1.2671159505844116,2.594614028930664
2025-11-21 05:02:52.720,-0.5779300928115845,-2.781998634338379,-0.2095959186553955,-0.1496652364730835,0.0632482096552848,-0.1938724070787429,1.4333796501159668,-9.357837677001951,2.558650493621826,-0.5908833742141724,0.3842144012451172,-0.5284858345985413,0.4732217788696289,-1.0601489543914795,1.2670873403549194,2.604024648666382
2025-11-21 05:02:52.730,-1.0477138757705688,-1.82303524017334,-0.8022582530975342,-0.2892107665538788,-0.4427374899387359,-0.0980014353990554,1.4095654487609863,-9.352998733520508,2.5893876552581787,-0.5903428792953491,0.3831682503223419,-0.5303906798362732,0.4726130664348602,-1.0722918510437012,1.2654420137405396,2.613247394561768
2025-11-21 05:02:52.740,-1.0244392156600952,-0.7940597534179688,-1.6244999170303345,-0.2881455421447754,-0.5780220627784729,-0.1555240154266357,1.377155900001526,-9.34915828704834,2.6205122470855717,-0.5892720818519592,0.3819619715213775,-0.5328129529953003,0.4722010791301727,-1.0869345664978027,1.2641416788101196,2.6235480308532715
2025-11-21 05:02:52.750,-0.685184121131897,0.1738615036010742,-2.4971141815185547,-0.1880136281251907,-0.5812177658081055,-0.2343512624502182,1.3382680416107178,-9.349140167236328,2.640648126602173,-0.5876976847648621,0.381152480840683,-0.5352476835250854,0.4720636904239654,-1.1017271280288696,1.2641353607177734,2.633603096008301
2025-11-21 05:02:52.760,-0.7895393371582031,1.0688705444335938,-3.187771797180176,-0.0537942685186862,-0.6216966509819031,-0.2396774291992187,1.2977865934371948,-9.352925300598145,2.6474363803863525,-0.5856584310531616,0.3806532025337219,-0.5375262498855591,0.4724118113517761,-1.1150156259536743,1.265417218208313,2.6416683197021484
2025-11-21 05:02:52.770,-1.3214924335479736,1.659261703491211,-3.395403861999512,0.0825555622577667,-0.6461969614028931,-0.2311555594205856,1.2563050985336304,-9.360301971435549,2.6413679122924805,-0.583085685968399,0.38078728318214417,-0.5395386219024658,0.4731796085834503,-1.1271678805351257,1.2685412764549255,2.6485517024993896
2025-11-21 05:02:52.780,-1.286940574645996,1.7765345573425295,-2.536884903907776,0.2093182951211929,-0.677088737487793,-0.2844172120094299,1.202918529510498,-9.372224807739258,2.623250722885132,-0.5805129408836365,0.3809213638305664,-0.5415509939193726,0.4739474058151245,-1.1393201351165771,1.271665334701538,2.655435085296631
2025-11-21 05:02:52.790,-1.2523887157440186,1.893807411193848,-1.67836594581604,0.24553621560335154,-0.7979926764965057,-0.3802881836891174,1.1495319604873655,-9.384147644042969,2.605133533477783,-0.5770163536071777,0.3812703490257263,-0.5440800189971924,0.4750388562679291,-1.155237078666687,1.2761907577514648,2.6645257472991943
2025-11-21 05:02:52.800,-0.725204348564148,1.6677989959716797,-0.7065944671630859,0.2817541360855102,-0.9188966155052184,-0.4761591553688049,1.0789222717285156,-9.397204399108888,2.5882160663604736,-0.5729575157165527,0.3814031183719635,-0.5472859740257263,0.4761610925197601,-1.1758408546447754,1.2808111906051636,2.6768040657043457
2025-11-21 05:02:52.810,0.0803902149200439,1.2550086975097656,0.0606565475463867,0.2114487588405609,-0.929548978805542,-0.6029219031333923,0.9980779886245728,-9.408711433410645,2.5788321495056152,-0.5687013864517212,0.3813898265361786,-0.5510480999946594,0.4769345223903656,-1.2015235424041748,1.284943699836731,2.693605661392212
2025-11-21 05:02:52.820,0.924638032913208,0.8103466033935547,0.5516037940979004,0.1070559173822403,-0.929548978805542,-0.7531197667121887,0.9048829674720764,-9.41800022125244,2.579313039779663,-0.5642817616462708,0.3812293410301208,-0.5554529428482056,0.4772025644779205,-1.2333881855010986,1.2883217334747314,2.716135263442993
2025-11-21 05:02:52.830,1.5582563877105713,0.4525051116943359,0.8586816787719727,-0.0122501794248819,-0.9433969855308532,-0.8916000127792358,0.7995614409446716,-9.424389839172363,2.590749263763428,-0.5597407221794128,0.3808733522891998,-0.5605079531669617,0.4769241213798523,-1.2714483737945557,1.2906689643859863,2.7444303035736084
2025-11-21 05:02:52.840,1.9097864627838133,0.1638107299804687,0.8806495666503906,-0.1251648813486099,-0.9114400148391724,-0.9629706740379332,0.6888797879219055,-9.42739963531494,2.6115078926086426,-0.5553485155105591,0.3803565800189972,-0.5658673048019409,0.4761419296264648,-1.312885284423828,1.2917814254760742,2.776283025741577
2025-11-21 05:02:52.850,2.068354845046997,-0.0228233337402343,0.6796798706054688,-0.2231663167476654,-0.8240908980369568,-0.9501878619194032,0.5818671584129333,-9.426831245422363,2.639443635940552,-0.5514141321182251,0.3796880543231964,-0.5711129903793335,0.4749835729598999,-1.3538165092468262,1.2915711402893066,2.8084232807159424
2025-11-21 05:02:52.860,2.247734785079956,-0.0214214324951171,0.3369028568267822,-0.3041240274906158,-0.6983934044837952,-0.8841434121131897,0.4850887656211853,-9.42295265197754,2.6726462841033936,-0.5481187701225281,0.3788599371910095,-0.575962245464325,0.4736015796661377,-1.391249656677246,1.2901395559310913,2.838164567947388
2025-11-21 05:02:52.870,2.384395122528076,0.1872539520263672,0.0786769390106201,-0.3648423254489898,-0.5737611651420593,-0.7967942953109741,0.3997875154018402,-9.416265487670898,2.710070848464966,-0.5454474687576294,0.3778671026229858,-0.5803731083869934,0.4720916450023651,-1.4243333339691162,1.287688136100769,2.864582061767578
2025-11-21 05:02:52.880,2.1096768379211426,0.2966060638427734,-0.2786433696746826,-0.4415390789508819,-0.4938686490058899,-0.7179670333862305,0.3233323395252228,-9.40666675567627,2.753260374069214,-0.5433652997016907,0.3767262697219848,-0.5844587087631226,0.4703610241413116,-1.4538958072662354,1.284205436706543,2.888463497161865
2025-11-21 05:02:52.890,1.666123390197754,0.3064842224121094,-0.8421730995178223,-0.5395405292510986,-0.4363460838794708,-0.6849448084831238,0.250383049249649,-9.393927574157717,2.8038930892944336,-0.5417904257774353,0.3755286633968353,-0.5883980393409729,0.4682190716266632,-1.4817341566085815,1.2796450853347778,2.9116268157958984
2025-11-21 05:02:52.900,1.1880855560302734,0.1912641525268554,-1.71292245388031,-0.6226286888122559,-0.4469984173774719,-0.682814359664917,0.1759925782680511,-9.37869358062744,2.859987258911133,-0.5404214262962341,0.3742920756340027,-0.5923954248428345,0.4657443463802337,-1.5093377828598022,1.27428138256073,2.9349894523620605
2025-11-21 05:02:52.910,0.8516738414764404,0.0883731842041015,-2.695597887039185,-0.6705641746520996,-0.5013253092765808,-0.6838796138763428,0.0989254340529441,-9.361946105957031,2.917973518371582,-0.5390127897262573,0.3729965388774872,-0.5965147018432617,0.463151216506958,-1.5369070768356323,1.2684913873672483,2.958204746246338
2025-11-21 05:02:52.920,0.7476306557655334,-0.0034656524658203,-3.561321496963501,-0.6769555807113647,-0.6014571785926819,-0.6721620559692383,0.0194496512413024,-9.34474277496338,2.9741876125335693,-0.5373192429542542,0.3715398907661438,-0.6008048057556152,0.4607382118701935,-1.5642566680908203,1.2626538276672363,2.980384826660156
2025-11-21 05:02:52.930,0.6091687083244324,-0.1982412338256836,-4.26969575881958,-0.6609770655632019,-0.7569811940193176,-0.6583139896392822,-0.0639363080263137,-9.327738761901855,3.026483058929444,-0.5351329445838928,0.3698600530624389,-0.6053621768951416,0.4586642384529114,-1.591918706893921,1.2569869756698608,3.0015294551849365
2025-11-21 05:02:52.940,0.5440934896469116,-0.4787225723266601,-4.78426456451416,-0.6364767551422119,-0.891200602054596,-0.6764229536056519,-0.1536128520965576,-9.311062812805176,3.0742337703704834,-0.5324268937110901,0.3680781126022339,-0.610205352306366,0.4568254947662353,-1.6207225322723389,1.2515240907669067,3.022647857666016
2025-11-21 05:02:52.950,0.7727782726287842,-0.6989650726318359,-5.126683712005615,-0.6109111309051514,-0.9806801676750184,-0.7169018387794495,-0.2495698034763336,-9.29457187652588,3.117537260055542,-0.5292572379112244,0.3662488460540771,-0.6152936816215515,0.4551508128643036,-1.650679588317871,1.2462092638015747,3.043975114822388
2025-11-21 05:02:52.960,1.1393355131149292,-0.7379226684570312,-5.291989326477051,-0.605584979057312,-1.0648335218429563,-0.7339455485343933,-0.3492676317691803,-9.27744960784912,3.158690929412842,-0.5257121920585632,0.3641870319843292,-0.6206250786781311,0.4536728262901306,-1.680922508239746,1.240778565406799,3.064507484436035
2025-11-21 05:02:52.970,1.4215612411499023,-0.7116298675537109,-5.441158294677734,-0.6386072039604187,-1.1814765334129333,-0.6668358743190765,-0.4485476315021515,-9.258801460266112,3.200590848922729,-0.5219337940216064,0.3616499900817871,-0.6261619925498962,0.4524550437927246,-1.710034728050232,1.234959840774536,3.082691431045532
2025-11-21 05:02:52.980,1.394991159439087,-0.7946262359619141,-5.706250190734863,-0.6716294288635254,-1.2981195449829102,-0.5997262001037598,-0.5433668494224548,-9.238774299621582,3.243484735488892,-0.5179760456085205,0.35845947265625,-0.6318312883377075,0.4516600370407104,-1.7367805242538452,1.2288169860839844,3.097068548202514
2025-11-21 05:02:52.990,0.9822216033935548,-0.9946985244750975,-5.978754043579102,-0.6812165379524231,-1.4728177785873413,-0.4399412274360657,-0.6305890679359436,-9.218832015991213,3.28418493270874,-0.5137963891029358,0.3545919358730316,-0.6375073790550232,0.4515109956264496,-1.7604955434799194,1.2228041887283323,3.1068081855773926
2025-11-21 05:02:53.000,0.5745692253112793,-1.2590246200561523,-5.7925519943237305,-0.6354115009307861,-1.5867977142333984,-0.2588516175746918,-0.7062600255012512,-9.200953483581545,3.3187413215637207,-0.5094974637031555,0.3502517938613891,-0.6429097056388855,0.4521095752716064,-1.78047776222229,1.217496395111084,3.111712694168091
2025-11-21 05:02:53.010,0.4661189913749695,-1.4420652389526367,-4.817542552947998,-0.5395405292510986,-1.6059719324111938,-0.0884143412113189,-0.7673913240432739,-9.18650722503662,3.3450827598571777,-0.505219578742981,0.3456409573554992,-0.6478104591369629,0.453461229801178,-1.7963030338287354,1.2132633924484253,3.1119415760040283
2025-11-21 05:02:53.020,0.890560507774353,-1.616837501525879,-2.9207234382629395,-0.4053211510181427,-1.6528421640396118,0.0372831560671329,-0.8175894618034363,-9.176095962524414,3.361724853515625,-0.5006407499313354,0.3406306207180023,-0.6524233818054199,0.4557119607925415,-1.8093699216842647,1.2102420330047607,3.108067512512207
2025-11-21 05:02:53.030,1.4189105033874512,-1.9757328033447263,-0.876575231552124,-0.3041240274906158,-1.7519088983535769,0.1288931965827942,-0.8613364100456238,-9.168474197387695,3.371582508087158,-0.4955760240554809,0.3350163996219635,-0.657023549079895,0.4587902426719665,-1.820915937423706,1.208045482635498,3.100708484649658
2025-11-21 05:02:53.040,2.010166645050049,-2.48785400390625,-0.0003526210784912,-0.3509942889213562,-1.7188866138458252,0.1736329793930053,-0.8983907103538513,-9.159276962280272,3.3868753910064697,-0.4906918704509735,0.3288799524307251,-0.6615460515022278,0.4619700312614441,-1.830081820487976,1.205411434173584,3.090546131134033
2025-11-21 05:02:53.050,2.1648268699646,-2.380852699279785,-0.5824923515319824,-0.5427362322807312,-1.666690230369568,0.2641777992248535,-0.9253883957862854,-9.144811630249023,3.4185469150543213,-0.4865256547927856,0.3220240175724029,-0.6659445762634277,0.4648775458335876,-1.835157036781311,1.2013051509857178,3.076615571975708
2025-11-21 05:02:53.060,1.6388492584228516,-2.340579032897949,-2.0665829181671143,-0.7110430598258972,-1.7380608320236206,0.4452674090862274,-0.940320611000061,-9.12716579437256,3.4613595008850098,-0.4828411042690277,0.3143841922283172,-0.6701533794403076,0.4678904414176941,-1.8360565900802608,1.196354627609253,3.0582096576690674
2025-11-21 05:02:53.070,1.4236502647399902,-2.674602508544922,-3.572570323944092,-0.7888050675392151,-1.7849310636520386,0.6146394610404968,-0.9428255558013916,-9.109451293945312,3.507044553756714,-0.4794478714466095,0.3062873780727386,-0.6739872097969055,0.4712313711643219,-1.83342444896698,1.1914461851119995,3.036097526550293
2025-11-21 05:02:53.080,1.744619369506836,-3.313894271850586,-4.956420421600342,-0.8260881900787354,-1.7753440141677856,0.7722939252853394,-0.9306960701942444,-9.092991828918455,3.552701473236084,-0.4763576984405517,0.2978790402412414,-0.6772890090942383,0.4750063717365265,-1.827007532119751,1.1869394779205322,3.0102527141571045
2025-11-21 05:02:53.090,2.2735483646392822,-4.661190032958984,-6.256723403930664,-0.8569799661636353,-1.7284737825393677,0.9619054198265076,-0.8990322947502136,-9.07835865020752,3.5979912281036377,-0.4737051725387573,0.2891692519187927,-0.6798669099807739,0.4793386459350586,-1.815653204917908,1.1829742193222046,2.9797513484954834
2025-11-21 05:02:53.100,2.622375011444092,-5.680242538452148,-6.793953895568848,-0.8271534442901611,-1.757235050201416,1.1856043338775637,-0.8478842973709106,-9.066948890686035,3.638944149017334,-0.4711507856845855,0.2800225615501404,-0.6817752122879028,0.4845481216907501,-1.7997148036956787,1.1799094676971436,2.944080352783203
2025-11-21 05:02:53.110,3.466188669204712,-5.233490943908691,-6.111245155334473,-0.6844122409820557,-1.7252780199050903,1.34858500957489,-0.7794314622879028,-9.060585021972656,3.6699700355529785,-0.4684597253799438,0.2706917226314544,-0.6829831004142761,0.4907194077968597,-1.7800676822662354,1.1782095432281494,2.9040982723236084
2025-11-21 05:02:53.120,4.372835159301758,-4.934982299804688,-4.624671459197998,-0.4713656008243561,-1.5633625984191897,1.541392207145691,-0.685564398765564,-9.06103229522705,3.687558174133301,-0.4658988416194916,0.2615032792091369,-0.6830593347549438,0.4979801177978515,-1.7546104192733765,1.1783286333084106,2.8586678504943848
2025-11-21 05:02:53.130,4.107217311859131,-5.953746795654297,-3.834069013595581,-0.3669727742671966,-1.5740149021148682,1.9770724773406985,-0.5529874563217163,-9.065803527832031,3.698080539703369,-0.4635947644710541,0.2516332268714905,-0.6818175911903381,0.5068386197090149,-1.719230055809021,1.1796029806137085,2.802583932876587
2025-11-21 05:02:53.140,2.738982915878296,-6.857089996337891,-4.364808082580566,-0.4106473326683044,-1.8765411376953125,2.6110193729400635,-0.377458781003952,-9.06926727294922,3.711645364761353,-0.4613063931465149,0.2399372309446334,-0.6794668436050415,0.5176401734352112,-1.672143816947937,1.1805301904678345,2.731942653656006
2025-11-21 05:02:53.150,1.5628408193588257,-6.856639862060547,-5.4477620124816895,-0.4234301149845123,-2.25576400756836,3.2331154346466064,-0.1627559661865234,-9.069475173950195,3.726730346679688,-0.4586137533187866,0.2263140678405761,-0.6760770678520203,0.5304480791091919,-1.6144413948059082,1.180585861206055,2.6470823287963867
2025-11-21 05:02:53.160,0.4405847787857055,-5.961475372314453,-6.187162399291992,-0.3243634700775146,-2.5231375694274902,3.724187850952149,0.0832880511879921,-9.066278457641602,3.7371151447296143,-0.4553579688072204,0.2115400582551956,-0.6715685129165649,0.544881284236908,-1.5485131740570068,1.17972993850708,2.5514845848083496
2025-11-21 05:02:53.170,-1.1587332487106323,-4.196708679199219,-6.738120079040527,-0.1177082508802414,-2.6616177558898926,4.0608015060424805,0.3506295084953308,-9.060367584228516,3.73593020439148,-0.451480358839035,0.1966059058904647,-0.665934681892395,0.5603950619697571,-1.4772170782089231,1.1781518459320068,2.4495537281036377
2025-11-21 05:02:53.180,-2.1810524463653564,-2.3159122467041016,-6.773534297943115,0.2934716939926147,-2.486919641494751,4.222716808319092,0.637216329574585,-9.057295799255373,3.7053651809692383,-0.4471143186092376,0.1831485480070114,-0.6587621569633484,0.5766955614089966,-1.4004907608032229,1.177333950996399,2.343952417373657
2025-11-21 05:02:53.190,-2.2510430812835693,-1.5319805145263672,-5.537973880767822,0.8782846331596375,-2.10876202583313,4.1960859298706055,0.9367721676826476,-9.062190055847168,3.628988265991211,-0.4420271217823028,0.1723404377698898,-0.6500282287597656,0.5936110615730286,-1.318175196647644,1.1786376237869265,2.235860109329224
2025-11-21 05:02:53.200,-2.7487850189208984,-2.234912872314453,-4.361104488372803,1.364030838012695,-1.9873253107070925,4.022452831268311,1.2257076501846311,-9.07256317138672,3.515199661254883,-0.4356041252613067,0.1636932790279388,-0.6408672332763672,0.6105266213417053,-1.2352908849716189,1.1814146041870115,2.128548383712769
2025-11-21 05:02:53.210,-4.570773124694824,-3.912348747253418,-3.7172136306762695,1.6612309217453003,-1.995847225189209,3.754014253616333,1.4877315759658811,-9.08469581604004,3.380139112472534,-0.4281655848026275,0.1568947285413742,-0.6320845484733582,0.6265200972557068,-1.1561731100082395,1.1846870183944702,2.0264391899108887
2025-11-21 05:02:53.220,-6.054254531860352,-5.8353681564331055,-3.1984353065490723,1.809298276901245,-1.925541877746582,3.4110093116760254,1.7198808193206787,-9.096551895141602,3.23498797416687,-0.4203624129295349,0.1518200635910034,-0.6239079833030701,0.6410810947418213,-1.0821508169174194,1.1879098415374756,1.9317173957824707
2025-11-21 05:02:53.230,-6.620143890380859,-7.49091911315918,-2.6853673458099365,1.826341986656189,-1.8893239498138428,3.1489620208740234,1.9296599626541135,-9.10413932800293,3.0921576023101807,-0.4124922156333923,0.1475666463375091,-0.6163106560707092,0.6543970108032227,-1.012880802154541,1.189986228942871,1.8431435823440552
2025-11-21 05:02:53.240,-6.6462602615356445,-7.882776260375977,-2.462021827697754,1.763493299484253,-1.9670859575271609,3.05735182762146,2.130954504013061,-9.102842330932615,2.961026906967163,-0.4044703245162964,0.1429484784603119,-0.6090297698974609,0.6671223044395447,-0.9469921588897704,1.189630389213562,1.75743305683136
2025-11-21 05:02:53.250,-6.4474945068359375,-6.46539306640625,-2.6460678577423096,1.6889269351959229,-2.141784191131592,3.0317864418029785,2.3281710147857666,-9.091389656066896,2.8454575538635254,-0.3959774971008301,0.1372998803853988,-0.6020340919494629,0.6796362996101379,-0.8850522637367249,1.1865034103393557,1.6736345291137695
2025-11-21 05:02:53.260,-5.999567985534668,-4.312369346618652,-2.892669916152954,1.662296175956726,-2.2845253944396973,2.9380457401275635,2.5169215202331543,-9.073129653930664,2.7411346435546875,-0.3868119418621063,0.1308911889791488,-0.5954328179359436,0.6918842196464539,-0.8280142545700073,1.181566596031189,1.592742681503296
2025-11-21 05:02:53.270,-5.542002201080322,-2.802231788635254,-3.068092107772827,1.711296796798706,-2.4155490398406982,2.789978504180908,2.6923599243164062,-9.052492141723633,2.640830039978028,-0.3767382502555847,0.1241532266139984,-0.5893333554267883,0.7038042545318604,-0.7757361531257629,1.1760578155517578,1.514836668968201
2025-11-21 05:02:53.280,-5.328099250793457,-2.3712854385375977,-2.8421521186828613,1.8423205614089968,-2.6115520000457764,2.68665075302124,2.855653762817383,-9.031431198120115,2.539466381072998,-0.3653746843338012,0.1170866042375564,-0.5836890339851379,0.7156110405921936,-0.7268587350845337,1.1705104112625122,1.4379466772079468
2025-11-21 05:02:53.290,-5.179834365844727,-2.672443389892578,-1.885154366493225,1.9797356128692627,-2.787315368652344,2.664280891418457,3.0148367881774902,-9.007795333862305,2.4373669624328613,-0.3527163863182068,0.1094982922077179,-0.5781835317611694,0.7275335192680359,-0.6798765063285828,1.164370059967041,1.360331654548645
2025-11-21 05:02:53.300,-5.406702041625977,-3.076162338256836,-0.766189694404602,2.020214319229126,-2.987579107284546,2.664280891418457,3.1703226566314697,-8.978816986083984,2.345268726348877,-0.3390747308731079,0.1009839326143264,-0.5728532075881958,0.7393712401390076,-0.6369134783744812,1.1569591760635376,1.2840481996536257
2025-11-21 05:02:53.310,-5.779266357421875,-3.210585594177246,0.0042800903320312,1.9733442068099976,-3.185712575912476,2.640845775604248,3.320570707321167,-8.943615913391113,2.270667791366577,-0.3247119784355163,0.091339573264122,-0.5677632093429565,0.7509088516235352,-0.5997830629348755,1.1481214761734009,1.2110286951065063
2025-11-21 05:02:53.320,-6.098233699798584,-2.995011329650879,0.1161222457885742,1.8881255388259888,-3.326323270797729,2.61954116821289,3.4655215740203857,-8.902512550354004,2.214906692504883,-0.3101473152637481,0.0808864831924438,-0.5628187656402588,0.7619062066078186,-0.5686932802200317,1.1380170583724976,1.1427531242370603
2025-11-21 05:02:53.330,-6.539740085601807,-2.699652671813965,-0.6336683034896851,1.8348639011383057,-3.459477424621582,2.6110193729400635,3.606740951538086,-8.856664657592773,2.1728553771972656,-0.2953778803348541,0.0699069425463676,-0.5578713417053223,0.7724276781082153,-0.5422139167785645,1.1270006895065308,1.0781811475753784
2025-11-21 05:02:53.340,-7.053452968597412,-2.600308418273926,-1.5961666107177734,1.8806688785552976,-3.5233914852142334,2.574801445007324,3.7418386936187744,-8.810188293457031,2.1329805850982666,-0.2803890705108642,0.0591519102454185,-0.552919864654541,0.7824082374572754,-0.5180953145027161,1.1160881519317627,1.0160921812057495
2025-11-21 05:02:53.350,-7.365509033203125,-2.7448854446411133,-2.2217979431152344,2.021279573440552,-3.4669339656829834,2.471473693847656,3.869750499725342,-8.76693344116211,2.082378387451172,-0.2648744881153106,0.0492126084864139,-0.5479742288589478,0.7919241786003113,-0.4936741292476654,1.106146216392517,0.9541818499565125
2025-11-21 05:02:53.360,-7.371356964111328,-2.924001693725586,-2.416656494140625,2.2130215167999268,-3.43178129196167,2.3244717121124268,3.986385107040405,-8.729629516601562,2.0180907249450684,-0.248552918434143,0.0401252172887325,-0.5432687401771545,0.8009185194969177,-0.4686318337917328,1.09772789478302,0.891726016998291
2025-11-21 05:02:53.370,-7.436999320983887,-2.770444869995117,-2.000967502593994,2.3919806480407715,-3.3966286182403564,2.193314790725708,4.0937700271606445,-8.697033882141113,1.9424314498901367,-0.2313271313905716,0.0316217467188835,-0.5387725830078125,0.8094516396522522,-0.4430278837680816,1.0904840230941772,0.8282589912414551
2025-11-21 05:02:53.380,-7.545506000518799,-2.3460283279418945,-1.0489674806594849,2.5187435150146484,-3.286909580230713,2.0644216537475586,4.194257736206055,-8.667597770690918,1.8577746152877808,-0.2134240418672561,0.023652222007513,-0.5344089269638062,0.8174948692321777,-0.4169613420963287,1.0840277671813965,0.7641604542732239
2025-11-21 05:02:53.390,-7.296506404876709,-1.6740455627441406,0.2743803262710571,2.563483238220215,-3.209147691726685,1.9280717372894287,4.287550926208496,-8.639631271362305,1.7731515169143677,-0.194950059056282,0.0157139021903276,-0.530234694480896,0.824984073638916,-0.3921395242214203,1.0779658555984497,0.7005640268325806
2025-11-21 05:02:53.400,-7.165714740753174,-0.8396520614624023,1.2043274641036987,2.505960702896118,-3.245365619659424,1.8322007656097408,4.375338554382324,-8.61008358001709,1.7009608745574951,-0.176036924123764,0.007095543667674,-0.5261839032173157,0.8319201469421387,-0.3707802295684814,1.0716345310211182,0.6388516426086426
2025-11-21 05:02:53.410,-6.890993118286133,0.2804861068725586,1.7902432680130005,2.399437427520752,-3.3731935024261475,1.7533735036849976,4.456908226013184,-8.5782470703125,1.649248719215393,-0.1568558365106582,-0.0025875268038362,-0.5222587585449219,0.838233470916748,-0.3544179499149322,1.064894437789917,0.5802364945411682
2025-11-21 05:02:53.420,-6.734228134155273,1.5247650146484375,2.213869571685791,2.267348527908325,-3.424324750900269,1.6468502283096311,4.530909061431885,-8.545735359191895,1.6160602569580078,-0.1377026587724685,-0.0130364289507269,-0.5184766054153442,0.8438305854797363,-0.342608630657196,1.05809485912323,0.5251225233078003
2025-11-21 05:02:53.430,-6.941306114196777,2.798473358154297,2.5263571739196777,2.12460732460022,-3.405150413513184,1.4721519947052002,4.592061519622803,-8.516380310058594,1.5983232259750366,-0.1187355518341064,-0.0239643044769763,-0.5150687098503113,0.8485469222068787,-0.3349475264549255,1.0520251989364624,0.473724365234375
2025-11-21 05:02:53.440,-7.268146991729736,3.9994192123413086,2.5309548377990723,1.9882574081420896,-3.3774545192718506,1.2644315958023071,4.635940074920654,-8.493375778198242,1.594053030014038,-0.1003675162792205,-0.0350379310548305,-0.5122550129890442,0.852228581905365,-0.3311826586723327,1.047313570976257,0.4268667995929718
2025-11-21 05:02:53.450,-7.420907974243164,5.110100269317627,2.070154190063477,1.86469042301178,-3.2570831775665283,1.0386022329330444,4.663175106048584,-8.478161811828613,1.5956045389175415,-0.08350066095590586,-0.0452197398990392,-0.5104720890522003,0.8544033169746399,-0.3301663100719452,1.0453174114227295,0.3862353414297104
2025-11-21 05:02:53.460,-7.277706146240234,6.016855239868164,1.6208668947219849,1.747514724731445,-3.009948968887329,0.7563154697418213,4.67122220993042,-8.473737716674805,1.5955743789672852,-0.0666338056325912,-0.0554015487432479,-0.5086891651153564,0.8565780520439148,-0.3291499614715576,1.0433212518692017,0.345603883266449
2025-11-21 05:02:53.470,-7.107348442077637,6.37800669670105,1.545981228351593,1.6512887080510457,-2.789800802866618,0.5233845077455044,4.664341449737549,-8.47796106338501,1.593245029449463,-0.0591860748827457,-0.059672135859727804,-0.5085329711437225,0.8568877577781677,-0.32915398478507996,1.0441779494285583,0.3284440040588379
2025-11-21 05:02:53.480,-6.936990737915039,6.739158153533936,1.4710955619812012,1.555062691370646,-2.5696526368459067,0.2904535457491874,4.657460689544678,-8.482184410095215,1.5909156799316406,-0.0517383441329002,-0.0639427229762077,-0.5083767771720886,0.8571974635124207,-0.3291580080986023,1.045034646987915,0.3112841248512268
2025-11-21 05:02:53.490,-6.509265422821045,7.297417163848877,1.654462456703186,1.4588366746902466,-2.3495044708251958,0.0575225837528705,4.619388580322266,-8.504307746887207,1.5837916135787964,-0.0383818000555038,-0.0714354142546653,-0.5092874765396118,0.8567672371864319,-0.330297589302063,1.0495476722717283,0.2819142341613769
2025-11-21 05:02:53.500,-5.962065696716309,7.746423721313477,1.9114255905151367,1.274551272392273,-2.093848705291748,-0.3099828064441681,4.555325031280518,-8.539549827575684,1.579708218574524,-0.0265173632651567,-0.0783104449510574,-0.5114787817001343,0.8553091883659363,-0.3338058590888977,1.05681049823761,0.2580540776252746
2025-11-21 05:02:53.510,-5.065554141998291,7.7674241065979,2.292109489440918,1.065765619277954,-1.8999762535095213,-0.6700315475463867,4.464587688446045,-8.586652755737305,1.583421230316162,-0.0160967577248811,-0.0849415212869644,-0.5149313807487488,0.8528608083724976,-0.3408223688602447,1.0666662454605105,0.2402416914701461
2025-11-21 05:02:53.520,-3.964612007141113,7.399968147277832,2.6989426612854004,0.8314144015312195,-1.749778389930725,-1.009840965270996,4.347707271575928,-8.643563270568848,1.5989500284194946,-0.0071618426591157,-0.0915884599089622,-0.5195576548576355,0.8494822382926941,-0.3524157404899597,1.0788137912750244,0.2292347401380539
2025-11-21 05:02:53.530,-2.8667123317718506,6.875184535980225,2.996521472930908,0.5608451962471008,-1.6155589818954468,-1.34858500957489,4.20355749130249,-8.708828926086426,1.629963755607605,0.0001166990114143,-0.0984012484550476,-0.5253526568412781,0.845175564289093,-0.369908720254898,1.0930936336517334,0.2263892143964767
2025-11-21 05:02:53.540,-1.7384183406829834,6.083441734313965,3.377045154571533,0.2444709837436676,-1.4770787954330444,-1.6841334104537964,4.031949520111084,-8.780044555664062,1.6806520223617554,0.0055113150738179,-0.1055077165365219,-0.5322554707527161,0.8399654030799866,-0.3949333429336548,1.1091384887695312,0.2334757000207901
2025-11-21 05:02:53.550,-0.3703830242156982,4.962897300720215,3.7339019775390634,-0.1581871062517166,-1.346055030822754,-1.9717463254928589,3.836425065994263,-8.851953506469727,1.7593026161193848,0.0086533119902014,-0.1131583601236343,-0.5399925112724304,0.8339834213256836,-0.4299649596214294,1.1258829832077026,0.2531146705150604
2025-11-21 05:02:53.560,0.7844271659851074,3.2535648345947266,3.907217502593994,-0.6332810521125793,-1.2800105810165403,-2.156031608581543,3.624211072921753,-8.91745376586914,1.8746978044509888,0.009399376809597,-0.1217391490936279,-0.5480841398239136,0.8274629712104797,-0.477368414402008,1.1416642665863037,0.2872718870639801
2025-11-21 05:02:53.570,1.686436414718628,0.9099321365356444,4.2990827560424805,-1.096657395362854,-1.2736191749572754,-2.2103586196899414,3.403614282608032,-8.970406532287598,2.0291895866394043,0.0080856857821345,-0.1315485835075378,-0.5560206174850464,0.8206525444984436,-0.5376108288764954,1.1548312902450562,0.3354447185993194
2025-11-21 05:02:53.580,2.363375186920166,-1.9493942260742188,5.20925760269165,-1.456706166267395,-1.350316047668457,-2.044182062149048,3.1924679279327397,-9.003518104553223,2.217024087905884,0.0056419475004076,-0.1427519470453262,-0.5628954768180847,0.8140876889228821,-0.6069945096969604,1.1632683277130127,0.3922883570194244
2025-11-21 05:02:53.590,3.0896475315093994,-5.022762298583984,5.968649387359619,-1.6867965459823608,-1.490926742553711,-1.6234151124954224,3.0113308429718018,-9.011308670043944,2.4286978244781494,0.0028658595401793,-0.155188962817192,-0.5677862763404846,0.808410108089447,-0.6787038445472717,1.165277361869812,0.4500077962875366
2025-11-21 05:02:53.600,4.922774314880371,-7.909931182861328,5.970003604888916,-1.7176882028579712,-1.5463188886642456,-1.0279498100280762,2.8833200931549072,-8.994180679321289,2.6384756565093994,0.000218572167796,-0.1673977226018905,-0.5700610280036926,0.8043683171272278,-0.7410857081413269,1.1608726978302002,0.4983774721622467
2025-11-21 05:02:53.610,7.992586612701416,-9.919604301452637,4.9829864501953125,-1.4716193675994873,-1.6784077882766724,-0.38348388671875,2.8131885528564453,-8.960314750671387,2.8229610919952397,-0.0012563718482851,-0.1785408705472946,-0.5698161721229553,0.8021416068077087,-0.7871320843696594,1.152292251586914,0.530116081237793
2025-11-21 05:02:53.620,9.756780624389648,-10.542137145996094,2.7072882652282715,-1.0252867937088013,-1.894650101661682,0.2002638131380081,2.790811061859131,-8.921186447143555,2.9654974937438965,-0.0006511897081509,-0.1881991773843765,-0.5677052736282349,0.8014308214187622,-0.8157357573509216,1.1425801515579224,0.5434648990631104
2025-11-21 05:02:53.630,8.896371841430664,-9.418017387390137,-1.0298824310302734,-0.6130415797233582,-1.696516752243042,0.5720301270484924,2.804970979690552,-8.885746955871582,3.0571234226226807,0.0005738064064644,-0.1947845220565796,-0.5648409128189087,0.8018811941146851,-0.8283856511116028,1.1339586973190308,0.5444304943084717
2025-11-21 05:02:53.640,6.305941581726074,-7.2969970703125,-3.7623848915100098,-0.2050573527812957,-0.9082443118095398,0.6274222731590271,2.8433072566986084,-8.863458633422852,3.086275339126587,0.0009720307425595,-0.1966171860694885,-0.5624707937240601,0.8030986189842224,-0.82635098695755,1.1286170482635498,0.5389582514762878
2025-11-21 05:02:53.650,3.695470809936523,-4.329000473022461,-3.921612501144409,0.1933397948741912,0.090944267809391,0.4154408872127533,2.889602899551392,-8.859750747680664,3.05375075340271,0.0003355988592375,-0.1937517672777176,-0.5613657236099243,0.8045673370361328,-0.8130097389221191,1.1277340650558472,0.5307167172431946
2025-11-21 05:02:53.660,2.68835997581482,-1.0372800827026367,-3.5512049198150635,0.4415390789508819,0.8250229954719543,0.1320888996124267,2.932617425918579,-8.87041187286377,2.980926990509033,-0.0012839173432439,-0.1876893043518066,-0.5614720582962036,0.8059281706809998,-0.7935673594474792,1.1302770376205444,0.5225956439971924
2025-11-21 05:02:53.670,2.434266328811645,1.712468147277832,-3.550137042999268,0.5320838689804077,1.0774831771850586,0.0,2.971961498260498,-8.886131286621094,2.893872022628784,-0.0032139259856194,-0.1805577129125595,-0.5620240569114685,0.807166337966919,-0.7720863223075867,1.1340510845184326,0.5144714713096619
2025-11-21 05:02:53.680,-0.3066234588623047,2.5985774993896484,-3.248326778411865,0.4436695575714111,1.0796136856079102,-0.0170437283813953,3.0033271312713623,-8.900599479675293,2.81597900390625,-0.0051448862068355,-0.1740776449441909,-0.562645435333252,0.8081464171409607,-0.7532150149345398,1.1375521421432495,0.507976770401001
2025-11-21 05:02:53.690,-6.493162155151367,-0.9872846603393556,-0.4443311691284179,0.3115806579589844,1.03593909740448,-0.2609820961952209,2.9938173294067383,-8.922412872314453,2.756448268890381,-0.0065999841317534,-0.1693586260080337,-0.5645135045051575,0.8078357577323914,-0.7441419959068298,1.1428810358047483,0.5080476999282837
2025-11-21 05:02:53.700,-10.820810317993164,-7.765872001647949,1.918604612350464,0.1209039464592933,0.6171693801879883,-0.8479254841804504,2.904482364654541,-8.960363388061523,2.7287847995758057,-0.0074902772903442,-0.1675355583429336,-0.5690733194351196,0.8050038814544678,-0.7542188763618469,1.15230393409729,0.5223143696784973
2025-11-21 05:02:53.710,-11.268362045288086,-14.279809951782228,0.8106584548950195,-0.3563204407691955,-0.6664364337921143,-1.3198237419128418,2.7317209243774414,-9.000456809997559,2.774863243103028,-0.0075998757965862,-0.17148457467556,-0.5755988359451294,0.7995131015777588,-0.7932326197624207,1.1624811887741089,0.5559933185577393
2025-11-21 05:02:53.720,-12.222208023071287,-13.138016700744627,-4.255961418151856,-0.437278151512146,-1.4824049472808838,-1.3762810230255127,2.519925117492676,-9.041022300720217,2.8425841331481934,-0.0067597036249935,-0.1778524816036224,-0.5829992294311523,0.7927387356758118,-0.8454951643943787,1.1730278730392456,0.5980370044708252
2025-11-21 05:02:53.730,-12.451380729675291,-4.9357099533081055,-8.021839141845703,-0.135817214846611,-1.1670958995819092,-1.4934567213058472,2.319680690765381,-9.087590217590332,2.8644673824310303,-0.0062921186909079,-0.1810179948806762,-0.5907297730445862,0.7862768173217773,-0.8901008367538452,1.1854711771011353,0.6376733779907227
2025-11-21 05:02:53.740,-10.327062606811523,3.4954099655151367,-8.584952354431152,0.0921426564455032,-1.1180951595306396,-1.7991786003112793,2.100901365280152,-9.140266418457031,2.8656857013702397,-0.0051865996792912,-0.1835321485996246,-0.5993328094482422,0.7791593074798584,-0.9381840229034424,1.2000236511230469,0.6808589100837708
2025-11-21 05:02:53.750,-5.694883823394775,8.539387702941895,-6.292645454406738,0.1304910480976104,-1.4994486570358276,-1.8694839477539065,1.8757480382919312,-9.1858549118042,2.8761160373687744,-0.002372930990532,-0.188138261437416,-0.6074269413948059,0.771771252155304,-0.992889642715454,1.2130730152130127,0.7251194715499878
2025-11-21 05:02:53.760,-1.1686723232269287,9.411453247070312,-1.7066465616226196,0.0079892473295331,-2.070413589477539,-1.4199556112289429,1.684867024421692,-9.210500717163086,2.9151828289031982,0.0029096982907503,-0.1965095102787017,-0.6127640008926392,0.7654383182525635,-1.0467385053634644,1.2203210592269895,0.7593427300453186
2025-11-21 05:02:53.770,1.0368162393569946,8.117514610290527,0.7062110900878906,-0.2252967804670334,-2.6626830101013184,-0.7499240636825562,1.5415451526641846,-9.212790489196776,2.9863858222961426,0.0100567555055022,-0.2083206623792648,-0.6148215532302856,0.7605891227722168,-1.0942798852920532,1.2210019826889038,0.7793635725975037
2025-11-21 05:02:53.780,0.0637379884719848,5.319721698760986,0.9949741363525392,-0.3126458823680877,-2.559355497360229,-0.2556559145450592,1.4417017698287964,-9.204824447631836,3.0599188804626465,0.0170668289065361,-0.2199247628450393,-0.6149201393127441,0.7571096420288086,-1.1304882764816284,1.218638896942139,0.7884024977684021
2025-11-21 05:02:53.790,-1.2712419033050537,1.1247644424438477,1.8534064292907717,-0.0995992869138717,-1.988390564918518,-0.2151770740747451,1.3570706844329834,-9.203485488891602,3.10235595703125,0.0232603549957275,-0.2287345677614212,-0.6152147054672241,0.7540890574455261,-1.1584426164627075,1.2182433605194092,0.7944524884223938
2025-11-21 05:02:53.800,-0.6884346008300781,-4.016388893127441,4.061824321746826,0.2007964253425598,-1.1947920322418213,-0.5336817502975464,1.2668365240097046,-9.215184211730955,3.1057827472686768,0.0278813242912292,-0.23380047082901,-0.6170467138290405,0.7508750557899475,-1.1835014820098877,1.221714973449707,0.8054711818695068
2025-11-21 05:02:53.810,2.1575546264648438,-5.3373026847839355,4.481491804122925,0.20931828767061228,-0.44486796855926514,-0.7813484072685242,1.1847630739212036,-9.230888366699219,3.0903390645980835,0.02810072991997,-0.23393187671899796,-0.6203698217868805,0.7480698823928833,-1.2049865126609802,1.226458728313446,0.8266014158725739
2025-11-21 05:02:53.820,5.003543853759766,-6.65821647644043,4.901159286499023,0.2178401499986648,0.305056095123291,-1.029015064239502,1.1026896238327026,-9.24659252166748,3.0748953819274902,0.0283201355487108,-0.2340632826089859,-0.6236929297447205,0.7452647089958191,-1.2264715433120728,1.231202483177185,0.8477316498756409
2025-11-21 05:02:53.830,6.681887149810791,-3.8246469497680655,2.990492343902588,0.2306229472160339,0.7483261823654175,-0.8457950353622437,1.061978459358215,-9.260032653808594,3.0486690998077397,0.0254470016807317,-0.2303669303655624,-0.6267257928848267,0.7439746260643005,-1.2355995178222656,1.2353408336639404,0.8665846586227417
2025-11-21 05:02:53.840,5.312402248382568,-1.5420169830322266,1.0556433200836182,0.2466014474630355,0.7983921766281128,-0.4591154456138611,1.0559147596359253,-9.270808219909668,3.017871379852295,0.0228149648755788,-0.2261310815811157,-0.6285125613212585,0.7438522577285767,-1.2342216968536377,1.2386949062347412,0.8753257393836975
2025-11-21 05:02:53.850,3.0461320877075195,-0.5508203506469727,-1.083601713180542,0.1890788674354553,0.519167959690094,-0.1715025156736374,1.0629969835281372,-9.2785062789917,2.9916138648986816,0.0210598651319742,-0.2227858453989029,-0.6294193267822266,0.7441466450691223,-1.2293847799301147,1.241110920906067,0.8779909014701843
2025-11-21 05:02:53.860,0.9236260652542114,-0.3658256530761719,-3.6803719997406006,0.1240996494889259,0.2635120153427124,-0.0575225837528705,1.068004846572876,-9.285320281982422,2.9685981273651123,0.0196922030299901,-0.2200107723474502,-0.6301921606063843,0.7443556189537048,-1.225446701049805,1.2432639598846436,0.8801454305648804
2025-11-21 05:02:53.870,-0.9949380159378052,-0.0687026977539062,-5.732754707336426,0.152860939502716,0.2571206092834472,-0.0074566313996911,1.072988510131836,-9.294251441955566,2.9387030601501465,0.0182869657874107,-0.2167361229658126,-0.6311246156692505,0.7445621490478516,-1.2207130193710327,1.2461068630218506,0.8822989463806152
2025-11-21 05:02:53.880,-2.0742619037628174,0.445281982421875,-6.762617111206055,0.2519276142120361,0.2177069932222366,0.025565592572093,1.0774070024490356,-9.306522369384766,2.897969007492065,0.0173205267637968,-0.2131022661924362,-0.6321827173233032,0.7447364926338196,-1.2148518562316897,1.250052571296692,0.8832314014434814
2025-11-21 05:02:53.890,-2.016178846359253,1.077580451965332,-6.866033554077148,0.3584509193897247,0.086683340370655,0.0703053772449493,1.0824322700500488,-9.321124076843262,2.8487489223480225,0.017205910757184,-0.2096084207296371,-0.6331474184989929,0.7449111938476562,-1.2076778411865234,1.2548094987869265,0.8814233541488647
2025-11-21 05:02:53.900,-0.9649852514266968,1.5263261795043943,-6.261383533477783,0.4553871154785156,-0.0613840520381927,0.1235670298337936,1.0908595323562622,-9.336877822875977,2.7934060096740723,0.0180167388170957,-0.2064518928527832,-0.633844792842865,0.7451803684234619,-1.1984952688217163,1.26002037525177,0.8757787346839905
2025-11-21 05:02:53.910,0.0580235719680786,1.6078271865844729,-5.142294883728027,0.5501928329467773,-0.2392779737710952,0.1683068126440048,1.1010072231292725,-9.353387832641602,2.733551263809204,0.0199299119412899,-0.2039133161306381,-0.6342583298683167,0.7454787492752075,-1.187899827957153,1.2655738592147827,0.8662301301956177
2025-11-21 05:02:53.920,0.5452419519424438,1.5350456237792969,-4.06289005279541,0.6077154278755188,-0.3979976773262024,0.1661763489246368,1.1078871488571167,-9.370266914367676,2.67227554321289,0.022746967151761,-0.2020867317914962,-0.6345663070678711,0.7456333637237549,-1.1777795553207395,1.2713545560836792,0.8548175692558289
2025-11-21 05:02:53.930,0.8941153287887573,1.5251893997192385,-3.2801809310913086,0.6215634942054749,-0.5215647220611572,0.1075885370373725,1.1070002317428589,-9.387139320373535,2.612767457962036,0.0260817930102348,-0.2009076029062271,-0.6349762678146362,0.7454938292503357,-1.170037031173706,1.2772432565689087,0.8440954685211182
2025-11-21 05:02:53.940,1.330902934074402,1.5534038543701172,-2.6358115673065186,0.605584979057312,-0.631283700466156,0.0553921163082122,1.09965181350708,-9.40328884124756,2.5572102069854736,0.0297594275325536,-0.2003635764122009,-0.6354429721832275,0.7451046705245972,-1.1646809577941897,1.2829885482788086,0.8343390226364136
2025-11-21 05:02:53.950,1.808876395225525,1.5087175369262695,-2.012190818786621,0.5651060938835144,-0.7271546721458435,0.0351526886224746,1.0893921852111816,-9.417794227600098,2.507741689682007,0.0336567126214504,-0.2004586011171341,-0.6358245015144348,0.7445876598358154,-1.1609809398651123,1.288246750831604,0.8249818086624146
2025-11-21 05:02:53.960,2.1460113525390625,1.4911727905273438,-1.5297399759292605,0.5171706080436707,-0.8507217168807983,0.050065953284502,1.078583598136902,-9.430294036865234,2.465075969696045,0.0378532707691192,-0.2012839764356613,-0.6359971165657043,0.7440158724784851,-1.1583476066589355,1.2928553819656372,0.8151828646659851
2025-11-21 05:02:53.970,2.407674789428711,1.8227739334106443,-1.2912936210632324,0.4649742245674133,-0.97641921043396,0.1097190007567405,1.071404218673706,-9.440388679504396,2.4293081760406494,0.0423515178263187,-0.2028001993894577,-0.6358031630516052,0.7435272336006165,-1.15542471408844,1.2966318130493164,0.8036333918571472
2025-11-21 05:02:53.980,2.3537731170654297,2.585409164428711,-1.119432806968689,0.4021254777908325,-1.0019848346710205,0.2322207987308502,1.0756525993347168,-9.447254180908203,2.400573253631592,0.0468925423920154,-0.2046986520290374,-0.6350239515304565,0.7434003949165344,-1.1495388746261597,1.2992295026779177,0.7884716391563416
2025-11-21 05:02:53.990,1.7197225093841553,3.3967714309692383,-0.8320467472076416,0.3094501793384552,-0.938070833683014,0.4090494811534881,1.0972042083740234,-9.449667930603027,2.381242275238037,0.0512301288545131,-0.2068444639444351,-0.6334615349769592,0.7438530325889587,-1.1390224695205688,1.3001484870910645,0.7685677409172058
2025-11-21 05:02:54.000,0.7567918300628662,4.207955360412598,-0.456524133682251,0.1773612946271896,-0.8091776371002197,0.5826824903488159,1.1363753080368042,-9.44667148590088,2.3747498989105225,0.0550652481615543,-0.2091911137104034,-0.6311101913452148,0.7449206709861755,-1.124476671218872,1.299008011817932,0.7450116276741028
2025-11-21 05:02:54.010,1.4212419986724854,5.038703918457031,-0.0128717422485351,0.0474028699100017,-0.7548507452011108,0.6934667229652405,1.189260959625244,-9.438368797302246,2.3818564414978027,0.0583981722593307,-0.2118223756551742,-0.6280890703201294,0.746475100517273,-1.1077090501785278,1.2958722114562988,0.7194868922233582
2025-11-21 05:02:54.020,2.085561990737915,5.632068634033203,0.1330518722534179,-0.0431419387459754,-0.82196044921875,0.7722939252853394,1.2496991157531738,-9.426088333129885,2.399477005004883,0.0616452656686306,-0.2149484008550644,-0.6245640516281128,0.748275876045227,-1.0906305313110352,1.2912966012954712,0.6930027008056641
