time,seconds_elapsed,z,y,x
1763698893262811000,0.068810791015625,8.431630059051512,4.230703971099853,1.3441945945739746
1763698893272762000,0.07876220703125,8.091054872894286,4.076876514434814,1.5906477279663085
1763698893282714000,0.088714111328125,7.826345951843261,3.9477392623901366,1.7736545173645017
1763698893292665000,0.0986650390625,7.7121724601745605,3.9805098976135254,1.8152537712097168
1763698893302616000,0.108615966796875,7.883357878875732,4.112789539337158,1.669506745147705
1763698893312568000,0.118568115234375,8.185775476074218,4.202721739196777,1.5285481224060058
1763698893322519000,0.12851904296875,8.329277938079834,4.2597336662292475,1.4350246200561523
1763698893332470000,0.138469970703125,8.328679387664794,4.220827889251709,1.4252981758117675
1763698893342422000,0.148422119140625,8.349628652191162,4.07956999130249,1.482459740447998
1763698893352373200,0.158373291015625,8.517522043609619,4.001608799743652,1.4600140998840332
1763698893362324000,0.168323974609375,8.768165029907227,3.942950859069824,1.3922282653808593
1763698893372275500,0.178275390625,8.996512013244628,3.8435914901733397,1.3919289901733398
1763698893382226400,0.188226318359375,9.228749574279785,3.630657180023193,1.4651017784118652
1763698893392177400,0.198177490234375,9.456647644805908,3.386897523498535,1.5668553489685058
1763698893402129400,0.20812939453125,9.60852981262207,3.2261867370605466,1.5158289260864257
1763698893412080600,0.21808056640625,9.887005393218994,3.2811037376403807,1.4071920257568358
1763698893422031400,0.22803125,10.1261262840271,3.0570962448120116,1.3581108917236326
1763698893431983400,0.2379833984375,10.235511372375488,2.8145336891174315,1.3884873252868652
1763698893441934300,0.247934326171875,10.255712448883056,2.6330232757568357,1.5026608169555664
1763698893451885600,0.257885498046875,10.377068545532225,2.427271570587158,1.5801730957031248
1763698893461837300,0.26783740234375,10.414777221679687,2.255038688659668,1.480514451599121
1763698893471788300,0.277788330078125,10.480468129730223,2.2571336151123047,1.4182652084350584
1763698893481740500,0.287740478515625,10.627711531829833,2.2746412147521973,1.209221475982666
1763698893491691300,0.297691162109375,10.767622691345213,2.2240637046813965,0.8462006492614745
1763698893501642500,0.307642578125,10.805181729888915,2.2761375907897947,0.55545478515625
1763698893511594200,0.31759423828125,10.510545288085936,2.3644237770080565,0.21009119567871093
1763698893521545500,0.32754541015625,10.024073438262938,2.4353520011901852,0.3205237472534179
1763698893531496400,0.337496337890625,9.60239467086792,2.7335797454833983,0.2736871772766113
1763698893541448400,0.347448486328125,9.530418983459471,3.314024010467529,-0.3387795349121094
1763698893551399400,0.3573994140625,9.875632935333252,3.9585131698608396,-1.371428638458252
1763698893561350400,0.367350341796875,10.470592047882079,4.1183261306762695,-2.427720483398437
1763698893571302400,0.377302490234375,11.003601192474365,3.7102643852233883,-2.944419129180908
1763698893581253600,0.387253662109375,11.123760188293456,3.0454245117187497,-3.1438860549926755
1763698893591204400,0.397204345703125,10.75744733428955,2.4721628517150878,-2.970605709838867
1763698893601156400,0.40715625,9.303418738555907,4.187458703613281,-3.5321956367492673
1763698893611107300,0.417107421875,9.328258580780028,3.6730046218872068,-2.6593594940185543
1763698893621058600,0.42705859375,7.363067930603027,4.555267933654785,-3.668365856170654
1763698893631010300,0.43701025390625,8.45901374053955,4.559008873748779,-2.923320227050781
1763698893640961500,0.44696142578125,7.6196964210510245,3.4448072761535644,-3.224540723419189
1763698893650912500,0.45691259765625,6.787112793731689,3.070264353942871,-2.677615281677246
1763698893660864300,0.4668642578125,6.974159798431396,2.3235727111816407,-2.4904186393737793
1763698893670815500,0.4768154296875,7.761852144622802,1.3015478775024414,-2.5622446891784665
1763698893680766500,0.486766357421875,7.874828535461425,0.709880792236328,-2.6651953605651855
1763698893690718500,0.496718505859375,7.87856947555542,0.7661445312499999,-2.877980033111572
1763698893700669400,0.50666943359375,7.709179708099365,1.0829273384094238,-3.47308878326416
1763698893710620400,0.516620361328125,7.5059718421936035,1.6141408317565917,-3.962703022766113
1763698893720572400,0.526572509765625,7.470807005310058,2.291400626373291,-4.36672455291748
1763698893730523400,0.5365234375,7.269394790649414,2.861968809509277,-4.397400261688232
1763698893740474400,0.546474365234375,6.968174294281005,3.170371910858154,-4.196436959838867
1763698893750426400,0.55642626953125,6.5683426170349115,3.01983648147583,-3.925742534637451
1763698893760377300,0.56637744140625,6.520308946228027,2.701258023071289,-3.434183006286621
1763698893770329600,0.57632958984375,5.991788929748535,2.361431024932861,-3.656843760681152
1763698893780280300,0.5862802734375,6.045359191894531,2.211943058776855,-4.127603662109375
1763698893790231600,0.5962314453125,6.411522408294678,2.637362766265869,-4.073734124755859
1763698893800183300,0.606183349609375,6.504297722625732,3.3105823455810546,-4.135983367919922
1763698893810134500,0.616134521484375,6.429478920745849,4.046649718475342,-4.530278453826904
1763698893820085500,0.62608544921875,5.823895538330078,4.284872783660888,-4.698321482849121
1763698893830037200,0.636037353515625,5.63699817123413,3.8132150566101073,-4.29055901260376
1763698893839988500,0.645988525390625,5.875670149230957,3.149123371124267,-3.6290111663818356
1763698893849939500,0.655939453125,6.294505802154541,2.8293478118896482,-3.0048727210998534
1763698893859891500,0.665891357421875,6.350470265960693,3.2243910858154297,-3.0979473106384274
1763698893869842200,0.67584228515625,6.696582043457031,3.8141128822326658,-3.5782840187072753
1763698893879793400,0.68579345703125,6.647351271820068,4.274098876190186,-3.501819203186035
1763698893889745400,0.695745361328125,6.969072119903564,4.307318424224853,-3.722684306335449
1763698893899696400,0.7056962890625,7.956829942321777,4.09228918762207,-4.574720822143554
1763698893909647400,0.7156474609375,8.83550195159912,4.105606934356689,-5.510554396057128
1763698893919599400,0.725599365234375,9.456647644805908,4.304325672149658,-6.523152060699463
1763698893929550300,0.73555029296875,10.059687187957763,4.454112913513184,-7.401824069976806
1763698893939501600,0.74550146484375,9.911396322631836,4.259883303833008,-7.563881594848632
1763698893949453300,0.755453369140625,9.331849883270262,3.1220389648437497,-4.508581001281738
1763698893959404500,0.765404541015625,10.398765998077392,4.965424605560303,-8.932916031646728
1763698893969355300,0.775355224609375,11.563844380950927,3.680636139678955,-6.8876692634582515
1763698893979307500,0.7853076171875,11.169698932647705,3.1591490905761717,-7.613561279296874
1763698893989258500,0.795258544921875,10.351480515289307,3.270030554962158,-7.8435542762756345
1763698893999209500,0.80520947265625,9.09093334121704,3.819050923156738,-8.102576968383788
1763698894009161500,0.815161376953125,8.588899180603027,4.674229828643798,-8.737040408325194
1763698894019112400,0.825112548828125,9.184157568359375,4.694730180358887,-9.555707738494872
1763698894029064400,0.835064453125,9.30910496749878,4.2521021484374995,-9.739313078308104
1763698894039015200,0.84501513671875,8.55463216934204,3.7134067749023436,-9.132682232666015
1763698894048966400,0.85496630859375,7.454346868896484,3.5901053894042967,-8.863035270690917
1763698894058918400,0.86491845703125,6.401646326446532,3.9414544830322265,-9.57067149887085
1763698894068869400,0.874869384765625,5.485564916229248,4.400991564178467,-11.19827971496582
1763698894078820400,0.8848203125,4.5863925552368165,4.770746083068848,-12.982109589385985
1763698894088772400,0.8947724609375,3.861847277832031,4.525190775299072,-14.027627526855468
1763698894098723300,0.904723388671875,2.8899510414123535,3.5372833152770995,-13.88008484954834
1763698894108674600,0.914674560546875,1.6114473548889159,2.648136673736572,-13.32373223876953
1763698894118626300,0.924626220703125,0.8227075454711914,2.6607062324523922,-13.278092769622802
1763698894128577500,0.93457763671875,-0.08843582382202148,3.6734535346984862,-13.55971073989868
1763698894138528300,0.9445283203125,0.206200617980957,3.1096190437316893,-13.698724073791503
1763698894148480500,0.95448046875,0.23358429946899412,3.218255944061279,-13.651887503814697
1763698894158431200,0.96443115234375,0.03127425918579101,3.289184168243408,-12.823344091796875
1763698894168382500,0.974382568359375,0.32935236587524414,2.648435948944092,-12.127080321502685
1763698894178334500,0.98433447265625,0.14454992523193358,2.4748563285827636,-11.316643059539794
1763698894188285400,0.994285400390625,-0.4317044868469238,2.577208449554443,-10.512789852142333
1763698894198236400,1.004236328125,-0.733523533630371,2.3876176055908203,-9.703400053405762
1763698894208188400,1.0141884765625,-0.4704606262207031,2.3005285202026364,-8.84926861114502
1763698894218139400,1.024139404296875,-0.051774610900878905,2.3591864608764648,-8.022221575164794
1763698894228090600,1.034090576171875,0.23223756103515625,2.6376620414733885,-7.291690793609619
1763698894238042400,1.04404248046875,0.8436568099975585,3.021033582305908,-6.3061775352478024
1763698894247993300,1.053993408203125,1.6039654747009275,3.4056022239685055,-5.342062454223632
1763698894257944300,1.0639443359375,2.4123078102111815,3.4825159523010254,-4.348618402862549
1763698894267896300,1.073896240234375,2.766799293518066,3.142838591766357,-3.0915128936767577
1763698894277847600,1.08384765625,2.571073307800293,2.9893104103088377,-2.586037068176269
1763698894287798500,1.093798583984375,2.4117092597961425,3.4741362464904784,-2.7826608795166012
1763698894297750500,1.10375048828125,2.3196821334838864,4.336797032165527,-3.3749265151977537
1763698894307701200,1.113701171875,2.3630770385742186,4.878485157775879,-4.533271205902099
1763698894317652500,1.123652587890625,2.4028806411743164,5.016451028442383,-5.689820245361328
1763698894327604200,1.133604248046875,3.1144074470520016,5.502623603057861,-5.620687672424316
1763698894337555500,1.143555419921875,5.069722015380859,7.361721192169189,-3.854215760040283
1763698894347506400,1.15350634765625,4.376450997161865,5.694309373474121,-8.281393904876708
1763698894357458400,1.16345849609375,3.865139305114746,4.271555036926269,-9.347711469268798
1763698894367410700,1.17341064453125,5.383063157653808,6.580612900543213,-9.695918173217773
1763698894377362700,1.18336279296875,3.5583822174072264,5.801749172973633,-9.907206469726562
1763698894387313700,1.193313720703125,4.716577270507813,5.627870277404785,-9.938181453704834
1763698894397264600,1.2032646484375,4.9555485237121575,4.433762199401855,-8.582913676452636
1763698894407216600,1.213216552734375,8.902539598083495,3.2386066581726074,-5.634753607177734
1763698894417167600,1.223167724609375,7.91687670211792,4.595520449066162,-4.181173924255371
1763698894427118600,1.23311865234375,6.653486413574218,4.958541275787353,-5.992237842559814
1763698894437070600,1.243070556640625,4.723161325073242,2.817975354003906,-7.919121266174316
1763698894447021800,1.253021728515625,3.2755671463012694,2.4096143333435056,-6.985382618713379
1763698894456972500,1.26297265625,3.3520319618225094,1.5261539207458494,-5.783194110107422
1763698894466924500,1.272924560546875,3.545663021087646,1.2478279777526855,-5.78424157333374
1763698894476875500,1.28287548828125,4.486135360717773,1.534084713745117,-6.62056614074707
1763698894486826800,1.29282666015625,5.820753148651122,2.142810485839844,-7.8252984886169425
1763698894496778800,1.30277880859375,7.096712995910644,2.2430676803588865,-8.214805171203613
1763698894506729700,1.312729736328125,7.6176014945983885,2.0446482177734375,-7.317877374267578
1763698894516680700,1.3226806640625,7.871386870574951,1.88977329788208,-6.147262400054931
1763698894526632400,1.332632568359375,7.270741529083251,2.0555717628479004,-5.710021321868896
1763698894536583700,1.342583740234375,6.034884559631347,1.4902408958435058,-5.836165821838379
1763698894546534700,1.35253466796875,4.872948566436767,1.64077632522583,-6.631489685821533
1763698894556486700,1.362486572265625,4.380940125274658,1.9782091217041013,-7.830086891937255
1763698894566437600,1.372437744140625,4.350563691711425,1.6807295654296874,-9.030629386901856
1763698894576388600,1.382388671875,4.671985264587402,1.5842133110046386,-9.169941996002196
1763698894586340600,1.392340576171875,5.14573791809082,1.7874211769104003,-8.86168853225708
1763698894596291600,1.40229150390625,6.161627610015869,2.233790148925781,-8.790311395263672
1763698894606242600,1.41224267578125,7.496395035552978,2.817526441192627,-8.994267449188232
1763698894616194800,1.42219482421875,8.85525411529541,3.419518521118164,-9.070283351898192
1763698894626145500,1.4321455078125,10.238354486846923,3.8914755233764646,-9.00204860458374
1763698894636096800,1.4420966796875,10.992976922607422,3.585466623687744,-8.86767403640747
1763698894646048500,1.452048583984375,10.699238306427,2.5528175201416015,-8.954164571380614
1763698894655999700,1.461999755859375,10.262745416259765,2.1930887207031247,-8.89266351623535
1763698894665950500,1.471950439453125,9.395745140075682,2.663399709320068,-9.198073865509032
1763698894675902700,1.48190283203125,9.025242433166504,3.042731034851074,-9.78734674911499
1763698894685853700,1.491853759765625,8.692747677612305,3.7346553146362305,-10.117447303009033
1763698894695804700,1.5018046875,8.0314991065979,3.9644986740112302,-10.027814378356933
1763698894705756700,1.511756591796875,7.237821256256103,3.791517604064941,-9.796175367736815
1763698894715707600,1.521707763671875,6.414814435577393,4.133140253448486,-10.300753367614746
1763698894725659600,1.53165966796875,5.561580818939209,4.2509050476074215,-11.45326219177246
1763698894735610600,1.541610595703125,4.750545006561279,3.9139211639404294,-12.675202864074706
1763698894745561600,1.5515615234375,3.393032665252685,3.4680011047363277,-13.293505442810059
1763698894755513600,1.561513671875,1.9431939224243162,3.1763574150085447,-12.960861049652099
1763698894765464600,1.571464599609375,1.2381015335083008,2.8794764091491696,-12.308441097259522
1763698894775415600,1.58141552734375,0.9424176284790039,2.4836849472045897,-11.565490394592285
1763698894785367800,1.591367919921875,-0.04444236831665039,2.104503259277344,-10.895113929748534
1763698894795318500,1.601318603515625,-0.17028759307861327,2.5489269424438477,-9.522338552856445
1763698894805269800,1.611269775390625,6.320991658020019,4.297591979980469,-9.88910031967163
1763698894815221500,1.621221435546875,6.192004043579101,6.806266407012939,-9.042151482391358
1763698894825172700,1.6311728515625,3.020883944702148,4.251653235626221,-7.286453477478027
1763698894835123500,1.64112353515625,0.7888894470214843,3.0750527572631836,-5.949291850280761
1763698894845075700,1.65107568359375,-0.6100725105285644,3.842095114135742,-6.9339072830200195
1763698894855026700,1.661026611328125,-1.7088614349365234,4.482843333435058,-8.987683394622803
1763698894864977700,1.670977783203125,-1.5364789154052734,4.0726866615295405,-9.400084630584717
1763698894874929700,1.6809296875,-1.1586439659118652,2.907309003448486,-8.061576264953613
1763698894884880600,1.690880615234375,1.17480482711792,1.8691233085632324,-5.744587608337402
1763698894894831600,1.70083154296875,-1.4059949249267578,1.6744447860717773,-3.6770448371887205
1763698894904783600,1.71078369140625,-0.3220201232910156,0.9472060317993164,-4.576366835784912
1763698894914734600,1.720734619140625,-0.9311948081970214,2.3636755889892576,-5.766733973693848
1763698894924685800,1.730685791015625,-0.8255506599426269,2.614917125701904,-5.5918076148986815
1763698894934637600,1.740637451171875,-0.9160814102172851,1.7158944023132323,-5.565770671844482
1763698894944588500,1.750588623046875,-1.2603975364685058,1.1783961296081542,-5.858461824798583
1763698894954539500,1.76053955078125,-0.5928641860961914,0.4182371025085449,-5.88045855255127
1763698894964491500,1.770491455078125,-0.4305073860168457,0.8716390419006347,-5.7806502708435055
1763698894974442800,1.78044287109375,-0.0661398208618164,1.8269255043029784,-5.8919806480407715
1763698894984393500,1.7903935546875,1.1358990501403807,2.1059996353149413,-5.946448735809326
1763698894994345700,1.800345703125,2.0322282966613767,1.9295769004821777,-6.008847616577148
1763698895004296400,1.81029638671875,0.41629181365966794,2.120813758087158,-7.277175946044921
1763698895014247700,1.82024755859375,1.0274117874145507,2.3946505729675294,-8.260594277954102
1763698895024199700,1.83019970703125,1.7755998062133789,2.7706898712158203,-10.545111574554443
1763698895034150700,1.840150634765625,3.453186981964111,2.482787121582031,-12.254272284698486
1763698895044101600,1.8501015625,5.380369680786132,3.504363042449951,-13.398251765441893
1763698895054053600,1.8600537109375,5.654655408477783,5.665578953552246,-18.11393121032715
1763698895064004600,1.870004638671875,5.219209981536865,6.293607976531982,-21.747281867218017
1763698895082663400,1.888663330078125,4.019864587402344,3.746327047729492,-24.384494995880125
1763698895092614700,1.89861474609375,4.803367080688476,2.8760347442626952,-24.120085350036618
1763698895102566700,1.908566650390625,6.029647243499755,0.7601590270996094,-23.722049324035645
1763698895112517600,1.918517578125,6.619668315124511,0.5074211143493652,-21.95737306289673
1763698895122468600,1.928468505859375,8.197746484375,0.6715735656738281,-18.519449116516114
1763698895132420600,1.938420654296875,9.149890557098388,0.5620388397216797,-15.525948853302001
1763698895142371600,1.94837158203125,9.702053314971923,-0.15233108062744138,-12.236016497039794
1763698895152323800,1.95832373046875,9.635464581298828,0.14829086532592772,-8.687809636688232
1763698895162274600,1.968274658203125,9.162310478210449,0.330699104309082,-5.699845964813232
1763698895172225800,1.978225830078125,8.674641527557373,-0.06928221054077148,-2.8850130004882812
1763698895182177500,1.988177490234375,8.208670029449463,0.16250643768310546,-0.6268319221496582
1763698895192128800,1.998128662109375,8.313565989685058,0.38202480239868164,0.6919242797851562
1763698895202079500,2.00807958984375,8.221987776184081,0.29777883148193357,1.7850269752502441
1763698895212031500,2.018031494140625,7.74404526977539,0.12599486236572266,2.768146031951904
1763698895221982700,2.027982666015625,7.13786333694458,-0.4504091873168945,3.4138322921752926
1763698895231933700,2.03793359375,5.814019456481933,-0.6607996582031249,3.6049195121765134
1763698895241885700,2.0478857421875,4.8600797325134275,0.16430208892822265,3.3010055389404296
1763698895251836400,2.05783642578125,5.176862539672851,0.9516951599121093,2.96237564163208
1763698895261787600,2.06778759765625,5.596596018218994,0.9693523971557617,2.684498611450195
1763698895271739600,2.07773974609375,5.609614489746093,-0.10848726272583008,2.6568156547546384
1763698895281690600,2.087690673828125,5.88614478149414,-0.8774749084472656,2.927061167144775
1763698895291641600,2.0976416015625,5.697751038360595,-1.1073182678222655,2.2285528327941893
1763698895301593600,2.107593505859375,5.977872632598877,-1.4948796615600586,2.5184008712768553
1763698895311544600,2.117544677734375,5.56038371810913,-1.8613421531677246,0.946158568572998
1763698895321495600,2.12749560546875,5.6006362335205075,-1.7298106994628906,-1.9473837753295897
1763698895331447600,2.137447509765625,5.344307018280029,-1.4018050720214843,-5.907991871643066
1763698895341398800,2.147398681640625,5.961113220977783,-0.38187516479492184,-9.80051485824585
1763698895351349500,2.157349609375,6.969969945526123,1.0778396598815918,-12.25157880783081
1763698895361301800,2.1673017578125,7.650072854614257,2.45794727935791,-13.315801445770262
1763698895371252500,2.17725244140625,6.6431614189147945,3.6080619018554687,-13.622408895874022
1763698895381203000,2.187202880859375,4.844517421722411,3.742586107635498,-15.765219381713866
1763698895391154700,2.19715478515625,4.633827675628662,4.331260440826416,-17.44325547027588
1763698895401106000,2.20710595703125,6.605602380371093,4.045901530456542,-19.779397740173337
1763698895411056600,2.217056640625,6.982838779449462,3.525910857391357,-23.18799271621704
1763698895421009000,2.2270087890625,7.199214754486084,3.637091596984863,-25.25104635925293
1763698895430959900,2.2369599609375,6.6337342498779295,3.3616087684631344,-27.450270221710202
1763698895440910800,2.246910888671875,6.418256100463867,2.6466402976989745,-27.31260362625122
1763698895450862800,2.25686279296875,5.210082087707519,1.9702783287048338,-25.923368112945557
1763698895460813800,2.266813720703125,3.8844425559997555,1.8617910659790038,-22.54978833618164
1763698895470764800,2.276764892578125,1.556530354309082,2.0727800872802735,-19.368492880249022
1763698895480717000,2.286717041015625,-1.4775216995239258,2.6810569465637206,-16.704793895721433
1763698895490667800,2.296667724609375,-3.3255461059570313,2.8321909263610836,-12.860304579925536
1763698895500619800,2.306619873046875,-4.409221632385254,3.1899744369506835,-9.880122063446045
1763698895510570800,2.31657080078125,-3.8615480026245117,3.4555811836242674,-6.031592532348633
1763698895520522000,2.32652197265625,-3.9489363632202146,3.547757947540283,-3.3219548034667965
1763698895530474000,2.336473876953125,-4.4273277824401855,2.1220108589172364,-1.712303099822998
1763698895540424700,2.3464248046875,-5.091868380737305,2.029085906982422,-0.06419453201293945
1763698895550376000,2.3563759765625,-5.829731404876709,1.7212813560485838,0.426467170715332
1763698895560327700,2.36632763671875,-5.999121172332764,1.1052233413696289,0.8686462898254395
1763698895570279000,2.37627880859375,-5.846191541290283,1.2054805358886718,0.9030629386901855
1763698895580229600,2.386229736328125,-5.725882907867431,1.450586930847168,0.395192911529541
1763698895590182000,2.396181884765625,-5.064335061645507,1.135150862121582,0.6316203254699707
1763698895600132900,2.4061328125,-4.533869756317139,0.9154828598022461,0.9279027809143066
1763698895610083800,2.416083740234375,-4.906467389678955,1.2032359718322754,0.6759130561828612
1763698895620035800,2.426035888671875,-5.003432556915283,0.2814683326721191,0.5149029945373534
1763698895629986800,2.43598681640625,-4.658966793060302,0.013916297149658202,0.23642741394042968
1763698895639937800,2.445937744140625,-5.091269830322266,0.23433248748779295,-1.9773112960815429
1763698895649890000,2.45589013671875,-5.335777674865723,0.615459464263916,-4.367472740936279
1763698895659840800,2.4658408203125,-4.94806664352417,0.7146691955566405,-7.138761162567138
1763698895669792000,2.4757919921875,-5.449352616119384,1.8837877937316894,-10.172214665985107
1763698895679743700,2.48574365234375,-6.697030956268311,1.2226888603210448,-11.09592759399414
1763698895689695000,2.495695068359375,-7.994239343261718,0.7460930923461914,-10.793809272003173
1763698895699645700,2.505645751953125,-9.606434886169433,1.1279682571411132,-11.550526634216308
1763698895709598000,2.515597900390625,-12.151321613311767,3.1184476623535153,-14.45394505996704
1763698895719549000,2.525548828125,-12.297816827392577,3.7107132980346678,-15.680823773193358
1763698895729500000,2.5355,-8.373869944000244,4.5702316940307615,-17.032051335144043
1763698895739452000,2.545451904296875,-6.621314328765869,4.585195454406738,-19.45228993835449
1763698895749403000,2.55540283203125,-6.123170745849609,3.5193268028259275,-21.275025589752197
1763698895759353900,2.565353759765625,-5.032911164855957,1.739088230895996,-22.806267189025878
1763698895769305900,2.575305908203125,-3.60716407623291,1.0978910987854003,-21.998224128723145
1763698895779256800,2.5852568359375,-3.5609260566711423,0.9901520240783691,-21.67500690460205
1763698895789208800,2.595208740234375,-3.403357659912109,1.2018892333984375,-21.382764664459227
1763698895799159800,2.605159912109375,-2.740014162445068,1.4945803863525389,-20.2117007774353
1763698895809110800,2.61511083984375,-1.7464204734802244,1.4483423667907713,-19.04901659622192
1763698895819063000,2.62506298828125,-0.8895955543518066,1.1854290969848633,-17.75510023651123
1763698895829013800,2.635013671875,0.11566986770629882,0.7824550300598144,-16.199467707824706
1763698895838965000,2.644965087890625,1.0139444030761717,0.2292448089599609,-14.554950442504882
1763698895848916700,2.654916748046875,1.59603468170166,-0.13123217849731444,-12.821698078155517
1763698895858868000,2.664867919921875,2.086397109222412,-0.232387198638916,-10.939556298065185
1763698895868818700,2.674818603515625,2.685246799468994,-0.20081366424560546,-8.917652996063232
1763698895878771000,2.68477099609375,3.443011624908447,0.1135749412536621,-6.9244801139831536
1763698895888722000,2.694721923828125,4.610184934234619,0.31753099517822264,-5.251681341552734
1763698895898673000,2.7046728515625,6.055534548950195,0.09068038787841796,-4.097825778961181
1763698895908625000,2.714625,7.210138299560547,-0.6627449470520019,-3.2704794677734372
1763698895918575900,2.724575927734375,7.6485764785766595,-1.4149731811523436,-2.5664345420837402
1763698895928526800,2.73452685546875,8.19071351699829,-2.0220529396057128,-1.931222914123535
1763698895938478800,2.744478759765625,8.146570423889159,-1.6630723281860351,-1.1330559356689451
1763698895948429800,2.754429931640625,8.035240046691895,-1.18108960647583,-0.28745383682250975
1763698895958381000,2.764381103515625,7.698555438232422,-0.7257423782348632,0.7517793212890624
1763698895968332800,2.774332763671875,8.029553817749022,-0.873434693145752,1.7121534622192383
1763698895978283800,2.78428369140625,8.235006247711182,-0.9403227020263671,2.482787121582031
1763698895988234800,2.79423486328125,8.373121755981446,-1.1155483360290526,2.7410616256713864
1763698895998186800,2.804186767578125,8.377461246490478,-1.6726491348266601,2.2788310676574706
1763698896008138000,2.814137939453125,7.951891901397705,-2.1785738731384274,1.1279682571411132
1763698896018088700,2.824088623046875,7.1686886833190915,-2.7449522033691403,-0.43499651412963863
1763698896028041000,2.834041015625,5.897966152191162,-3.381211294555664,-2.383128477478027
1763698896037991700,2.84399169921875,4.1195232315063475,-3.3955765045166015,-4.713734156036376
1763698896047943000,2.85394287109375,2.461987494659424,-2.8049568824768065,-6.947075392150879
1763698896057895000,2.86389501953125,1.5427636947631835,-2.223764429473877,-8.980051876831054
1763698896067846000,2.873845947265625,1.11075993270874,-1.5267524711608886,-10.824484980773924
1763698896077796900,2.883796875,0.48407764816284177,-0.43185412445068355,-12.236465409851073
1763698896087748900,2.893748779296875,-0.5954080253601074,1.1136030471801757,-13.560608565521239
1763698896097699800,2.903699951171875,-1.1061211669921875,2.497002693939209,-16.494403424835205
1763698896107651800,2.91365185546875,-1.0673650276184081,3.1658827827453613,-21.61096201019287
1763698896117602800,2.923602783203125,-1.3224971420288085,2.6414029815673827,-28.29482485733032
1763698896127554000,2.933553955078125,-2.353949144744873,1.6909049224853514,-34.208203682708735
1763698896137505800,2.943505859375,-4.5875896560668945,1.3287819213867187,-37.76688517532349
1763698896147456800,2.953456787109375,-7.276278120422363,2.266860059356689,-38.36214356307983
1763698896157407700,2.96340771484375,-8.079083864593505,3.6625299896240233,-35.22693648910522
1763698896167359700,2.97335986328125,-7.202506781768799,5.24105707168579,-29.918542495727536
1763698896177311000,2.98331103515625,-5.692214447021484,6.940640975189209,-24.635736532592773
1763698896187261700,2.99326171875,-4.332158266448975,8.234856610107421,-20.119075100708006
1763698896197214000,3.0032138671875,-3.788225576782226,9.107094202423095,-16.45235525817871
1763698896207164700,3.01316455078125,-3.8717233596801757,9.24416224746704,-12.955324458312987
1763698896217116000,3.023115966796875,-4.368969116973877,8.800636389923095,-9.382128118133544
1763698896227068000,3.03306787109375,-4.486434635925293,8.10781428451538,-5.571307263183593
1763698896237019000,3.043018798828125,-4.209605068969727,7.451803029632568,-1.726967584991455
1763698896246969900,3.052969970703125,-3.4406174232482907,6.68461103515625,1.7717092285156248
1763698896256921900,3.062921875,-2.9946973640441894,6.109104811096191,5.041141233062744
1763698896266872800,3.072872802734375,-3.0769980461120605,5.75221912612915,6.739677673339843
1763698896276823800,3.08282373046875,-3.201047619628906,5.0769046203613275,7.804648499298096
1763698896286775800,3.09277587890625,-3.37088629989624,4.056376162719726,8.145373323059081
1763698896296727000,3.10272705078125,-3.902099793243408,2.568978381347656,7.576451153564452
1763698896306677800,3.112677734375,-4.64759433517456,1.151162085723877,6.913257293701172
1763698896316629800,3.122629638671875,-5.767482161712646,0.06778583450317383,6.037578036499023
1763698896326580700,3.132580810546875,-6.9244801139831536,-0.2765302917480469,4.795436287689209
1763698896336532000,3.142531982421875,-8.399757249450683,-0.1518821678161621,3.649810793304443
1763698896346484000,3.15248388671875,-9.507225154876709,0.14888941574096679,2.6191069786071774
1763698896356435000,3.16243505859375,-10.082881016540528,1.0060136100769042,1.401954709625244
1763698896366386000,3.172385986328125,-10.352378340911864,1.94079972076416,-0.6260837341308594
1763698896376337700,3.182337646484375,-10.313921476745605,2.89204596786499,-3.8147114326477047
1763698896386289200,3.1922890625,-10.814459261322021,4.0255508163452145,-8.002619049072266
1763698896396241200,3.2022412109375,-11.605144359588623,4.64789361038208,-12.562974661254882
1763698896406192000,3.212192138671875,-12.60801557998657,4.640711005401611,-17.042675605010984
1763698896416143000,3.22214306640625,-13.709348343658446,4.171746755218505,-20.178481229400635
1763698896426095400,3.232095458984375,-15.203629454803465,4.249857584381103,-21.296124491882324
1763698896436046000,3.242046142578125,-16.946159350585937,5.688024594116211,-20.616769770812986
1763698896445997300,3.251997314453125,-16.743101122283935,7.620594246673583,-19.902250212860107
1763698896455949000,3.261948974609375,-13.920935915374756,9.118915573120116,-21.73201883163452
1763698896465900300,3.271900390625,-12.099846277618408,10.29731170272827,-26.068067675781247
1763698896475851000,3.28185107421875,-11.285069525146485,9.566930558776855,-30.31358576965332
1763698896485803000,3.291802978515625,-9.973795203399657,7.0741177177429195,-32.51804694824219
1763698896495754200,3.301754150390625,-9.433304178619384,5.373336713409423,-32.82315802230835
1763698896505705200,3.311705322265625,-7.921515467834472,4.545391851806641,-31.669302459716796
1763698896515657200,3.3216572265625,-4.862623571777344,3.6168905204772948,-29.390321754455563
1763698896525608000,3.33160791015625,-2.020855838775635,2.6431986328124997,-26.18074479141235
1763698896535559200,3.34155908203125,0.3525461944580078,2.1375731697082516,-22.335806562805175
1763698896545511200,3.35151123046875,2.1000141311645506,1.41093296585083,-18.21388912963867
1763698896555462100,3.361462158203125,3.2104747886657714,0.06479308242797852,-14.277522325134276
1763698896565413000,3.3714130859375,3.569605037689209,-1.3187562019348145,-10.637587613677978
1763698896575365000,3.381365234375,3.5631706207275387,-2.149693815612793,-7.5333555236816405
1763698896585316000,3.391316162109375,3.9618051971435544,-2.5508722312927246,-5.065831437683105
1763698896595267000,3.40126708984375,4.893748193359374,-2.385821954345703,-3.2007483444213864
1763698896605219000,3.411218994140625,6.478560054779052,-2.258031440734863,-1.8390461502075195
1763698896615170300,3.42117041015625,8.536376381683349,-2.470217562866211,-1.1979986557006834
1763698896625121000,3.43112109375,10.531943465423584,-3.429095327758789,-0.6334159767150879
1763698896635073300,3.4410732421875,11.756876889801024,-4.567538217163086,-0.2950853546142578
1763698896645024000,3.45102392578125,12.078298462677001,-5.02423218383789,0.05910685348510742
1763698896654975200,3.460975341796875,11.930306872558592,-5.098602072906494,0.9014169250488281
1763698896664927200,3.47092724609375,11.863718138885497,-5.335777674865723,2.048688433074951
1763698896674878200,3.480878173828125,11.904269929504395,-5.317222611999512,3.5896564765930172
1763698896684830200,3.490830322265625,11.827056925964355,-4.724956976318359,5.2171150550842285
1763698896694781200,3.50078125,11.577760678100585,-3.7849335494995113,6.515819818115234
1763698896704732200,3.510732177734375,11.421987932586669,-2.8375778800964353,7.38012661743164
1763698896714684200,3.52068408203125,11.306018789672851,-2.259378179168701,6.992415586090088
1763698896724635100,3.53063525390625,10.824185705566405,-2.0473416946411134,5.360168604278564
1763698896734586000,3.540586181640625,9.869198518371581,-2.0413561904907227,3.0252234352111813
1763698896744538000,3.5505380859375,8.471134386444092,-2.263418394470215,0.4748001167297363
1763698896754489000,3.560489013671875,6.643311056518554,-2.6315268997192383,-1.64077632522583
1763698896764440000,3.570440185546875,4.763264202880859,-2.6855460746765134,-3.3255461059570313
1763698896774392000,3.58039208984375,3.1235353408813475,-1.726967584991455,-5.103839389038086
1763698896784343300,3.59034326171875,2.418143676757812,-0.16819266662597654,-7.19517453918457
1763698896794294000,3.6002939453125,2.5541642585754394,1.6704045707702635,-9.73527286300659
1763698896804246300,3.610246337890625,2.347514727783203,4.205415216064453,-12.315025151824951
1763698896814197000,3.620197021484375,1.1662754837036131,6.573280657958984,-14.036306507873535
1763698896824148200,3.630148193359375,-0.4786906944274902,8.820388553619384,-15.655983930969237
1763698896834100200,3.640100341796875,-1.44924019241333,11.151592782592774,-18.736274004364013
1763698896844051200,3.65005126953125,-0.865054987335205,12.365303386688232,-24.97077512741089
1763698896854002200,3.660002197265625,0.39115269622802734,12.69181263809204,-33.82243794021606
1763698896863954200,3.6699541015625,0.28356325912475583,12.508057660675048,-41.176078701782224
1763698896873905200,3.6799052734375,-1.0670657524108886,12.677746703338622,-43.64913937911987
1763698896883856100,3.689856201171875,-2.2405238410949706,12.903998760223388,-39.30306481552124
1763698896893808000,3.69980810546875,-3.3693899238586424,12.970437856292724,-31.241787825775145
1763698896903759400,3.70975927734375,-4.573822996520996,13.360842364501952,-23.450756348419187
1763698896913710000,3.7197099609375,-4.514865780639648,13.73867731399536,-17.464952922821045
1763698896923662000,3.729662109375,-3.40949280166626,13.837737407684326,-13.312659056091308
1763698896933613000,3.739613037109375,-2.343624150085449,13.323582601165771,-10.204536388397216
1763698896943565000,3.74956494140625,-1.8115128311157225,12.313528775787352,-7.369801622772217
1763698896953516300,3.759516357421875,-1.7690157516479492,11.019762053680418,-4.032284508514404
1763698896963467000,3.769467041015625,-2.362628125762939,9.239822756958008,-0.6184522163391113
1763698896973419300,3.779419189453125,-3.2020950828552244,7.981220871734618,2.834734765625
1763698896983370000,3.789369873046875,-2.81558115234375,6.92732322845459,5.064035786437988
1763698896993321200,3.7993212890625,-3.149273008728027,6.159383045959473,6.004957038879394
1763698897003273200,3.809273193359375,-3.1563059761047363,5.722141967773437,5.796362219238281
1763698897013224200,3.81922412109375,-2.90476516418457,5.137358212280273,5.257666845703125
1763698897023175200,3.829175048828125,-2.9022213249206543,4.263175331115723,4.548683879089356
1763698897033127200,3.839127197265625,-3.2564135330200195,3.267486715698242,3.65175608215332
1763698897043078100,3.849078125,-4.073584487152099,2.6282348724365234,2.3063643867492676
1763698897053029000,3.859029052734375,-5.2180128807067865,2.2945430160522458,0.9771335525512694
1763698897062981000,3.868981201171875,-6.8128504615783685,2.0847510955810544,0.22834698333740233
1763698897072932400,3.878932373046875,-8.582015850830077,2.1818659004211423,-0.2784755805969238
1763698897082883000,3.888883056640625,-10.417321060943603,3.0015806938171385,-1.1055226165771483
1763698897092835000,3.8988349609375,-12.051662969207763,4.065354418945312,-2.57286895904541
1763698897102786000,3.9087861328125,-13.035829489135741,4.854094228363037,-4.959738376617431
1763698897112737300,3.9187373046875,-13.837288494873047,5.6778492370605465,-8.246378705596923
1763698897122689300,3.928689208984375,-14.43598854751587,6.649146923065185,-12.511648963165282
1763698897132640000,3.938639892578125,-14.724639485168456,7.211335400390625,-17.101034270477292
1763698897142591200,3.94859130859375,-14.719102893829344,7.107037990570068,-20.714483126068114
1763698897152543000,3.95854296875,-15.198242501068114,7.321319039154052,-22.12795993118286
1763698897162494200,3.968494140625,-16.724246784210205,8.793304147338867,-21.79022785949707
1763698897172445200,3.978445068359375,-17.26309179534912,11.033977626037597,-21.15052710342407
1763698897182397200,3.988397216796875,-15.306580126190184,12.496385927581786,-23.132626802825925
1763698897192348200,3.99834814453125,-12.770222742462158,12.853121974945068,-28.407202697753906
1763698897202300200,4.008300048828125,-11.3006318359375,12.245443666076659,-33.89336616439819
1763698897212251100,4.018251220703125,-9.591471125793456,10.323947196197508,-36.70789985351562
1763698897222202000,4.0282021484375,-8.55448253173828,8.735693669891356,-37.084986614990235
1763698897232154000,4.038154052734375,-7.06139852142334,7.686135517120361,-35.57619065628052
1763698897242105300,4.048105224609375,-4.068796083831787,6.377105759429932,-32.778566016387934
1763698897252056000,4.05805615234375,-0.8444049980163574,4.7761330368041985,-29.083265391540525
1763698897262008000,4.068008056640625,2.075473564147949,3.5740941658020016,-25.004144313049316
1763698897271959000,4.077958984375,3.918709567260742,2.6816554969787596,-20.696526613616943
1763698897281910300,4.08791015625,5.168482833862305,1.3844471099853515,-16.550816801452637
1763698897291862300,4.0978623046875,5.921010343170166,-0.45878889312744137,-12.784288677215576
1763698897301813200,4.107813232421875,5.6389434600830075,-2.2936451904296873,-9.221566969299316
1763698897311764200,4.11776416015625,5.266345826721191,-3.4871547180175777,-6.524199523925781
1763698897321716000,4.127716064453125,5.406705899047851,-4.359242672729492,-4.554370108032226
1763698897331667200,4.137667236328125,6.330568464660645,-4.931157594299316,-3.0749031196594236
1763698897341618200,4.1476181640625,8.08881030883789,-5.338620789337158,-2.1443068618774412
1763698897351570200,4.157570068359375,10.275763887786864,-5.887341882324218,-1.5583260055541992
1763698897361521200,4.167521240234375,12.671013011169434,-6.89500150604248,-0.898274535369873
1763698897371472100,4.17747216796875,13.773542875671385,-7.6467808273315425,-0.09292495193481445
1763698897381424600,4.187424560546875,15.339201123809813,-8.491784375762938,0.8740332435607909
1763698897391375600,4.197375732421875,15.574880349731444,-8.288127597045898,2.0579659645080564
1763698897401326600,4.20732666015625,15.236250452423095,-7.678952912139892,3.910180223846435
1763698897411278800,4.21727880859375,15.223231980895996,-6.9910688476562495,6.071994685363769
1763698897421229600,4.2272294921875,15.04187120513916,-5.934477727508544,7.860313687896728
1763698897431180800,4.237180908203125,14.757410120391844,-5.005826758575439,9.171588009643553
1763698897441132500,4.247132568359375,14.47309867324829,-4.29025973739624,9.741557642364501
1763698897451083800,4.257083740234375,14.01999600906372,-3.886836757659912,9.000103315734863
1763698897461035800,4.267035888671875,13.41306588821411,-3.4501942298889157,7.019499992370605
1763698897470986500,4.276986572265625,12.355576942443847,-2.9391818130493164,4.164414512634277
1763698897480937700,4.286937744140625,10.972775846099854,-2.5629928771972654,0.6881833396911621
1763698897490889500,4.296889404296875,9.45530090637207,-1.899350104522705,-2.963423104858398
1763698897500840700,4.3068408203125,7.8067434257507315,-0.6356605407714844,-6.487687948608398
1763698897510791400,4.31679150390625,6.497863305664062,1.2150573425292968,-9.719860189819336
1763698897520743700,4.32674365234375,5.780350995635986,3.4325369926452636,-12.48112289199829
1763698897530694700,4.336694580078125,5.5659203094482415,5.776759693145752,-14.71640941696167
1763698897540645600,4.346645751953125,5.095609320831299,8.145373323059081,-16.711377950286863
1763698897550597600,4.35659765625,4.219930063629151,11.044452258300781,-19.366846866607666
1763698897560548600,4.366548583984375,3.9350200660705563,13.798233080291748,-23.68568738632202
1763698897570499600,4.37649951171875,4.6070425445556635,15.883732363891601,-29.752444755554198
1763698897580451800,4.386451904296875,5.63086302947998,17.506552176666258,-36.18162440109253
1763698897590402600,4.396402587890625,5.520580115509033,18.45061581878662,-40.561217787933344
1763698897600353800,4.406353759765625,4.319887982940673,18.528726647949217,-40.77235644683838
1763698897610305500,4.416305419921875,2.315641918182373,17.707814753723145,-35.64188156433105
1763698897620256800,4.4262568359375,-0.6099228729248046,16.987160054016112,-28.166136518096923
1763698897630207500,4.43620751953125,-3.4138322921752926,16.10564493026733,-21.481226207733155
1763698897640159500,4.446159423828125,-5.516539900207519,15.06027663040161,-16.33788249130249
1763698897650110700,4.45611083984375,-6.675483141326904,14.252981758117675,-12.867636822509764
1763698897660061700,4.466061767578125,-6.729801591491698,13.41381407623291,-11.008539233398437
1763698897670013700,4.476013671875,-6.185719264221191,12.173019065856932,-9.175628224945068
1763698897679964400,4.48596435546875,-5.863549503326416,10.503362683105468,-6.231807646179199
1763698897689915600,4.49591552734375,-5.608567026519775,9.079710520935057,-2.427870121002197
1763698897699867600,4.50586767578125,-6.474819114685058,7.363367205810547,1.872564973449707
1763698897709818600,4.515818603515625,-6.786663880920409,6.554426319885254,5.651363381195068
1763698897719769600,4.52576953125,-5.924302370452881,5.3652562828063965,7.7018474655151365
1763698897729721600,4.5357216796875,-5.7237879814147945,4.8314989501953125,8.94383957672119
1763698897739672600,4.545672607421875,-5.133916547393799,4.3263223999023435,8.931868568420409
1763698897749624800,4.555624755859375,-4.313902478790283,3.4256536628723144,8.375067044830322
1763698897759575600,4.565575439453125,-3.0674212394714355,1.470937644958496,7.697807250213622
1763698897769526800,4.57552685546875,-2.909852842712402,1.0899603057861327,6.747009915924072
1763698897779478500,4.585478515625,-3.4281975021362303,1.2214917594909667,5.393238514709473
1763698897789429800,4.5954296875,-3.7945103561401363,1.0449193870544433,3.5302503479003904
1763698897799380500,4.60538037109375,-4.978143801879883,0.8354267417907715,1.5566799919128418
1763698897809332700,4.615332763671875,-6.482749907684326,1.1071686302185058,-0.08394669570922851
1763698897819283700,4.62528369140625,-7.943961108398437,1.7381904052734374,-2.0974702919006347
1763698897829234700,4.635234619140625,-9.265261149597167,2.479046181488037,-4.632032024383545
1763698897839186700,4.645186767578125,-9.983970560455322,3.0898668800354003,-6.974010160827636
1763698897849137700,4.6551376953125,-10.249128394317626,3.884292918395996,-10.22054761199951
1763698897859088600,4.665088623046875,-10.339359869384765,4.990264447784424,-14.658948577117918
1763698897869040600,4.67504052734375,-10.41971526260376,6.084863519287109,-19.29980922012329
1763698897878991600,4.68499169921875,-10.55917750930786,7.634510543823242,-22.963536310577393
1763698897888942600,4.694942626953125,-11.928810496520995,9.911097047424315,-24.514081160736083
1763698897898894600,4.70489453125,-13.8534493560791,12.481571804809569,-24.620323859405516
1763698897908845600,4.714845458984375,-14.708029711151122,14.221258586120605,-25.009082353973387
1763698897918796500,4.724796630859375,-14.240262561798096,15.001618689727783,-27.33938875732422
1763698897928748500,4.73474853515625,-12.164938635253906,14.302212529754637,-31.35446494140625
1763698897938699800,4.74469970703125,-8.314613452911377,11.979836919403075,-35.93741583175659
1763698897948650500,4.754650390625,-5.63086302947998,9.784653272247313,-38.661718045806886
1763698897958602800,4.764602783203125,-3.43478155670166,8.073696910858153,-38.82287774505615
1763698897968553500,4.774553466796875,-0.8138789268493651,5.824194813537598,-35.3843552482605
1763698897978505700,4.784505615234375,1.2255319747924804,4.119672869110107,-29.569737241363523
1763698897988456700,4.794456787109375,2.688389189147949,3.1675287963867187,-23.33284191665649
1763698897998407700,4.80440771484375,2.6849475242614744,2.7148750450134274,-17.32653813934326
1763698898008359700,4.814359619140625,4.42418539276123,0.9350853858947753,-12.14324118270874
1763698898018310700,4.824310546875,5.091569105529785,-0.6220435188293457,-8.295759114837645
1763698898028261600,4.83426171875,4.499153832244873,-2.1447557746887207,-5.328295794677734
1763698898038213600,4.844213623046875,4.205415216064453,-3.4012627334594723,-3.3877953491210935
1763698898048164600,4.85416455078125,3.545812658691406,-3.632153556060791,-2.3487118286132813
1763698898058115800,4.86411572265625,4.589534944915771,-3.5787329315185543,-1.689258908843994
1763698898068067600,4.874067626953125,6.285377908325195,-3.9240965209960934,-1.2024877838134764
1763698898078018600,4.8840185546875,8.243834866333007,-4.847510173797607,-0.6123170745849609
1763698898087969500,4.893969482421875,9.917980377197265,-5.935525190734863,0.005087678527832031
1763698898097921500,4.903921630859375,11.059266381072998,-6.731297967529296,0.5348047958374023
1763698898107872800,4.913872802734375,11.486631377410887,-7.040748532104492,1.2164040809631347
1763698898117823500,4.923823486328125,11.350012245178222,-6.711246528625488,2.0172645362854005
1763698898127775700,4.933775634765625,11.142315251159667,-6.086060620117187,3.0928596321105957
1763698898137726500,4.9437265625,10.885537123107909,-5.480626875305176,4.736628709411621
1763698898147677700,4.953677734375,10.492439138031004,-4.570082056427002,6.466888321685791
1763698898157629700,4.963629638671875,10.49573116531372,-3.694402799224853,7.949946612548827
1763698898167580700,4.97358056640625,10.836306351470947,-3.1543606872558594,8.761580975341797
1763698898177531600,4.98353173828125,10.903792910766601,-2.7623101654052733,8.308927223968505
1763698898187483600,4.993483642578125,10.547805051422118,-2.683900061035156,6.689249800872802
1763698898197434600,5.0034345703125,9.704896429443359,-2.7117326553344725,4.242375704193115
1763698898207385600,5.013385498046875,8.508843062591552,-2.701856573486328,1.5439607955932617
1763698898217337600,5.023337646484375,7.190835048675536,-2.596362062835693,-1.317708738708496
1763698898227288800,5.033288818359375,5.946299098205566,-2.053177561187744,-4.275744889831543
1763698898237239600,5.043239501953125,4.94731845550537,-0.7317278823852539,-7.173327449035644
1763698898247191600,5.053191650390625,4.3902176567077635,1.0488099647521971,-9.753379013061522
1763698898257142500,5.063142578125,4.074183037567138,3.2831986640930175,-12.233921570587157
1763698898267094500,5.073094482421875,3.123834616088867,5.855618710327148,-14.37119546508789
1763698898277045800,5.083045654296875,1.5065513946533202,8.383746025848389,-16.03711090774536
1763698898286996500,5.09299658203125,-0.15113397979736326,10.947187815856934,-17.65858398208618
1763698898296948700,5.10294873046875,-1.3787608810424803,13.786411709594725,-19.967941120910645
1763698898306899500,5.1128994140625,-1.2603975364685058,16.496348713684082,-24.38120296859741
1763698898316850700,5.1228505859375,0.7206546997070312,18.593370092773437,-31.542858684539794
1763698898326802700,5.132802734375,2.937535799407959,20.00370450820923,-38.449831198883054
1763698898336753700,5.142753662109375,4.230853608703613,19.908834267425537,-41.882368191528315
1763698898346704600,5.15270458984375,4.209455431365966,18.012476914978027,-38.719178885650635
1763698898356656600,5.16265673828125,2.0150199722290036,16.96276912460327,-31.09813572616577
1763698898366607600,5.172607666015625,-1.0571896705627442,16.75237865371704,-22.95126602706909
1763698898376558600,5.18255859375,-3.2899323562622067,15.98054789352417,-16.377686093902586
1763698898386509600,5.192509521484375,-4.012382707214355,14.932037203979492,-11.31275248184204
1763698898396460500,5.20246044921875,-3.666570204925537,13.827412413024902,-8.063820829010009
1763698898406411500,5.21241162109375,-2.8425159210205075,12.984503791046142,-5.672163008117676
1763698898416363800,5.22236376953125,-1.959205146026611,12.691513362884521,-3.015496990966797
1763698898426314500,5.232314453125,-1.0000281059265137,11.526135704803465,0.04848258361816406
1763698898436265700,5.242265625,-0.9323919090270996,9.149740919494628,3.3138743728637694
1763698898446217500,5.252217529296875,-1.901295393371582,7.076661557006836,6.350619903564453
1763698898456168700,5.262168701171875,-2.6472388481140134,5.799953521728515,8.636334300994873
1763698898466119400,5.272119384765625,-2.5700258445739745,4.796483750915527,9.661351886749268
1763698898476071700,5.28207177734375,-2.3313538665771483,3.901950155639648,9.657162033843994
1763698898486022700,5.292022705078125,-2.0012533126831054,2.9722517234802246,9.026738809204101
1763698898495973600,5.3019736328125,-1.9213468322753906,2.0049942527770996,7.933187200927734
1763698898505925600,5.311925537109375,-2.4474726470947266,1.009305637359619,6.400000312805175
1763698898515876600,5.321876708984375,-3.5042134048461913,0.5093664031982421,4.89689058303833
1763698898525828600,5.33182861328125,-4.68006569519043,0.48826750106811523,3.7696705139160156
1763698898535779800,5.34177978515625,-5.4604257987976075,0.6854898628234863,2.562843239593506
1763698898545730600,5.35173046875,-6.324283685302734,1.0682628532409668,1.6193781478881835
1763698898555682600,5.3616826171875,-7.1501336204528805,1.4921861846923827,0.6114192489624023
1763698898565633500,5.371633544921875,-8.118288916778564,2.1015105072021485,-0.5657797798156738
1763698898575584800,5.381584716796875,-9.201066617584228,2.812139487457275,-2.2819734573364254
1763698898585536800,5.391536865234375,-10.314071114349364,3.7722143531799315,-5.284152701568603
1763698898595487500,5.401487548828125,-11.333701746368407,5.136161111450195,-9.36536870651245
1763698898605438700,5.411438720703125,-12.14279226989746,6.9807438529968255,-13.66251177368164
1763698898615390500,5.421390380859375,-13.401094879913328,9.599850831604003,-16.756418869018553
1763698898625341700,5.431341796875,-15.249119286346435,12.779649911499023,-18.083854051971436
1763698898635292400,5.44129248046875,-16.409708541107175,15.866524039459227,-18.94711338806152
1763698898645244700,5.45124462890625,-16.227898852539063,18.81348700790405,-21.85277637786865
1763698898655195600,5.461195556640625,-15.14317586288452,21.315577380371092,-27.379790910339352
1763698898665146600,5.471146728515625,-12.201001297760008,21.19586729736328,-33.08906404418945
1763698898675098600,5.4810986328125,-9.128043466949462,19.624373182678223,-37.09411450881958
1763698898685049600,5.491049560546875,-6.190208392333984,18.114080847930907,-38.54904093017578
1763698898695000600,5.50100048828125,-2.7862521820068356,16.33668539047241,-36.86950846557617
1763698898704952800,5.510952880859375,0.008978256225585938,14.438532386779784,-32.74055806503296
1763698898714903600,5.520903564453125,2.4625860450744628,12.241553088378906,-27.902475060272216
1763698898724854800,5.530854736328125,4.454262551116943,9.710881933593749,-23.21956625061035
1763698898734806500,5.540806640625,5.514444973754882,6.966827555847168,-18.372355352020264
1763698898744757800,5.5507578125,6.330418827056884,4.388870918273925,-13.829357701873779
1763698898754708500,5.56070849609375,6.647650547027587,2.0254946044921875,-10.013748443603514
1763698898764660500,5.570660400390625,6.471227812194824,-0.21009119567871093,-7.025036583709716
1763698898774611700,5.58061181640625,6.385335827636719,-1.995118170928955,-4.699518583679199
1763698898784563500,5.5905634765625,6.791153009033203,-2.813486225891113,-3.027168724060058
1763698898794514700,5.6005146484375,8.237550086975098,-3.0199861190795896,-1.9387047943115234
1763698898804465400,5.61046533203125,10.588506479644774,-3.4739866088867184,-1.3441945945739746
1763698898814417700,5.620417724609375,12.963404888916015,-4.560056336975097,-0.8729857803344726
1763698898824368600,5.63036865234375,14.777760834503173,-6.040271513366699,-0.08768763580322265
1763698898834319600,5.640319580078125,15.861585998535155,-7.562385218811035,1.1354501373291015
1763698898844271600,5.650271728515625,16.06195074996948,-8.642768717956542,2.7925369613647457
1763698898854222600,5.66022265625,15.504999588775634,-9.103502899932861,4.916792384338379
1763698898864173600,5.670173583984375,14.307599483489989,-8.742876274871826,7.226149523162841
1763698898874125800,5.680125732421875,13.261183720397948,-8.012195855712891,9.381080654907226
1763698898884076500,5.69007666015625,12.79446403427124,-7.433247966766357,11.147103654479979
1763698898894027800,5.70002783203125,12.735057905578612,-7.191433599090575,11.92641629486084
1763698898903979500,5.7099794921875,12.634800711059569,-7.082347785949707,11.169250019836426
1763698898913930800,5.7199306640625,12.446556605529784,-7.058106494140625,8.821585654449462
1763698898923881500,5.729881591796875,11.640458834075927,-6.750301943206787,5.718101752471924
1763698898933833500,5.73983349609375,10.382605136871337,-6.257246038818359,2.286013672637939
1763698898943784700,5.74978466796875,9.100061235046386,-5.685331117248535,-1.2888286811828613
1763698898953735700,5.759735595703125,7.883806791687011,-4.574122271728515,-4.837634091949463
1763698898963687700,5.769687744140625,6.688501612854004,-2.8034605064392086,-8.143128759002686
1763698898973638700,5.779638671875,6.18616817703247,-0.38830958175659175,-11.258733306884764
1763698898983589600,5.789589599609375,5.935974103546142,2.6062381446838376,-14.09002640762329
1763698898993541600,5.799541748046875,5.822997712707519,5.795314756011963,-16.45938822555542
1763698899003492600,5.80949267578125,5.0371010177612305,8.491934013366699,-17.853112866973877
1763698899013443600,5.819443603515625,2.624643569946289,11.304971326446532,-18.062455874633788
1763698899023395600,5.8293955078125,-0.3146878807067871,15.436615203857421,-19.12129155883789
1763698899033346600,5.8393466796875,-1.2222399475097656,19.74842275619507,-24.114698396301268
1763698899043297500,5.849297607421875,0.31094694061279293,22.372168500518796,-31.693992664337156
1763698899053249500,5.85924951171875,3.1356559867858884,24.169615396881102,-38.62775030975342
1763698899063200800,5.86920068359375,5.040243407440185,25.074623624420166,-42.68382719726562
1763698899073151500,5.8791513671875,5.379172579956054,23.988703533935546,-40.6309489112854
1763698899083103700,5.889103759765625,3.1618425674438475,22.259042472076416,-33.40554757614136
1763698899093054500,5.899054443359375,-0.5122095176696777,20.942530834197996,-25.495254928588867
1763698899103005700,5.909005615234375,-3.585616261291504,19.195362172698974,-19.2056871673584
1763698899112957700,5.918957763671875,-4.859630819702148,17.113005278778076,-14.557195006561278
1763698899122908700,5.92890869140625,-4.652981288909912,15.261090294647216,-11.665747589111328
1763698899132860700,5.938860595703125,-3.5226188301086423,13.756484188842773,-9.430461064147948
1763698899142811600,5.948811767578125,-2.5172037704467773,12.329390361785888,-7.024886946105957
1763698899152762600,5.9587626953125,-2.0988170303344726,10.64357311782837,-4.016273284912109
1763698899162714600,5.968714599609375,-2.090138049316406,8.762778076171875,-0.3155857063293457
1763698899172665600,5.97866552734375,-2.5131635551452636,7.279570147705078,3.5851673484802244
1763698899182616800,5.988616943359375,-2.773233710479736,6.30094021911621,7.087734739685058
1763698899192568600,5.998568603515625,-2.6152164009094236,5.409399375915527,9.451260691070557
1763698899202519600,6.00851953125,-2.242918042755127,4.350414054107666,10.442909091186523
1763698899212470500,6.018470458984375,-1.9319711021423338,2.9632734672546386,10.413729758453368
1763698899222422500,6.028422607421875,-1.8950106140136718,1.5876549758911132,9.90122096557617
1763698899232373800,6.038373779296875,-2.569576931762695,0.38352117843627925,9.095721744537354
1763698899242324500,6.048324462890625,-3.7927147048950194,-0.5280711036682129,7.9189716285705565
1763698899252276700,6.05827685546875,-5.23522120513916,-0.9769839149475097,6.649296560668945
1763698899262227500,6.0682275390625,-6.657676266479492,-0.7891887222290038,5.348646508789062
1763698899272178700,6.0781787109375,-7.670273931121826,-0.19647417373657225,3.808277015686035
1763698899282130700,6.088130615234375,-8.349927927398682,0.5618892021179199,2.184110464477539
1763698899292081700,6.09808154296875,-8.622866916656493,1.7393875061035156,0.2522889999389648
1763698899302032600,6.10803271484375,-8.760832787322997,3.2372599197387695,-2.130540202331543
1763698899311984600,6.117984619140625,-9.121758687591552,4.593724797821045,-4.89704022064209
1763698899321935600,6.127935546875,-9.28965207901001,5.941510694885253,-8.286032670593261
1763698899331886600,6.137886474609375,-9.48058966140747,7.714566661834716,-12.1556611038208
1763698899341838600,6.147838623046875,-9.871443082427978,9.82520506286621,-15.489886190795897
1763698899351789800,6.157789794921875,-10.814159986114502,12.429049005889892,-17.064073782348633
1763698899361740500,6.167740478515625,-12.024428925323486,15.383194579315184,-17.18587879180908
1763698899371692500,6.177692626953125,-12.650961572265624,18.408418014526365,-17.832762152862546
1763698899381644300,6.187644287109375,-12.373832730102539,21.952584659576416,-21.21412308502197
1763698899391595000,6.197594970703125,-10.153210690307617,23.485322634887694,-26.786028898620604
1763698899401547300,6.20754736328125,-6.070049396514892,21.621885555267333,-31.318701554107665
1763698899411498200,6.217498291015625,-2.544138539123535,19.75246297149658,-34.03881391525268
1763698899421450200,6.2274501953125,0.3547907585144043,18.729241036987304,-34.375648161315915
1763698899431401200,6.237401123046875,3.3448493568420408,16.927753925323486,-31.65882782745361
1763698899441352200,6.247352294921875,6.235997499084473,14.141950656127928,-27.33849093170166
1763698899451304200,6.25730419921875,7.800309008789062,10.873266839599609,-21.832276026153565
1763698899461255400,6.26725537109375,8.372972118377685,8.290671436309815,-16.143203968811033
1763698899471206100,6.2772060546875,8.594735047149658,5.700444515228271,-10.925340725708008
1763698899481158100,6.287158203125,8.095992913818359,3.036745530700683,-6.774393597412109
1763698899491109000,6.297109130859375,7.136217323303223,1.0103531005859374,-4.097526503753662
1763698899501060400,6.307060302734375,6.519261483001708,-0.1140238540649414,-2.7383681488037106
1763698899511012400,6.317012451171875,6.845770734405517,-0.43035774841308594,-2.063951468658447
1763698899520963000,6.326963134765625,8.12128166885376,-0.5784989761352539,-1.6898574592590332
1763698899530914300,6.336914306640625,9.868450330352783,-1.209221475982666,-1.309478670501709
1763698899540866000,6.346865966796875,11.393856063079832,-2.4570494537353516,-0.8457517364501953
1763698899550817300,6.3568173828125,12.519879031372069,-4.104709108734131,-0.4182371025085449
1763698899560768000,6.36676806640625,12.945149101257323,-5.584924285125732,-0.06554127044677734
1763698899570720300,6.37672021484375,12.509554036712645,-6.310367388153076,0.4471171600341797
1763698899580671200,6.386671142578125,12.026823126983642,-6.554725595092773,1.211765315246582
1763698899590622200,6.396622314453125,11.773337026214598,-6.694187841796874,2.3870190551757813
1763698899600574200,6.40657421875,11.585691471099853,-6.4914288887023925,4.008641767120361
1763698899610525200,6.416525146484375,11.163713428497314,-6.140977620697021,5.740098480224609
1763698899620476200,6.42647607421875,10.411335556793212,-5.849633206176757,7.293785720062256
1763698899630428400,6.436428466796875,9.778218855285644,-5.6298155662536615,8.143727309417724
1763698899640379100,6.446379150390625,9.241618408203124,-5.612906517028808,7.963413996887207
1763698899650330400,6.456330322265625,8.671798413085938,-5.550657273864746,6.701071171569824
1763698899660282000,6.4662822265625,7.913285399627685,-5.238812507629394,4.894197106170654
1763698899670233300,6.4762333984375,6.9819409538269035,-4.527584976959228,2.69437469329834
1763698899680184000,6.48618408203125,6.075436350250244,-3.4995746391296385,0.2711433380126953
1763698899690136300,6.49613623046875,5.431096828460693,-2.081907981109619,-2.1829133636474607
1763698899700087300,6.50608740234375,5.341014990997314,-0.4011784156799316,-4.83314496383667
1763698899710038300,6.516038330078125,5.493944622039795,1.9819500617980956,-7.803301760864257
1763698899719990300,6.525990234375,5.41373886642456,5.3670519340515135,-10.940005210876464
1763698899729941200,6.535941162109375,4.730044654846191,9.05367357788086,-13.601010718536376
1763698899739892200,6.545892333984375,3.4356793823242184,13.140575811767578,-15.863381649780273
1763698899749844200,6.55584423828125,2.6300305236816404,17.194108860015866,-19.016844511413574
1763698899759795200,6.565795166015625,2.821117743682861,20.280534075164795,-24.32868016967773
1763698899769746200,6.57574609375,4.3716625938415525,22.531083635711667,-31.605407202911376
1763698899779698200,6.5856982421875,6.036979486083984,24.672547383117674,-38.86178352203369
1763698899789649200,6.595649169921875,7.2653545753479,25.409213306427,-43.23374539108276
1763698899799600000,6.60560009765625,7.670273931121826,23.642442118835447,-41.309555444335935
1763698899809552100,6.61555224609375,5.519831927490234,21.321113971710204,-33.831565834045406
1763698899819503400,6.62550341796875,1.7580922065734863,19.348291803741454,-24.80946579055786
1763698899829455000,6.635455078125,-1.7621324218749999,17.155502358245847,-16.831387308502197
1763698899839406300,6.64540625,-3.7391444427490232,15.07957988128662,-10.855609602355957
1763698899849357000,6.655357177734375,-4.3239281982421875,13.730746520996092,-7.198915479278564
1763698899859309300,6.665309326171875,-3.752611827087402,12.689717711639403,-4.9911622734069825
1763698899869260300,6.67526025390625,-2.829946362304687,11.451017627716064,-2.901622774505615
1763698899879211300,6.685211181640625,-2.2508488357543945,10.276512075805664,-0.01945288848876953
1763698899889163300,6.695163330078125,-3.0029274322509765,8.637531401824951,3.0636802993774412
1763698899899114200,6.7051142578125,-3.592948503875732,7.66129567489624,7.266102763366699
1763698899909065200,6.715065185546875,-2.6355671150207516,5.927295122528076,8.949376168060303
1763698899919017200,6.725017333984375,-3.0870237655639645,5.174318700408935,10.510096375274658
1763698899928968200,6.73496826171875,-3.5221699172973633,4.412812934875488,10.90469073638916
1763698899938919400,6.74491943359375,-3.9707834533691404,3.3870471611022945,10.405200415039062
1763698899948871200,6.75487109375,-4.5878889312744136,2.33659118270874,9.11607245864868
1763698899958822100,6.764822265625,-5.364807369995117,1.4905401710510253,7.431901228332519
1763698899968773000,6.774773193359375,-6.2407859024047845,0.881664761352539,5.861753852081298
1763698899978725000,6.78472509765625,-7.18275461807251,0.7460930923461914,4.820425767517089
1763698899988676400,6.79467626953125,-7.653813794708252,1.0571896705627442,3.785232824707031
1763698899998627000,6.804626953125,-8.124274420928955,1.7803882095336914,2.7480945930480956
1763698900008579300,6.814579345703125,-8.624812205505371,2.4440309822082518,1.4637550399780273
1763698900018530000,6.824530029296875,-9.283666574859618,3.1898247993469235,-0.20769699401855468
1763698900028481300,6.834481201171875,-10.074650948333739,4.432265823364258,-2.503886023712158
1763698900038433300,6.844433349609375,-10.243891078186035,5.839757124328613,-5.716605376434326
1763698900048384300,6.85438427734375,-9.910947409820556,7.267150226593017,-9.913341611480712
1763698900058335200,6.864335205078125,-9.573215338134766,8.910021478271483,-14.706234059906006
1763698900068287200,6.874287353515625,-9.796325005340575,11.07692361831665,-18.658761725616454
1763698900078238200,6.88423828125,-11.022455530548095,13.8158903175354,-20.54509335861206
1763698900088189200,6.894189208984375,-12.905345498657226,16.88166554336548,-20.714932038879393
1763698900098141200,6.90414111328125,-13.852701168060301,19.649063387298582,-21.59674643783569
1763698900108092400,6.914092529296875,-13.640215770721435,22.325331930541992,-24.91615740203857
1763698900118043100,6.924043212890625,-11.769895361328125,23.632266761779785,-29.671191536712644
1763698900127995100,6.9339951171875,-7.762749970245361,22.84277876434326,-33.731607914733885
1763698900137946000,6.943946044921875,-3.7056256195068356,21.537938859558103,-36.01822013778686
1763698900147897300,6.9538974609375,0.4016273284912109,19.597139138793946,-35.72298514556885
1763698900157849300,6.963849365234375,4.244171355438232,16.77138262939453,-32.30496300048828
1763698900167800000,6.973800048828125,7.32281541519165,14.015057968139647,-27.36976519088745
1763698900177751300,6.983751220703125,9.266308612823487,11.527781718444823,-22.194548664855954
1763698900187703000,6.993703125,10.066271242523193,9.182661192321778,-17.273416790008543
1763698900197654300,7.003654296875,10.033799882507324,6.21789134902954,-12.606070291137694
1763698900207605200,7.013605224609375,8.849418248748778,4.0249522659301755,-8.97646057434082
1763698900217557200,7.02355712890625,7.512555896759033,1.330427935028076,-6.119878718566894
1763698900227508200,7.03350830078125,6.650942574310302,-0.6765116065979003,-4.267065908813477
1763698900237459200,7.043459228515625,6.42888037033081,-2.3261165504455565,-2.921524575805664
1763698900247411200,7.0534111328125,6.810605897521972,-3.465008352661133,-1.6938976745605467
1763698900257362200,7.063362060546875,7.692569934082031,-4.086303683471679,-0.7166144844055176
1763698900267314200,7.073314208984375,9.311199893951416,-5.154566536712646,-0.008828618621826172
1763698900277265400,7.083265380859375,11.104606575012207,-6.864924347686767,0.3678092300415039
1763698900287216000,7.093216064453125,12.472892823791502,-8.64426509399414,0.7339724464416504
1763698900297168100,7.103168212890625,13.097629819488525,-10.03050785522461,1.535431452178955
1763698900307119000,7.113119140625,13.116184882354736,-10.997166775512694,2.970456072235107
1763698900317070300,7.1230703125,12.598887686157227,-11.334300296783447,5.323507391357421
1763698900327022300,7.133022216796875,11.678017872619629,-10.963797589874266,8.071601984405516
1763698900336973300,7.142973388671875,10.74532668838501,-11.296591620635986,11.03831711654663
1763698900346924300,7.15292431640625,10.415076496887206,-10.733954230499267,12.584672113800048
1763698900356876000,7.1628759765625,9.635464581298828,-10.170867927551269,12.643330054473877
1763698900366827300,7.1728271484375,9.553313536834716,-9.67856021118164,10.582969888305664
1763698900376778200,7.1827783203125,9.740809454345703,-9.089586602783202,6.653636051177978
1763698900386729700,7.192729736328125,9.299079248046874,-6.969820307922363,1.9934721572875975
1763698900396680700,7.2026806640625,9.642497548675536,-5.048473475646972,-2.731784094238281
1763698900406631700,7.212631591796875,9.581445406341553,-3.406649687194824,-6.436212612915039
1763698900416583700,7.222583740234375,9.29518867034912,-1.2069769119262694,-9.229946675109863
1763698900426535000,7.232534912109375,8.611943371582031,1.4071920257568358,-11.16610763015747
1763698900436486000,7.24248583984375,7.742249618530273,4.191050006103516,-12.916418681335449
1763698900446438000,7.25243798828125,6.785317142486572,7.151330721282958,-14.347702361297607
1763698900456388600,7.262388671875,5.2837037887573235,9.507075517272948,-14.665083718872069
1763698900466339800,7.27233984375,2.978386865234375,11.918335864257811,-14.363264672088622
1763698900476291800,7.282291748046875,0.23268647384643554,15.966930871582031,-14.83073254623413
1763698900486242800,7.292242919921875,-0.9576806640625,20.375105040740966,-17.756596612548826
1763698900496193800,7.30219384765625,0.5086182151794433,23.003339913177488,-23.37937921142578
1763698900506145800,7.312145751953125,3.9770682327270506,24.086267251586914,-29.55402529296875
1763698900516096800,7.3220966796875,7.249343351745605,25.10889063568115,-34.40886770935058
1763698900526047700,7.3320478515625,8.424447454071045,24.704569830322264,-35.22304591140747
1763698900535999700,7.341999755859375,7.491756269836426,22.471228594207762,-30.927099945068356
1763698900545951000,7.351950927734375,4.396352798461914,20.90332578201294,-23.88964344024658
1763698900555901700,7.361901611328125,0.5403413871765136,19.8316212638855,-17.682376361083982
1763698900565854000,7.37185400390625,-2.0962731910705563,18.231845642089844,-13.032687099456787
1763698900575804700,7.3818046875,-2.869001776885986,16.008829400634763,-9.947907897949218
1763698900585756000,7.391755859375,-2.709338453674316,14.098256475830077,-7.745092733001709
1763698900595708000,7.4017080078125,-2.3898621696472166,12.477980502319335,-5.655702871704102
1763698900605659000,7.411658935546875,-2.300977433013916,10.717045181274413,-3.112761433410644
1763698900615609900,7.42160986328125,-2.6219500930786133,8.99546455001831,-0.1484405029296875
1763698900625561600,7.4315615234375,-3.2609026611328122,7.650521767425537,2.9372365242004395
1763698900635512800,7.441512939453125,-3.907337109375,6.603357816314697,5.501127227020263
1763698900645463800,7.4514638671875,-4.204966303253173,5.440075084686279,6.995557975769042
1763698900655415800,7.461415771484375,-4.216338761138916,4.131344602203369,7.40586428527832
1763698900665366800,7.47136669921875,-4.314052116394043,3.003226707458496,7.223007133483886
1763698900675317800,7.48131787109375,-4.48209514541626,2.1279963630676266,6.883479410552978
1763698900685269800,7.491269775390625,-4.517858532714843,1.3865420364379881,6.472275275421143
1763698900695220700,7.501220703125,-4.797231938934326,0.9313444458007812,6.043862815856933
1763698900705171700,7.511171630859375,-4.977096338653564,0.9668085578918456,4.951209033203125
1763698900715124000,7.5211240234375,-4.866963062286377,1.6811784782409667,3.071760729980469
1763698900725074700,7.53107470703125,-5.294926609039306,2.5514707817077635,1.1749544647216796
1763698900735026000,7.54102587890625,-5.798157870483398,3.183839295196533,-0.5819406410217285
1763698900744977700,7.550977783203125,-6.6057520179748535,3.586813362121582,-2.077568490600586
1763698900754929000,7.560928955078125,-7.659649661254883,4.249558309173584,-3.7964556449890137
1763698900764879600,7.570879638671875,-8.787169005584717,5.231180989837646,-5.941061782073974
1763698900774831900,7.580831787109375,-9.336339011383057,6.279392404174804,-8.571990131378174
1763698900784782800,7.590782958984375,-8.769960681152343,7.614459104919433,-11.61292551498413
1763698900794733800,7.60073388671875,-8.224830890655516,9.631723641204834,-14.194174179840086
1763698900804685800,7.610685791015625,-8.490437637329102,12.302156317901611,-15.440206506347655
1763698900814636800,7.62063671875,-9.339331763458251,15.271564926910399,-15.77614292678833
1763698900824588800,7.6305888671875,-10.06881508178711,18.212692028808593,-16.66274572906494
1763698900834539800,7.640539794921875,-9.861417362976074,21.104588359069822,-19.418621477508545
1763698900844490800,7.65049072265625,-7.983764710998535,22.108207767486572,-23.53335630569458
1763698900854442000,7.66044189453125,-4.254346712493896,20.402638359832764,-27.34866628875732
1763698900864393700,7.670393798828125,-0.9599252281188965,19.058294127655028,-29.85868745422363
1763698900874344700,7.6803447265625,1.466448516845703,18.332102836608886,-30.398430290985107
1763698900884297000,7.690296875,4.13673155593872,16.443377001953124,-28.516587786102292
1763698900894247700,7.70024755859375,6.076633451080322,13.552228859710693,-24.682872377777098
1763698900904199000,7.710198974609375,6.757484548187255,11.02006132888794,-19.764583617401122
1763698900914150700,7.720150634765625,6.919542073059081,8.730157078552246,-14.803348864746093
1763698900924102000,7.730101806640625,5.999121172332764,6.253505098724365,-10.460117415618896
1763698900934052600,7.740052490234375,4.497058905792236,3.6391865234374996,-7.358429164886474
1763698900944004900,7.7500048828125,3.4006641830444333,1.2808978881835937,-5.432593204498291
1763698900953955800,7.759955810546875,2.865260836791992,-0.06374561920166015,-4.378097010803223
1763698900963906800,7.76990673828125,3.2110733390808104,-0.7749731498718261,-3.612850305175781
1763698900973858800,7.77985888671875,4.335450293731689,-1.6347908210754394,-2.8387749809265137
1763698900983809800,7.789809814453125,5.887790795135498,-3.158700177764892,-2.244713694000244
1763698900993760800,7.7997607421875,7.388506323242187,-5.313032759094238,-1.5644611473083496
1763698901003712800,7.809712646484375,8.673893339538573,-7.3283520065307615,-0.5882254203796387
1763698901013663700,7.819663818359375,9.464279162597656,-8.368482990264893,0.5777507881164551
1763698901023615000,7.829614990234375,9.931298123931883,-8.647407483673096,1.8089689918518066
1763698901033566700,7.839566650390625,10.326341397857666,-8.73988352279663,3.032106764984131
1763698901043518000,7.84951806640625,10.388291365814208,-8.672097688293457,4.5498809799194335
1763698901053468700,7.85946875,10.1767037940979,-8.322095333099364,6.139181969451904
1763698901063420700,7.869420654296875,10.146626635742187,-8.008305278015136,7.454197231292724
1763698901073372000,7.879371826171875,10.461763429260253,-7.513453722381591,8.286182308197022
1763698901083323000,7.889322998046875,10.769567980194092,-6.887369988250732,8.346486262512206
1763698901093275000,7.89927490234375,10.717943006896972,-6.426785443878173,7.4314523155212395
1763698901103225600,7.9092255859375,10.238653762054442,-6.064063892364501,5.383512070465088
1763698901113176800,7.9191767578125,9.209296685791015,-5.531054747772217,2.870198877716064
1763698901123128800,7.92912890625,8.450185121917723,-4.619462465667724,0.3628711891174316
1763698901133079800,7.939079833984375,7.738807953643798,-3.406649687194824,-2.3880665184020993
1763698901143030800,7.94903076171875,7.16973614654541,-2.4013842651367185,-5.395782353973388
1763698901152982800,7.958982666015625,6.785317142486572,-0.46208092041015625,-8.259097901916503
1763698901162933800,7.968933837890625,6.73548782043457,2.6460417472839355,-11.623699422454834
1763698901172884700,7.978884765625,7.126939791870117,5.877016887664794,-15.304784474945068
1763698901182836700,7.988836669921875,6.482450632476806,8.275109125518798,-17.978958091735837
1763698901192788000,7.9987880859375,6.768408093261718,11.021856980133055,-19.93157918319702
1763698901202738700,8.00873876953125,4.425981044006347,13.15763449859619,-19.49119571533203
1763698901212691000,8.01869091796875,2.914341970825195,15.821932033538818,-21.218612213134765
1763698901222641700,8.0286416015625,3.0336031410217283,19.956269387817382,-27.25484351119995
1763698901232593000,8.038593017578124,4.962132578277588,24.053047703552245,-35.75770106964111
1763698901242545000,8.048544921875,7.904307143402099,27.07572729949951,-42.65210402526855
1763698901252496000,8.058495849609375,10.5337391166687,24.705467655944823,-43.89080410919189
1763698901262446800,8.06844677734375,10.251522595977782,21.640290980529784,-38.28508019714355
1763698901272398600,8.078398681640625,6.877493906402587,19.992332050323487,-29.159430931854246
1763698901282349800,8.088349853515625,3.177255240631103,18.18964783782959,-20.190152962493894
1763698901292300800,8.09830078125,0.20231004028320312,16.142755055999753,-13.169156594085692
1763698901302252800,8.108252685546875,-1.1519102737426756,14.630218157196044,-8.990676146697998
1763698901312203800,8.118203857421875,-1.3039420791625975,13.467234700775146,-6.870760214233398
1763698901322154800,8.12815478515625,-0.7634510543823242,12.100744103240967,-5.447556964874267
1763698901332106800,8.138106689453124,-0.5204395858764648,10.538527519989014,-3.359962754821777
1763698901342057700,8.1480576171875,-0.9789292037963867,8.888922576141358,-0.30181904678344723
1763698901352008700,8.1580087890625,-1.7428291709899901,7.429207751464843,2.9849709197998044
1763698901361961000,8.1679609375,-2.4453777206420897,6.388478217315673,5.84828646774292
1763698901371911700,8.17791162109375,-2.858227869415283,5.379920767974853,7.731774986267089
1763698901381863200,8.18786328125,-2.830095999908447,4.510376652526856,8.137292892456054
1763698901391815000,8.19781494140625,-3.570652500915527,4.135534455108642,7.962965084075927
1763698901401766100,8.20776611328125,-4.332906454467773,3.178003428649902,7.774421703338622
1763698901411716900,8.217716796875,-4.1469069129943845,2.0425532913208007,7.194426351165771
1763698901421669000,8.227669189453126,-4.390965844726562,1.486948868560791,6.455216588592529
1763698901431620000,8.2376201171875,-4.986673145294189,1.3159130874633789,5.684433291625976
1763698901441571000,8.247571044921875,-5.290437480926514,1.2478279777526855,4.846612348175048
1763698901451523000,8.257523193359376,-5.170428122711181,1.6285060417175292,3.693953886413574
1763698901461474000,8.26747412109375,-5.493944622039795,2.291400626373291,2.0923826133728025
1763698901471425000,8.277425048828125,-6.174795719146728,1.7018284675598143,0.9020154754638672
1763698901481377000,8.287376953125,-6.016329496765136,2.101211231994629,0.26171616897583005
1763698901491328000,8.297327880859376,-7.459883460235595,3.5480572227478024,-0.3655646659851074
1763698901501279200,8.307279296875,-7.381024443054199,3.9832033744812008,-1.6178817718505858
1763698901511231000,8.31723095703125,-7.126041966247558,4.886864863586426,-3.7674259498596188
1763698901521182000,8.327181884765626,-6.96488226699829,6.33311230392456,-6.862380508422851
1763698901531133000,8.3371328125,-7.071274603271484,9.061305095672607,-10.197204145812988
1763698901541085000,8.3470849609375,-8.509740888214111,12.727426387786865,-12.137854228973389
1763698901551036200,8.3570361328125,-9.181464091491698,15.62276438293457,-13.49656367111206
1763698901560987000,8.36698681640625,-9.13582462234497,18.551172288513182,-16.562937447357175
1763698901570939100,8.376939208984375,-8.03090055618286,21.03635361175537,-21.270386824035644
1763698901580889900,8.386889892578125,-5.718101752471924,21.306898399353027,-26.930728461456297
1763698901590841000,8.396841064453126,-3.749918350219726,19.73241153259277,-30.083892047882077
1763698901600793000,8.40679296875,-0.6886322525024413,18.353351376342772,-31.682021656036376
1763698901610744000,8.416744140625,2.6081834335327145,16.425121214294432,-30.156167010498045
1763698901620695000,8.426695068359376,6.207117441558838,15.031097297668456,-26.531046421813965
1763698901630647000,8.43664697265625,8.590096281433105,11.917737313842773,-22.118383124542234
1763698901640598000,8.446597900390625,8.38239928741455,9.375693701171874,-17.019781051635743
1763698901650550000,8.456550048828126,7.773523877716064,7.862857527160644,-13.779678017425537
1763698901660501000,8.4665009765625,6.619817952728271,5.238962145233154,-9.980079982757568
1763698901670452200,8.4764521484375,5.43289247970581,3.2691327293395993,-7.485621128082275
1763698901680404000,8.486404052734375,4.493317965698242,1.8224363761901854,-5.710021321868896
1763698901690355000,8.49635498046875,4.061164566040039,1.208473287963867,-4.5881882064819335
1763698901700306000,8.506305908203124,4.299986181640625,0.7769184387207031,-3.829226280212402
1763698901710258000,8.5162578125,5.004629657745361,0.1005564697265625,-3.4000656326293943
1763698901720209200,8.526209228515626,5.874173773193359,-1.0274117874145507,-3.1343092483520505
1763698901730159900,8.536159912109374,6.928071416473388,-2.3024738090515133,-3.0439281356811523
1763698901740112100,8.546112060546875,7.557297540283202,-3.178003428649902,-2.8938416191101073
1763698901750062800,8.556062744140625,8.066813581085205,-3.7078701835632324,-2.4289175842285156
1763698901760014000,8.56601416015625,8.693196590423584,-4.0243537155151365,-1.5683517250061034
1763698901769965000,8.575965087890625,9.182511554718017,-4.120271419525146,-0.16639701538085935
1763698901779917000,8.5859169921875,9.330802420043945,-4.552574456787109,1.871218235015869
1763698901789868000,8.595867919921876,9.401730644226074,-5.248838227081299,4.187757978820801
1763698901799820000,8.605820068359375,9.299378523254394,-5.465663114929199,6.236596049499512
1763698901809771000,8.61577099609375,9.003245705413818,-5.55424857635498,7.5254247306823725
1763698901819722000,8.625721923828126,8.459761928558349,-5.6483706291198725,7.566425434112548
1763698901829674000,8.635674072265624,7.673266683197021,-5.443217474365234,6.115688865661621
1763698901839625200,8.645625244140625,6.9147536697387695,-5.055356805419922,3.6950013496398926
1763698901849576000,8.655575927734375,6.303334420776367,-4.4005426513671875,0.921917276763916
1763698901859528200,8.665528076171874,5.795913306427002,-3.265691064453125,-2.057666689300537
1763698901869479000,8.67547900390625,5.451746817779541,-1.239148996734619,-5.009268423461914
1763698901879430100,8.68543017578125,5.44621022644043,1.0956465347290039,-7.592163101959228
1763698901889382100,8.695382080078126,5.866093342590331,3.2894834434509277,-9.807398188018798
1763698901899333000,8.7053330078125,5.950638588714599,5.066429988098144,-11.62654253692627
1763698901909284000,8.7152841796875,5.43304211730957,7.48247873840332,-13.064410271453857
1763698901919235800,8.72523583984375,2.8178257164001463,10.09335564880371,-12.836811476135253
1763698901929187000,8.73518701171875,1.22583125,13.014431311798095,-15.442451070404053
1763698901939138000,8.745137939453125,1.6121955429077148,15.067608872985838,-19.740791238403318
1763698901949090000,8.755090087890625,2.874987281036377,16.923564072418213,-27.45909884033203
1763698901959041000,8.765041015625,3.2652421516418455,18.71293053817749,-34.357691648864744
1763698901968992000,8.774991943359375,4.544194750976562,18.413505693054198,-37.497836763763424
1763698901978944000,8.784944091796875,3.337666751861572,17.957410276794434,-34.5646404548645
1763698901988895000,8.79489501953125,1.0236708473205567,17.92089870147705,-27.967118505096433
1763698901998846000,8.804845947265624,-0.629525399017334,17.82542991027832,-21.27308030090332
1763698902008798200,8.814798095703125,-0.9540893615722655,17.51732608413696,-16.09950978851318
1763698902018749000,8.8247490234375,-0.02693476867675781,16.41374875640869,-12.414833433532714
1763698902028700200,8.8347001953125,1.0718541557312011,14.689325010681152,-9.145102153778076
1763698902038652000,8.84465185546875,0.22041619033813475,12.412738507080077,-6.110750824737549
1763698902048603100,8.85460302734375,-0.43574470214843747,10.45158807220459,-2.205658279418945
1763698902058553900,8.864553955078126,-0.6359598159790039,8.47831699142456,1.2551602203369139
1763698902068506000,8.874506103515625,-1.9071312599182129,7.253383567047119,4.6639048339843745
1763698902078457000,8.88445703125,-3.009361849212646,6.123021108245849,7.261912910461425
1763698902088408000,8.894407958984376,-3.847930980682373,5.335478399658203,8.697087168121337
1763698902098360000,8.904360107421875,-4.387973092651367,4.753986671447754,8.896404456329345
1763698902108311000,8.91431103515625,-4.7670051429748534,3.7879263015747067,8.40140326309204
1763698902118262000,8.924261962890625,-5.333383473205566,2.592920397949219,7.825747401428222
1763698902128214000,8.934214111328124,-5.187486809539795,2.6885388267517087,6.311564488983154
1763698902138165000,8.9441650390625,-5.90544803237915,2.55371534576416,5.615300718688965
1763698902148116200,8.9541162109375,-5.358372953033447,1.8038813133239746,4.631583111572265
1763698902158068000,8.96406787109375,-5.206490785217285,1.668758557128906,3.724629595184326
1763698902168019000,8.97401904296875,-5.666776054382324,2.1211130332946775,3.0460230621337887
1763698902177970000,8.983969970703125,-5.949441487884521,2.6197055290222164,2.159869172668457
1763698902187922000,8.993921875,-5.9126306373596185,2.9288568183898924,0.7377133865356444
1763698902197873200,9.003873046875,-5.7125651611328125,3.9018005180358886,-1.6671125434875487
1763698902207824000,9.013823974609375,-7.33523533630371,4.377797735595703,-4.803965631103515
1763698902217776000,9.023776123046876,-7.416787830352782,5.400570757293701,-8.295160564422607
1763698902227726800,9.033726806640624,-8.921393936157227,7.580042456054687,-12.214019769287109
1763698902237678000,9.043677978515625,-9.015665626525879,8.182782723999024,-15.416713402557372
1763698902247630000,9.053630126953125,-8.53009160232544,9.760112705230712,-19.959561415100097
1763698902257581000,9.0635810546875,-9.976638317871092,11.948861935424803,-21.01181304473877
1763698902267532000,9.073531982421875,-11.959635842895507,13.725509204864501,-20.623653100585937
1763698902277484000,9.083484130859375,-11.749245372009277,15.460257945251463,-20.583550222778317
1763698902287435000,9.09343505859375,-11.56773495864868,17.81929476852417,-22.316503311920165
1763698902297386000,9.103385986328124,-9.95329485168457,18.392556428527833,-25.590723719787597
1763698902307338000,9.113337890625,-6.1550435554504395,16.589423303222656,-28.852973119354246
1763698902317289200,9.123289306640626,-2.977189764404297,16.391602391052245,-32.01840698928833
1763698902327240000,9.133239990234374,0.02154781494140625,15.85784505844116,-33.879749142456056
1763698902337192000,9.14319189453125,3.791816879272461,14.043489112854003,-33.38968599014282
1763698902347143000,9.153142822265625,6.501753883361816,11.163414153289795,-30.48566901397705
1763698902357094100,9.16309423828125,7.470657367706298,8.653392987823485,-24.977059906768798
1763698902367046100,9.173046142578125,7.823203562164307,7.111527118682861,-19.278411042785642
1763698902376997000,9.1829970703125,7.511209158325195,5.125686479187012,-13.963133719635008
1763698902386948600,9.192948486328126,6.559214723205566,3.1100679565429687,-9.43599765548706
1763698902396900400,9.202900390625,5.7700260009765625,1.2466308769226073,-6.361393811035156
1763698902406851600,9.2128515625,5.370343961334228,-0.17791911087036133,-4.238335488891601
1763698902416802300,9.22280224609375,5.561281543731689,-1.0039186836242675,-2.800168479156494
1763698902426754600,9.232754638671874,6.6528878631591795,-1.9077298103332518,-1.9250877723693847
1763698902436705500,9.24270556640625,8.213159157562256,-3.443161262512207,-1.454926421356201
1763698902446656500,9.252656494140625,9.541492166137695,-5.187337171936035,-1.0218751960754393
1763698902456608500,9.2626083984375,10.516231517028809,-6.479457880401611,-0.6546645164489746
1763698902466559500,9.2725595703125,11.084255860900878,-7.187393383789062,-0.26336218261718747
1763698902476510500,9.282510498046875,11.155483360290527,-8.040477362823486,0.8101379867553711
1763698902486462700,9.292462646484376,11.767351522064208,-8.845976583862305,2.4275708457946776
1763698902496413400,9.302413330078124,12.058396661376952,-8.959252249908447,4.5693338684082025
1763698902506364700,9.31236474609375,11.716923649597167,-8.654739726257324,6.88243194732666
1763698902516316400,9.32231640625,11.558158152008057,-8.01877991027832,8.385691314697265
1763698902526267600,9.332267578125,11.503241151428222,-7.220014381408691,9.049633362579344
1763698902536218400,9.34221826171875,11.309909367370604,-6.459556079101562,8.506897773742676
1763698902546170400,9.35217041015625,10.952874044799804,-5.728576384735107,6.526893000793456
1763698902556121600,9.36212158203125,10.414029033660889,-5.0005894424438475,3.584119885253906
1763698902566072600,9.372072509765625,9.587281272888182,-4.327968413543701,0.48347909774780273
1763698902576024600,9.382024658203125,8.4528785987854,-3.534140925598144,-2.409315058135986
1763698902585975300,9.391975341796876,7.352294023132324,-2.503287473297119,-4.323778560638427
1763698902595926500,9.401926513671874,6.821828717803955,-1.250072541809082,-6.890362740325927
1763698902605878500,9.41187841796875,6.232705471801758,1.4130278923034667,-9.368511096191405
1763698902615829500,9.42182958984375,5.974730242919922,3.912873700714111,-11.837381920623779
1763698902625780500,9.431780517578124,5.889436808776855,6.389076767730712,-13.939341340637206
1763698902635732500,9.441732421875,4.5498809799194335,8.52320827255249,-14.544176535034179
1763698902645683500,9.451683349609375,2.3918074584960936,9.93399160079956,-13.633631716156005
1763698902655634400,9.461634521484376,3.2609026611328122,12.82005206451416,-16.851738022613524
1763698902665586400,9.47158642578125,3.3426047927856444,18.369212962341308,-24.301895038604734
1763698902675537700,9.48153759765625,4.32811805114746,20.83224792022705,-31.808166156005857
1763698902685488400,9.49148828125,5.621136585235595,21.117008280181885,-39.128886644744874
1763698902695440600,9.501440673828125,4.696226556396484,20.337695639801023,-41.3189826133728
1763698902705391400,9.511391357421875,3.4483985786437987,19.173814357757568,-37.21382459182739
1763698902715342600,9.521342529296875,1.0720037933349609,19.227534257507322,-29.734039330291747
1763698902725294600,9.531294677734374,-1.1399392654418945,18.650382019805907,-22.59438034210205
1763698902735245600,9.54124560546875,-1.896806265258789,17.177349448394775,-17.4550768409729
1763698902745196500,9.551196533203125,-1.7592893074035643,15.699678111267088,-13.601609268951416
1763698902755148300,9.561148193359376,-1.3461398834228515,14.14778652267456,-10.544363386535643
1763698902765099500,9.571099609375,-1.3825018211364746,12.344354122161864,-7.294234632873534
1763698902775050500,9.581050537109375,-1.8418892646789549,10.307935972595214,-3.342155879974365
1763698902785002500,9.59100244140625,-2.479195819091797,8.366238426208495,0.9241618408203125
1763698902794953500,9.600953369140624,-2.9445687667846676,6.782324390411376,4.887164138793945
1763698902804904400,9.610904541015625,-3.3200095146179196,5.893925936889648,8.01144766769409
1763698902814856400,9.6208564453125,-3.540276067352295,5.232078815460205,10.069413632202147
1763698902824807400,9.630807373046874,-2.948459344482422,4.800823241424561,10.223091451263427
1763698902834758400,9.64075830078125,-3.58816010055542,3.70936655960083,10.34863740081787
1763698902844710700,9.650710693359375,-3.8615480026245117,1.6298527801513671,10.684124908447265
1763698902854661400,9.660661376953126,-4.376301359558105,0.5424363136291503,10.135254177856444
1763698902864612600,9.670612548828124,-5.5181859138488765,0.11372457885742186,9.154080410003662
1763698902874564400,9.680564453125,-6.420351026916504,-0.18300678939819334,8.027458891296387
1763698902884515600,9.690515625,-6.651541124725341,0.2397194412231445,6.195146433258056
1763698902894466300,9.70046630859375,-6.724713912963867,1.7304092498779295,3.6858734558105466
1763698902904418600,9.71041845703125,-6.894253318023681,2.2680571601867676,1.6813281158447264
1763698902914369500,9.72036962890625,-6.599616876220702,1.656787548828125,0.01750759963989258
1763698902924320500,9.730320556640624,-7.716362313079833,3.866486043548584,-2.198176399230957
1763698902934272500,9.7402724609375,-8.723124111175537,5.500678314208984,-4.925621002960205
1763698902944223500,9.750223388671875,-7.8609122383117676,6.732195793151855,-9.149591281890869
1763698902954174500,9.760174560546876,-7.806893063354492,8.919448647308348,-13.977498929595946
1763698902964126500,9.77012646484375,-7.15701695022583,11.245565197753905,-18.625242902374268
1763698902974077400,9.780077392578125,-6.181978324127197,12.707374948883055,-21.440824054718018
1763698902984028700,9.790028564453126,-6.579864712524413,14.168885424804687,-21.6688717628479
1763698902993980400,9.79998046875,-8.662371244049071,16.66454138031006,-21.094861914825437
1763698903003931600,9.809931640625,-9.937732540893554,19.040038339996336,-21.549760230255124
1763698903013882400,9.81988232421875,-9.741258367156982,21.34355961227417,-24.45243046798706
1763698903023834400,9.82983447265625,-7.817816608428955,22.207567136383055,-28.617892443847655
1763698903033785600,9.83978564453125,-3.8986581283569333,20.600010359191895,-31.80696905517578
1763698903043736600,9.849736572265625,-0.426467170715332,18.61611500854492,-32.63760739364624
1763698903053688600,9.8596884765625,2.1136311531066894,16.663942829895017,-31.605556840515135
1763698903063639300,9.869639404296874,4.441992267608643,14.355633154296875,-29.041217224884033
1763698903073590500,9.879590576171875,6.291513050079345,12.109123809051512,-25.361478910827636
1763698903083542500,9.88954248046875,7.6093714263916015,9.752032274627686,-20.869806958770752
1763698903093493500,9.899493408203124,8.090007409667969,7.2708911666870115,-15.966930871582031
1763698903103444500,9.909444580078125,7.77606771697998,4.770446807861328,-11.604994721984863
1763698903113396500,9.919396484375,6.756137809753418,2.2813749069213864,-8.144176222229003
1763698903123347500,9.929347412109376,5.508908382415771,0.1349731185913086,-5.664381852722167
1763698903133298400,9.93929833984375,4.796483750915527,-1.345840608215332,-3.884891468811035
1763698903143250400,9.94925048828125,4.899733697509765,-2.1256021614074707,-2.436848377227783
1763698903153201700,9.95920166015625,6.030245793914794,-2.760664151763916,-1.3298293846130371
1763698903163152400,9.96915234375,7.783250321960449,-4.084807307434081,-0.5499181938171387
1763698903173104600,9.979104736328125,9.30805750427246,-6.103568219757079,0.08289923248291015
1763698903183055400,9.989055419921876,10.269030195617676,-7.735515926361083,0.5193921226501464
1763698903193006600,9.999006591796874,10.264541067504883,-8.715342955780029,1.1851298217773436
1763698903202958600,10.00895849609375,10.920253047180175,-9.849296717071532,3.1112650573730467
1763698903212909600,10.01890966796875,11.611429138946532,-9.8825162651062,5.140051689147949
1763698903222860500,10.028860595703126,11.493215431976317,-9.29518867034912,7.163451367187499
1763698903232812300,10.038812255859375,11.3649760055542,-8.867374761199951,8.715941506195067
1763698903242763500,10.048763427734375,10.781239713287352,-8.476521340179444,9.524134204101562
1763698903252714500,10.058714599609376,9.929951385498047,-7.531410234832763,8.870367513275147
1763698903262666500,10.06866650390625,9.028384822845458,-6.251859085083008,7.065738011932373
1763698903272617500,10.078617431640625,8.843732019805907,-5.480327600097656,4.657470417022704
1763698903282568400,10.088568359375,9.07911197052002,-4.460696968078613,1.9487305137634277
1763698903292520400,10.0985205078125,9.351901322174072,-3.0048727210998534,-0.11716624374389648
1763698903302471400,10.108471435546875,9.601047932434081,-1.862988166809082,-2.739565249633789
1763698903312422400,10.11842236328125,9.26331586074829,0.14589666366577148,-5.550657273864746
1763698903322374700,10.128374755859374,8.499415893554687,2.2842180213928223,-7.388207048034667
1763698903332325400,10.138325439453125,8.30518628387451,4.197484423065185,-8.99561418762207
1763698903342276600,10.148276611328125,7.36127227935791,5.49708701171875,-10.152911415100098
1763698903352228400,10.158228271484376,6.133196465301514,7.058705044555664,-9.99145244064331
1763698903362179600,10.1681796875,3.4323873550415036,8.547000651550292,-8.824877681732177
1763698903372130300,10.17813037109375,2.63047943649292,12.573449293518065,-10.573393081665039
1763698903382082600,10.18808251953125,2.4398411293029785,18.563292934417724,-16.396091519165036
1763698903392033300,10.198033203125,4.723460600280761,21.739500711822508,-24.03179916381836
1763698903401984500,10.207984619140625,7.836072396087646,24.274660994720456,-32.66095085983276
1763698903411936300,10.217936279296875,10.493636238861084,25.228002168273925,-36.60195643005371
1763698903421887500,10.227887451171876,12.019939797210693,24.197148715972897,-34.97913661727905
1763698903431838200,10.237838134765624,9.748740247344971,23.044041341400145,-28.579734854888915
1763698903441790500,10.24779052734375,5.6377463592529296,21.740997087860105,-21.243152780151366
1763698903451741400,10.257741455078126,1.5514426757812498,20.361936931610106,-15.22083777923584
1763698903461692400,10.2676923828125,-0.5057751007080078,18.85299133529663,-10.639083989715575
1763698903471644400,10.27764453125,-0.7049427513122558,16.91922458190918,-8.093598712158203
1763698903481595400,10.287595458984375,-0.5536591339111328,14.726584774017333,-6.1824272369384765
1763698903491546400,10.29754638671875,-0.9084498924255371,12.268038944244385,-3.8214451248168944
1763698903501498400,10.307498291015625,-1.8837877937316894,9.694272159576416,-0.7574655502319335
1763698903511449300,10.317449462890625,-3.061286097717285,7.578845355224609,2.6364649406433105
1763698903521400600,10.327400634765626,-4.027496105194092,6.312312677001953,5.607070650482178
1763698903531352300,10.337352294921875,-4.69233597869873,5.383063157653808,7.6838909530639645
1763698903541303300,10.34730322265625,-5.097853884887695,4.146458000183105,8.790012120056153
1763698903551254300,10.357254150390625,-4.722113861846924,3.3110312583923336,8.691400939178466
1763698903561206300,10.367206298828124,-5.806836851501465,1.9197008186340332,9.25029738922119
1763698903571157500,10.377157470703125,-6.06541063079834,0.41374797439575195,8.881590333557128
1763698903581108200,10.387108154296875,-6.62056614074707,-0.4831798225402832,8.047510330200195
1763698903591060500,10.397060546875,-7.537545376586913,-0.7893383598327637,7.381473355865478
1763698903601011200,10.40701123046875,-8.713248029327392,-0.7181108604431152,7.219565468597412
1763698903610962400,10.41696240234375,-9.10320362472534,-0.23822306518554687,6.582558189392089
1763698903620914400,10.42691455078125,-7.990348765563964,1.5152303756713865,3.854066122436523
1763698903630865400,10.436865478515625,-8.951620732116698,1.735945841217041,1.8107646430969238
1763698903640816400,10.44681640625,-7.320870126342773,2.7163714210510252,-0.594959112548828
1763698903650768400,10.456768310546876,-8.351424303436279,4.829254386138916,-2.6604069572448727
1763698903660719400,10.46671923828125,-7.152976734924316,6.304531521606445,-5.820304235839844
1763698903670670300,10.47667041015625,-5.927594397735596,9.087641313934325,-10.109217234802246
1763698903680622300,10.486622314453125,-4.743811314392089,12.961160324859618,-15.48883872756958
1763698903690573600,10.496573486328124,-1.5483002861022948,16.98730969161987,-21.12523834838867
1763698903700524300,10.506524169921875,0.6705261024475098,21.148432176971433,-24.104373401641844
1763698903710476300,10.516476318359375,1.729511424255371,23.789984796142576,-24.17844401550293
1763698903720427300,10.52642724609375,2.799121015930176,24.685865129852292,-23.553108469390867
1763698903730378500,10.53637841796875,2.663399709320068,25.74215697479248,-23.83352933883667
1763698903740330500,10.54633056640625,3.5878608253479003,26.015095964050293,-26.076447381591795
1763698903750281200,10.55628125,6.287772109985351,24.070704940795896,-28.07740141906738
1763698903760232400,10.566232421875,8.868422224426268,21.814020238494873,-28.031313037109374
1763698903770184200,10.57618408203125,10.933121881103515,19.798700991058347,-25.890747115325926
1763698903780135400,10.586135498046875,12.002881110382079,17.44235764465332,-22.76721177444458
1763698903790086100,10.596086181640626,11.928660858917235,14.503475106811523,-19.19745709915161
1763698903800038400,10.606038330078125,10.860846918487548,11.003601192474365,-14.928595539093017
1763698903809989400,10.6159892578125,9.13582462234497,7.508964594268798,-10.384101512908934
1763698903819940400,10.6259404296875,7.2894462295532225,4.67976641998291,-6.660220105743408
1763698903829892400,10.635892333984375,5.809380690765381,2.4187422271728516,-4.204068477630615
1763698903839843300,10.64584326171875,4.9078141281127925,0.4155436256408691,-2.572120771026611
1763698903849794300,10.655794189453125,4.7469537040710446,-1.0510545288085937,-1.322197866821289
1763698903859746600,10.66574658203125,5.1039890266418455,-2.2022166145324706,-0.4438251327514648
1763698903869697300,10.675697265625,6.002113924407959,-3.8908769729614257,0.11267711563110351
1763698903879648500,10.6856484375,7.0652890991210935,-5.9120320869445795,0.6619967590332031
1763698903889600300,10.695600341796874,7.8152727691650385,-7.48876351776123,1.1007342132568358
1763698903899551500,10.705551513671875,8.310722875213623,-8.462904318237305,1.673995873260498
1763698903909502200,10.715502197265625,8.789263932037352,-8.921842848968506,2.4551041648864746
1763698903919454500,10.725454345703126,9.28875425338745,-9.870994169616699,4.094533751678466
1763698903929405400,10.735405517578124,10.526107598876953,-10.911424428558348,6.416011536407471
1763698903939356400,10.7453564453125,10.780790800476074,-10.564863738250732,8.672995513916016
1763698903949308400,10.755308349609376,10.37497361907959,-9.8319387550354,10.374075793457031
1763698903959259400,10.76525927734375,9.731232647705077,-9.491064293670654,11.120168885803222
1763698903969210400,10.77521044921875,8.793154509735107,-9.305513665008544,10.868179161071776
1763698903979162400,10.785162353515625,8.055291485595703,-8.779537487792968,9.33424408493042
1763698903989113300,10.79511328125,7.629722140502929,-7.723544918060302,6.675632778930663
1763698903999064300,10.805064208984374,7.341220840454101,-6.336853244018554,3.4190696083068848
1763698904009016300,10.815016357421875,7.69930362625122,-4.823867432403564,-0.004489128112792969
1763698904018967300,10.82496728515625,7.454197231292724,-3.1501708343505856,-2.9646202056884765
1763698904028918300,10.834918212890624,7.860463325500488,-0.6862380508422851,-7.316231360626221
1763698904038870300,10.844870361328125,7.008277172088623,2.3582886352539063,-11.01302836151123
1763698904048821500,10.854821533203125,7.005733332824707,5.1690813842773435,-14.261660739135742
1763698904058772200,10.864772216796876,6.877493906402587,7.6856866043090815,-15.827917537689208
1763698904068724500,10.874724365234375,5.657947435760498,10.385148976135254,-16.42197882461548
1763698904078675200,10.88467529296875,2.7913398605346678,12.061539051055908,-14.39618494491577
1763698904088626400,10.89462646484375,1.070657054901123,15.421801081085205,-13.980641319274902
1763698904098578400,10.904578369140625,1.7274164978027342,20.78241859817505,-18.702605543518064
1763698904108529400,10.914529296875,4.600757765197754,22.84936281890869,-26.805631424713134
1763698904118480400,10.92448046875,7.857021660614013,23.819313766479493,-34.53022380599975
1763698904128432400,10.934432373046874,9.683647889709473,23.325509674072265,-38.5876474319458
1763698904138383400,10.94438330078125,9.678260935974121,20.92292830810547,-36.75084584579468
1763698904148334300,10.954334228515625,6.307224998474121,19.201796589660642,-29.80870849456787
1763698904158286300,10.964286376953124,2.077568490600586,17.976264614868164,-22.016031003570557
1763698904168237600,10.974237548828125,-1.1746551895141601,16.188544162750244,-15.523105738830566
1763698904178188300,10.984188232421875,-2.081907981109619,14.276624499511717,-11.069591375732422
1763698904188140300,10.994140380859376,-1.4538789581298828,12.722039434051513,-8.29396346359253
1763698904198091300,11.00409130859375,-0.8463502868652343,11.17912610168457,-5.902455280303955
1763698904208042500,11.01404248046875,-0.7755717002868652,9.043797496032715,-2.939481088256836
1763698904217994500,11.023994384765626,-1.3530232131958007,6.796539962768554,0.7779659019470214
1763698904227945200,11.0339453125,-2.5378537597656248,5.201253469085693,4.733037406921387
1763698904237896400,11.043896484375,-3.49224239654541,4.25838692779541,8.062324452972412
1763698904247848200,11.05384814453125,-4.191199643707275,3.5519478004455562,10.153958878326415
1763698904257799400,11.06379931640625,-4.565742565917969,2.6888381019592282,10.78946978149414
1763698904267750100,11.073750244140625,-4.774337385559082,1.6837223175048828,10.461164878845214
1763698904277702400,11.083702392578125,-5.095908596038818,0.9911994873046874,9.48747299118042
1763698904287653400,11.0936533203125,-4.918139122772216,1.2880804931640624,7.3286512817382805
1763698904297604400,11.103604248046874,-5.699247414398193,1.2167033561706542,5.96245995941162
1763698904307556400,11.113556396484375,-5.678298149871826,1.336263801574707,4.075380138397216
1763698904317507300,11.12350732421875,-6.584204203033447,2.2566847023010252,2.3508067550659177
1763698904327458300,11.133458251953124,-7.887098818969726,3.7741596420288084,0.4004302276611328
1763698904337410600,11.14341064453125,-9.092579354858398,5.294477696228027,-1.8528128097534178
1763698904347361300,11.153361328125,-9.132682232666015,6.859537393951416,-4.943876790618896
1763698904357312500,11.1633125,-9.508422255706787,7.831732905578613,-7.580790644073486
1763698904367264300,11.17326416015625,-8.551340142059326,9.66524246444702,-11.412860038757323
1763698904377215500,11.183215576171875,-8.296956215667723,11.964573883819579,-14.23098503036499
1763698904387166500,11.19316650390625,-6.372466993713378,12.297966464996337,-16.19662459335327
1763698904397118500,11.203118408203125,-5.379322217559814,13.464092311096191,-16.884957570648194
1763698904407069700,11.213069580078125,-7.088034014892577,16.33144807434082,-16.92506044845581
1763698904417020700,11.223020751953126,-8.946383415985107,18.40722091369629,-16.884658295440673
1763698904426972700,11.23297265625,-8.661623056030272,20.262128649902344,-18.727894298553466
1763698904436923400,11.24292333984375,-7.6856866043090815,22.997204771423338,-23.093870663452147
1763698904446874600,11.25287451171875,-4.463390444946289,22.934656253051756,-27.971757270812986
1763698904456826600,11.26282666015625,0.10803834991455077,20.56484552230835,-31.701474544525144
1763698904466777600,11.272777587890625,3.3942297660827636,19.05126116027832,-33.04477131347656
1763698904476728600,11.282728515625,6.688800888061523,17.203685666656494,-31.58984489212036
1763698904486680600,11.2926806640625,9.464279162597656,14.911387214660644,-27.99405327377319
1763698904496631600,11.302631591796874,10.93012912902832,12.09760171356201,-23.006183027648923
1763698904506582800,11.312582763671875,11.114482656860352,8.877250843048095,-17.39746636352539
1763698904516534500,11.322534423828126,10.044424152374267,6.279691679382323,-11.9127992729187
1763698904526485800,11.33248583984375,8.30608410949707,4.16845472793579,-7.4676646156311035
1763698904536436500,11.3424365234375,6.665756697082519,1.969530140686035,-4.582202702331543
1763698904546388700,11.352388671875,5.398026918029784,0.06943184814453125,-2.6795605705261227
1763698904556339500,11.36233935546875,4.6918870658874505,-1.0471639511108397,-1.389983701324463
1763698904566290700,11.372290771484375,5.0203416061401365,-1.9334674781799315,-0.6175543907165527
1763698904576242700,11.38224267578125,6.118980892944336,-3.379864556121826,-0.4417302062988281
1763698904586193700,11.392193603515626,7.248744801330566,-5.285649077606201,-0.3480570663452148
1763698904596144600,11.40214453125,8.119186742401123,-7.22689771118164,0.22101474075317382
1763698904606096400,11.412096435546875,8.677484642028809,-8.47173293685913,1.0256161361694336
1763698904616047600,11.422047607421876,8.856451216125487,-9.261520209503173,1.7628806098937988
1763698904625998800,11.431998779296874,10.02392380065918,-10.839448741149901,3.918559929656982
1763698904635950600,11.44195068359375,10.90409218597412,-11.228207235717774,6.163722536468505
1763698904645901600,11.451901611328125,10.442609815979003,-10.800542964172363,8.199991048431396
1763698904655852500,11.4618525390625,10.060435375976562,-9.82550433807373,8.744671926116943
1763698904665804500,11.471804443359375,9.743802206420899,-8.742128086853027,8.050054169464111
1763698904675755500,11.481755615234375,9.796624280548095,-7.775469166564941,6.790853733825683
1763698904685706500,11.49170654296875,9.626187049865722,-6.092495037078857,4.409820182800293
1763698904695658800,11.50165869140625,9.24520971069336,-4.706701188659668,1.4832079284667967
1763698904705609500,11.511609375,9.027935910034179,-3.883395092773437,-0.7402572257995605
1763698904715560700,11.521560791015625,8.802432041168212,-2.5143606559753415,-4.280832568359375
1763698904725512400,11.531512451171874,7.318176649475097,-0.25094226150512694,-7.9661074737548825
1763698904735463700,11.541463623046875,6.682366471099853,1.4966753128051757,-10.988038881683348
1763698904745414700,11.55141455078125,6.816591401672363,3.980809172821045,-13.214796063232422
1763698904755366700,11.56136669921875,6.912509105682372,6.239139888763427,-14.114118061828613
1763698904765317600,11.571317626953125,7.30351216430664,7.424568985748291,-13.302932611846924
1763698904775268600,11.5812685546875,5.332336009979247,7.3460092437744136,-10.173112491607666
1763698904785220600,11.591220703125,3.9502831016540525,9.788843125152587,-9.83777462158203
1763698904795171600,11.601171630859374,1.248725803375244,15.910816770172119,-14.819809001159667
1763698904805122600,11.61112255859375,1.9583073204040526,19.067422021484372,-24.130559982299804
1763698904815074600,11.621074462890626,4.086752596282959,20.34772135925293,-34.52334047622681
1763698904825025500,11.631025634765624,4.411017283630371,21.90978830490112,-41.601947322082516
1763698904834976800,11.640976806640625,4.885218849945068,22.686557106018064,-41.90092325439453
1763698904844928500,11.650928466796875,4.40518141708374,22.5484415977478,-34.50134374847412
1763698904854879700,11.660879638671876,2.7819126914978027,21.625626495361328,-24.15300562286377
1763698904864830700,11.670830810546875,1.2381015335083008,20.428974578094483,-14.692467400360107
1763698904874782500,11.680782470703125,1.2901754196166992,19.09016693725586,-8.022221575164794
1763698904884733700,11.690733642578126,2.347065814971924,17.234211737823486,-4.38587816619873
1763698904894684700,11.7006845703125,2.9926024375915525,14.46681389389038,-2.5450363647460934
1763698904904636700,11.71063671875,2.329857490539551,11.486930652618408,-1.0402806213378906
1763698904914587600,11.720587646484375,0.720804337310791,9.03392141418457,0.6902782661437988
1763698904924538600,11.73053857421875,-0.9419687156677246,7.135319497680664,2.3382371963500974
1763698904934490600,11.74049072265625,-2.4453777206420897,5.593902541351318,3.6927567855834957
1763698904944441600,11.750441650390625,-3.7672763122558592,4.303727121734619,4.605396530914306
1763698904954392600,11.760392578125,-5.083787950134277,3.2377088325500485,5.193173038482666
1763698904964344600,11.770344482421875,-6.031891807556152,2.5245360130310055,5.32440521697998
1763698904974295600,11.780295654296875,-6.418854650878906,2.7437551025390623,4.732139581298828
1763698904984246800,11.790246826171876,-6.204872877502441,2.4947581298828125,4.055627974700927
1763698904994198500,11.800198486328124,-5.106083953094482,2.8145336891174315,2.5311200675964356
1763698905004149800,11.810149658203125,-5.087079977416992,3.309534882354736,1.663670878601074
1763698905014100500,11.8201005859375,-5.063137960815429,3.4196681587219238,1.2147580673217773
1763698905024052700,11.830052734375,-5.678148512268066,3.8124668685913083,1.0206780952453613
1763698905034003700,11.840003662109375,-6.547243714904785,4.30297893371582,0.6795043586730957
1763698905043954700,11.84995458984375,-5.95662409286499,5.343858105468749,-0.4700117134094238
1763698905053906700,11.85990673828125,-7.334038235473632,5.08857635345459,-0.817769504547119
1763698905063857700,11.869857666015625,-6.967575743865966,4.933402158355713,-1.903689595031738
1763698905073808600,11.87980859375,-7.728482958984374,7.034314115142822,-3.9743747558593747
1763698905083760400,11.889760498046876,-7.432948691558837,8.208520391845703,-6.46060354232788
1763698905093711600,11.899711669921874,-6.752097594451904,8.391078268432617,-9.323769452667236
1763698905103662800,11.909662841796875,-6.118681617736816,9.045742784881591,-11.90008007659912
1763698905113614600,11.919614501953125,-6.570437543487548,12.05360825805664,-14.993987171936034
1763698905123565600,11.929565673828124,-7.387159584808349,13.797634529876708,-16.67606347579956
1763698905133516500,11.9395166015625,-7.755717002868652,15.765369019317626,-17.061380305480956
1763698905143468500,11.949468505859375,-8.774449809265136,18.47066725769043,-16.45400127182007
1763698905153419800,11.959419677734376,-8.3119199760437,20.42388689956665,-16.275782885742185
1763698905163370500,11.96937060546875,-6.395660822296143,21.21576909866333,-17.860445109558103
1763698905173322800,11.97932275390625,-2.4211364288330075,20.68650089416504,-21.40640740585327
1763698905183273500,11.9892734375,2.254290500640869,20.667496918487547,-25.701006633758542
1763698905193224700,11.999224609375,6.7006222587585444,20.451270581054686,-28.384158506774902
1763698905203176700,12.0091767578125,11.206210507965087,18.008137424468995,-27.915643169403076
1763698905213127700,12.019127685546875,13.542352777862549,14.078205036926269,-23.884855036926268
1763698905223078700,12.02907861328125,12.427402992248535,10.5843166267395,-17.846828087615965
1763698905233030700,12.03903076171875,9.562890343475342,7.898770552062988,-11.532570121765136
1763698905242981600,12.048981689453125,6.93959351196289,5.449651891326904,-6.383689813995361
1763698905252932600,12.0589326171875,5.181052392578125,3.1735143005371094,-3.1106665069580077
1763698905262884600,12.068884521484375,4.3722611442565915,1.388636962890625,-1.5674538993835447
1763698905272835800,12.0788359375,3.909132760620117,0.4674678741455078,-1.2101193016052245
1763698905282786600,12.08878662109375,3.9739258430480953,-0.239420166015625,-1.3007996894836424
1763698905292738600,12.098738525390624,4.664204109191894,-1.5248071823120117,-1.4999673400878906
1763698905302689500,12.108689453125,5.76508796005249,-3.2516251296997067,-1.686715069580078
1763698905312640800,12.118640869140625,6.726509564208984,-4.976946701049805,-1.5049053810119628
1763698905322592800,12.1285927734375,7.050923889160156,-6.149656601715088,-1.213560966491699
1763698905332543500,12.13854345703125,7.322216864776611,-7.444620424652099,-0.11851298217773437
1763698905342494700,12.14849462890625,8.273762387084961,-8.686462898254394,2.2432173179626465
1763698905352446500,12.158446533203126,8.557475283813476,-8.945934503173827,4.661510632324219
1763698905362397700,12.168397705078124,8.479364454650879,-9.166799606323242,6.841880156707763
1763698905372348700,12.1783486328125,8.488492348480223,-8.834005575561523,8.289474335479737
1763698905382300700,12.18830078125,8.383147475433349,-8.278700428009033,8.64396581878662
1763698905392250600,12.198250732421876,9.10425108795166,-7.959822694396972,8.724021936798096
1763698905402201600,12.20820166015625,9.316586847686766,-6.488286499023437,7.234080316162109
1763698905412153600,12.218153564453125,9.511265370178222,-5.040991595458984,6.3235354972839355
1763698905422104600,12.2281044921875,10.290129097747801,-4.582801252746582,2.9727006362915036
1763698905432055800,12.238055908203124,9.625588499450682,-3.17321502532959,-0.011222820281982421
1763698905442007600,12.248007568359375,8.79824218826294,-1.6967407890319823,-3.131316496276855
1763698905451958800,12.257958740234375,8.05589003601074,0.9002198242187499,-6.550984654998779
1763698905461909500,12.267909423828126,7.868094843292236,3.441814524078369,-9.579350479888916
1763698905471861500,12.277861572265625,8.575731071472168,6.143072547149658,-11.56204872970581
1763698905481812700,12.287812744140625,10.073154572296142,9.236830004882812,-13.036428039550781
1763698905491763700,12.297763671875,9.377190077209471,12.99258422164917,-14.188338313293457
1763698905501715700,12.3077158203125,7.597699693298339,15.818191093444824,-15.063419020080566
1763698905511666400,12.31766650390625,7.277175946044921,19.208979194641113,-18.93514237976074
1763698905521617700,12.32761767578125,7.133673484039306,23.39673717346191,-24.967632737731932
1763698905531569700,12.337569580078124,8.990825784301757,27.132140676116943,-32.31693400878906
1763698905541520600,12.347520751953125,10.53478657989502,28.647670326995847,-36.4387018043518
1763698905551471600,12.3574716796875,11.188253995513916,27.078121501159668,-36.1742921585083
1763698905561423600,12.367423583984374,9.07192936553955,24.87919691390991,-31.3981591217041
1763698905571374600,12.37737451171875,4.8035167182922365,22.891859898376463,-24.025065471649167
1763698905581325600,12.38732568359375,0.9926958633422851,20.469676006317137,-16.257377460479734
1763698905591277600,12.397277587890626,-1.158045415496826,17.99167728805542,-9.875932210540771
1763698905601228800,12.407228759765625,-1.5815198341369627,15.466243449401855,-5.634603969573974
1763698905611179500,12.417179443359375,-1.4896423454284666,12.382810986328124,-2.2794296180725095
1763698905621131800,12.4271318359375,-2.048089882659912,9.124901077270508,1.1444283935546875
1763698905631082500,12.43708251953125,-3.2130186279296873,6.341940922546386,4.451569074249267
1763698905641033700,12.44703369140625,-4.372111506652832,4.173392768859863,7.483825476837158
1763698905650985700,12.45698583984375,-5.435286681365967,2.836081504058838,9.883563728332518
1763698905660936700,12.466936767578124,-6.1194298057556145,1.8593968643188477,11.215936952209471
1763698905670887700,12.4768876953125,-6.143820735168457,0.9077017044067383,11.278635108184814
1763698905680839400,12.48683935546875,-5.046079273986816,0.8339303657531738,9.63980407180786
1763698905690790700,12.496790771484376,-3.463511976623535,1.4080898513793945,7.467365340423584
1763698905700741600,12.50674169921875,-2.31758720703125,1.8730138862609862,5.534496412658691
1763698905710693600,12.516693603515625,-1.9372084182739258,1.8174983352661132,4.257938014984131
1763698905720644600,12.52664453125,-3.0741549316406247,2.016815623474121,3.697844464111328
1763698905730595600,12.536595703125,-5.010764799499511,2.8866590141296387,3.0596400840759275
1763698905740547600,12.546547607421875,-6.303334420776367,3.9845501129150387,1.7949030570983886
1763698905750498600,12.55649853515625,-6.225971779632568,4.939387662506103,0.0522235237121582
1763698905760449500,12.566449462890626,-7.000645654296875,4.7289971916198725,-1.3519757499694824
1763698905770401800,12.57640185546875,-6.161777247619629,7.0658876495361325,-4.04784681930542
1763698905780352500,12.5863525390625,-6.977302188110351,9.591471125793456,-6.2587424148559565
1763698905790303700,12.5963037109375,-5.783643022918701,10.340706607818603,-8.924237050628662
1763698905800254500,12.60625439453125,-5.572953276824951,10.771064356231689,-11.155632997894287
1763698905810206700,12.616206787109375,-5.766285060882568,12.042684712982178,-13.576619789123534
1763698905820157400,12.626157470703125,-6.760327662658691,13.870208767700195,-16.04429351272583
1763698905830108700,12.636108642578124,-7.887547731781005,15.184026928710937,-16.729933013153076
1763698905840060700,12.646060791015625,-8.946084140777588,17.4550768409729,-16.073323207855225
1763698905850011600,12.65601171875,-9.077316319274901,19.97123314819336,-16.0131688911438
1763698905859962600,12.665962646484376,-7.088034014892577,21.532551905822753,-18.231247091674803
1763698905869914600,12.67591455078125,-3.7024832298278807,21.794866625213622,-22.898443952941893
1763698905879865600,12.685865478515625,0.7881412590026855,20.817134522247315,-27.604546591186523
1763698905889816600,12.695816650390626,5.325602317810058,20.32078659057617,-30.783148570251463
1763698905899768600,12.7057685546875,9.324667278289795,18.60593965148926,-30.859314110565183
1763698905909719800,12.7157197265625,12.235268309020995,15.343540614318847,-27.63222954788208
1763698905919670500,12.72567041015625,12.873023776245116,12.288838571166991,-22.647651329040524
1763698905929622500,12.73562255859375,11.729942121124267,9.598504093170165,-16.934637255096433
1763698905939573500,12.745573486328125,9.870994169616699,7.564480145263672,-11.419294455718994
1763698905949524700,12.755524658203125,8.334215979003906,5.54811343460083,-6.9044286750793455
1763698905959476700,12.765476806640624,7.051372801971435,3.2845454025268555,-4.101716356658935
1763698905969427700,12.775427734375,5.661389100646972,1.3865420364379881,-2.257881803131103
1763698905979378700,12.785378662109375,4.447528858947754,-0.028880057525634766,-0.8246528343200683
